"rt","stimulus","response","trial_type","trial_index","time_elapsed","internal_node_id","swb_1","swb_2","swb_3","swb_4","swb_5","LOT_1","LOT_2","LOT_3","LOT_4","LOT_5","LOT_6","IPC_1","IPC_2","IPC_3","IPC_4","IPC_5","IPC_6","IPC_7","IPC_8","MorIden_1","MorIden_2","MorIden_3","MorIden_4","MorIden_5","MorIden_6","MorIden_7","MorIden_8","MorIden_9","MorIden_10","moralSeImag_1","moralSeImag_2","moralSeImag_3","moralSeImag_4","moralSeImag_5","moralSeImag_6","moralSeImag_7","moralSeImag_8","moralSeImag_9","sde_1","sde_2","sde_3","sde_4","sde_5","sde_6","sde_7","sde_8","sde_9","sde_10","trap2","sde_11","sde_12","sde_13","sde_14","sde_15","sde_16","sde_17","sde_18","sde_19","sde_20","IM_1","IM_2","IM_3","IM_4","IM_5","IM_6","IM_7","IM_8","IM_9","IM_10","IM_11","IM_12","IM_13","IM_14","IM_15","IM_16","IM_17","IM_18","IM_19","IM_20","subj_idx","friend_name","ParticipantID","Sex","Word","Word2","value","success","timeout","failed_images","failed_audio","failed_video","user_agent","responses","item_order","radio_event_ids","radio_event_times","key_event_times","mouse_event_times","straightlining","zigzagging","honeypot","view_history","response_type","key_press","avg_frame_time","center_x","center_y","correct_response","correct","identity","Image","word","condition","task_id","screen_id","time_stamp","person","valence","domain","math","status","duration","question_order","trap2_item"
"4545","
   <p><div style='color:white; font-size: 25px'>您好，欢迎参加本次实验。</div></p>
   <p><div style='color:white; font-size: 25px'>为充分保障您的权利，请确保您已经知晓并同意《参与实验同意书》以及《数据公开知情同意书》。</div></p>
   <p><div style='color:white; font-size: 25px'>如果您未见过上述内容，请咨询实验员。</div></p>
   <p style='color:white; font-size: 25px'>如果您选择继续实验，则表示您已经清楚两份知情同意书的内容并同意。</p>
   <p><div style = ""color: pink;font-size:30px;"">请确保您记得day0的实验编号，您将在本次实验输入该编号，若您忘记，请咨询实验员后作答。</div></p>
   <p><div style = ""color:lightblue;font-size:25px;"">请您尽可能认真地作答，我们将依据您在各问卷和按键任务中的作答质量发放报酬。</div></p>
   <p> <div style = ""color: green""><按空格键至下页></div> </p>
   "," ","html-keyboard-response","0","4550","0.0-0.0","3","3","5","2","2","4","2","3","3","4","4","1","-1","-1","2","0","0","0","1","4","2","5","2","2","2","5","2","2","5","7","8","3","7","8","2","7","3","8","5","2","2","4","5","3","6","3","3","3","1","5","2","4","2","2","3","5","2","5","2","2","2","6","5","3","6","3","6","3","7","3","5","7","3","2","3","2","7","4","5","798267707752587265","杨","67","Male","[""坏他"",""好我"",""好他"",""坏我""]","[""弱他"",""强我"",""强他"",""弱我""]","","","","","","","","","","","","","","","","","","","","","","","","","","","","","","","","","","","","","","",""
"","","","call-function","1","4551","0.0-1.0-0.0","3","3","5","2","2","4","2","3","3","4","4","1","-1","-1","2","0","0","0","1","4","2","5","2","2","2","5","2","2","5","7","8","3","7","8","2","7","3","8","5","2","2","4","5","3","6","3","3","3","1","5","2","4","2","2","3","5","2","5","2","2","2","6","5","3","6","3","6","3","7","3","5","7","3","2","3","2","7","4","5","798267707752587265","杨","67","Male","[""坏他"",""好我"",""好他"",""坏我""]","[""弱他"",""强我"",""强他"",""弱我""]","","","","","","","","","","","","","","","","","","","","","","","","","","","","","","","","","","","","","","",""
"15332","","[{""name"":""Sex"",""value"":""0""},{""name"":""friend_name"",""value"":""杨""},{""name"":""ParticipantID"",""value"":""67""}]","survey-html-form","2","19883","0.0-1.0-1.0","3","3","5","2","2","4","2","3","3","4","4","1","-1","-1","2","0","0","0","1","4","2","5","2","2","2","5","2","2","5","7","8","3","7","8","2","7","3","8","5","2","2","4","5","3","6","3","3","3","1","5","2","4","2","2","3","5","2","5","2","2","2","6","5","3","6","3","6","3","7","3","5","7","3","2","3","2","7","4","5","798267707752587265","杨","67","Male","[""坏他"",""好我"",""好他"",""坏我""]","[""弱他"",""强我"",""强他"",""弱我""]","","","","","","","","","","","","","","","","","","","","","","","","","","","","","","","","","","","","","","",""
"","","","preload","3","20292","0.0-2.0","3","3","5","2","2","4","2","3","3","4","4","1","-1","-1","2","0","0","0","1","4","2","5","2","2","2","5","2","2","5","7","8","3","7","8","2","7","3","8","5","2","2","4","5","3","6","3","3","3","1","5","2","4","2","2","3","5","2","5","2","2","2","6","5","3","6","3","6","3","7","3","5","7","3","2","3","2","7","4","5","798267707752587265","杨","67","Male","[""坏他"",""好我"",""好他"",""坏我""]","[""弱他"",""强我"",""强他"",""弱我""]","","true","false","[]","[]","[]","","","","","","","","","","","","","","","","","","","","","","","","","","","","","","","","",""
"","","","fullscreen","4","24635","0.0-3.0","3","3","5","2","2","4","2","3","3","4","4","1","-1","-1","2","0","0","0","1","4","2","5","2","2","2","5","2","2","5","7","8","3","7","8","2","7","3","8","5","2","2","4","5","3","6","3","3","3","1","5","2","4","2","2","3","5","2","5","2","2","2","6","5","3","6","3","6","3","7","3","5","7","3","2","3","2","7","4","5","798267707752587265","杨","67","Male","[""坏他"",""好我"",""好他"",""坏我""]","[""弱他"",""强我"",""强他"",""弱我""]","","true","","","","","{}","","","","","","","","","","","","","","","","","","","","","","","","","","","","","","","",""
"19931.800000000745","","{""Q01"":""3"",""Q02"":""3"",""Q03"":""5"",""Q04"":""2"",""Q05"":""2""}","survey-template","5","44572","0.0-4.0","3","3","5","2","2","4","2","3","3","4","4","1","-1","-1","2","0","0","0","1","4","2","5","2","2","2","5","2","2","5","7","8","3","7","8","2","7","3","8","5","2","2","4","5","3","6","3","3","3","1","5","2","4","2","2","3","5","2","5","2","2","2","6","5","3","6","3","6","3","7","3","5","7","3","2","3","2","7","4","5","798267707752587265","杨","67","Male","[""坏他"",""好我"",""好他"",""坏我""]","[""弱他"",""强我"",""强他"",""弱我""]","","","","","","","","{""Q01"":""3"",""Q02"":""3"",""Q03"":""5"",""Q04"":""2"",""Q05"":""2""}","[0,1,2,3,4]","[""Q01"",""Q02"",""Q03"",""Q04"",""Q05""]","[6162.099999997765,7032.300000000745,10545.89999999851,15872.39999999851,18909.89999999851]","[]","[5248.099999997765,6162.099999997765,7032.300000000745,10545.89999999851,15368.099999997765,15872.39999999851,18909.89999999851,19930.800000000745]","0.4","0","0","","","","","","","","","","","","","","","","","","","","","","",""
"18844.300000000745","","{""Q01"":""4"",""Q02"":""2"",""Q03"":""3"",""Q04"":""3"",""Q05"":""4"",""Q06"":""4""}","survey-template","6","63421","0.0-5.0","3","3","5","2","2","4","2","3","3","4","4","1","-1","-1","2","0","0","0","1","4","2","5","2","2","2","5","2","2","5","7","8","3","7","8","2","7","3","8","5","2","2","4","5","3","6","3","3","3","1","5","2","4","2","2","3","5","2","5","2","2","2","6","5","3","6","3","6","3","7","3","5","7","3","2","3","2","7","4","5","798267707752587265","杨","67","Male","[""坏他"",""好我"",""好他"",""坏我""]","[""弱他"",""强我"",""强他"",""弱我""]","","","","","","","","{""Q01"":""4"",""Q02"":""2"",""Q03"":""3"",""Q04"":""3"",""Q05"":""4"",""Q06"":""4""}","[0,1,2,3,4,5]","[""Q01"",""Q02"",""Q03"",""Q04"",""Q05"",""Q06""]","[5067,6364.900000002235,10297.199999999255,14469.10000000149,15587.10000000149,17907.5]","[]","[3785.699999999255,5067,6364.900000002235,10297.199999999255,14469.10000000149,15587.10000000149,17907.5,18843.400000002235]","0.5","0.4","0","","","","","","","","","","","","","","","","","","","","","","",""
"29371.5","","{""Q01"":""1"",""Q02"":""-1"",""Q03"":""-1"",""Q04"":""2"",""Q05"":""0"",""Q06"":""0"",""Q07"":""0"",""Q08"":""1""}","survey-template","7","92797","0.0-6.0","3","3","5","2","2","4","2","3","3","4","4","1","-1","-1","2","0","0","0","1","4","2","5","2","2","2","5","2","2","5","7","8","3","7","8","2","7","3","8","5","2","2","4","5","3","6","3","3","3","1","5","2","4","2","2","3","5","2","5","2","2","2","6","5","3","6","3","6","3","7","3","5","7","3","2","3","2","7","4","5","798267707752587265","杨","67","Male","[""坏他"",""好我"",""好他"",""坏我""]","[""弱他"",""强我"",""强他"",""弱我""]","","","","","","","","{""Q01"":""1"",""Q02"":""-1"",""Q03"":""-1"",""Q04"":""2"",""Q05"":""0"",""Q06"":""0"",""Q07"":""0"",""Q08"":""1""}","[0,1,2,3,4,5,6,7]","[""Q01"",""Q02"",""Q03"",""Q04"",""Q05"",""Q06"",""Q07"",""Q08""]","[5046.800000000745,9484.60000000149,14060.5,17728.800000000745,20596.900000002235,22530.800000000745,27102.60000000149,28878.800000000745]","[]","[5046.800000000745,9484.60000000149,14060.5,17728.800000000745,20596.900000002235,22530.800000000745,27102.60000000149,28878.800000000745,29370.400000002235]","0.375","0.14285714285714285","0","","","","","","","","","","","","","","","","","","","","","","",""
"12053","","","instructions","8","104852","0.0-7.0","3","3","5","2","2","4","2","3","3","4","4","1","-1","-1","2","0","0","0","1","4","2","5","2","2","2","5","2","2","5","7","8","3","7","8","2","7","3","8","5","2","2","4","5","3","6","3","3","3","1","5","2","4","2","2","3","5","2","5","2","2","2","6","5","3","6","3","6","3","7","3","5","7","3","2","3","2","7","4","5","798267707752587265","杨","67","Male","[""坏他"",""好我"",""好他"",""坏我""]","[""弱他"",""强我"",""强他"",""弱我""]","","","","","","","","","","","","","","","","","[{""page_index"":0,""viewing_time"":12052}]","","","","","","","","","","","","","","","","","","","","","",""
"51429","","","instructions","9","156283","0.0-8.0-1.0-0.0","3","3","5","2","2","4","2","3","3","4","4","1","-1","-1","2","0","0","0","1","4","2","5","2","2","2","5","2","2","5","7","8","3","7","8","2","7","3","8","5","2","2","4","5","3","6","3","3","3","1","5","2","4","2","2","3","5","2","5","2","2","2","6","5","3","6","3","6","3","7","3","5","7","3","2","3","2","7","4","5","798267707752587265","杨","67","Male","[""坏他"",""好我"",""好他"",""坏我""]","[""弱他"",""强我"",""强他"",""弱我""]","","","","","","","","","","","","","","","","","[{""page_index"":0,""viewing_time"":10216},{""page_index"":1,""viewing_time"":30795},{""page_index"":2,""viewing_time"":8274},{""page_index"":3,""viewing_time"":2144}]","","","","","","","","","","","","","","","","","","","","","",""
"864","","j","psychophysics","10","158152","0.0-8.0-1.0-1.0-0.0-0.0","3","3","5","2","2","4","2","3","3","4","4","1","-1","-1","2","0","0","0","1","4","2","5","2","2","2","5","2","2","5","7","8","3","7","8","2","7","3","8","5","2","2","4","5","3","6","3","3","3","1","5","2","4","2","2","3","5","2","5","2","2","2","6","5","3","6","3","6","3","7","3","5","7","3","2","3","2","7","4","5","798267707752587265","杨","67","Male","[""坏他"",""好我"",""好他"",""坏我""]","[""弱他"",""强我"",""强他"",""弱我""]","","","","","","","","match","","","","","","","","","","key","j","16.663063063062854","640","356","f","false","nonmatch","img/trapezoid.png","强我","弱我","prac_ALT2_ability","practice_ability","","","","","","","","",""
"null","<span style='color:red; font-size: 70px;'>错误! </span>","null","html-keyboard-response","11","158654","0.0-8.0-1.0-1.0-0.0-1.0","3","3","5","2","2","4","2","3","3","4","4","1","-1","-1","2","0","0","0","1","4","2","5","2","2","2","5","2","2","5","7","8","3","7","8","2","7","3","8","5","2","2","4","5","3","6","3","3","3","1","5","2","4","2","2","3","5","2","5","2","2","2","6","5","3","6","3","6","3","7","3","5","7","3","2","3","2","7","4","5","798267707752587265","杨","67","Male","[""坏他"",""好我"",""好他"",""坏我""]","[""弱他"",""强我"",""强他"",""弱我""]","","","","","","","","","","","","","","","","","","","","","","","","","","","","","","feedback_test","","","","","","","","",""
"null","","null","psychophysics","12","160856","0.0-8.0-1.0-1.0-0.0-0.1","3","3","5","2","2","4","2","3","3","4","4","1","-1","-1","2","0","0","0","1","4","2","5","2","2","2","5","2","2","5","7","8","3","7","8","2","7","3","8","5","2","2","4","5","3","6","3","3","3","1","5","2","4","2","2","3","5","2","5","2","2","2","6","5","3","6","3","6","3","7","3","5","7","3","2","3","2","7","4","5","798267707752587265","杨","67","Male","[""坏他"",""好我"",""好他"",""坏我""]","[""弱他"",""强我"",""强他"",""弱我""]","","","","","","","","null","","","","","","","","","","key","null","16.66335877862591","640","356","f","false","nonmatch","img/triangle.png","弱他","强他","prac_ALT2_ability","practice_ability","","","","","","","","",""
"null","<span class='add_' style='color:yellow; font-size: 70px;'> 太慢! </span>","null","html-keyboard-response","13","161358","0.0-8.0-1.0-1.0-0.0-1.1","3","3","5","2","2","4","2","3","3","4","4","1","-1","-1","2","0","0","0","1","4","2","5","2","2","2","5","2","2","5","7","8","3","7","8","2","7","3","8","5","2","2","4","5","3","6","3","3","3","1","5","2","4","2","2","3","5","2","5","2","2","2","6","5","3","6","3","6","3","7","3","5","7","3","2","3","2","7","4","5","798267707752587265","杨","67","Male","[""坏他"",""好我"",""好他"",""坏我""]","[""弱他"",""强我"",""强他"",""弱我""]","","","","","","","","","","","","","","","","","","","","","","","","","","","","","","feedback_test","","","","","","","","",""
"313","","f","psychophysics","14","162672","0.0-8.0-1.0-1.0-0.0-0.2","3","3","5","2","2","4","2","3","3","4","4","1","-1","-1","2","0","0","0","1","4","2","5","2","2","2","5","2","2","5","7","8","3","7","8","2","7","3","8","5","2","2","4","5","3","6","3","3","3","1","5","2","4","2","2","3","5","2","5","2","2","2","6","5","3","6","3","6","3","7","3","5","7","3","2","3","2","7","4","5","798267707752587265","杨","67","Male","[""坏他"",""好我"",""好他"",""坏我""]","[""弱他"",""强我"",""强他"",""弱我""]","","","","","","","","nonmatch","","","","","","","","","","key","f","16.657142857142933","640","356","j","false","match","img/triangle.png","强他","强他","prac_ALT2_ability","practice_ability","","","","","","","","",""
"null","<span style='color:red; font-size: 70px;'>错误! </span>","null","html-keyboard-response","15","163173","0.0-8.0-1.0-1.0-0.0-1.2","3","3","5","2","2","4","2","3","3","4","4","1","-1","-1","2","0","0","0","1","4","2","5","2","2","2","5","2","2","5","7","8","3","7","8","2","7","3","8","5","2","2","4","5","3","6","3","3","3","1","5","2","4","2","2","3","5","2","5","2","2","2","6","5","3","6","3","6","3","7","3","5","7","3","2","3","2","7","4","5","798267707752587265","杨","67","Male","[""坏他"",""好我"",""好他"",""坏我""]","[""弱他"",""强我"",""强他"",""弱我""]","","","","","","","","","","","","","","","","","","","","","","","","","","","","","","feedback_test","","","","","","","","",""
"121","","j","psychophysics","16","164296","0.0-8.0-1.0-1.0-0.0-0.3","3","3","5","2","2","4","2","3","3","4","4","1","-1","-1","2","0","0","0","1","4","2","5","2","2","2","5","2","2","5","7","8","3","7","8","2","7","3","8","5","2","2","4","5","3","6","3","3","3","1","5","2","4","2","2","3","5","2","5","2","2","2","6","5","3","6","3","6","3","7","3","5","7","3","2","3","2","7","4","5","798267707752587265","杨","67","Male","[""坏他"",""好我"",""好他"",""坏我""]","[""弱他"",""强我"",""强他"",""弱我""]","","","","","","","","match","","","","","","","","","","key","j","16.660000000000018","640","356","j","true","match","img/circle.png","强我","强我","prac_ALT2_ability","practice_ability","","","","","","","","",""
"null","<span style='color:yellow; font-size: 70px;'>过快! </span>","null","html-keyboard-response","17","164797","0.0-8.0-1.0-1.0-0.0-1.3","3","3","5","2","2","4","2","3","3","4","4","1","-1","-1","2","0","0","0","1","4","2","5","2","2","2","5","2","2","5","7","8","3","7","8","2","7","3","8","5","2","2","4","5","3","6","3","3","3","1","5","2","4","2","2","3","5","2","5","2","2","2","6","5","3","6","3","6","3","7","3","5","7","3","2","3","2","7","4","5","798267707752587265","杨","67","Male","[""坏他"",""好我"",""好他"",""坏我""]","[""弱他"",""强我"",""强他"",""弱我""]","","","","","","","","","","","","","","","","","","","","","","","","","","","","","","feedback_test","","","","","","","","",""
"425","","j","psychophysics","18","166223","0.0-8.0-1.0-1.0-0.0-0.4","3","3","5","2","2","4","2","3","3","4","4","1","-1","-1","2","0","0","0","1","4","2","5","2","2","2","5","2","2","5","7","8","3","7","8","2","7","3","8","5","2","2","4","5","3","6","3","3","3","1","5","2","4","2","2","3","5","2","5","2","2","2","6","5","3","6","3","6","3","7","3","5","7","3","2","3","2","7","4","5","798267707752587265","杨","67","Male","[""坏他"",""好我"",""好他"",""坏我""]","[""弱他"",""强我"",""强他"",""弱我""]","","","","","","","","match","","","","","","","","","","key","j","16.663095238095032","640","356","j","true","match","img/hexagon.png","弱他","弱他","prac_ALT2_ability","practice_ability","","","","","","","","",""
"null","<span style='color:GreenYellow; font-size: 70px;'>正确! </span>","null","html-keyboard-response","19","166724","0.0-8.0-1.0-1.0-0.0-1.4","3","3","5","2","2","4","2","3","3","4","4","1","-1","-1","2","0","0","0","1","4","2","5","2","2","2","5","2","2","5","7","8","3","7","8","2","7","3","8","5","2","2","4","5","3","6","3","3","3","1","5","2","4","2","2","3","5","2","5","2","2","2","6","5","3","6","3","6","3","7","3","5","7","3","2","3","2","7","4","5","798267707752587265","杨","67","Male","[""坏他"",""好我"",""好他"",""坏我""]","[""弱他"",""强我"",""强他"",""弱我""]","","","","","","","","","","","","","","","","","","","","","","","","","","","","","","feedback_test","","","","","","","","",""
"684","","f","psychophysics","20","168409","0.0-8.0-1.0-1.0-0.0-0.5","3","3","5","2","2","4","2","3","3","4","4","1","-1","-1","2","0","0","0","1","4","2","5","2","2","2","5","2","2","5","7","8","3","7","8","2","7","3","8","5","2","2","4","5","3","6","3","3","3","1","5","2","4","2","2","3","5","2","5","2","2","2","6","5","3","6","3","6","3","7","3","5","7","3","2","3","2","7","4","5","798267707752587265","杨","67","Male","[""坏他"",""好我"",""好他"",""坏我""]","[""弱他"",""强我"",""强他"",""弱我""]","","","","","","","","nonmatch","","","","","","","","","","key","f","16.662999999999883","640","356","j","false","match","img/triangle.png","强他","强他","prac_ALT2_ability","practice_ability","","","","","","","","",""
"null","<span style='color:red; font-size: 70px;'>错误! </span>","null","html-keyboard-response","21","168921","0.0-8.0-1.0-1.0-0.0-1.5","3","3","5","2","2","4","2","3","3","4","4","1","-1","-1","2","0","0","0","1","4","2","5","2","2","2","5","2","2","5","7","8","3","7","8","2","7","3","8","5","2","2","4","5","3","6","3","3","3","1","5","2","4","2","2","3","5","2","5","2","2","2","6","5","3","6","3","6","3","7","3","5","7","3","2","3","2","7","4","5","798267707752587265","杨","67","Male","[""坏他"",""好我"",""好他"",""坏我""]","[""弱他"",""强我"",""强他"",""弱我""]","","","","","","","","","","","","","","","","","","","","","","","","","","","","","","feedback_test","","","","","","","","",""
"679","","j","psychophysics","22","170602","0.0-8.0-1.0-1.0-0.0-0.6","3","3","5","2","2","4","2","3","3","4","4","1","-1","-1","2","0","0","0","1","4","2","5","2","2","2","5","2","2","5","7","8","3","7","8","2","7","3","8","5","2","2","4","5","3","6","3","3","3","1","5","2","4","2","2","3","5","2","5","2","2","2","6","5","3","6","3","6","3","7","3","5","7","3","2","3","2","7","4","5","798267707752587265","杨","67","Male","[""坏他"",""好我"",""好他"",""坏我""]","[""弱他"",""强我"",""强他"",""弱我""]","","","","","","","","match","","","","","","","","","","key","j","16.662000000000116","640","356","j","true","match","img/trapezoid.png","弱我","弱我","prac_ALT2_ability","practice_ability","","","","","","","","",""
"null","<span style='color:GreenYellow; font-size: 70px;'>正确! </span>","null","html-keyboard-response","23","171103","0.0-8.0-1.0-1.0-0.0-1.6","3","3","5","2","2","4","2","3","3","4","4","1","-1","-1","2","0","0","0","1","4","2","5","2","2","2","5","2","2","5","7","8","3","7","8","2","7","3","8","5","2","2","4","5","3","6","3","3","3","1","5","2","4","2","2","3","5","2","5","2","2","2","6","5","3","6","3","6","3","7","3","5","7","3","2","3","2","7","4","5","798267707752587265","杨","67","Male","[""坏他"",""好我"",""好他"",""坏我""]","[""弱他"",""强我"",""强他"",""弱我""]","","","","","","","","","","","","","","","","","","","","","","","","","","","","","","feedback_test","","","","","","","","",""
"811","","f","psychophysics","24","172916","0.0-8.0-1.0-1.0-0.0-0.7","3","3","5","2","2","4","2","3","3","4","4","1","-1","-1","2","0","0","0","1","4","2","5","2","2","2","5","2","2","5","7","8","3","7","8","2","7","3","8","5","2","2","4","5","3","6","3","3","3","1","5","2","4","2","2","3","5","2","5","2","2","2","6","5","3","6","3","6","3","7","3","5","7","3","2","3","2","7","4","5","798267707752587265","杨","67","Male","[""坏他"",""好我"",""好他"",""坏我""]","[""弱他"",""强我"",""强他"",""弱我""]","","","","","","","","nonmatch","","","","","","","","","","key","f","16.662962962963018","640","356","f","true","nonmatch","img/hexagon.png","弱我","弱他","prac_ALT2_ability","practice_ability","","","","","","","","",""
"null","<span style='color:GreenYellow; font-size: 70px;'>正确! </span>","null","html-keyboard-response","25","173427","0.0-8.0-1.0-1.0-0.0-1.7","3","3","5","2","2","4","2","3","3","4","4","1","-1","-1","2","0","0","0","1","4","2","5","2","2","2","5","2","2","5","7","8","3","7","8","2","7","3","8","5","2","2","4","5","3","6","3","3","3","1","5","2","4","2","2","3","5","2","5","2","2","2","6","5","3","6","3","6","3","7","3","5","7","3","2","3","2","7","4","5","798267707752587265","杨","67","Male","[""坏他"",""好我"",""好他"",""坏我""]","[""弱他"",""强我"",""强他"",""弱我""]","","","","","","","","","","","","","","","","","","","","","","","","","","","","","","feedback_test","","","","","","","","",""
"1060","","j","psychophysics","26","175488","0.0-8.0-1.0-1.0-0.0-0.8","3","3","5","2","2","4","2","3","3","4","4","1","-1","-1","2","0","0","0","1","4","2","5","2","2","2","5","2","2","5","7","8","3","7","8","2","7","3","8","5","2","2","4","5","3","6","3","3","3","1","5","2","4","2","2","3","5","2","5","2","2","2","6","5","3","6","3","6","3","7","3","5","7","3","2","3","2","7","4","5","798267707752587265","杨","67","Male","[""坏他"",""好我"",""好他"",""坏我""]","[""弱他"",""强我"",""强他"",""弱我""]","","","","","","","","match","","","","","","","","","","key","j","16.663114754098313","640","356","f","false","nonmatch","img/circle.png","弱我","强我","prac_ALT2_ability","practice_ability","","","","","","","","",""
"null","<span style='color:red; font-size: 70px;'>错误! </span>","null","html-keyboard-response","27","175989","0.0-8.0-1.0-1.0-0.0-1.8","3","3","5","2","2","4","2","3","3","4","4","1","-1","-1","2","0","0","0","1","4","2","5","2","2","2","5","2","2","5","7","8","3","7","8","2","7","3","8","5","2","2","4","5","3","6","3","3","3","1","5","2","4","2","2","3","5","2","5","2","2","2","6","5","3","6","3","6","3","7","3","5","7","3","2","3","2","7","4","5","798267707752587265","杨","67","Male","[""坏他"",""好我"",""好他"",""坏我""]","[""弱他"",""强我"",""强他"",""弱我""]","","","","","","","","","","","","","","","","","","","","","","","","","","","","","","feedback_test","","","","","","","","",""
"641","","j","psychophysics","28","177631","0.0-8.0-1.0-1.0-0.0-0.9","3","3","5","2","2","4","2","3","3","4","4","1","-1","-1","2","0","0","0","1","4","2","5","2","2","2","5","2","2","5","7","8","3","7","8","2","7","3","8","5","2","2","4","5","3","6","3","3","3","1","5","2","4","2","2","3","5","2","5","2","2","2","6","5","3","6","3","6","3","7","3","5","7","3","2","3","2","7","4","5","798267707752587265","杨","67","Male","[""坏他"",""好我"",""好他"",""坏我""]","[""弱他"",""强我"",""强他"",""弱我""]","","","","","","","","match","","","","","","","","","","key","j","16.662886597938325","640","356","j","true","match","img/trapezoid.png","弱我","弱我","prac_ALT2_ability","practice_ability","","","","","","","","",""
"null","<span style='color:GreenYellow; font-size: 70px;'>正确! </span>","null","html-keyboard-response","29","178137","0.0-8.0-1.0-1.0-0.0-1.9","3","3","5","2","2","4","2","3","3","4","4","1","-1","-1","2","0","0","0","1","4","2","5","2","2","2","5","2","2","5","7","8","3","7","8","2","7","3","8","5","2","2","4","5","3","6","3","3","3","1","5","2","4","2","2","3","5","2","5","2","2","2","6","5","3","6","3","6","3","7","3","5","7","3","2","3","2","7","4","5","798267707752587265","杨","67","Male","[""坏他"",""好我"",""好他"",""坏我""]","[""弱他"",""强我"",""强他"",""弱我""]","","","","","","","","","","","","","","","","","","","","","","","","","","","","","","feedback_test","","","","","","","","",""
"834","","j","psychophysics","30","179973","0.0-8.0-1.0-1.0-0.0-0.10","3","3","5","2","2","4","2","3","3","4","4","1","-1","-1","2","0","0","0","1","4","2","5","2","2","2","5","2","2","5","7","8","3","7","8","2","7","3","8","5","2","2","4","5","3","6","3","3","3","1","5","2","4","2","2","3","5","2","5","2","2","2","6","5","3","6","3","6","3","7","3","5","7","3","2","3","2","7","4","5","798267707752587265","杨","67","Male","[""坏他"",""好我"",""好他"",""坏我""]","[""弱他"",""强我"",""强他"",""弱我""]","","","","","","","","match","","","","","","","","","","key","j","16.655963302752294","640","356","f","false","nonmatch","img/hexagon.png","强他","弱他","prac_ALT2_ability","practice_ability","","","","","","","","",""
"null","<span style='color:red; font-size: 70px;'>错误! </span>","null","html-keyboard-response","31","180473","0.0-8.0-1.0-1.0-0.0-1.10","3","3","5","2","2","4","2","3","3","4","4","1","-1","-1","2","0","0","0","1","4","2","5","2","2","2","5","2","2","5","7","8","3","7","8","2","7","3","8","5","2","2","4","5","3","6","3","3","3","1","5","2","4","2","2","3","5","2","5","2","2","2","6","5","3","6","3","6","3","7","3","5","7","3","2","3","2","7","4","5","798267707752587265","杨","67","Male","[""坏他"",""好我"",""好他"",""坏我""]","[""弱他"",""强我"",""强他"",""弱我""]","","","","","","","","","","","","","","","","","","","","","","","","","","","","","","feedback_test","","","","","","","","",""
"694","","j","psychophysics","32","182169","0.0-8.0-1.0-1.0-0.0-0.11","3","3","5","2","2","4","2","3","3","4","4","1","-1","-1","2","0","0","0","1","4","2","5","2","2","2","5","2","2","5","7","8","3","7","8","2","7","3","8","5","2","2","4","5","3","6","3","3","3","1","5","2","4","2","2","3","5","2","5","2","2","2","6","5","3","6","3","6","3","7","3","5","7","3","2","3","2","7","4","5","798267707752587265","杨","67","Male","[""坏他"",""好我"",""好他"",""坏我""]","[""弱他"",""强我"",""强他"",""弱我""]","","","","","","","","match","","","","","","","","","","key","j","16.662999999999883","640","356","j","true","match","img/circle.png","强我","强我","prac_ALT2_ability","practice_ability","","","","","","","","",""
"null","<span style='color:GreenYellow; font-size: 70px;'>正确! </span>","null","html-keyboard-response","33","182671","0.0-8.0-1.0-1.0-0.0-1.11","3","3","5","2","2","4","2","3","3","4","4","1","-1","-1","2","0","0","0","1","4","2","5","2","2","2","5","2","2","5","7","8","3","7","8","2","7","3","8","5","2","2","4","5","3","6","3","3","3","1","5","2","4","2","2","3","5","2","5","2","2","2","6","5","3","6","3","6","3","7","3","5","7","3","2","3","2","7","4","5","798267707752587265","杨","67","Male","[""坏他"",""好我"",""好他"",""坏我""]","[""弱他"",""强我"",""强他"",""弱我""]","","","","","","","","","","","","","","","","","","","","","","","","","","","","","","feedback_test","","","","","","","","",""
"733","","j","psychophysics","34","184405","0.0-8.0-1.0-1.0-0.0-0.12","3","3","5","2","2","4","2","3","3","4","4","1","-1","-1","2","0","0","0","1","4","2","5","2","2","2","5","2","2","5","7","8","3","7","8","2","7","3","8","5","2","2","4","5","3","6","3","3","3","1","5","2","4","2","2","3","5","2","5","2","2","2","6","5","3","6","3","6","3","7","3","5","7","3","2","3","2","7","4","5","798267707752587265","杨","67","Male","[""坏他"",""好我"",""好他"",""坏我""]","[""弱他"",""强我"",""强他"",""弱我""]","","","","","","","","match","","","","","","","","","","key","j","16.66310679611639","640","356","j","true","match","img/trapezoid.png","弱我","弱我","prac_ALT2_ability","practice_ability","","","","","","","","",""
"null","<span style='color:GreenYellow; font-size: 70px;'>正确! </span>","null","html-keyboard-response","35","184907","0.0-8.0-1.0-1.0-0.0-1.12","3","3","5","2","2","4","2","3","3","4","4","1","-1","-1","2","0","0","0","1","4","2","5","2","2","2","5","2","2","5","7","8","3","7","8","2","7","3","8","5","2","2","4","5","3","6","3","3","3","1","5","2","4","2","2","3","5","2","5","2","2","2","6","5","3","6","3","6","3","7","3","5","7","3","2","3","2","7","4","5","798267707752587265","杨","67","Male","[""坏他"",""好我"",""好他"",""坏我""]","[""弱他"",""强我"",""强他"",""弱我""]","","","","","","","","","","","","","","","","","","","","","","","","","","","","","","feedback_test","","","","","","","","",""
"824","","f","psychophysics","36","186733","0.0-8.0-1.0-1.0-0.0-0.13","3","3","5","2","2","4","2","3","3","4","4","1","-1","-1","2","0","0","0","1","4","2","5","2","2","2","5","2","2","5","7","8","3","7","8","2","7","3","8","5","2","2","4","5","3","6","3","3","3","1","5","2","4","2","2","3","5","2","5","2","2","2","6","5","3","6","3","6","3","7","3","5","7","3","2","3","2","7","4","5","798267707752587265","杨","67","Male","[""坏他"",""好我"",""好他"",""坏我""]","[""弱他"",""强我"",""强他"",""弱我""]","","","","","","","","nonmatch","","","","","","","","","","key","f","16.662962962963018","640","356","f","true","nonmatch","img/triangle.png","强我","强他","prac_ALT2_ability","practice_ability","","","","","","","","",""
"null","<span style='color:GreenYellow; font-size: 70px;'>正确! </span>","null","html-keyboard-response","37","187234","0.0-8.0-1.0-1.0-0.0-1.13","3","3","5","2","2","4","2","3","3","4","4","1","-1","-1","2","0","0","0","1","4","2","5","2","2","2","5","2","2","5","7","8","3","7","8","2","7","3","8","5","2","2","4","5","3","6","3","3","3","1","5","2","4","2","2","3","5","2","5","2","2","2","6","5","3","6","3","6","3","7","3","5","7","3","2","3","2","7","4","5","798267707752587265","杨","67","Male","[""坏他"",""好我"",""好他"",""坏我""]","[""弱他"",""强我"",""强他"",""弱我""]","","","","","","","","","","","","","","","","","","","","","","","","","","","","","","feedback_test","","","","","","","","",""
"764","","f","psychophysics","38","188999","0.0-8.0-1.0-1.0-0.0-0.14","3","3","5","2","2","4","2","3","3","4","4","1","-1","-1","2","0","0","0","1","4","2","5","2","2","2","5","2","2","5","7","8","3","7","8","2","7","3","8","5","2","2","4","5","3","6","3","3","3","1","5","2","4","2","2","3","5","2","5","2","2","2","6","5","3","6","3","6","3","7","3","5","7","3","2","3","2","7","4","5","798267707752587265","杨","67","Male","[""坏他"",""好我"",""好他"",""坏我""]","[""弱他"",""强我"",""强他"",""弱我""]","","","","","","","","nonmatch","","","","","","","","","","key","f","16.6628571428572","640","356","j","false","match","img/hexagon.png","弱他","弱他","prac_ALT2_ability","practice_ability","","","","","","","","",""
"null","<span style='color:red; font-size: 70px;'>错误! </span>","null","html-keyboard-response","39","189500","0.0-8.0-1.0-1.0-0.0-1.14","3","3","5","2","2","4","2","3","3","4","4","1","-1","-1","2","0","0","0","1","4","2","5","2","2","2","5","2","2","5","7","8","3","7","8","2","7","3","8","5","2","2","4","5","3","6","3","3","3","1","5","2","4","2","2","3","5","2","5","2","2","2","6","5","3","6","3","6","3","7","3","5","7","3","2","3","2","7","4","5","798267707752587265","杨","67","Male","[""坏他"",""好我"",""好他"",""坏我""]","[""弱他"",""强我"",""强他"",""弱我""]","","","","","","","","","","","","","","","","","","","","","","","","","","","","","","feedback_test","","","","","","","","",""
"646","","j","psychophysics","40","191147","0.0-8.0-1.0-1.0-0.0-0.15","3","3","5","2","2","4","2","3","3","4","4","1","-1","-1","2","0","0","0","1","4","2","5","2","2","2","5","2","2","5","7","8","3","7","8","2","7","3","8","5","2","2","4","5","3","6","3","3","3","1","5","2","4","2","2","3","5","2","5","2","2","2","6","5","3","6","3","6","3","7","3","5","7","3","2","3","2","7","4","5","798267707752587265","杨","67","Male","[""坏他"",""好我"",""好他"",""坏我""]","[""弱他"",""强我"",""强他"",""弱我""]","","","","","","","","match","","","","","","","","","","key","j","16.663265306122447","640","356","j","true","match","img/hexagon.png","弱他","弱他","prac_ALT2_ability","practice_ability","","","","","","","","",""
"null","<span style='color:GreenYellow; font-size: 70px;'>正确! </span>","null","html-keyboard-response","41","191650","0.0-8.0-1.0-1.0-0.0-1.15","3","3","5","2","2","4","2","3","3","4","4","1","-1","-1","2","0","0","0","1","4","2","5","2","2","2","5","2","2","5","7","8","3","7","8","2","7","3","8","5","2","2","4","5","3","6","3","3","3","1","5","2","4","2","2","3","5","2","5","2","2","2","6","5","3","6","3","6","3","7","3","5","7","3","2","3","2","7","4","5","798267707752587265","杨","67","Male","[""坏他"",""好我"",""好他"",""坏我""]","[""弱他"",""强我"",""强他"",""弱我""]","","","","","","","","","","","","","","","","","","","","","","","","","","","","","","feedback_test","","","","","","","","",""
"916","","f","psychophysics","42","193568","0.0-8.0-1.0-1.0-0.0-0.16","3","3","5","2","2","4","2","3","3","4","4","1","-1","-1","2","0","0","0","1","4","2","5","2","2","2","5","2","2","5","7","8","3","7","8","2","7","3","8","5","2","2","4","5","3","6","3","3","3","1","5","2","4","2","2","3","5","2","5","2","2","2","6","5","3","6","3","6","3","7","3","5","7","3","2","3","2","7","4","5","798267707752587265","杨","67","Male","[""坏他"",""好我"",""好他"",""坏我""]","[""弱他"",""强我"",""强他"",""弱我""]","","","","","","","","nonmatch","","","","","","","","","","key","f","16.66245614035104","640","356","f","true","nonmatch","img/trapezoid.png","弱他","弱我","prac_ALT2_ability","practice_ability","","","","","","","","",""
"null","<span style='color:GreenYellow; font-size: 70px;'>正确! </span>","null","html-keyboard-response","43","194070","0.0-8.0-1.0-1.0-0.0-1.16","3","3","5","2","2","4","2","3","3","4","4","1","-1","-1","2","0","0","0","1","4","2","5","2","2","2","5","2","2","5","7","8","3","7","8","2","7","3","8","5","2","2","4","5","3","6","3","3","3","1","5","2","4","2","2","3","5","2","5","2","2","2","6","5","3","6","3","6","3","7","3","5","7","3","2","3","2","7","4","5","798267707752587265","杨","67","Male","[""坏他"",""好我"",""好他"",""坏我""]","[""弱他"",""强我"",""强他"",""弱我""]","","","","","","","","","","","","","","","","","","","","","","","","","","","","","","feedback_test","","","","","","","","",""
"883","","f","psychophysics","44","195955","0.0-8.0-1.0-1.0-0.0-0.17","3","3","5","2","2","4","2","3","3","4","4","1","-1","-1","2","0","0","0","1","4","2","5","2","2","2","5","2","2","5","7","8","3","7","8","2","7","3","8","5","2","2","4","5","3","6","3","3","3","1","5","2","4","2","2","3","5","2","5","2","2","2","6","5","3","6","3","6","3","7","3","5","7","3","2","3","2","7","4","5","798267707752587265","杨","67","Male","[""坏他"",""好我"",""好他"",""坏我""]","[""弱他"",""强我"",""强他"",""弱我""]","","","","","","","","nonmatch","","","","","","","","","","key","f","16.663392857143013","640","356","f","true","nonmatch","img/circle.png","强他","强我","prac_ALT2_ability","practice_ability","","","","","","","","",""
"null","<span style='color:GreenYellow; font-size: 70px;'>正确! </span>","null","html-keyboard-response","45","196457","0.0-8.0-1.0-1.0-0.0-1.17","3","3","5","2","2","4","2","3","3","4","4","1","-1","-1","2","0","0","0","1","4","2","5","2","2","2","5","2","2","5","7","8","3","7","8","2","7","3","8","5","2","2","4","5","3","6","3","3","3","1","5","2","4","2","2","3","5","2","5","2","2","2","6","5","3","6","3","6","3","7","3","5","7","3","2","3","2","7","4","5","798267707752587265","杨","67","Male","[""坏他"",""好我"",""好他"",""坏我""]","[""弱他"",""强我"",""强他"",""弱我""]","","","","","","","","","","","","","","","","","","","","","","","","","","","","","","feedback_test","","","","","","","","",""
"651","","j","psychophysics","46","198110","0.0-8.0-1.0-1.0-0.0-0.18","3","3","5","2","2","4","2","3","3","4","4","1","-1","-1","2","0","0","0","1","4","2","5","2","2","2","5","2","2","5","7","8","3","7","8","2","7","3","8","5","2","2","4","5","3","6","3","3","3","1","5","2","4","2","2","3","5","2","5","2","2","2","6","5","3","6","3","6","3","7","3","5","7","3","2","3","2","7","4","5","798267707752587265","杨","67","Male","[""坏他"",""好我"",""好他"",""坏我""]","[""弱他"",""强我"",""强他"",""弱我""]","","","","","","","","match","","","","","","","","","","key","j","16.663265306122447","640","356","j","true","match","img/circle.png","强我","强我","prac_ALT2_ability","practice_ability","","","","","","","","",""
"null","<span style='color:GreenYellow; font-size: 70px;'>正确! </span>","null","html-keyboard-response","47","198611","0.0-8.0-1.0-1.0-0.0-1.18","3","3","5","2","2","4","2","3","3","4","4","1","-1","-1","2","0","0","0","1","4","2","5","2","2","2","5","2","2","5","7","8","3","7","8","2","7","3","8","5","2","2","4","5","3","6","3","3","3","1","5","2","4","2","2","3","5","2","5","2","2","2","6","5","3","6","3","6","3","7","3","5","7","3","2","3","2","7","4","5","798267707752587265","杨","67","Male","[""坏他"",""好我"",""好他"",""坏我""]","[""弱他"",""强我"",""强他"",""弱我""]","","","","","","","","","","","","","","","","","","","","","","","","","","","","","","feedback_test","","","","","","","","",""
"849","","f","psychophysics","48","200462","0.0-8.0-1.0-1.0-0.0-0.19","3","3","5","2","2","4","2","3","3","4","4","1","-1","-1","2","0","0","0","1","4","2","5","2","2","2","5","2","2","5","7","8","3","7","8","2","7","3","8","5","2","2","4","5","3","6","3","3","3","1","5","2","4","2","2","3","5","2","5","2","2","2","6","5","3","6","3","6","3","7","3","5","7","3","2","3","2","7","4","5","798267707752587265","杨","67","Male","[""坏他"",""好我"",""好他"",""坏我""]","[""弱他"",""强我"",""强他"",""弱我""]","","","","","","","","nonmatch","","","","","","","","","","key","f","16.66181818181834","640","356","f","true","nonmatch","img/triangle.png","弱我","强他","prac_ALT2_ability","practice_ability","","","","","","","","",""
"null","<span style='color:GreenYellow; font-size: 70px;'>正确! </span>","null","html-keyboard-response","49","200963","0.0-8.0-1.0-1.0-0.0-1.19","3","3","5","2","2","4","2","3","3","4","4","1","-1","-1","2","0","0","0","1","4","2","5","2","2","2","5","2","2","5","7","8","3","7","8","2","7","3","8","5","2","2","4","5","3","6","3","3","3","1","5","2","4","2","2","3","5","2","5","2","2","2","6","5","3","6","3","6","3","7","3","5","7","3","2","3","2","7","4","5","798267707752587265","杨","67","Male","[""坏他"",""好我"",""好他"",""坏我""]","[""弱他"",""强我"",""强他"",""弱我""]","","","","","","","","","","","","","","","","","","","","","","","","","","","","","","feedback_test","","","","","","","","",""
"788","","f","psychophysics","50","202752","0.0-8.0-1.0-1.0-0.0-0.20","3","3","5","2","2","4","2","3","3","4","4","1","-1","-1","2","0","0","0","1","4","2","5","2","2","2","5","2","2","5","7","8","3","7","8","2","7","3","8","5","2","2","4","5","3","6","3","3","3","1","5","2","4","2","2","3","5","2","5","2","2","2","6","5","3","6","3","6","3","7","3","5","7","3","2","3","2","7","4","5","798267707752587265","杨","67","Male","[""坏他"",""好我"",""好他"",""坏我""]","[""弱他"",""强我"",""强他"",""弱我""]","","","","","","","","nonmatch","","","","","","","","","","key","f","16.664485981308193","640","356","f","true","nonmatch","img/trapezoid.png","强他","弱我","prac_ALT2_ability","practice_ability","","","","","","","","",""
"null","<span style='color:GreenYellow; font-size: 70px;'>正确! </span>","null","html-keyboard-response","51","203254","0.0-8.0-1.0-1.0-0.0-1.20","3","3","5","2","2","4","2","3","3","4","4","1","-1","-1","2","0","0","0","1","4","2","5","2","2","2","5","2","2","5","7","8","3","7","8","2","7","3","8","5","2","2","4","5","3","6","3","3","3","1","5","2","4","2","2","3","5","2","5","2","2","2","6","5","3","6","3","6","3","7","3","5","7","3","2","3","2","7","4","5","798267707752587265","杨","67","Male","[""坏他"",""好我"",""好他"",""坏我""]","[""弱他"",""强我"",""强他"",""弱我""]","","","","","","","","","","","","","","","","","","","","","","","","","","","","","","feedback_test","","","","","","","","",""
"641","","f","psychophysics","52","204897","0.0-8.0-1.0-1.0-0.0-0.21","3","3","5","2","2","4","2","3","3","4","4","1","-1","-1","2","0","0","0","1","4","2","5","2","2","2","5","2","2","5","7","8","3","7","8","2","7","3","8","5","2","2","4","5","3","6","3","3","3","1","5","2","4","2","2","3","5","2","5","2","2","2","6","5","3","6","3","6","3","7","3","5","7","3","2","3","2","7","4","5","798267707752587265","杨","67","Male","[""坏他"",""好我"",""好他"",""坏我""]","[""弱他"",""强我"",""强他"",""弱我""]","","","","","","","","nonmatch","","","","","","","","","","key","f","16.664948453608247","640","356","f","true","nonmatch","img/circle.png","弱他","强我","prac_ALT2_ability","practice_ability","","","","","","","","",""
"null","<span style='color:GreenYellow; font-size: 70px;'>正确! </span>","null","html-keyboard-response","53","205398","0.0-8.0-1.0-1.0-0.0-1.21","3","3","5","2","2","4","2","3","3","4","4","1","-1","-1","2","0","0","0","1","4","2","5","2","2","2","5","2","2","5","7","8","3","7","8","2","7","3","8","5","2","2","4","5","3","6","3","3","3","1","5","2","4","2","2","3","5","2","5","2","2","2","6","5","3","6","3","6","3","7","3","5","7","3","2","3","2","7","4","5","798267707752587265","杨","67","Male","[""坏他"",""好我"",""好他"",""坏我""]","[""弱他"",""强我"",""强他"",""弱我""]","","","","","","","","","","","","","","","","","","","","","","","","","","","","","","feedback_test","","","","","","","","",""
"774","","f","psychophysics","54","207173","0.0-8.0-1.0-1.0-0.0-0.22","3","3","5","2","2","4","2","3","3","4","4","1","-1","-1","2","0","0","0","1","4","2","5","2","2","2","5","2","2","5","7","8","3","7","8","2","7","3","8","5","2","2","4","5","3","6","3","3","3","1","5","2","4","2","2","3","5","2","5","2","2","2","6","5","3","6","3","6","3","7","3","5","7","3","2","3","2","7","4","5","798267707752587265","杨","67","Male","[""坏他"",""好我"",""好他"",""坏我""]","[""弱他"",""强我"",""强他"",""弱我""]","","","","","","","","nonmatch","","","","","","","","","","key","f","16.648571428571483","640","356","f","true","nonmatch","img/hexagon.png","强我","弱他","prac_ALT2_ability","practice_ability","","","","","","","","",""
"null","<span style='color:GreenYellow; font-size: 70px;'>正确! </span>","null","html-keyboard-response","55","207674","0.0-8.0-1.0-1.0-0.0-1.22","3","3","5","2","2","4","2","3","3","4","4","1","-1","-1","2","0","0","0","1","4","2","5","2","2","2","5","2","2","5","7","8","3","7","8","2","7","3","8","5","2","2","4","5","3","6","3","3","3","1","5","2","4","2","2","3","5","2","5","2","2","2","6","5","3","6","3","6","3","7","3","5","7","3","2","3","2","7","4","5","798267707752587265","杨","67","Male","[""坏他"",""好我"",""好他"",""坏我""]","[""弱他"",""强我"",""强他"",""弱我""]","","","","","","","","","","","","","","","","","","","","","","","","","","","","","","feedback_test","","","","","","","","",""
"728","","j","psychophysics","56","209403","0.0-8.0-1.0-1.0-0.0-0.23","3","3","5","2","2","4","2","3","3","4","4","1","-1","-1","2","0","0","0","1","4","2","5","2","2","2","5","2","2","5","7","8","3","7","8","2","7","3","8","5","2","2","4","5","3","6","3","3","3","1","5","2","4","2","2","3","5","2","5","2","2","2","6","5","3","6","3","6","3","7","3","5","7","3","2","3","2","7","4","5","798267707752587265","杨","67","Male","[""坏他"",""好我"",""好他"",""坏我""]","[""弱他"",""强我"",""强他"",""弱我""]","","","","","","","","match","","","","","","","","","","key","j","16.66310679611639","640","356","j","true","match","img/triangle.png","强他","强他","prac_ALT2_ability","practice_ability","","","","","","","","",""
"null","<span style='color:GreenYellow; font-size: 70px;'>正确! </span>","null","html-keyboard-response","57","209904","0.0-8.0-1.0-1.0-0.0-1.23","3","3","5","2","2","4","2","3","3","4","4","1","-1","-1","2","0","0","0","1","4","2","5","2","2","2","5","2","2","5","7","8","3","7","8","2","7","3","8","5","2","2","4","5","3","6","3","3","3","1","5","2","4","2","2","3","5","2","5","2","2","2","6","5","3","6","3","6","3","7","3","5","7","3","2","3","2","7","4","5","798267707752587265","杨","67","Male","[""坏他"",""好我"",""好他"",""坏我""]","[""弱他"",""强我"",""强他"",""弱我""]","","","","","","","","","","","","","","","","","","","","","","","","","","","","","","feedback_test","","","","","","","","",""
"710","","j","psychophysics","58","211618","0.0-8.0-1.0-1.0-0.0-0.24","3","3","5","2","2","4","2","3","3","4","4","1","-1","-1","2","0","0","0","1","4","2","5","2","2","2","5","2","2","5","7","8","3","7","8","2","7","3","8","5","2","2","4","5","3","6","3","3","3","1","5","2","4","2","2","3","5","2","5","2","2","2","6","5","3","6","3","6","3","7","3","5","7","3","2","3","2","7","4","5","798267707752587265","杨","67","Male","[""坏他"",""好我"",""好他"",""坏我""]","[""弱他"",""强我"",""强他"",""弱我""]","","","","","","","","match","","","","","","","","","","key","j","16.663725490196192","640","356","j","true","match","img/circle.png","强我","强我","prac_ALT2_ability","practice_ability","","","","","","","","",""
"null","<span style='color:GreenYellow; font-size: 70px;'>正确! </span>","null","html-keyboard-response","59","212119","0.0-8.0-1.0-1.0-0.0-1.24","3","3","5","2","2","4","2","3","3","4","4","1","-1","-1","2","0","0","0","1","4","2","5","2","2","2","5","2","2","5","7","8","3","7","8","2","7","3","8","5","2","2","4","5","3","6","3","3","3","1","5","2","4","2","2","3","5","2","5","2","2","2","6","5","3","6","3","6","3","7","3","5","7","3","2","3","2","7","4","5","798267707752587265","杨","67","Male","[""坏他"",""好我"",""好他"",""坏我""]","[""弱他"",""强我"",""强他"",""弱我""]","","","","","","","","","","","","","","","","","","","","","","","","","","","","","","feedback_test","","","","","","","","",""
"1124","","f","psychophysics","60","214245","0.0-8.0-1.0-1.0-0.0-0.25","3","3","5","2","2","4","2","3","3","4","4","1","-1","-1","2","0","0","0","1","4","2","5","2","2","2","5","2","2","5","7","8","3","7","8","2","7","3","8","5","2","2","4","5","3","6","3","3","3","1","5","2","4","2","2","3","5","2","5","2","2","2","6","5","3","6","3","6","3","7","3","5","7","3","2","3","2","7","4","5","798267707752587265","杨","67","Male","[""坏他"",""好我"",""好他"",""坏我""]","[""弱他"",""强我"",""强他"",""弱我""]","","","","","","","","nonmatch","","","","","","","","","","key","f","16.664285714285807","640","356","j","false","match","img/hexagon.png","弱他","弱他","prac_ALT2_ability","practice_ability","","","","","","","","",""
"null","<span style='color:red; font-size: 70px;'>错误! </span>","null","html-keyboard-response","61","214746","0.0-8.0-1.0-1.0-0.0-1.25","3","3","5","2","2","4","2","3","3","4","4","1","-1","-1","2","0","0","0","1","4","2","5","2","2","2","5","2","2","5","7","8","3","7","8","2","7","3","8","5","2","2","4","5","3","6","3","3","3","1","5","2","4","2","2","3","5","2","5","2","2","2","6","5","3","6","3","6","3","7","3","5","7","3","2","3","2","7","4","5","798267707752587265","杨","67","Male","[""坏他"",""好我"",""好他"",""坏我""]","[""弱他"",""强我"",""强他"",""弱我""]","","","","","","","","","","","","","","","","","","","","","","","","","","","","","","feedback_test","","","","","","","","",""
"766","","f","psychophysics","62","216513","0.0-8.0-1.0-1.0-0.0-0.26","3","3","5","2","2","4","2","3","3","4","4","1","-1","-1","2","0","0","0","1","4","2","5","2","2","2","5","2","2","5","7","8","3","7","8","2","7","3","8","5","2","2","4","5","3","6","3","3","3","1","5","2","4","2","2","3","5","2","5","2","2","2","6","5","3","6","3","6","3","7","3","5","7","3","2","3","2","7","4","5","798267707752587265","杨","67","Male","[""坏他"",""好我"",""好他"",""坏我""]","[""弱他"",""强我"",""强他"",""弱我""]","","","","","","","","nonmatch","","","","","","","","","","key","f","16.662095238095137","640","356","f","true","nonmatch","img/triangle.png","强我","强他","prac_ALT2_ability","practice_ability","","","","","","","","",""
"null","<span style='color:GreenYellow; font-size: 70px;'>正确! </span>","null","html-keyboard-response","63","217028","0.0-8.0-1.0-1.0-0.0-1.26","3","3","5","2","2","4","2","3","3","4","4","1","-1","-1","2","0","0","0","1","4","2","5","2","2","2","5","2","2","5","7","8","3","7","8","2","7","3","8","5","2","2","4","5","3","6","3","3","3","1","5","2","4","2","2","3","5","2","5","2","2","2","6","5","3","6","3","6","3","7","3","5","7","3","2","3","2","7","4","5","798267707752587265","杨","67","Male","[""坏他"",""好我"",""好他"",""坏我""]","[""弱他"",""强我"",""强他"",""弱我""]","","","","","","","","","","","","","","","","","","","","","","","","","","","","","","feedback_test","","","","","","","","",""
"897","","j","psychophysics","64","218927","0.0-8.0-1.0-1.0-0.0-0.27","3","3","5","2","2","4","2","3","3","4","4","1","-1","-1","2","0","0","0","1","4","2","5","2","2","2","5","2","2","5","7","8","3","7","8","2","7","3","8","5","2","2","4","5","3","6","3","3","3","1","5","2","4","2","2","3","5","2","5","2","2","2","6","5","3","6","3","6","3","7","3","5","7","3","2","3","2","7","4","5","798267707752587265","杨","67","Male","[""坏他"",""好我"",""好他"",""坏我""]","[""弱他"",""强我"",""强他"",""弱我""]","","","","","","","","match","","","","","","","","","","key","j","16.662424778760993","640","356","f","false","nonmatch","img/trapezoid.png","弱他","弱我","prac_ALT2_ability","practice_ability","","","","","","","","",""
"null","<span style='color:red; font-size: 70px;'>错误! </span>","null","html-keyboard-response","65","219428","0.0-8.0-1.0-1.0-0.0-1.27","3","3","5","2","2","4","2","3","3","4","4","1","-1","-1","2","0","0","0","1","4","2","5","2","2","2","5","2","2","5","7","8","3","7","8","2","7","3","8","5","2","2","4","5","3","6","3","3","3","1","5","2","4","2","2","3","5","2","5","2","2","2","6","5","3","6","3","6","3","7","3","5","7","3","2","3","2","7","4","5","798267707752587265","杨","67","Male","[""坏他"",""好我"",""好他"",""坏我""]","[""弱他"",""强我"",""强他"",""弱我""]","","","","","","","","","","","","","","","","","","","","","","","","","","","","","","feedback_test","","","","","","","","",""
"656","","j","psychophysics","66","221085","0.0-8.0-1.0-1.0-0.0-0.28","3","3","5","2","2","4","2","3","3","4","4","1","-1","-1","2","0","0","0","1","4","2","5","2","2","2","5","2","2","5","7","8","3","7","8","2","7","3","8","5","2","2","4","5","3","6","3","3","3","1","5","2","4","2","2","3","5","2","5","2","2","2","6","5","3","6","3","6","3","7","3","5","7","3","2","3","2","7","4","5","798267707752587265","杨","67","Male","[""坏他"",""好我"",""好他"",""坏我""]","[""弱他"",""强我"",""强他"",""弱我""]","","","","","","","","match","","","","","","","","","","key","j","16.661616161616163","640","356","j","true","match","img/circle.png","强我","强我","prac_ALT2_ability","practice_ability","","","","","","","","",""
"null","<span style='color:GreenYellow; font-size: 70px;'>正确! </span>","null","html-keyboard-response","67","221587","0.0-8.0-1.0-1.0-0.0-1.28","3","3","5","2","2","4","2","3","3","4","4","1","-1","-1","2","0","0","0","1","4","2","5","2","2","2","5","2","2","5","7","8","3","7","8","2","7","3","8","5","2","2","4","5","3","6","3","3","3","1","5","2","4","2","2","3","5","2","5","2","2","2","6","5","3","6","3","6","3","7","3","5","7","3","2","3","2","7","4","5","798267707752587265","杨","67","Male","[""坏他"",""好我"",""好他"",""坏我""]","[""弱他"",""强我"",""强他"",""弱我""]","","","","","","","","","","","","","","","","","","","","","","","","","","","","","","feedback_test","","","","","","","","",""
"732","","f","psychophysics","68","223321","0.0-8.0-1.0-1.0-0.0-0.29","3","3","5","2","2","4","2","3","3","4","4","1","-1","-1","2","0","0","0","1","4","2","5","2","2","2","5","2","2","5","7","8","3","7","8","2","7","3","8","5","2","2","4","5","3","6","3","3","3","1","5","2","4","2","2","3","5","2","5","2","2","2","6","5","3","6","3","6","3","7","3","5","7","3","2","3","2","7","4","5","798267707752587265","杨","67","Male","[""坏他"",""好我"",""好他"",""坏我""]","[""弱他"",""强我"",""强他"",""弱我""]","","","","","","","","nonmatch","","","","","","","","","","key","f","16.663106796116676","640","356","f","true","nonmatch","img/trapezoid.png","强他","弱我","prac_ALT2_ability","practice_ability","","","","","","","","",""
"null","<span style='color:GreenYellow; font-size: 70px;'>正确! </span>","null","html-keyboard-response","69","223821","0.0-8.0-1.0-1.0-0.0-1.29","3","3","5","2","2","4","2","3","3","4","4","1","-1","-1","2","0","0","0","1","4","2","5","2","2","2","5","2","2","5","7","8","3","7","8","2","7","3","8","5","2","2","4","5","3","6","3","3","3","1","5","2","4","2","2","3","5","2","5","2","2","2","6","5","3","6","3","6","3","7","3","5","7","3","2","3","2","7","4","5","798267707752587265","杨","67","Male","[""坏他"",""好我"",""好他"",""坏我""]","[""弱他"",""强我"",""强他"",""弱我""]","","","","","","","","","","","","","","","","","","","","","","","","","","","","","","feedback_test","","","","","","","","",""
"819","","f","psychophysics","70","225641","0.0-8.0-1.0-1.0-0.0-0.30","3","3","5","2","2","4","2","3","3","4","4","1","-1","-1","2","0","0","0","1","4","2","5","2","2","2","5","2","2","5","7","8","3","7","8","2","7","3","8","5","2","2","4","5","3","6","3","3","3","1","5","2","4","2","2","3","5","2","5","2","2","2","6","5","3","6","3","6","3","7","3","5","7","3","2","3","2","7","4","5","798267707752587265","杨","67","Male","[""坏他"",""好我"",""好他"",""坏我""]","[""弱他"",""强我"",""强他"",""弱我""]","","","","","","","","nonmatch","","","","","","","","","","key","f","16.662037037037038","640","356","f","true","nonmatch","img/circle.png","弱我","强我","prac_ALT2_ability","practice_ability","","","","","","","","",""
"null","<span style='color:GreenYellow; font-size: 70px;'>正确! </span>","null","html-keyboard-response","71","226143","0.0-8.0-1.0-1.0-0.0-1.30","3","3","5","2","2","4","2","3","3","4","4","1","-1","-1","2","0","0","0","1","4","2","5","2","2","2","5","2","2","5","7","8","3","7","8","2","7","3","8","5","2","2","4","5","3","6","3","3","3","1","5","2","4","2","2","3","5","2","5","2","2","2","6","5","3","6","3","6","3","7","3","5","7","3","2","3","2","7","4","5","798267707752587265","杨","67","Male","[""坏他"",""好我"",""好他"",""坏我""]","[""弱他"",""强我"",""强他"",""弱我""]","","","","","","","","","","","","","","","","","","","","","","","","","","","","","","feedback_test","","","","","","","","",""
"993","","j","psychophysics","72","228137","0.0-8.0-1.0-1.0-0.0-0.31","3","3","5","2","2","4","2","3","3","4","4","1","-1","-1","2","0","0","0","1","4","2","5","2","2","2","5","2","2","5","7","8","3","7","8","2","7","3","8","5","2","2","4","5","3","6","3","3","3","1","5","2","4","2","2","3","5","2","5","2","2","2","6","5","3","6","3","6","3","7","3","5","7","3","2","3","2","7","4","5","798267707752587265","杨","67","Male","[""坏他"",""好我"",""好他"",""坏我""]","[""弱他"",""强我"",""强他"",""弱我""]","","","","","","","","match","","","","","","","","","","key","j","16.663025210083983","640","356","j","true","match","img/hexagon.png","弱他","弱他","prac_ALT2_ability","practice_ability","","","","","","","","",""
"null","<span style='color:GreenYellow; font-size: 70px;'>正确! </span>","null","html-keyboard-response","73","228638","0.0-8.0-1.0-1.0-0.0-1.31","3","3","5","2","2","4","2","3","3","4","4","1","-1","-1","2","0","0","0","1","4","2","5","2","2","2","5","2","2","5","7","8","3","7","8","2","7","3","8","5","2","2","4","5","3","6","3","3","3","1","5","2","4","2","2","3","5","2","5","2","2","2","6","5","3","6","3","6","3","7","3","5","7","3","2","3","2","7","4","5","798267707752587265","杨","67","Male","[""坏他"",""好我"",""好他"",""坏我""]","[""弱他"",""强我"",""强他"",""弱我""]","","","","","","","","","","","","","","","","","","","","","","","","","","","","","","feedback_test","","","","","","","","",""
"null","","null","psychophysics","74","230841","0.0-8.0-1.0-1.0-0.0-0.32","3","3","5","2","2","4","2","3","3","4","4","1","-1","-1","2","0","0","0","1","4","2","5","2","2","2","5","2","2","5","7","8","3","7","8","2","7","3","8","5","2","2","4","5","3","6","3","3","3","1","5","2","4","2","2","3","5","2","5","2","2","2","6","5","3","6","3","6","3","7","3","5","7","3","2","3","2","7","4","5","798267707752587265","杨","67","Male","[""坏他"",""好我"",""好他"",""坏我""]","[""弱他"",""强我"",""强他"",""弱我""]","","","","","","","","null","","","","","","","","","","key","null","16.663358778626133","640","356","j","false","match","img/hexagon.png","弱他","弱他","prac_ALT2_ability","practice_ability","","","","","","","","",""
"null","<span class='add_' style='color:yellow; font-size: 70px;'> 太慢! </span>","null","html-keyboard-response","75","231342","0.0-8.0-1.0-1.0-0.0-1.32","3","3","5","2","2","4","2","3","3","4","4","1","-1","-1","2","0","0","0","1","4","2","5","2","2","2","5","2","2","5","7","8","3","7","8","2","7","3","8","5","2","2","4","5","3","6","3","3","3","1","5","2","4","2","2","3","5","2","5","2","2","2","6","5","3","6","3","6","3","7","3","5","7","3","2","3","2","7","4","5","798267707752587265","杨","67","Male","[""坏他"",""好我"",""好他"",""坏我""]","[""弱他"",""强我"",""强他"",""弱我""]","","","","","","","","","","","","","","","","","","","","","","","","","","","","","","feedback_test","","","","","","","","",""
"788","","j","psychophysics","76","233132","0.0-8.0-1.0-1.0-0.0-0.33","3","3","5","2","2","4","2","3","3","4","4","1","-1","-1","2","0","0","0","1","4","2","5","2","2","2","5","2","2","5","7","8","3","7","8","2","7","3","8","5","2","2","4","5","3","6","3","3","3","1","5","2","4","2","2","3","5","2","5","2","2","2","6","5","3","6","3","6","3","7","3","5","7","3","2","3","2","7","4","5","798267707752587265","杨","67","Male","[""坏他"",""好我"",""好他"",""坏我""]","[""弱他"",""强我"",""强他"",""弱我""]","","","","","","","","match","","","","","","","","","","key","j","16.662616822429854","640","356","j","true","match","img/triangle.png","强他","强他","prac_ALT2_ability","practice_ability","","","","","","","","",""
"null","<span style='color:GreenYellow; font-size: 70px;'>正确! </span>","null","html-keyboard-response","77","233633","0.0-8.0-1.0-1.0-0.0-1.33","3","3","5","2","2","4","2","3","3","4","4","1","-1","-1","2","0","0","0","1","4","2","5","2","2","2","5","2","2","5","7","8","3","7","8","2","7","3","8","5","2","2","4","5","3","6","3","3","3","1","5","2","4","2","2","3","5","2","5","2","2","2","6","5","3","6","3","6","3","7","3","5","7","3","2","3","2","7","4","5","798267707752587265","杨","67","Male","[""坏他"",""好我"",""好他"",""坏我""]","[""弱他"",""强我"",""强他"",""弱我""]","","","","","","","","","","","","","","","","","","","","","","","","","","","","","","feedback_test","","","","","","","","",""
"673","","f","psychophysics","78","235307","0.0-8.0-1.0-1.0-0.0-0.34","3","3","5","2","2","4","2","3","3","4","4","1","-1","-1","2","0","0","0","1","4","2","5","2","2","2","5","2","2","5","7","8","3","7","8","2","7","3","8","5","2","2","4","5","3","6","3","3","3","1","5","2","4","2","2","3","5","2","5","2","2","2","6","5","3","6","3","6","3","7","3","5","7","3","2","3","2","7","4","5","798267707752587265","杨","67","Male","[""坏他"",""好我"",""好他"",""坏我""]","[""弱他"",""强我"",""强他"",""弱我""]","","","","","","","","nonmatch","","","","","","","","","","key","f","16.66363636363648","640","356","f","true","nonmatch","img/hexagon.png","强我","弱他","prac_ALT2_ability","practice_ability","","","","","","","","",""
"null","<span style='color:GreenYellow; font-size: 70px;'>正确! </span>","null","html-keyboard-response","79","235809","0.0-8.0-1.0-1.0-0.0-1.34","3","3","5","2","2","4","2","3","3","4","4","1","-1","-1","2","0","0","0","1","4","2","5","2","2","2","5","2","2","5","7","8","3","7","8","2","7","3","8","5","2","2","4","5","3","6","3","3","3","1","5","2","4","2","2","3","5","2","5","2","2","2","6","5","3","6","3","6","3","7","3","5","7","3","2","3","2","7","4","5","798267707752587265","杨","67","Male","[""坏他"",""好我"",""好他"",""坏我""]","[""弱他"",""强我"",""强他"",""弱我""]","","","","","","","","","","","","","","","","","","","","","","","","","","","","","","feedback_test","","","","","","","","",""
"728","","f","psychophysics","80","237538","0.0-8.0-1.0-1.0-0.0-0.35","3","3","5","2","2","4","2","3","3","4","4","1","-1","-1","2","0","0","0","1","4","2","5","2","2","2","5","2","2","5","7","8","3","7","8","2","7","3","8","5","2","2","4","5","3","6","3","3","3","1","5","2","4","2","2","3","5","2","5","2","2","2","6","5","3","6","3","6","3","7","3","5","7","3","2","3","2","7","4","5","798267707752587265","杨","67","Male","[""坏他"",""好我"",""好他"",""坏我""]","[""弱他"",""强我"",""强他"",""弱我""]","","","","","","","","nonmatch","","","","","","","","","","key","f","16.66233009708739","640","356","f","true","nonmatch","img/circle.png","强他","强我","prac_ALT2_ability","practice_ability","","","","","","","","",""
"null","<span style='color:GreenYellow; font-size: 70px;'>正确! </span>","null","html-keyboard-response","81","238039","0.0-8.0-1.0-1.0-0.0-1.35","3","3","5","2","2","4","2","3","3","4","4","1","-1","-1","2","0","0","0","1","4","2","5","2","2","2","5","2","2","5","7","8","3","7","8","2","7","3","8","5","2","2","4","5","3","6","3","3","3","1","5","2","4","2","2","3","5","2","5","2","2","2","6","5","3","6","3","6","3","7","3","5","7","3","2","3","2","7","4","5","798267707752587265","杨","67","Male","[""坏他"",""好我"",""好他"",""坏我""]","[""弱他"",""强我"",""强他"",""弱我""]","","","","","","","","","","","","","","","","","","","","","","","","","","","","","","feedback_test","","","","","","","","",""
"909","","f","psychophysics","82","239950","0.0-8.0-1.0-1.0-0.0-0.36","3","3","5","2","2","4","2","3","3","4","4","1","-1","-1","2","0","0","0","1","4","2","5","2","2","2","5","2","2","5","7","8","3","7","8","2","7","3","8","5","2","2","4","5","3","6","3","3","3","1","5","2","4","2","2","3","5","2","5","2","2","2","6","5","3","6","3","6","3","7","3","5","7","3","2","3","2","7","4","5","798267707752587265","杨","67","Male","[""坏他"",""好我"",""好他"",""坏我""]","[""弱他"",""强我"",""强他"",""弱我""]","","","","","","","","nonmatch","","","","","","","","","","key","f","16.663157894736894","640","356","f","true","nonmatch","img/hexagon.png","弱我","弱他","prac_ALT2_ability","practice_ability","","","","","","","","",""
"null","<span style='color:GreenYellow; font-size: 70px;'>正确! </span>","null","html-keyboard-response","83","240451","0.0-8.0-1.0-1.0-0.0-1.36","3","3","5","2","2","4","2","3","3","4","4","1","-1","-1","2","0","0","0","1","4","2","5","2","2","2","5","2","2","5","7","8","3","7","8","2","7","3","8","5","2","2","4","5","3","6","3","3","3","1","5","2","4","2","2","3","5","2","5","2","2","2","6","5","3","6","3","6","3","7","3","5","7","3","2","3","2","7","4","5","798267707752587265","杨","67","Male","[""坏他"",""好我"",""好他"",""坏我""]","[""弱他"",""强我"",""强他"",""弱我""]","","","","","","","","","","","","","","","","","","","","","","","","","","","","","","feedback_test","","","","","","","","",""
"1097","","j","psychophysics","84","242550","0.0-8.0-1.0-1.0-0.0-0.37","3","3","5","2","2","4","2","3","3","4","4","1","-1","-1","2","0","0","0","1","4","2","5","2","2","2","5","2","2","5","7","8","3","7","8","2","7","3","8","5","2","2","4","5","3","6","3","3","3","1","5","2","4","2","2","3","5","2","5","2","2","2","6","5","3","6","3","6","3","7","3","5","7","3","2","3","2","7","4","5","798267707752587265","杨","67","Male","[""坏他"",""好我"",""好他"",""坏我""]","[""弱他"",""强我"",""强他"",""弱我""]","","","","","","","","match","","","","","","","","","","key","j","16.664","640","356","f","false","nonmatch","img/hexagon.png","强他","弱他","prac_ALT2_ability","practice_ability","","","","","","","","",""
"null","<span style='color:red; font-size: 70px;'>错误! </span>","null","html-keyboard-response","85","243052","0.0-8.0-1.0-1.0-0.0-1.37","3","3","5","2","2","4","2","3","3","4","4","1","-1","-1","2","0","0","0","1","4","2","5","2","2","2","5","2","2","5","7","8","3","7","8","2","7","3","8","5","2","2","4","5","3","6","3","3","3","1","5","2","4","2","2","3","5","2","5","2","2","2","6","5","3","6","3","6","3","7","3","5","7","3","2","3","2","7","4","5","798267707752587265","杨","67","Male","[""坏他"",""好我"",""好他"",""坏我""]","[""弱他"",""强我"",""强他"",""弱我""]","","","","","","","","","","","","","","","","","","","","","","","","","","","","","","feedback_test","","","","","","","","",""
"933","","j","psychophysics","86","244987","0.0-8.0-1.0-1.0-0.0-0.38","3","3","5","2","2","4","2","3","3","4","4","1","-1","-1","2","0","0","0","1","4","2","5","2","2","2","5","2","2","5","7","8","3","7","8","2","7","3","8","5","2","2","4","5","3","6","3","3","3","1","5","2","4","2","2","3","5","2","5","2","2","2","6","5","3","6","3","6","3","7","3","5","7","3","2","3","2","7","4","5","798267707752587265","杨","67","Male","[""坏他"",""好我"",""好他"",""坏我""]","[""弱他"",""强我"",""强他"",""弱我""]","","","","","","","","match","","","","","","","","","","key","j","16.662608695652274","640","356","f","false","nonmatch","img/triangle.png","弱他","强他","prac_ALT2_ability","practice_ability","","","","","","","","",""
"null","<span style='color:red; font-size: 70px;'>错误! </span>","null","html-keyboard-response","87","245488","0.0-8.0-1.0-1.0-0.0-1.38","3","3","5","2","2","4","2","3","3","4","4","1","-1","-1","2","0","0","0","1","4","2","5","2","2","2","5","2","2","5","7","8","3","7","8","2","7","3","8","5","2","2","4","5","3","6","3","3","3","1","5","2","4","2","2","3","5","2","5","2","2","2","6","5","3","6","3","6","3","7","3","5","7","3","2","3","2","7","4","5","798267707752587265","杨","67","Male","[""坏他"",""好我"",""好他"",""坏我""]","[""弱他"",""强我"",""强他"",""弱我""]","","","","","","","","","","","","","","","","","","","","","","","","","","","","","","feedback_test","","","","","","","","",""
"893","","f","psychophysics","88","247384","0.0-8.0-1.0-1.0-0.0-0.39","3","3","5","2","2","4","2","3","3","4","4","1","-1","-1","2","0","0","0","1","4","2","5","2","2","2","5","2","2","5","7","8","3","7","8","2","7","3","8","5","2","2","4","5","3","6","3","3","3","1","5","2","4","2","2","3","5","2","5","2","2","2","6","5","3","6","3","6","3","7","3","5","7","3","2","3","2","7","4","5","798267707752587265","杨","67","Male","[""坏他"",""好我"",""好他"",""坏我""]","[""弱他"",""强我"",""强他"",""弱我""]","","","","","","","","nonmatch","","","","","","","","","","key","f","16.662123893805113","640","356","f","true","nonmatch","img/triangle.png","弱我","强他","prac_ALT2_ability","practice_ability","","","","","","","","",""
"null","<span style='color:GreenYellow; font-size: 70px;'>正确! </span>","null","html-keyboard-response","89","247885","0.0-8.0-1.0-1.0-0.0-1.39","3","3","5","2","2","4","2","3","3","4","4","1","-1","-1","2","0","0","0","1","4","2","5","2","2","2","5","2","2","5","7","8","3","7","8","2","7","3","8","5","2","2","4","5","3","6","3","3","3","1","5","2","4","2","2","3","5","2","5","2","2","2","6","5","3","6","3","6","3","7","3","5","7","3","2","3","2","7","4","5","798267707752587265","杨","67","Male","[""坏他"",""好我"",""好他"",""坏我""]","[""弱他"",""强我"",""强他"",""弱我""]","","","","","","","","","","","","","","","","","","","","","","","","","","","","","","feedback_test","","","","","","","","",""
"772","","j","psychophysics","90","249659","0.0-8.0-1.0-1.0-0.0-0.40","3","3","5","2","2","4","2","3","3","4","4","1","-1","-1","2","0","0","0","1","4","2","5","2","2","2","5","2","2","5","7","8","3","7","8","2","7","3","8","5","2","2","4","5","3","6","3","3","3","1","5","2","4","2","2","3","5","2","5","2","2","2","6","5","3","6","3","6","3","7","3","5","7","3","2","3","2","7","4","5","798267707752587265","杨","67","Male","[""坏他"",""好我"",""好他"",""坏我""]","[""弱他"",""强我"",""强他"",""弱我""]","","","","","","","","match","","","","","","","","","","key","j","16.662264150943507","640","356","j","true","match","img/triangle.png","强他","强他","prac_ALT2_ability","practice_ability","","","","","","","","",""
"null","<span style='color:GreenYellow; font-size: 70px;'>正确! </span>","null","html-keyboard-response","91","250160","0.0-8.0-1.0-1.0-0.0-1.40","3","3","5","2","2","4","2","3","3","4","4","1","-1","-1","2","0","0","0","1","4","2","5","2","2","2","5","2","2","5","7","8","3","7","8","2","7","3","8","5","2","2","4","5","3","6","3","3","3","1","5","2","4","2","2","3","5","2","5","2","2","2","6","5","3","6","3","6","3","7","3","5","7","3","2","3","2","7","4","5","798267707752587265","杨","67","Male","[""坏他"",""好我"",""好他"",""坏我""]","[""弱他"",""强我"",""强他"",""弱我""]","","","","","","","","","","","","","","","","","","","","","","","","","","","","","","feedback_test","","","","","","","","",""
"638","","j","psychophysics","92","251800","0.0-8.0-1.0-1.0-0.0-0.41","3","3","5","2","2","4","2","3","3","4","4","1","-1","-1","2","0","0","0","1","4","2","5","2","2","2","5","2","2","5","7","8","3","7","8","2","7","3","8","5","2","2","4","5","3","6","3","3","3","1","5","2","4","2","2","3","5","2","5","2","2","2","6","5","3","6","3","6","3","7","3","5","7","3","2","3","2","7","4","5","798267707752587265","杨","67","Male","[""坏他"",""好我"",""好他"",""坏我""]","[""弱他"",""强我"",""强他"",""弱我""]","","","","","","","","match","","","","","","","","","","key","j","16.662886597938023","640","356","j","true","match","img/trapezoid.png","弱我","弱我","prac_ALT2_ability","practice_ability","","","","","","","","",""
"null","<span style='color:GreenYellow; font-size: 70px;'>正确! </span>","null","html-keyboard-response","93","252301","0.0-8.0-1.0-1.0-0.0-1.41","3","3","5","2","2","4","2","3","3","4","4","1","-1","-1","2","0","0","0","1","4","2","5","2","2","2","5","2","2","5","7","8","3","7","8","2","7","3","8","5","2","2","4","5","3","6","3","3","3","1","5","2","4","2","2","3","5","2","5","2","2","2","6","5","3","6","3","6","3","7","3","5","7","3","2","3","2","7","4","5","798267707752587265","杨","67","Male","[""坏他"",""好我"",""好他"",""坏我""]","[""弱他"",""强我"",""强他"",""弱我""]","","","","","","","","","","","","","","","","","","","","","","","","","","","","","","feedback_test","","","","","","","","",""
"789","","j","psychophysics","94","254092","0.0-8.0-1.0-1.0-0.0-0.42","3","3","5","2","2","4","2","3","3","4","4","1","-1","-1","2","0","0","0","1","4","2","5","2","2","2","5","2","2","5","7","8","3","7","8","2","7","3","8","5","2","2","4","5","3","6","3","3","3","1","5","2","4","2","2","3","5","2","5","2","2","2","6","5","3","6","3","6","3","7","3","5","7","3","2","3","2","7","4","5","798267707752587265","杨","67","Male","[""坏他"",""好我"",""好他"",""坏我""]","[""弱他"",""强我"",""强他"",""弱我""]","","","","","","","","match","","","","","","","","","","key","j","16.662616822429854","640","356","j","true","match","img/triangle.png","强他","强他","prac_ALT2_ability","practice_ability","","","","","","","","",""
"null","<span style='color:GreenYellow; font-size: 70px;'>正确! </span>","null","html-keyboard-response","95","254593","0.0-8.0-1.0-1.0-0.0-1.42","3","3","5","2","2","4","2","3","3","4","4","1","-1","-1","2","0","0","0","1","4","2","5","2","2","2","5","2","2","5","7","8","3","7","8","2","7","3","8","5","2","2","4","5","3","6","3","3","3","1","5","2","4","2","2","3","5","2","5","2","2","2","6","5","3","6","3","6","3","7","3","5","7","3","2","3","2","7","4","5","798267707752587265","杨","67","Male","[""坏他"",""好我"",""好他"",""坏我""]","[""弱他"",""强我"",""强他"",""弱我""]","","","","","","","","","","","","","","","","","","","","","","","","","","","","","","feedback_test","","","","","","","","",""
"899","","f","psychophysics","96","256493","0.0-8.0-1.0-1.0-0.0-0.43","3","3","5","2","2","4","2","3","3","4","4","1","-1","-1","2","0","0","0","1","4","2","5","2","2","2","5","2","2","5","7","8","3","7","8","2","7","3","8","5","2","2","4","5","3","6","3","3","3","1","5","2","4","2","2","3","5","2","5","2","2","2","6","5","3","6","3","6","3","7","3","5","7","3","2","3","2","7","4","5","798267707752587265","杨","67","Male","[""坏他"",""好我"",""好他"",""坏我""]","[""弱他"",""强我"",""强他"",""弱我""]","","","","","","","","nonmatch","","","","","","","","","","key","f","16.662831858407028","640","356","f","true","nonmatch","img/circle.png","弱他","强我","prac_ALT2_ability","practice_ability","","","","","","","","",""
"null","<span style='color:GreenYellow; font-size: 70px;'>正确! </span>","null","html-keyboard-response","97","256997","0.0-8.0-1.0-1.0-0.0-1.43","3","3","5","2","2","4","2","3","3","4","4","1","-1","-1","2","0","0","0","1","4","2","5","2","2","2","5","2","2","5","7","8","3","7","8","2","7","3","8","5","2","2","4","5","3","6","3","3","3","1","5","2","4","2","2","3","5","2","5","2","2","2","6","5","3","6","3","6","3","7","3","5","7","3","2","3","2","7","4","5","798267707752587265","杨","67","Male","[""坏他"",""好我"",""好他"",""坏我""]","[""弱他"",""强我"",""强他"",""弱我""]","","","","","","","","","","","","","","","","","","","","","","","","","","","","","","feedback_test","","","","","","","","",""
"778","","f","psychophysics","98","258776","0.0-8.0-1.0-1.0-0.0-0.44","3","3","5","2","2","4","2","3","3","4","4","1","-1","-1","2","0","0","0","1","4","2","5","2","2","2","5","2","2","5","7","8","3","7","8","2","7","3","8","5","2","2","4","5","3","6","3","3","3","1","5","2","4","2","2","3","5","2","5","2","2","2","6","5","3","6","3","6","3","7","3","5","7","3","2","3","2","7","4","5","798267707752587265","杨","67","Male","[""坏他"",""好我"",""好他"",""坏我""]","[""弱他"",""强我"",""强他"",""弱我""]","","","","","","","","nonmatch","","","","","","","","","","key","f","16.66226415094323","640","356","f","true","nonmatch","img/trapezoid.png","强我","弱我","prac_ALT2_ability","practice_ability","","","","","","","","",""
"null","<span style='color:GreenYellow; font-size: 70px;'>正确! </span>","null","html-keyboard-response","99","259277","0.0-8.0-1.0-1.0-0.0-1.44","3","3","5","2","2","4","2","3","3","4","4","1","-1","-1","2","0","0","0","1","4","2","5","2","2","2","5","2","2","5","7","8","3","7","8","2","7","3","8","5","2","2","4","5","3","6","3","3","3","1","5","2","4","2","2","3","5","2","5","2","2","2","6","5","3","6","3","6","3","7","3","5","7","3","2","3","2","7","4","5","798267707752587265","杨","67","Male","[""坏他"",""好我"",""好他"",""坏我""]","[""弱他"",""强我"",""强他"",""弱我""]","","","","","","","","","","","","","","","","","","","","","","","","","","","","","","feedback_test","","","","","","","","",""
"785","","j","psychophysics","100","261064","0.0-8.0-1.0-1.0-0.0-0.45","3","3","5","2","2","4","2","3","3","4","4","1","-1","-1","2","0","0","0","1","4","2","5","2","2","2","5","2","2","5","7","8","3","7","8","2","7","3","8","5","2","2","4","5","3","6","3","3","3","1","5","2","4","2","2","3","5","2","5","2","2","2","6","5","3","6","3","6","3","7","3","5","7","3","2","3","2","7","4","5","798267707752587265","杨","67","Male","[""坏他"",""好我"",""好他"",""坏我""]","[""弱他"",""强我"",""强他"",""弱我""]","","","","","","","","match","","","","","","","","","","key","j","16.662264150943507","640","356","j","true","match","img/trapezoid.png","弱我","弱我","prac_ALT2_ability","practice_ability","","","","","","","","",""
"null","<span style='color:GreenYellow; font-size: 70px;'>正确! </span>","null","html-keyboard-response","101","261566","0.0-8.0-1.0-1.0-0.0-1.45","3","3","5","2","2","4","2","3","3","4","4","1","-1","-1","2","0","0","0","1","4","2","5","2","2","2","5","2","2","5","7","8","3","7","8","2","7","3","8","5","2","2","4","5","3","6","3","3","3","1","5","2","4","2","2","3","5","2","5","2","2","2","6","5","3","6","3","6","3","7","3","5","7","3","2","3","2","7","4","5","798267707752587265","杨","67","Male","[""坏他"",""好我"",""好他"",""坏我""]","[""弱他"",""强我"",""强他"",""弱我""]","","","","","","","","","","","","","","","","","","","","","","","","","","","","","","feedback_test","","","","","","","","",""
"584","","j","psychophysics","102","263152","0.0-8.0-1.0-1.0-0.0-0.46","3","3","5","2","2","4","2","3","3","4","4","1","-1","-1","2","0","0","0","1","4","2","5","2","2","2","5","2","2","5","7","8","3","7","8","2","7","3","8","5","2","2","4","5","3","6","3","3","3","1","5","2","4","2","2","3","5","2","5","2","2","2","6","5","3","6","3","6","3","7","3","5","7","3","2","3","2","7","4","5","798267707752587265","杨","67","Male","[""坏他"",""好我"",""好他"",""坏我""]","[""弱他"",""强我"",""强他"",""弱我""]","","","","","","","","match","","","","","","","","","","key","j","16.662765957446684","640","356","j","true","match","img/circle.png","强我","强我","prac_ALT2_ability","practice_ability","","","","","","","","",""
"null","<span style='color:GreenYellow; font-size: 70px;'>正确! </span>","null","html-keyboard-response","103","263653","0.0-8.0-1.0-1.0-0.0-1.46","3","3","5","2","2","4","2","3","3","4","4","1","-1","-1","2","0","0","0","1","4","2","5","2","2","2","5","2","2","5","7","8","3","7","8","2","7","3","8","5","2","2","4","5","3","6","3","3","3","1","5","2","4","2","2","3","5","2","5","2","2","2","6","5","3","6","3","6","3","7","3","5","7","3","2","3","2","7","4","5","798267707752587265","杨","67","Male","[""坏他"",""好我"",""好他"",""坏我""]","[""弱他"",""强我"",""强他"",""弱我""]","","","","","","","","","","","","","","","","","","","","","","","","","","","","","","feedback_test","","","","","","","","",""
"725","","j","psychophysics","104","265380","0.0-8.0-1.0-1.0-0.0-0.47","3","3","5","2","2","4","2","3","3","4","4","1","-1","-1","2","0","0","0","1","4","2","5","2","2","2","5","2","2","5","7","8","3","7","8","2","7","3","8","5","2","2","4","5","3","6","3","3","3","1","5","2","4","2","2","3","5","2","5","2","2","2","6","5","3","6","3","6","3","7","3","5","7","3","2","3","2","7","4","5","798267707752587265","杨","67","Male","[""坏他"",""好我"",""好他"",""坏我""]","[""弱他"",""强我"",""强他"",""弱我""]","","","","","","","","match","","","","","","","","","","key","j","16.65686274509804","640","356","j","true","match","img/trapezoid.png","弱我","弱我","prac_ALT2_ability","practice_ability","","","","","","","","",""
"null","<span style='color:GreenYellow; font-size: 70px;'>正确! </span>","null","html-keyboard-response","105","265882","0.0-8.0-1.0-1.0-0.0-1.47","3","3","5","2","2","4","2","3","3","4","4","1","-1","-1","2","0","0","0","1","4","2","5","2","2","2","5","2","2","5","7","8","3","7","8","2","7","3","8","5","2","2","4","5","3","6","3","3","3","1","5","2","4","2","2","3","5","2","5","2","2","2","6","5","3","6","3","6","3","7","3","5","7","3","2","3","2","7","4","5","798267707752587265","杨","67","Male","[""坏他"",""好我"",""好他"",""坏我""]","[""弱他"",""强我"",""强他"",""弱我""]","","","","","","","","","","","","","","","","","","","","","","","","","","","","","","feedback_test","","","","","","","","",""
"38979","<style>.context{color:white; font-size: 35px; line-height:40px}</style>                          <div><p class='context'>您正确回答了75% 的试次。</p><p class='context'>您的平均反应时为734毫秒。</p><p class='context'>恭喜您完成练习。按空格键进入正式实验。</p><p class='footer' style='color:white;font-size: 35px; line-height:40px;'>请在进入正式实验实验之前将您的<span style='color: lightgreen;'>食指</span>放在电脑键盘的相应键位上进行按键。</p>"," ","html-keyboard-response","106","304865","0.0-8.0-1.0-2.0","3","3","5","2","2","4","2","3","3","4","4","1","-1","-1","2","0","0","0","1","4","2","5","2","2","2","5","2","2","5","7","8","3","7","8","2","7","3","8","5","2","2","4","5","3","6","3","3","3","1","5","2","4","2","2","3","5","2","5","2","2","2","6","5","3","6","3","6","3","7","3","5","7","3","2","3","2","7","4","5","798267707752587265","杨","67","Male","[""坏他"",""好我"",""好他"",""坏我""]","[""弱他"",""强我"",""强他"",""弱我""]","","","","","","","","","","","","","","","","","","","","","","","","","","","","","","","","","","","","","","",""
"895","
  <p style='color: white; font-size: 22px'>请您将手指放在按键上，准备进入正式的匹配任务。</p>
  <p> <div style = ""color: green""><按空格键进入下一阶段的匹配任务></div></p>
  "," ","html-keyboard-response","107","305764","0.0-8.0-1.0-3.0","3","3","5","2","2","4","2","3","3","4","4","1","-1","-1","2","0","0","0","1","4","2","5","2","2","2","5","2","2","5","7","8","3","7","8","2","7","3","8","5","2","2","4","5","3","6","3","3","3","1","5","2","4","2","2","3","5","2","5","2","2","2","6","5","3","6","3","6","3","7","3","5","7","3","2","3","2","7","4","5","798267707752587265","杨","67","Male","[""坏他"",""好我"",""好他"",""坏我""]","[""弱他"",""强我"",""强他"",""弱我""]","","","","","","","","","","","","","","","","","","","","","","","","","","","","","","","","","","","","","","",""
"870","","f","psychophysics","108","307635","0.0-8.0-1.0-4.0-0.0-0.0","3","3","5","2","2","4","2","3","3","4","4","1","-1","-1","2","0","0","0","1","4","2","5","2","2","2","5","2","2","5","7","8","3","7","8","2","7","3","8","5","2","2","4","5","3","6","3","3","3","1","5","2","4","2","2","3","5","2","5","2","2","2","6","5","3","6","3","6","3","7","3","5","7","3","2","3","2","7","4","5","798267707752587265","杨","67","Male","[""坏他"",""好我"",""好他"",""坏我""]","[""弱他"",""强我"",""强他"",""弱我""]","","","","","","","","nonmatch","","","","","","","","","","key","f","16.66396396396407","640","356","j","false","match","img/hexagon.png","弱他","弱他","ALT2","ability","","","","","","","","",""
"null","<span style='color:red; font-size: 70px;'>错误! </span>","null","html-keyboard-response","109","308136","0.0-8.0-1.0-4.0-0.0-1.0","3","3","5","2","2","4","2","3","3","4","4","1","-1","-1","2","0","0","0","1","4","2","5","2","2","2","5","2","2","5","7","8","3","7","8","2","7","3","8","5","2","2","4","5","3","6","3","3","3","1","5","2","4","2","2","3","5","2","5","2","2","2","6","5","3","6","3","6","3","7","3","5","7","3","2","3","2","7","4","5","798267707752587265","杨","67","Male","[""坏他"",""好我"",""好他"",""坏我""]","[""弱他"",""强我"",""强他"",""弱我""]","","","","","","","","","","","","","","","","","","","","","","","","","","","","","","feedback_test","","","","","","","","",""
"856","","j","psychophysics","110","309995","0.0-8.0-1.0-4.0-0.0-0.1","3","3","5","2","2","4","2","3","3","4","4","1","-1","-1","2","0","0","0","1","4","2","5","2","2","2","5","2","2","5","7","8","3","7","8","2","7","3","8","5","2","2","4","5","3","6","3","3","3","1","5","2","4","2","2","3","5","2","5","2","2","2","6","5","3","6","3","6","3","7","3","5","7","3","2","3","2","7","4","5","798267707752587265","杨","67","Male","[""坏他"",""好我"",""好他"",""坏我""]","[""弱他"",""强我"",""强他"",""弱我""]","","","","","","","","match","","","","","","","","","","key","j","16.663636363636364","640","356","j","true","match","img/circle.png","强我","强我","ALT2","ability","","","","","","","","",""
"null","<span style='color:GreenYellow; font-size: 70px;'>正确! </span>","null","html-keyboard-response","111","310497","0.0-8.0-1.0-4.0-0.0-1.1","3","3","5","2","2","4","2","3","3","4","4","1","-1","-1","2","0","0","0","1","4","2","5","2","2","2","5","2","2","5","7","8","3","7","8","2","7","3","8","5","2","2","4","5","3","6","3","3","3","1","5","2","4","2","2","3","5","2","5","2","2","2","6","5","3","6","3","6","3","7","3","5","7","3","2","3","2","7","4","5","798267707752587265","杨","67","Male","[""坏他"",""好我"",""好他"",""坏我""]","[""弱他"",""强我"",""强他"",""弱我""]","","","","","","","","","","","","","","","","","","","","","","","","","","","","","","feedback_test","","","","","","","","",""
"860","","j","psychophysics","112","312358","0.0-8.0-1.0-4.0-0.0-0.2","3","3","5","2","2","4","2","3","3","4","4","1","-1","-1","2","0","0","0","1","4","2","5","2","2","2","5","2","2","5","7","8","3","7","8","2","7","3","8","5","2","2","4","5","3","6","3","3","3","1","5","2","4","2","2","3","5","2","5","2","2","2","6","5","3","6","3","6","3","7","3","5","7","3","2","3","2","7","4","5","798267707752587265","杨","67","Male","[""坏他"",""好我"",""好他"",""坏我""]","[""弱他"",""强我"",""强他"",""弱我""]","","","","","","","","match","","","","","","","","","","key","j","16.663636363636364","640","356","j","true","match","img/trapezoid.png","弱我","弱我","ALT2","ability","","","","","","","","",""
"null","<span style='color:GreenYellow; font-size: 70px;'>正确! </span>","null","html-keyboard-response","113","312859","0.0-8.0-1.0-4.0-0.0-1.2","3","3","5","2","2","4","2","3","3","4","4","1","-1","-1","2","0","0","0","1","4","2","5","2","2","2","5","2","2","5","7","8","3","7","8","2","7","3","8","5","2","2","4","5","3","6","3","3","3","1","5","2","4","2","2","3","5","2","5","2","2","2","6","5","3","6","3","6","3","7","3","5","7","3","2","3","2","7","4","5","798267707752587265","杨","67","Male","[""坏他"",""好我"",""好他"",""坏我""]","[""弱他"",""强我"",""强他"",""弱我""]","","","","","","","","","","","","","","","","","","","","","","","","","","","","","","feedback_test","","","","","","","","",""
"1020","","f","psychophysics","114","314880","0.0-8.0-1.0-4.0-0.0-0.3","3","3","5","2","2","4","2","3","3","4","4","1","-1","-1","2","0","0","0","1","4","2","5","2","2","2","5","2","2","5","7","8","3","7","8","2","7","3","8","5","2","2","4","5","3","6","3","3","3","1","5","2","4","2","2","3","5","2","5","2","2","2","6","5","3","6","3","6","3","7","3","5","7","3","2","3","2","7","4","5","798267707752587265","杨","67","Male","[""坏他"",""好我"",""好他"",""坏我""]","[""弱他"",""强我"",""强他"",""弱我""]","","","","","","","","nonmatch","","","","","","","","","","key","f","16.662809917355467","640","356","f","true","nonmatch","img/circle.png","弱我","强我","ALT2","ability","","","","","","","","",""
"null","<span style='color:GreenYellow; font-size: 70px;'>正确! </span>","null","html-keyboard-response","115","315382","0.0-8.0-1.0-4.0-0.0-1.3","3","3","5","2","2","4","2","3","3","4","4","1","-1","-1","2","0","0","0","1","4","2","5","2","2","2","5","2","2","5","7","8","3","7","8","2","7","3","8","5","2","2","4","5","3","6","3","3","3","1","5","2","4","2","2","3","5","2","5","2","2","2","6","5","3","6","3","6","3","7","3","5","7","3","2","3","2","7","4","5","798267707752587265","杨","67","Male","[""坏他"",""好我"",""好他"",""坏我""]","[""弱他"",""强我"",""强他"",""弱我""]","","","","","","","","","","","","","","","","","","","","","","","","","","","","","","feedback_test","","","","","","","","",""
"650","","j","psychophysics","116","317034","0.0-8.0-1.0-4.0-0.0-0.4","3","3","5","2","2","4","2","3","3","4","4","1","-1","-1","2","0","0","0","1","4","2","5","2","2","2","5","2","2","5","7","8","3","7","8","2","7","3","8","5","2","2","4","5","3","6","3","3","3","1","5","2","4","2","2","3","5","2","5","2","2","2","6","5","3","6","3","6","3","7","3","5","7","3","2","3","2","7","4","5","798267707752587265","杨","67","Male","[""坏他"",""好我"",""好他"",""坏我""]","[""弱他"",""强我"",""强他"",""弱我""]","","","","","","","","match","","","","","","","","","","key","j","16.663265306122447","640","356","j","true","match","img/trapezoid.png","弱我","弱我","ALT2","ability","","","","","","","","",""
"null","<span style='color:GreenYellow; font-size: 70px;'>正确! </span>","null","html-keyboard-response","117","317535","0.0-8.0-1.0-4.0-0.0-1.4","3","3","5","2","2","4","2","3","3","4","4","1","-1","-1","2","0","0","0","1","4","2","5","2","2","2","5","2","2","5","7","8","3","7","8","2","7","3","8","5","2","2","4","5","3","6","3","3","3","1","5","2","4","2","2","3","5","2","5","2","2","2","6","5","3","6","3","6","3","7","3","5","7","3","2","3","2","7","4","5","798267707752587265","杨","67","Male","[""坏他"",""好我"",""好他"",""坏我""]","[""弱他"",""强我"",""强他"",""弱我""]","","","","","","","","","","","","","","","","","","","","","","","","","","","","","","feedback_test","","","","","","","","",""
"636","","j","psychophysics","118","319172","0.0-8.0-1.0-4.0-0.0-0.5","3","3","5","2","2","4","2","3","3","4","4","1","-1","-1","2","0","0","0","1","4","2","5","2","2","2","5","2","2","5","7","8","3","7","8","2","7","3","8","5","2","2","4","5","3","6","3","3","3","1","5","2","4","2","2","3","5","2","5","2","2","2","6","5","3","6","3","6","3","7","3","5","7","3","2","3","2","7","4","5","798267707752587265","杨","67","Male","[""坏他"",""好我"",""好他"",""坏我""]","[""弱他"",""强我"",""强他"",""弱我""]","","","","","","","","match","","","","","","","","","","key","j","16.663917525772835","640","356","j","true","match","img/circle.png","强我","强我","ALT2","ability","","","","","","","","",""
"null","<span style='color:GreenYellow; font-size: 70px;'>正确! </span>","null","html-keyboard-response","119","319673","0.0-8.0-1.0-4.0-0.0-1.5","3","3","5","2","2","4","2","3","3","4","4","1","-1","-1","2","0","0","0","1","4","2","5","2","2","2","5","2","2","5","7","8","3","7","8","2","7","3","8","5","2","2","4","5","3","6","3","3","3","1","5","2","4","2","2","3","5","2","5","2","2","2","6","5","3","6","3","6","3","7","3","5","7","3","2","3","2","7","4","5","798267707752587265","杨","67","Male","[""坏他"",""好我"",""好他"",""坏我""]","[""弱他"",""强我"",""强他"",""弱我""]","","","","","","","","","","","","","","","","","","","","","","","","","","","","","","feedback_test","","","","","","","","",""
"695","","f","psychophysics","120","321370","0.0-8.0-1.0-4.0-0.0-0.6","3","3","5","2","2","4","2","3","3","4","4","1","-1","-1","2","0","0","0","1","4","2","5","2","2","2","5","2","2","5","7","8","3","7","8","2","7","3","8","5","2","2","4","5","3","6","3","3","3","1","5","2","4","2","2","3","5","2","5","2","2","2","6","5","3","6","3","6","3","7","3","5","7","3","2","3","2","7","4","5","798267707752587265","杨","67","Male","[""坏他"",""好我"",""好他"",""坏我""]","[""弱他"",""强我"",""强他"",""弱我""]","","","","","","","","nonmatch","","","","","","","","","","key","f","16.663564356435828","640","356","f","true","nonmatch","img/trapezoid.png","强他","弱我","ALT2","ability","","","","","","","","",""
"null","<span style='color:GreenYellow; font-size: 70px;'>正确! </span>","null","html-keyboard-response","121","321871","0.0-8.0-1.0-4.0-0.0-1.6","3","3","5","2","2","4","2","3","3","4","4","1","-1","-1","2","0","0","0","1","4","2","5","2","2","2","5","2","2","5","7","8","3","7","8","2","7","3","8","5","2","2","4","5","3","6","3","3","3","1","5","2","4","2","2","3","5","2","5","2","2","2","6","5","3","6","3","6","3","7","3","5","7","3","2","3","2","7","4","5","798267707752587265","杨","67","Male","[""坏他"",""好我"",""好他"",""坏我""]","[""弱他"",""强我"",""强他"",""弱我""]","","","","","","","","","","","","","","","","","","","","","","","","","","","","","","feedback_test","","","","","","","","",""
"692","","j","psychophysics","122","323566","0.0-8.0-1.0-4.0-0.0-0.7","3","3","5","2","2","4","2","3","3","4","4","1","-1","-1","2","0","0","0","1","4","2","5","2","2","2","5","2","2","5","7","8","3","7","8","2","7","3","8","5","2","2","4","5","3","6","3","3","3","1","5","2","4","2","2","3","5","2","5","2","2","2","6","5","3","6","3","6","3","7","3","5","7","3","2","3","2","7","4","5","798267707752587265","杨","67","Male","[""坏他"",""好我"",""好他"",""坏我""]","[""弱他"",""强我"",""强他"",""弱我""]","","","","","","","","match","","","","","","","","","","key","j","16.664356435643334","640","356","j","true","match","img/triangle.png","强他","强他","ALT2","ability","","","","","","","","",""
"null","<span style='color:GreenYellow; font-size: 70px;'>正确! </span>","null","html-keyboard-response","123","324067","0.0-8.0-1.0-4.0-0.0-1.7","3","3","5","2","2","4","2","3","3","4","4","1","-1","-1","2","0","0","0","1","4","2","5","2","2","2","5","2","2","5","7","8","3","7","8","2","7","3","8","5","2","2","4","5","3","6","3","3","3","1","5","2","4","2","2","3","5","2","5","2","2","2","6","5","3","6","3","6","3","7","3","5","7","3","2","3","2","7","4","5","798267707752587265","杨","67","Male","[""坏他"",""好我"",""好他"",""坏我""]","[""弱他"",""强我"",""强他"",""弱我""]","","","","","","","","","","","","","","","","","","","","","","","","","","","","","","feedback_test","","","","","","","","",""
"665","","j","psychophysics","124","325733","0.0-8.0-1.0-4.0-0.0-0.8","3","3","5","2","2","4","2","3","3","4","4","1","-1","-1","2","0","0","0","1","4","2","5","2","2","2","5","2","2","5","7","8","3","7","8","2","7","3","8","5","2","2","4","5","3","6","3","3","3","1","5","2","4","2","2","3","5","2","5","2","2","2","6","5","3","6","3","6","3","7","3","5","7","3","2","3","2","7","4","5","798267707752587265","杨","67","Male","[""坏他"",""好我"",""好他"",""坏我""]","[""弱他"",""强我"",""强他"",""弱我""]","","","","","","","","match","","","","","","","","","","key","j","16.664646464646346","640","356","j","true","match","img/trapezoid.png","弱我","弱我","ALT2","ability","","","","","","","","",""
"null","<span style='color:GreenYellow; font-size: 70px;'>正确! </span>","null","html-keyboard-response","125","326234","0.0-8.0-1.0-4.0-0.0-1.8","3","3","5","2","2","4","2","3","3","4","4","1","-1","-1","2","0","0","0","1","4","2","5","2","2","2","5","2","2","5","7","8","3","7","8","2","7","3","8","5","2","2","4","5","3","6","3","3","3","1","5","2","4","2","2","3","5","2","5","2","2","2","6","5","3","6","3","6","3","7","3","5","7","3","2","3","2","7","4","5","798267707752587265","杨","67","Male","[""坏他"",""好我"",""好他"",""坏我""]","[""弱他"",""强我"",""强他"",""弱我""]","","","","","","","","","","","","","","","","","","","","","","","","","","","","","","feedback_test","","","","","","","","",""
"783","","f","psychophysics","126","328018","0.0-8.0-1.0-4.0-0.0-0.9","3","3","5","2","2","4","2","3","3","4","4","1","-1","-1","2","0","0","0","1","4","2","5","2","2","2","5","2","2","5","7","8","3","7","8","2","7","3","8","5","2","2","4","5","3","6","3","3","3","1","5","2","4","2","2","3","5","2","5","2","2","2","6","5","3","6","3","6","3","7","3","5","7","3","2","3","2","7","4","5","798267707752587265","杨","67","Male","[""坏他"",""好我"",""好他"",""坏我""]","[""弱他"",""强我"",""强他"",""弱我""]","","","","","","","","nonmatch","","","","","","","","","","key","f","16.6632075471697","640","356","j","false","match","img/hexagon.png","弱他","弱他","ALT2","ability","","","","","","","","",""
"null","<span style='color:red; font-size: 70px;'>错误! </span>","null","html-keyboard-response","127","328519","0.0-8.0-1.0-4.0-0.0-1.9","3","3","5","2","2","4","2","3","3","4","4","1","-1","-1","2","0","0","0","1","4","2","5","2","2","2","5","2","2","5","7","8","3","7","8","2","7","3","8","5","2","2","4","5","3","6","3","3","3","1","5","2","4","2","2","3","5","2","5","2","2","2","6","5","3","6","3","6","3","7","3","5","7","3","2","3","2","7","4","5","798267707752587265","杨","67","Male","[""坏他"",""好我"",""好他"",""坏我""]","[""弱他"",""强我"",""强他"",""弱我""]","","","","","","","","","","","","","","","","","","","","","","","","","","","","","","feedback_test","","","","","","","","",""
"546","","j","psychophysics","128","330067","0.0-8.0-1.0-4.0-0.0-0.10","3","3","5","2","2","4","2","3","3","4","4","1","-1","-1","2","0","0","0","1","4","2","5","2","2","2","5","2","2","5","7","8","3","7","8","2","7","3","8","5","2","2","4","5","3","6","3","3","3","1","5","2","4","2","2","3","5","2","5","2","2","2","6","5","3","6","3","6","3","7","3","5","7","3","2","3","2","7","4","5","798267707752587265","杨","67","Male","[""坏他"",""好我"",""好他"",""坏我""]","[""弱他"",""强我"",""强他"",""弱我""]","","","","","","","","match","","","","","","","","","","key","j","16.66304347826087","640","356","j","true","match","img/triangle.png","强他","强他","ALT2","ability","","","","","","","","",""
"null","<span style='color:GreenYellow; font-size: 70px;'>正确! </span>","null","html-keyboard-response","129","330568","0.0-8.0-1.0-4.0-0.0-1.10","3","3","5","2","2","4","2","3","3","4","4","1","-1","-1","2","0","0","0","1","4","2","5","2","2","2","5","2","2","5","7","8","3","7","8","2","7","3","8","5","2","2","4","5","3","6","3","3","3","1","5","2","4","2","2","3","5","2","5","2","2","2","6","5","3","6","3","6","3","7","3","5","7","3","2","3","2","7","4","5","798267707752587265","杨","67","Male","[""坏他"",""好我"",""好他"",""坏我""]","[""弱他"",""强我"",""强他"",""弱我""]","","","","","","","","","","","","","","","","","","","","","","","","","","","","","","feedback_test","","","","","","","","",""
"672","","j","psychophysics","130","332243","0.0-8.0-1.0-4.0-0.0-0.11","3","3","5","2","2","4","2","3","3","4","4","1","-1","-1","2","0","0","0","1","4","2","5","2","2","2","5","2","2","5","7","8","3","7","8","2","7","3","8","5","2","2","4","5","3","6","3","3","3","1","5","2","4","2","2","3","5","2","5","2","2","2","6","5","3","6","3","6","3","7","3","5","7","3","2","3","2","7","4","5","798267707752587265","杨","67","Male","[""坏他"",""好我"",""好他"",""坏我""]","[""弱他"",""强我"",""强他"",""弱我""]","","","","","","","","match","","","","","","","","","","key","j","16.663000000000466","640","356","f","false","nonmatch","img/trapezoid.png","弱他","弱我","ALT2","ability","","","","","","","","",""
"null","<span style='color:red; font-size: 70px;'>错误! </span>","null","html-keyboard-response","131","332743","0.0-8.0-1.0-4.0-0.0-1.11","3","3","5","2","2","4","2","3","3","4","4","1","-1","-1","2","0","0","0","1","4","2","5","2","2","2","5","2","2","5","7","8","3","7","8","2","7","3","8","5","2","2","4","5","3","6","3","3","3","1","5","2","4","2","2","3","5","2","5","2","2","2","6","5","3","6","3","6","3","7","3","5","7","3","2","3","2","7","4","5","798267707752587265","杨","67","Male","[""坏他"",""好我"",""好他"",""坏我""]","[""弱他"",""强我"",""强他"",""弱我""]","","","","","","","","","","","","","","","","","","","","","","","","","","","","","","feedback_test","","","","","","","","",""
"839","","f","psychophysics","132","334584","0.0-8.0-1.0-4.0-0.0-0.12","3","3","5","2","2","4","2","3","3","4","4","1","-1","-1","2","0","0","0","1","4","2","5","2","2","2","5","2","2","5","7","8","3","7","8","2","7","3","8","5","2","2","4","5","3","6","3","3","3","1","5","2","4","2","2","3","5","2","5","2","2","2","6","5","3","6","3","6","3","7","3","5","7","3","2","3","2","7","4","5","798267707752587265","杨","67","Male","[""坏他"",""好我"",""好他"",""坏我""]","[""弱他"",""强我"",""强他"",""弱我""]","","","","","","","","nonmatch","","","","","","","","","","key","f","16.663302752293472","640","356","f","true","nonmatch","img/trapezoid.png","强我","弱我","ALT2","ability","","","","","","","","",""
"null","<span style='color:GreenYellow; font-size: 70px;'>正确! </span>","null","html-keyboard-response","133","335085","0.0-8.0-1.0-4.0-0.0-1.12","3","3","5","2","2","4","2","3","3","4","4","1","-1","-1","2","0","0","0","1","4","2","5","2","2","2","5","2","2","5","7","8","3","7","8","2","7","3","8","5","2","2","4","5","3","6","3","3","3","1","5","2","4","2","2","3","5","2","5","2","2","2","6","5","3","6","3","6","3","7","3","5","7","3","2","3","2","7","4","5","798267707752587265","杨","67","Male","[""坏他"",""好我"",""好他"",""坏我""]","[""弱他"",""强我"",""强他"",""弱我""]","","","","","","","","","","","","","","","","","","","","","","","","","","","","","","feedback_test","","","","","","","","",""
"879","","f","psychophysics","134","336966","0.0-8.0-1.0-4.0-0.0-0.13","3","3","5","2","2","4","2","3","3","4","4","1","-1","-1","2","0","0","0","1","4","2","5","2","2","2","5","2","2","5","7","8","3","7","8","2","7","3","8","5","2","2","4","5","3","6","3","3","3","1","5","2","4","2","2","3","5","2","5","2","2","2","6","5","3","6","3","6","3","7","3","5","7","3","2","3","2","7","4","5","798267707752587265","杨","67","Male","[""坏他"",""好我"",""好他"",""坏我""]","[""弱他"",""强我"",""强他"",""弱我""]","","","","","","","","nonmatch","","","","","","","","","","key","f","16.66428571428592","640","356","f","true","nonmatch","img/triangle.png","弱我","强他","ALT2","ability","","","","","","","","",""
"null","<span style='color:GreenYellow; font-size: 70px;'>正确! </span>","null","html-keyboard-response","135","337467","0.0-8.0-1.0-4.0-0.0-1.13","3","3","5","2","2","4","2","3","3","4","4","1","-1","-1","2","0","0","0","1","4","2","5","2","2","2","5","2","2","5","7","8","3","7","8","2","7","3","8","5","2","2","4","5","3","6","3","3","3","1","5","2","4","2","2","3","5","2","5","2","2","2","6","5","3","6","3","6","3","7","3","5","7","3","2","3","2","7","4","5","798267707752587265","杨","67","Male","[""坏他"",""好我"",""好他"",""坏我""]","[""弱他"",""强我"",""强他"",""弱我""]","","","","","","","","","","","","","","","","","","","","","","","","","","","","","","feedback_test","","","","","","","","",""
"967","","f","psychophysics","136","339435","0.0-8.0-1.0-4.0-0.0-0.14","3","3","5","2","2","4","2","3","3","4","4","1","-1","-1","2","0","0","0","1","4","2","5","2","2","2","5","2","2","5","7","8","3","7","8","2","7","3","8","5","2","2","4","5","3","6","3","3","3","1","5","2","4","2","2","3","5","2","5","2","2","2","6","5","3","6","3","6","3","7","3","5","7","3","2","3","2","7","4","5","798267707752587265","杨","67","Male","[""坏他"",""好我"",""好他"",""坏我""]","[""弱他"",""强我"",""强他"",""弱我""]","","","","","","","","nonmatch","","","","","","","","","","key","f","16.664102564102663","640","356","f","true","nonmatch","img/hexagon.png","强他","弱他","ALT2","ability","","","","","","","","",""
"null","<span style='color:GreenYellow; font-size: 70px;'>正确! </span>","null","html-keyboard-response","137","339936","0.0-8.0-1.0-4.0-0.0-1.14","3","3","5","2","2","4","2","3","3","4","4","1","-1","-1","2","0","0","0","1","4","2","5","2","2","2","5","2","2","5","7","8","3","7","8","2","7","3","8","5","2","2","4","5","3","6","3","3","3","1","5","2","4","2","2","3","5","2","5","2","2","2","6","5","3","6","3","6","3","7","3","5","7","3","2","3","2","7","4","5","798267707752587265","杨","67","Male","[""坏他"",""好我"",""好他"",""坏我""]","[""弱他"",""强我"",""强他"",""弱我""]","","","","","","","","","","","","","","","","","","","","","","","","","","","","","","feedback_test","","","","","","","","",""
"839","","f","psychophysics","138","341776","0.0-8.0-1.0-4.0-0.0-0.15","3","3","5","2","2","4","2","3","3","4","4","1","-1","-1","2","0","0","0","1","4","2","5","2","2","2","5","2","2","5","7","8","3","7","8","2","7","3","8","5","2","2","4","5","3","6","3","3","3","1","5","2","4","2","2","3","5","2","5","2","2","2","6","5","3","6","3","6","3","7","3","5","7","3","2","3","2","7","4","5","798267707752587265","杨","67","Male","[""坏他"",""好我"",""好他"",""坏我""]","[""弱他"",""强我"",""强他"",""弱我""]","","","","","","","","nonmatch","","","","","","","","","","key","f","16.661818181818077","640","356","f","true","nonmatch","img/circle.png","强他","强我","ALT2","ability","","","","","","","","",""
