"rt","stimulus","response","trial_type","trial_index","time_elapsed","internal_node_id","swb_1","swb_2","swb_3","swb_4","swb_5","LOT_1","LOT_2","LOT_3","LOT_4","LOT_5","LOT_6","IPC_1","IPC_2","IPC_3","IPC_4","IPC_5","IPC_6","IPC_7","IPC_8","MorIden_1","MorIden_2","MorIden_3","MorIden_4","MorIden_5","MorIden_6","MorIden_7","MorIden_8","MorIden_9","MorIden_10","moralSeImag_1","moralSeImag_2","moralSeImag_3","moralSeImag_4","moralSeImag_5","moralSeImag_6","moralSeImag_7","moralSeImag_8","moralSeImag_9","sde_1","sde_2","sde_3","sde_4","sde_5","sde_6","sde_7","sde_8","sde_9","sde_10","trap2","sde_11","sde_12","sde_13","sde_14","sde_15","sde_16","sde_17","sde_18","sde_19","sde_20","IM_1","IM_2","IM_3","IM_4","IM_5","IM_6","IM_7","IM_8","IM_9","IM_10","IM_11","IM_12","IM_13","IM_14","IM_15","IM_16","IM_17","IM_18","IM_19","IM_20","subj_idx","friend_name","ParticipantID","Sex","Word","Word2","value","success","timeout","failed_images","failed_audio","failed_video","user_agent","responses","item_order","radio_event_ids","radio_event_times","key_event_times","mouse_event_times","straightlining","zigzagging","honeypot","task_id","screen_id","time_stamp","response_type","key_press","avg_frame_time","center_x","center_y","person","word","valence","domain","math","correct_response","correct","status","view_history","identity","duration","Image","condition","question_order","trap2_item"
"331354","
   <p><div style='color:white; font-size: 25px'>您好，欢迎参加本次实验。</div></p>
   <p><div style='color:white; font-size: 25px'>为充分保障您的权利，请确保您已经知晓并同意《参与实验同意书》以及《数据公开知情同意书》。</div></p>
   <p><div style='color:white; font-size: 25px'>如果您未见过上述内容，请咨询实验员。</div></p>
   <p style='color:white; font-size: 25px'>如果您选择继续实验，则表示您已经清楚两份知情同意书的内容并同意。</p>
   <p><div style = ""color: pink;font-size:30px;"">请确保您记得day0的实验编号，您将在本次实验输入该编号，若您忘记，请咨询实验员后作答。</div></p>
   <p><div style = ""color:lightblue;font-size:25px;"">请您尽可能认真地作答，我们将依据您在各问卷和按键任务中的作答质量发放报酬。</div></p>
   <p> <div style = ""color: green""><按空格键至下页></div> </p>
   "," ","html-keyboard-response","0","331365","0.0-0.0","2","1","2","1","1","2","1","1","2","2","2","-2","-1","-3","-2","-1","-2","-2","-2","1","2","3","2","2","1","1","1","2","2","1","4","3","3","1","1","2","1","2","2","2","3","3","2","1","2","3","1","2","1","1","2","3","1","1","1","2","2","2","2","1","1","3","1","2","5","1","3","1","4","3","1","2","1","1","3","1","7","2","2","688788853804236800","李","18","Male","[""坏他"",""好我"",""坏我"",""好他""]","[""弱他"",""强我"",""弱我"",""强他""]","","","","","","","","","","","","","","","","","","","","","","","","","","","","","","","","","","","","","","",""
"","","","call-function","1","331367","0.0-1.0-0.0","2","1","2","1","1","2","1","1","2","2","2","-2","-1","-3","-2","-1","-2","-2","-2","1","2","3","2","2","1","1","1","2","2","1","4","3","3","1","1","2","1","2","2","2","3","3","2","1","2","3","1","2","1","1","2","3","1","1","1","2","2","2","2","1","1","3","1","2","5","1","3","1","4","3","1","2","1","1","3","1","7","2","2","688788853804236800","李","18","Male","[""坏他"",""好我"",""坏我"",""好他""]","[""弱他"",""强我"",""弱我"",""强他""]","","","","","","","","","","","","","","","","","","","","","","","","","","","","","","","","","","","","","","",""
"28594","","[{""name"":""friend_name"",""value"":""李""},{""name"":""ParticipantID"",""value"":""18""}]","survey-html-form","2","359964","0.0-1.0-1.0","2","1","2","1","1","2","1","1","2","2","2","-2","-1","-3","-2","-1","-2","-2","-2","1","2","3","2","2","1","1","1","2","2","1","4","3","3","1","1","2","1","2","2","2","3","3","2","1","2","3","1","2","1","1","2","3","1","1","1","2","2","2","2","1","1","3","1","2","5","1","3","1","4","3","1","2","1","1","3","1","7","2","2","688788853804236800","李","18","Male","[""坏他"",""好我"",""坏我"",""好他""]","[""弱他"",""强我"",""弱我"",""强他""]","","","","","","","","","","","","","","","","","","","","","","","","","","","","","","","","","","","","","","",""
"","","","preload","3","360340","0.0-2.0","2","1","2","1","1","2","1","1","2","2","2","-2","-1","-3","-2","-1","-2","-2","-2","1","2","3","2","2","1","1","1","2","2","1","4","3","3","1","1","2","1","2","2","2","3","3","2","1","2","3","1","2","1","1","2","3","1","1","1","2","2","2","2","1","1","3","1","2","5","1","3","1","4","3","1","2","1","1","3","1","7","2","2","688788853804236800","李","18","Male","[""坏他"",""好我"",""坏我"",""好他""]","[""弱他"",""强我"",""弱我"",""强他""]","","true","false","[]","[]","[]","","","","","","","","","","","","","","","","","","","","","","","","","","","","","","","","",""
"","","","fullscreen","4","377121","0.0-3.0","2","1","2","1","1","2","1","1","2","2","2","-2","-1","-3","-2","-1","-2","-2","-2","1","2","3","2","2","1","1","1","2","2","1","4","3","3","1","1","2","1","2","2","2","3","3","2","1","2","3","1","2","1","1","2","3","1","1","1","2","2","2","2","1","1","3","1","2","5","1","3","1","4","3","1","2","1","1","3","1","7","2","2","688788853804236800","李","18","Male","[""坏他"",""好我"",""坏我"",""好他""]","[""弱他"",""强我"",""弱我"",""强他""]","","true","","","","","{}","","","","","","","","","","","","","","","","","","","","","","","","","","","","","","","",""
"36180.09999990463","","{""Q01"":""2"",""Q02"":""1"",""Q03"":""2"",""Q04"":""1"",""Q05"":""1""}","survey-template","5","413311","0.0-4.0","2","1","2","1","1","2","1","1","2","2","2","-2","-1","-3","-2","-1","-2","-2","-2","1","2","3","2","2","1","1","1","2","2","1","4","3","3","1","1","2","1","2","2","2","3","3","2","1","2","3","1","2","1","1","2","3","1","1","1","2","2","2","2","1","1","3","1","2","5","1","3","1","4","3","1","2","1","1","3","1","7","2","2","688788853804236800","李","18","Male","[""坏他"",""好我"",""坏我"",""好他""]","[""弱他"",""强我"",""弱我"",""强他""]","","","","","","","","{""Q01"":""2"",""Q02"":""1"",""Q03"":""2"",""Q04"":""1"",""Q05"":""1""}","[0,1,2,3,4]","[""Q01"",""Q01"",""Q02"",""Q03"",""Q04"",""Q05""]","[3475.5999999046326,5166.5,6994.800000190735,27247.099999904633,28400.400000095367,29891.300000190735]","[]","[3475.5999999046326,5166.5,6994.800000190735,24418.700000286102,27247.099999904633,28400.400000095367,29891.300000190735,36177.5]","0.6","0.75","0","","","","","","","","","","","","","","","","","","","","","","",""
"115251.40000009537","","{""Q01"":""2"",""Q02"":""1"",""Q03"":""1"",""Q04"":""2"",""Q05"":""2"",""Q06"":""2""}","survey-template","6","528568","0.0-5.0","2","1","2","1","1","2","1","1","2","2","2","-2","-1","-3","-2","-1","-2","-2","-2","1","2","3","2","2","1","1","1","2","2","1","4","3","3","1","1","2","1","2","2","2","3","3","2","1","2","3","1","2","1","1","2","3","1","1","1","2","2","2","2","1","1","3","1","2","5","1","3","1","4","3","1","2","1","1","3","1","7","2","2","688788853804236800","李","18","Male","[""坏他"",""好我"",""坏我"",""好他""]","[""弱他"",""强我"",""弱我"",""强他""]","","","","","","","","{""Q01"":""2"",""Q02"":""1"",""Q03"":""1"",""Q04"":""2"",""Q05"":""2"",""Q06"":""2""}","[0,1,2,3,4,5]","[""Q01"",""Q02"",""Q03"",""Q04"",""Q05"",""Q06""]","[4601,7681.599999904633,95121.59999990463,97486.90000009537,101478.7000002861,104526]","[]","[4601,7681.599999904633,95121.59999990463,97486.90000009537,101478.7000002861,104526,115250.2000002861]","0.3333333333333333","0.2","0","","","","","","","","","","","","","","","","","","","","","","",""
"34267.09999990463","","{""Q01"":""-2"",""Q02"":""-1"",""Q03"":""-3"",""Q04"":""-2"",""Q05"":""-1"",""Q06"":""-2"",""Q07"":""-2"",""Q08"":""-2""}","survey-template","7","562839","0.0-6.0","2","1","2","1","1","2","1","1","2","2","2","-2","-1","-3","-2","-1","-2","-2","-2","1","2","3","2","2","1","1","1","2","2","1","4","3","3","1","1","2","1","2","2","2","3","3","2","1","2","3","1","2","1","1","2","3","1","1","1","2","2","2","2","1","1","3","1","2","5","1","3","1","4","3","1","2","1","1","3","1","7","2","2","688788853804236800","李","18","Male","[""坏他"",""好我"",""坏我"",""好他""]","[""弱他"",""强我"",""弱我"",""强他""]","","","","","","","","{""Q01"":""-2"",""Q02"":""-1"",""Q03"":""-3"",""Q04"":""-2"",""Q05"":""-1"",""Q06"":""-2"",""Q07"":""-2"",""Q08"":""-2""}","[0,1,2,3,4,5,6,7]","[""Q01"",""Q02"",""Q03"",""Q04"",""Q05"",""Q06"",""Q07"",""Q08""]","[3356,9772.699999809265,16251.699999809265,20291.099999904633,23869.299999713898,25336.799999713898,26794,30638.39999961853]","[]","[3356,8473.89999961853,9772.699999809265,16251.699999809265,20291.099999904633,22015.199999809265,23869.299999713898,25336.799999713898,26794,29645.099999904633,30638.39999961853,31282.5,34265.39999961853]","0.625","0.5714285714285714","0","","","","","","","","","","","","","","","","","","","","","","",""
"19393","
    <p><div style='color:white;font-size:35px; line-height:20px;'>词汇评估任务</div></p><br>
    <p><div style='color:white;font-size:25px; line-height:20px;'>请再次回忆该亲密的朋友，你们至少2年前就认识了，并且最近2年经常见面。</div></p>
    <p><div style='color:white;font-size:25px; line-height:20px;'>在本实验中，您将会看到一些形容词。</div></p>
    <p><div style='color:yellow;font-size:25px; line-height:20px;'>您的任务是判断这些形容词是否符合对您自己或您的朋友的描述。</div></p><p style='font-size:35px'>符合按<span style=""color:lightgreen""> f 键</span>，不符合按<span style=""color:red""> j 键</span></p>","0","html-button-response","8","582235","0.0-7.0-0.0","2","1","2","1","1","2","1","1","2","2","2","-2","-1","-3","-2","-1","-2","-2","-2","1","2","3","2","2","1","1","1","2","2","1","4","3","3","1","1","2","1","2","2","2","3","3","2","1","2","3","1","2","1","1","2","3","1","1","1","2","2","2","2","1","1","3","1","2","5","1","3","1","4","3","1","2","1","1","3","1","7","2","2","688788853804236800","李","18","Male","[""坏他"",""好我"",""坏我"",""好他""]","[""弱他"",""强我"",""弱我"",""强他""]","","","","","","","","","","","","","","","","","SRET_EW","EW_instructions","Mon Jan 29 2024 21:26:21 GMT+0800 (中国标准时间)","","","","","","","","","","","","","","","","","","","",""
"null","","null","psychophysics","9","585247","0.0-7.0-1.0-0.0","2","1","2","1","1","2","1","1","2","2","2","-2","-1","-3","-2","-1","-2","-2","-2","1","2","3","2","2","1","1","1","2","2","1","4","3","3","1","1","2","1","2","2","2","3","3","2","1","2","3","1","2","1","1","2","3","1","1","1","2","2","2","2","1","1","3","1","2","5","1","3","1","4","3","1","2","1","1","3","1","7","2","2","688788853804236800","李","18","Male","[""坏他"",""好我"",""坏我"",""好他""]","[""弱他"",""强我"",""弱我"",""强他""]","","","","","","","","","","","","","","","","","SRET_EW","EW_practice","","key","null","16.97384180790958","637","356","自己","严谨","Positive","ability","","","","","","","","","","",""
"null","","null","psychophysics","10","588265","0.0-7.0-1.0-0.1","2","1","2","1","1","2","1","1","2","2","2","-2","-1","-3","-2","-1","-2","-2","-2","1","2","3","2","2","1","1","1","2","2","1","4","3","3","1","1","2","1","2","2","2","3","3","2","1","2","3","1","2","1","1","2","3","1","1","1","2","2","2","2","1","1","3","1","2","5","1","3","1","4","3","1","2","1","1","3","1","7","2","2","688788853804236800","李","18","Male","[""坏他"",""好我"",""坏我"",""好他""]","[""弱他"",""强我"",""弱我"",""强他""]","","","","","","","","","","","","","","","","","SRET_EW","EW_practice","","key","null","16.880735955055897","637","356","自己","刻板","Negative","ability","","","","","","","","","","",""
"927","","f","psychophysics","11","590203","0.0-7.0-1.0-0.2","2","1","2","1","1","2","1","1","2","2","2","-2","-1","-3","-2","-1","-2","-2","-2","1","2","3","2","2","1","1","1","2","2","1","4","3","3","1","1","2","1","2","2","2","3","3","2","1","2","3","1","2","1","1","2","3","1","1","1","2","2","2","2","1","1","3","1","2","5","1","3","1","4","3","1","2","1","1","3","1","7","2","2","688788853804236800","李","18","Male","[""坏他"",""好我"",""坏我"",""好他""]","[""弱他"",""强我"",""弱我"",""强他""]","","","","","","","","yes","","","","","","","","","SRET_EW","EW_practice","","key","f","17.14189285714279","637","356","朋友","忠实","Positive","morality","","","","","","","","","","",""
"1187","","j","psychophysics","12","592419","0.0-7.0-1.0-0.3","2","1","2","1","1","2","1","1","2","2","2","-2","-1","-3","-2","-1","-2","-2","-2","1","2","3","2","2","1","1","1","2","2","1","4","3","3","1","1","2","1","2","2","2","3","3","2","1","2","3","1","2","1","1","2","3","1","1","1","2","2","2","2","1","1","3","1","2","5","1","3","1","4","3","1","2","1","1","3","1","7","2","2","688788853804236800","李","18","Male","[""坏他"",""好我"",""坏我"",""好他""]","[""弱他"",""强我"",""弱我"",""强他""]","","","","","","","","no","","","","","","","","","SRET_EW","EW_practice","","key","j","16.691159090909146","637","356","朋友","徇私","Negative","morality","","","","","","","","","","",""
"37583","
    <p><div style='color:white;font-size:35px; line-height:20px;'>请您再次阅读实验要求</div></p><br>
    <p><div style='color:white;font-size:25px; line-height:20px;'>请回忆某一个亲密的朋友，你们至少2年前就认识了，并且最近2年经常见面。</div></p>
    <p><div style='color:white;font-size:25px; line-height:20px;'>在本实验中，您将会看到一些形容词。</div></p>
    <p><div style='color:yellow;font-size:25px; line-height:20px;'>您的任务是判断这些形容词是否符合对您自己或您的朋友的描述。</div></p>
    <p><div class='footer' style='font-size:25px; line-height:20px;'>如果对本实验还有不清楚之处，请立即向实验员咨询。</p><p style='font-size:25px; line-height:20px;'>如果您明白了规则：</p><p style='font-size:22px; line-height:20px;'>请按 继续 进入正式实验</p>
    </div>
    <p style='font-size:35px'>符合按<span style=""color:lightgreen""> f 键</span>，不符合按<span style=""color:red""> j 键</span></p>","0","html-button-response","13","630005","0.0-7.0-2.0","2","1","2","1","1","2","1","1","2","2","2","-2","-1","-3","-2","-1","-2","-2","-2","1","2","3","2","2","1","1","1","2","2","1","4","3","3","1","1","2","1","2","2","2","3","3","2","1","2","3","1","2","1","1","2","3","1","1","1","2","2","2","2","1","1","3","1","2","5","1","3","1","4","3","1","2","1","1","3","1","7","2","2","688788853804236800","李","18","Male","[""坏他"",""好我"",""坏我"",""好他""]","[""弱他"",""强我"",""弱我"",""强他""]","","","","","","","","","","","","","","","","","SRET_EW","prac_instructions","Mon Jan 29 2024 21:26:21 GMT+0800 (中国标准时间)","","","","","","","","","","","","","","","","","","","",""
"925","","f","psychophysics","14","631943","0.0-7.0-3.0-0.0","2","1","2","1","1","2","1","1","2","2","2","-2","-1","-3","-2","-1","-2","-2","-2","1","2","3","2","2","1","1","1","2","2","1","4","3","3","1","1","2","1","2","2","2","3","3","2","1","2","3","1","2","1","1","2","3","1","1","1","2","2","2","2","1","1","3","1","2","5","1","3","1","4","3","1","2","1","1","3","1","7","2","2","688788853804236800","李","18","Male","[""坏他"",""好我"",""坏我"",""好他""]","[""弱他"",""强我"",""弱我"",""强他""]","","","","","","","","yes","","","","","","","","","SRET","EW_formal","","key","f","16.691267241379606","637","356","自己","坚贞","Positive","morality","","","","","","","","","","",""
"1564","","f","psychophysics","15","634518","0.0-7.0-3.0-0.1","2","1","2","1","1","2","1","1","2","2","2","-2","-1","-3","-2","-1","-2","-2","-2","1","2","3","2","2","1","1","1","2","2","1","4","3","3","1","1","2","1","2","2","2","3","3","2","1","2","3","1","2","1","1","2","3","1","1","1","2","2","2","2","1","1","3","1","2","5","1","3","1","4","3","1","2","1","1","3","1","7","2","2","688788853804236800","李","18","Male","[""坏他"",""好我"",""坏我"",""好他""]","[""弱他"",""强我"",""弱我"",""强他""]","","","","","","","","yes","","","","","","","","","SRET","EW_formal","","key","f","16.693352941176368","637","356","自己","说谎","Negative","morality","","","","","","","","","","",""
"1222","","f","psychophysics","16","636770","0.0-7.0-3.0-0.2","2","1","2","1","1","2","1","1","2","2","2","-2","-1","-3","-2","-1","-2","-2","-2","1","2","3","2","2","1","1","1","2","2","1","4","3","3","1","1","2","1","2","2","2","3","3","2","1","2","3","1","2","1","1","2","3","1","1","1","2","2","2","2","1","1","3","1","2","5","1","3","1","4","3","1","2","1","1","3","1","7","2","2","688788853804236800","李","18","Male","[""坏他"",""好我"",""坏我"",""好他""]","[""弱他"",""强我"",""弱我"",""强他""]","","","","","","","","yes","","","","","","","","","SRET","EW_formal","","key","f","16.695305970149054","637","356","朋友","迷糊","Negative","ability","","","","","","","","","","",""
"1264","","j","psychophysics","17","639041","0.0-7.0-3.0-0.3","2","1","2","1","1","2","1","1","2","2","2","-2","-1","-3","-2","-1","-2","-2","-2","1","2","3","2","2","1","1","1","2","2","1","4","3","3","1","1","2","1","2","2","2","3","3","2","1","2","3","1","2","1","1","2","3","1","1","1","2","2","2","2","1","1","3","1","2","5","1","3","1","4","3","1","2","1","1","3","1","7","2","2","688788853804236800","李","18","Male","[""坏他"",""好我"",""坏我"",""好他""]","[""弱他"",""强我"",""弱我"",""强他""]","","","","","","","","no","","","","","","","","","SRET","EW_formal","","key","j","16.695614814815215","637","356","朋友","务实","Positive","ability","","","","","","","","","","",""
"1137","","f","psychophysics","18","641206","0.0-7.0-3.0-0.4","2","1","2","1","1","2","1","1","2","2","2","-2","-1","-3","-2","-1","-2","-2","-2","1","2","3","2","2","1","1","1","2","2","1","4","3","3","1","1","2","1","2","2","2","3","3","2","1","2","3","1","2","1","1","2","3","1","1","1","2","2","2","2","1","1","3","1","2","5","1","3","1","4","3","1","2","1","1","3","1","7","2","2","688788853804236800","李","18","Male","[""坏他"",""好我"",""坏我"",""好他""]","[""弱他"",""强我"",""弱我"",""强他""]","","","","","","","","yes","","","","","","","","","SRET","EW_formal","","key","f","16.69155038759661","637","356","朋友","忠良","Positive","morality","","","","","","","","","","",""
"1143","","j","psychophysics","19","643358","0.0-7.0-3.0-0.5","2","1","2","1","1","2","1","1","2","2","2","-2","-1","-3","-2","-1","-2","-2","-2","1","2","3","2","2","1","1","1","2","2","1","4","3","3","1","1","2","1","2","2","2","3","3","2","1","2","3","1","2","1","1","2","3","1","1","1","2","2","2","2","1","1","3","1","2","5","1","3","1","4","3","1","2","1","1","3","1","7","2","2","688788853804236800","李","18","Male","[""坏他"",""好我"",""坏我"",""好他""]","[""弱他"",""强我"",""弱我"",""强他""]","","","","","","","","no","","","","","","","","","SRET","EW_formal","","key","j","16.69262499999968","637","356","朋友","刻薄","Negative","morality","","","","","","","","","","",""
"985","","f","psychophysics","20","645357","0.0-7.0-3.0-0.6","2","1","2","1","1","2","1","1","2","2","2","-2","-1","-3","-2","-1","-2","-2","-2","1","2","3","2","2","1","1","1","2","2","1","4","3","3","1","1","2","1","2","2","2","3","3","2","1","2","3","1","2","1","1","2","3","1","1","1","2","2","2","2","1","1","3","1","2","5","1","3","1","4","3","1","2","1","1","3","1","7","2","2","688788853804236800","李","18","Male","[""坏他"",""好我"",""坏我"",""好他""]","[""弱他"",""强我"",""弱我"",""强他""]","","","","","","","","yes","","","","","","","","","SRET","EW_formal","","key","f","16.834717948718044","637","356","朋友","庸碌","Negative","ability","","","","","","","","","","",""
"940","","j","psychophysics","21","647320","0.0-7.0-3.0-0.7","2","1","2","1","1","2","1","1","2","2","2","-2","-1","-3","-2","-1","-2","-2","-2","1","2","3","2","2","1","1","1","2","2","1","4","3","3","1","1","2","1","2","2","2","3","3","2","1","2","3","1","2","1","1","2","3","1","1","1","2","2","2","2","1","1","3","1","2","5","1","3","1","4","3","1","2","1","1","3","1","7","2","2","688788853804236800","李","18","Male","[""坏他"",""好我"",""坏我"",""好他""]","[""弱他"",""强我"",""弱我"",""强他""]","","","","","","","","no","","","","","","","","","SRET","EW_formal","","key","j","16.837965217390625","637","356","朋友","笨蛋","Negative","ability","","","","","","","","","","",""
"803","","f","psychophysics","22","649132","0.0-7.0-3.0-0.8","2","1","2","1","1","2","1","1","2","2","2","-2","-1","-3","-2","-1","-2","-2","-2","1","2","3","2","2","1","1","1","2","2","1","4","3","3","1","1","2","1","2","2","2","3","3","2","1","2","3","1","2","1","1","2","3","1","1","1","2","2","2","2","1","1","3","1","2","5","1","3","1","4","3","1","2","1","1","3","1","7","2","2","688788853804236800","李","18","Male","[""坏他"",""好我"",""坏我"",""好他""]","[""弱他"",""强我"",""弱我"",""强他""]","","","","","","","","yes","","","","","","","","","SRET","EW_formal","","key","f","17.00413084112186","637","356","朋友","仗义","Positive","morality","","","","","","","","","","",""
"1086","","f","psychophysics","23","651220","0.0-7.0-3.0-0.9","2","1","2","1","1","2","1","1","2","2","2","-2","-1","-3","-2","-1","-2","-2","-2","1","2","3","2","2","1","1","1","2","2","1","4","3","3","1","1","2","1","2","2","2","3","3","2","1","2","3","1","2","1","1","2","3","1","1","1","2","2","2","2","1","1","3","1","2","5","1","3","1","4","3","1","2","1","1","3","1","7","2","2","688788853804236800","李","18","Male","[""坏他"",""好我"",""坏我"",""好他""]","[""弱他"",""强我"",""弱我"",""强他""]","","","","","","","","yes","","","","","","","","","SRET","EW_formal","","key","f","16.696104838709054","637","356","自己","爱国","Positive","morality","","","","","","","","","","",""
"1227","","j","psychophysics","24","653458","0.0-7.0-3.0-0.10","2","1","2","1","1","2","1","1","2","2","2","-2","-1","-3","-2","-1","-2","-2","-2","1","2","3","2","2","1","1","1","2","2","1","4","3","3","1","1","2","1","2","2","2","3","3","2","1","2","3","1","2","1","1","2","3","1","1","1","2","2","2","2","1","1","3","1","2","5","1","3","1","4","3","1","2","1","1","3","1","7","2","2","688788853804236800","李","18","Male","[""坏他"",""好我"",""坏我"",""好他""]","[""弱他"",""强我"",""弱我"",""强他""]","","","","","","","","no","","","","","","","","","SRET","EW_formal","","key","j","16.69678195488737","637","356","自己","无耻","Negative","morality","","","","","","","","","","",""
"1248","","j","psychophysics","25","655715","0.0-7.0-3.0-0.11","2","1","2","1","1","2","1","1","2","2","2","-2","-1","-3","-2","-1","-2","-2","-2","1","2","3","2","2","1","1","1","2","2","1","4","3","3","1","1","2","1","2","2","2","3","3","2","1","2","3","1","2","1","1","2","3","1","1","1","2","2","2","2","1","1","3","1","2","5","1","3","1","4","3","1","2","1","1","3","1","7","2","2","688788853804236800","李","18","Male","[""坏他"",""好我"",""坏我"",""好他""]","[""弱他"",""强我"",""弱我"",""强他""]","","","","","","","","no","","","","","","","","","SRET","EW_formal","","key","j","16.692395522387756","637","356","朋友","正气","Positive","morality","","","","","","","","","","",""
"980","","f","psychophysics","26","657722","0.0-7.0-3.0-0.12","2","1","2","1","1","2","1","1","2","2","2","-2","-1","-3","-2","-1","-2","-2","-2","1","2","3","2","2","1","1","1","2","2","1","4","3","3","1","1","2","1","2","2","2","3","3","2","1","2","3","1","2","1","1","2","3","1","1","1","2","2","2","2","1","1","3","1","2","5","1","3","1","4","3","1","2","1","1","3","1","7","2","2","688788853804236800","李","18","Male","[""坏他"",""好我"",""坏我"",""好他""]","[""弱他"",""强我"",""弱我"",""强他""]","","","","","","","","yes","","","","","","","","","SRET","EW_formal","","key","f","16.69635294117679","637","356","朋友","稳健","Positive","ability","","","","","","","","","","",""
"994","","j","psychophysics","27","659732","0.0-7.0-3.0-0.13","2","1","2","1","1","2","1","1","2","2","2","-2","-1","-3","-2","-1","-2","-2","-2","1","2","3","2","2","1","1","1","2","2","1","4","3","3","1","1","2","1","2","2","2","3","3","2","1","2","3","1","2","1","1","2","3","1","1","1","2","2","2","2","1","1","3","1","2","5","1","3","1","4","3","1","2","1","1","3","1","7","2","2","688788853804236800","李","18","Male","[""坏他"",""好我"",""坏我"",""好他""]","[""弱他"",""强我"",""弱我"",""强他""]","","","","","","","","no","","","","","","","","","SRET","EW_formal","","key","j","16.698042016806074","637","356","自己","高明","Positive","ability","","","","","","","","","","",""
"967","","j","psychophysics","28","661722","0.0-7.0-3.0-0.14","2","1","2","1","1","2","1","1","2","2","2","-2","-1","-3","-2","-1","-2","-2","-2","1","2","3","2","2","1","1","1","2","2","1","4","3","3","1","1","2","1","2","2","2","3","3","2","1","2","3","1","2","1","1","2","3","1","1","1","2","2","2","2","1","1","3","1","2","5","1","3","1","4","3","1","2","1","1","3","1","7","2","2","688788853804236800","李","18","Male","[""坏他"",""好我"",""坏我"",""好他""]","[""弱他"",""强我"",""弱我"",""强他""]","","","","","","","","no","","","","","","","","","SRET","EW_formal","","key","j","16.69278151260497","637","356","自己","努力","Positive","ability","","","","","","","","","","",""
"909","","f","psychophysics","29","663642","0.0-7.0-3.0-0.15","2","1","2","1","1","2","1","1","2","2","2","-2","-1","-3","-2","-1","-2","-2","-2","1","2","3","2","2","1","1","1","2","2","1","4","3","3","1","1","2","1","2","2","2","3","3","2","1","2","3","1","2","1","1","2","3","1","1","1","2","2","2","2","1","1","3","1","2","5","1","3","1","4","3","1","2","1","1","3","1","7","2","2","688788853804236800","李","18","Male","[""坏他"",""好我"",""坏我"",""好他""]","[""弱他"",""强我"",""弱我"",""强他""]","","","","","","","","yes","","","","","","","","","SRET","EW_formal","","key","f","16.996160714285256","637","356","自己","短视","Negative","ability","","","","","","","","","","",""
"1014","","f","psychophysics","30","665666","0.0-7.0-3.0-0.16","2","1","2","1","1","2","1","1","2","2","2","-2","-1","-3","-2","-1","-2","-2","-2","1","2","3","2","2","1","1","1","2","2","1","4","3","3","1","1","2","1","2","2","2","3","3","2","1","2","3","1","2","1","1","2","3","1","1","1","2","2","2","2","1","1","3","1","2","5","1","3","1","4","3","1","2","1","1","3","1","7","2","2","688788853804236800","李","18","Male","[""坏他"",""好我"",""坏我"",""好他""]","[""弱他"",""强我"",""弱我"",""强他""]","","","","","","","","yes","","","","","","","","","SRET","EW_formal","","key","f","16.692983333333782","637","356","自己","愚钝","Negative","ability","","","","","","","","","","",""
"992","","f","psychophysics","31","667662","0.0-7.0-3.0-0.17","2","1","2","1","1","2","1","1","2","2","2","-2","-1","-3","-2","-1","-2","-2","-2","1","2","3","2","2","1","1","1","2","2","1","4","3","3","1","1","2","1","2","2","2","3","3","2","1","2","3","1","2","1","1","2","3","1","1","1","2","2","2","2","1","1","3","1","2","5","1","3","1","4","3","1","2","1","1","3","1","7","2","2","688788853804236800","李","18","Male","[""坏他"",""好我"",""坏我"",""好他""]","[""弱他"",""强我"",""弱我"",""强他""]","","","","","","","","yes","","","","","","","","","SRET","EW_formal","","key","f","16.697226890756067","637","356","自己","无能","Negative","ability","","","","","","","","","","",""
"1249","","j","psychophysics","32","669923","0.0-7.0-3.0-0.18","2","1","2","1","1","2","1","1","2","2","2","-2","-1","-3","-2","-1","-2","-2","-2","1","2","3","2","2","1","1","1","2","2","1","4","3","3","1","1","2","1","2","2","2","3","3","2","1","2","3","1","2","1","1","2","3","1","1","1","2","2","2","2","1","1","3","1","2","5","1","3","1","4","3","1","2","1","1","3","1","7","2","2","688788853804236800","李","18","Male","[""坏他"",""好我"",""坏我"",""好他""]","[""弱他"",""强我"",""弱我"",""强他""]","","","","","","","","no","","","","","","","","","SRET","EW_formal","","key","j","16.69652985074599","637","356","自己","不良","Negative","morality","","","","","","","","","","",""
"1294","","j","psychophysics","33","672235","0.0-7.0-3.0-0.19","2","1","2","1","1","2","1","1","2","2","2","-2","-1","-3","-2","-1","-2","-2","-2","1","2","3","2","2","1","1","1","2","2","1","4","3","3","1","1","2","1","2","2","2","3","3","2","1","2","3","1","2","1","1","2","3","1","1","1","2","2","2","2","1","1","3","1","2","5","1","3","1","4","3","1","2","1","1","3","1","7","2","2","688788853804236800","李","18","Male","[""坏他"",""好我"",""坏我"",""好他""]","[""弱他"",""强我"",""弱我"",""强他""]","","","","","","","","no","","","","","","","","","SRET","EW_formal","","key","j","16.693014492754035","637","356","自己","廉明","Positive","morality","","","","","","","","","","",""
"1242","","j","psychophysics","34","674490","0.0-7.0-3.0-0.20","2","1","2","1","1","2","1","1","2","2","2","-2","-1","-3","-2","-1","-2","-2","-2","1","2","3","2","2","1","1","1","2","2","1","4","3","3","1","1","2","1","2","2","2","3","3","2","1","2","3","1","2","1","1","2","3","1","1","1","2","2","2","2","1","1","3","1","2","5","1","3","1","4","3","1","2","1","1","3","1","7","2","2","688788853804236800","李","18","Male","[""坏他"",""好我"",""坏我"",""好他""]","[""弱他"",""强我"",""弱我"",""强他""]","","","","","","","","no","","","","","","","","","SRET","EW_formal","","key","j","16.69355223880587","637","356","朋友","细心","Positive","ability","","","","","","","","","","",""
"866","","f","psychophysics","35","676366","0.0-7.0-3.0-0.21","2","1","2","1","1","2","1","1","2","2","2","-2","-1","-3","-2","-1","-2","-2","-2","1","2","3","2","2","1","1","1","2","2","1","4","3","3","1","1","2","1","2","2","2","3","3","2","1","2","3","1","2","1","1","2","3","1","1","1","2","2","2","2","1","1","3","1","2","5","1","3","1","4","3","1","2","1","1","3","1","7","2","2","688788853804236800","李","18","Male","[""坏他"",""好我"",""坏我"",""好他""]","[""弱他"",""强我"",""弱我"",""强他""]","","","","","","","","yes","","","","","","","","","SRET","EW_formal","","key","f","16.694171171170776","637","356","自己","无助","Negative","ability","","","","","","","","","","",""
"981","","j","psychophysics","36","678379","0.0-7.0-3.0-0.22","2","1","2","1","1","2","1","1","2","2","2","-2","-1","-3","-2","-1","-2","-2","-2","1","2","3","2","2","1","1","1","2","2","1","4","3","3","1","1","2","1","2","2","2","3","3","2","1","2","3","1","2","1","1","2","3","1","1","1","2","2","2","2","1","1","3","1","2","5","1","3","1","4","3","1","2","1","1","3","1","7","2","2","688788853804236800","李","18","Male","[""坏他"",""好我"",""坏我"",""好他""]","[""弱他"",""强我"",""弱我"",""强他""]","","","","","","","","no","","","","","","","","","SRET","EW_formal","","key","j","16.697258333333107","637","356","自己","下流","Negative","morality","","","","","","","","","","",""
"1063","","j","psychophysics","37","680451","0.0-7.0-3.0-0.23","2","1","2","1","1","2","1","1","2","2","2","-2","-1","-3","-2","-1","-2","-2","-2","1","2","3","2","2","1","1","1","2","2","1","4","3","3","1","1","2","1","2","2","2","3","3","2","1","2","3","1","2","1","1","2","3","1","1","1","2","2","2","2","1","1","3","1","2","5","1","3","1","4","3","1","2","1","1","3","1","7","2","2","688788853804236800","李","18","Male","[""坏他"",""好我"",""坏我"",""好他""]","[""弱他"",""强我"",""弱我"",""强他""]","","","","","","","","no","","","","","","","","","SRET","EW_formal","","key","j","16.69373983739898","637","356","自己","勤恳","Positive","morality","","","","","","","","","","",""
"1293","","j","psychophysics","38","682767","0.0-7.0-3.0-0.24","2","1","2","1","1","2","1","1","2","2","2","-2","-1","-3","-2","-1","-2","-2","-2","1","2","3","2","2","1","1","1","2","2","1","4","3","3","1","1","2","1","2","2","2","3","3","2","1","2","3","1","2","1","1","2","3","1","1","1","2","2","2","2","1","1","3","1","2","5","1","3","1","4","3","1","2","1","1","3","1","7","2","2","688788853804236800","李","18","Male","[""坏他"",""好我"",""坏我"",""好他""]","[""弱他"",""强我"",""弱我"",""强他""]","","","","","","","","no","","","","","","","","","SRET","EW_formal","","key","j","16.69498540145977","637","356","朋友","驽钝","Negative","ability","","","","","","","","","","",""
"833","","j","psychophysics","39","684612","0.0-7.0-3.0-0.25","2","1","2","1","1","2","1","1","2","2","2","-2","-1","-3","-2","-1","-2","-2","-2","1","2","3","2","2","1","1","1","2","2","1","4","3","3","1","1","2","1","2","2","2","3","3","2","1","2","3","1","2","1","1","2","3","1","1","1","2","2","2","2","1","1","3","1","2","5","1","3","1","4","3","1","2","1","1","3","1","7","2","2","688788853804236800","李","18","Male","[""坏他"",""好我"",""坏我"",""好他""]","[""弱他"",""强我"",""弱我"",""强他""]","","","","","","","","no","","","","","","","","","SRET","EW_formal","","key","j","16.693209090909328","637","356","朋友","蛇蝎","Negative","morality","","","","","","","","","","",""
"783","","j","psychophysics","40","686425","0.0-7.0-3.0-0.26","2","1","2","1","1","2","1","1","2","2","2","-2","-1","-3","-2","-1","-2","-2","-2","1","2","3","2","2","1","1","1","2","2","1","4","3","3","1","1","2","1","2","2","2","3","3","2","1","2","3","1","2","1","1","2","3","1","1","1","2","2","2","2","1","1","3","1","2","5","1","3","1","4","3","1","2","1","1","3","1","7","2","2","688788853804236800","李","18","Male","[""坏他"",""好我"",""坏我"",""好他""]","[""弱他"",""强我"",""弱我"",""强他""]","","","","","","","","no","","","","","","","","","SRET","EW_formal","","key","j","16.850130841120748","637","356","自己","干练","Positive","ability","","","","","","","","","","",""
"1161","","f","psychophysics","41","688598","0.0-7.0-3.0-0.27","2","1","2","1","1","2","1","1","2","2","2","-2","-1","-3","-2","-1","-2","-2","-2","1","2","3","2","2","1","1","1","2","2","1","4","3","3","1","1","2","1","2","2","2","3","3","2","1","2","3","1","2","1","1","2","3","1","1","1","2","2","2","2","1","1","3","1","2","5","1","3","1","4","3","1","2","1","1","3","1","7","2","2","688788853804236800","李","18","Male","[""坏他"",""好我"",""坏我"",""好他""]","[""弱他"",""强我"",""弱我"",""强他""]","","","","","","","","yes","","","","","","","","","SRET","EW_formal","","key","f","16.698387596899707","637","356","朋友","坦荡","Positive","morality","","","","","","","","","","",""
"852","","f","psychophysics","42","690471","0.0-7.0-3.0-0.28","2","1","2","1","1","2","1","1","2","2","2","-2","-1","-3","-2","-1","-2","-2","-2","1","2","3","2","2","1","1","1","2","2","1","4","3","3","1","1","2","1","2","2","2","3","3","2","1","2","3","1","2","1","1","2","3","1","1","1","2","2","2","2","1","1","3","1","2","5","1","3","1","4","3","1","2","1","1","3","1","7","2","2","688788853804236800","李","18","Male","[""坏他"",""好我"",""坏我"",""好他""]","[""弱他"",""强我"",""弱我"",""强他""]","","","","","","","","yes","","","","","","","","","SRET","EW_formal","","key","f","16.6953333333336","637","356","朋友","守法","Positive","morality","","","","","","","","","","",""
"1082","","f","psychophysics","43","692559","0.0-7.0-3.0-0.29","2","1","2","1","1","2","1","1","2","2","2","-2","-1","-3","-2","-1","-2","-2","-2","1","2","3","2","2","1","1","1","2","2","1","4","3","3","1","1","2","1","2","2","2","3","3","2","1","2","3","1","2","1","1","2","3","1","1","1","2","2","2","2","1","1","3","1","2","5","1","3","1","4","3","1","2","1","1","3","1","7","2","2","688788853804236800","李","18","Male","[""坏他"",""好我"",""坏我"",""好他""]","[""弱他"",""强我"",""弱我"",""强他""]","","","","","","","","yes","","","","","","","","","SRET","EW_formal","","key","f","16.694056451612624","637","356","朋友","君子","Positive","morality","","","","","","","","","","",""
"1313","","j","psychophysics","44","694891","0.0-7.0-3.0-0.30","2","1","2","1","1","2","1","1","2","2","2","-2","-1","-3","-2","-1","-2","-2","-2","1","2","3","2","2","1","1","1","2","2","1","4","3","3","1","1","2","1","2","2","2","3","3","2","1","2","3","1","2","1","1","2","3","1","1","1","2","2","2","2","1","1","3","1","2","5","1","3","1","4","3","1","2","1","1","3","1","7","2","2","688788853804236800","李","18","Male","[""坏他"",""好我"",""坏我"",""好他""]","[""弱他"",""强我"",""弱我"",""强他""]","","","","","","","","no","","","","","","","","","SRET","EW_formal","","key","j","16.69756115107921","637","356","朋友","思辨","Positive","ability","","","","","","","","","","",""
"939","","j","psychophysics","45","696842","0.0-7.0-3.0-0.31","2","1","2","1","1","2","1","1","2","2","2","-2","-1","-3","-2","-1","-2","-2","-2","1","2","3","2","2","1","1","1","2","2","1","4","3","3","1","1","2","1","2","2","2","3","3","2","1","2","3","1","2","1","1","2","3","1","1","1","2","2","2","2","1","1","3","1","2","5","1","3","1","4","3","1","2","1","1","3","1","7","2","2","688788853804236800","李","18","Male","[""坏他"",""好我"",""坏我"",""好他""]","[""弱他"",""强我"",""弱我"",""强他""]","","","","","","","","no","","","","","","","","","SRET","EW_formal","","key","j","16.69733620689708","637","356","自己","周到","Positive","ability","","","","","","","","","","",""
"860","","j","psychophysics","46","698711","0.0-7.0-3.0-0.32","2","1","2","1","1","2","1","1","2","2","2","-2","-1","-3","-2","-1","-2","-2","-2","1","2","3","2","2","1","1","1","2","2","1","4","3","3","1","1","2","1","2","2","2","3","3","2","1","2","3","1","2","1","1","2","3","1","1","1","2","2","2","2","1","1","3","1","2","5","1","3","1","4","3","1","2","1","1","3","1","7","2","2","688788853804236800","李","18","Male","[""坏他"",""好我"",""坏我"",""好他""]","[""弱他"",""强我"",""弱我"",""强他""]","","","","","","","","no","","","","","","","","","SRET","EW_formal","","key","j","16.849500000000592","637","356","朋友","奸诈","Negative","morality","","","","","","","","","","",""
"883","","j","psychophysics","47","700600","0.0-7.0-3.0-0.33","2","1","2","1","1","2","1","1","2","2","2","-2","-1","-3","-2","-1","-2","-2","-2","1","2","3","2","2","1","1","1","2","2","1","4","3","3","1","1","2","1","2","2","2","3","3","2","1","2","3","1","2","1","1","2","3","1","1","1","2","2","2","2","1","1","3","1","2","5","1","3","1","4","3","1","2","1","1","3","1","7","2","2","688788853804236800","李","18","Male","[""坏他"",""好我"",""坏我"",""好他""]","[""弱他"",""强我"",""弱我"",""强他""]","","","","","","","","no","","","","","","","","","SRET","EW_formal","","key","j","16.699901785713987","637","356","朋友","博识","Positive","ability","","","","","","","","","","",""
"745","","j","psychophysics","48","702374","0.0-7.0-3.0-0.34","2","1","2","1","1","2","1","1","2","2","2","-2","-1","-3","-2","-1","-2","-2","-2","1","2","3","2","2","1","1","1","2","2","1","4","3","3","1","1","2","1","2","2","2","3","3","2","1","2","3","1","2","1","1","2","3","1","1","1","2","2","2","2","1","1","3","1","2","5","1","3","1","4","3","1","2","1","1","3","1","7","2","2","688788853804236800","李","18","Male","[""坏他"",""好我"",""坏我"",""好他""]","[""弱他"",""强我"",""弱我"",""强他""]","","","","","","","","no","","","","","","","","","SRET","EW_formal","","key","j","16.695238095238096","637","356","自己","自律","Positive","ability","","","","","","","","","","",""
"878","","f","psychophysics","49","704271","0.0-7.0-3.0-0.35","2","1","2","1","1","2","1","1","2","2","2","-2","-1","-3","-2","-1","-2","-2","-2","1","2","3","2","2","1","1","1","2","2","1","4","3","3","1","1","2","1","2","2","2","3","3","2","1","2","3","1","2","1","1","2","3","1","1","1","2","2","2","2","1","1","3","1","2","5","1","3","1","4","3","1","2","1","1","3","1","7","2","2","688788853804236800","李","18","Male","[""坏他"",""好我"",""坏我"",""好他""]","[""弱他"",""强我"",""弱我"",""强他""]","","","","","","","","yes","","","","","","","","","SRET","EW_formal","","key","f","16.695274336283113","637","356","朋友","果断","Positive","ability","","","","","","","","","","",""
"662","","j","psychophysics","50","705958","0.0-7.0-3.0-0.36","2","1","2","1","1","2","1","1","2","2","2","-2","-1","-3","-2","-1","-2","-2","-2","1","2","3","2","2","1","1","1","2","2","1","4","3","3","1","1","2","1","2","2","2","3","3","2","1","2","3","1","2","1","1","2","3","1","1","1","2","2","2","2","1","1","3","1","2","5","1","3","1","4","3","1","2","1","1","3","1","7","2","2","688788853804236800","李","18","Male","[""坏他"",""好我"",""坏我"",""好他""]","[""弱他"",""强我"",""弱我"",""强他""]","","","","","","","","no","","","","","","","","","SRET","EW_formal","","key","j","16.69034999999916","637","356","自己","博学","Positive","ability","","","","","","","","","","",""
"907","","j","psychophysics","51","707878","0.0-7.0-3.0-0.37","2","1","2","1","1","2","1","1","2","2","2","-2","-1","-3","-2","-1","-2","-2","-2","1","2","3","2","2","1","1","1","2","2","1","4","3","3","1","1","2","1","2","2","2","3","3","2","1","2","3","1","2","1","1","2","3","1","1","1","2","2","2","2","1","1","3","1","2","5","1","3","1","4","3","1","2","1","1","3","1","7","2","2","688788853804236800","李","18","Male","[""坏他"",""好我"",""坏我"",""好他""]","[""弱他"",""强我"",""弱我"",""强他""]","","","","","","","","no","","","","","","","","","SRET","EW_formal","","key","j","16.697140350877593","637","356","自己","拜金","Negative","morality","","","","","","","","","","",""
"779","","f","psychophysics","52","709679","0.0-7.0-3.0-0.38","2","1","2","1","1","2","1","1","2","2","2","-2","-1","-3","-2","-1","-2","-2","-2","1","2","3","2","2","1","1","1","2","2","1","4","3","3","1","1","2","1","2","2","2","3","3","2","1","2","3","1","2","1","1","2","3","1","1","1","2","2","2","2","1","1","3","1","2","5","1","3","1","4","3","1","2","1","1","3","1","7","2","2","688788853804236800","李","18","Male","[""坏他"",""好我"",""坏我"",""好他""]","[""弱他"",""强我"",""弱我"",""强他""]","","","","","","","","yes","","","","","","","","","SRET","EW_formal","","key","f","16.694289719626074","637","356","自己","短浅","Negative","ability","","","","","","","","","","",""
"1118","","j","psychophysics","53","711801","0.0-7.0-3.0-0.39","2","1","2","1","1","2","1","1","2","2","2","-2","-1","-3","-2","-1","-2","-2","-2","1","2","3","2","2","1","1","1","2","2","1","4","3","3","1","1","2","1","2","2","2","3","3","2","1","2","3","1","2","1","1","2","3","1","1","1","2","2","2","2","1","1","3","1","2","5","1","3","1","4","3","1","2","1","1","3","1","7","2","2","688788853804236800","李","18","Male","[""坏他"",""好我"",""坏我"",""好他""]","[""弱他"",""强我"",""弱我"",""强他""]","","","","","","","","no","","","","","","","","","SRET","EW_formal","","key","j","16.828383999999613","637","356","朋友","高效","Positive","ability","","","","","","","","","","",""
"1006","","f","psychophysics","54","713820","0.0-7.0-3.0-0.40","2","1","2","1","1","2","1","1","2","2","2","-2","-1","-3","-2","-1","-2","-2","-2","1","2","3","2","2","1","1","1","2","2","1","4","3","3","1","1","2","1","2","2","2","3","3","2","1","2","3","1","2","1","1","2","3","1","1","1","2","2","2","2","1","1","3","1","2","5","1","3","1","4","3","1","2","1","1","3","1","7","2","2","688788853804236800","李","18","Male","[""坏他"",""好我"",""坏我"",""好他""]","[""弱他"",""强我"",""弱我"",""强他""]","","","","","","","","yes","","","","","","","","","SRET","EW_formal","","key","f","16.69862500000066","637","356","朋友","差生","Negative","ability","","","","","","","","","","",""
"1046","","j","psychophysics","55","715889","0.0-7.0-3.0-0.41","2","1","2","1","1","2","1","1","2","2","2","-2","-1","-3","-2","-1","-2","-2","-2","1","2","3","2","2","1","1","1","2","2","1","4","3","3","1","1","2","1","2","2","2","3","3","2","1","2","3","1","2","1","1","2","3","1","1","1","2","2","2","2","1","1","3","1","2","5","1","3","1","4","3","1","2","1","1","3","1","7","2","2","688788853804236800","李","18","Male","[""坏他"",""好我"",""坏我"",""好他""]","[""弱他"",""强我"",""弱我"",""强他""]","","","","","","","","no","","","","","","","","","SRET","EW_formal","","key","j","16.69440983606552","637","356","自己","扎实","Positive","ability","","","","","","","","","","",""
"1168","","j","psychophysics","56","718066","0.0-7.0-3.0-0.42","2","1","2","1","1","2","1","1","2","2","2","-2","-1","-3","-2","-1","-2","-2","-2","1","2","3","2","2","1","1","1","2","2","1","4","3","3","1","1","2","1","2","2","2","3","3","2","1","2","3","1","2","1","1","2","3","1","1","1","2","2","2","2","1","1","3","1","2","5","1","3","1","4","3","1","2","1","1","3","1","7","2","2","688788853804236800","李","18","Male","[""坏他"",""好我"",""坏我"",""好他""]","[""弱他"",""强我"",""弱我"",""强他""]","","","","","","","","no","","","","","","","","","SRET","EW_formal","","key","j","16.821310077519552","637","356","自己","全才","Positive","ability","","","","","","","","","","",""
"988","","j","psychophysics","57","720060","0.0-7.0-3.0-0.43","2","1","2","1","1","2","1","1","2","2","2","-2","-1","-3","-2","-1","-2","-2","-2","1","2","3","2","2","1","1","1","2","2","1","4","3","3","1","1","2","1","2","2","2","3","3","2","1","2","3","1","2","1","1","2","3","1","1","1","2","2","2","2","1","1","3","1","2","5","1","3","1","4","3","1","2","1","1","3","1","7","2","2","688788853804236800","李","18","Male","[""坏他"",""好我"",""坏我"",""好他""]","[""弱他"",""强我"",""弱我"",""强他""]","","","","","","","","no","","","","","","","","","SRET","EW_formal","","key","j","16.697279661016783","637","356","自己","有力","Positive","ability","","","","","","","","","","",""
"1014","","j","psychophysics","58","722086","0.0-7.0-3.0-0.44","2","1","2","1","1","2","1","1","2","2","2","-2","-1","-3","-2","-1","-2","-2","-2","1","2","3","2","2","1","1","1","2","2","1","4","3","3","1","1","2","1","2","2","2","3","3","2","1","2","3","1","2","1","1","2","3","1","1","1","2","2","2","2","1","1","3","1","2","5","1","3","1","4","3","1","2","1","1","3","1","7","2","2","688788853804236800","李","18","Male","[""坏他"",""好我"",""坏我"",""好他""]","[""弱他"",""强我"",""弱我"",""强他""]","","","","","","","","no","","","","","","","","","SRET","EW_formal","","key","j","16.694867768595266","637","356","朋友","屈才","Negative","ability","","","","","","","","","","",""
"1408","","j","psychophysics","59","724506","0.0-7.0-3.0-0.45","2","1","2","1","1","2","1","1","2","2","2","-2","-1","-3","-2","-1","-2","-2","-2","1","2","3","2","2","1","1","1","2","2","1","4","3","3","1","1","2","1","2","2","2","3","3","2","1","2","3","1","2","1","1","2","3","1","1","1","2","2","2","2","1","1","3","1","2","5","1","3","1","4","3","1","2","1","1","3","1","7","2","2","688788853804236800","李","18","Male","[""坏他"",""好我"",""坏我"",""好他""]","[""弱他"",""强我"",""弱我"",""强他""]","","","","","","","","no","","","","","","","","","SRET","EW_formal","","key","j","16.934035211267002","637","356","朋友","利己","Negative","morality","","","","","","","","","","",""
"1012","","j","psychophysics","60","726532","0.0-7.0-3.0-0.46","2","1","2","1","1","2","1","1","2","2","2","-2","-1","-3","-2","-1","-2","-2","-2","1","2","3","2","2","1","1","1","2","2","1","4","3","3","1","1","2","1","2","2","2","3","3","2","1","2","3","1","2","1","1","2","3","1","1","1","2","2","2","2","1","1","3","1","2","5","1","3","1","4","3","1","2","1","1","3","1","7","2","2","688788853804236800","李","18","Male","[""坏他"",""好我"",""坏我"",""好他""]","[""弱他"",""强我"",""弱我"",""强他""]","","","","","","","","no","","","","","","","","","SRET","EW_formal","","key","j","16.694908333333053","637","356","朋友","盲目","Negative","ability","","","","","","","","","","",""
"1041","","f","psychophysics","61","728581","0.0-7.0-3.0-0.47","2","1","2","1","1","2","1","1","2","2","2","-2","-1","-3","-2","-1","-2","-2","-2","1","2","3","2","2","1","1","1","2","2","1","4","3","3","1","1","2","1","2","2","2","3","3","2","1","2","3","1","2","1","1","2","3","1","1","1","2","2","2","2","1","1","3","1","2","5","1","3","1","4","3","1","2","1","1","3","1","7","2","2","688788853804236800","李","18","Male","[""坏他"",""好我"",""坏我"",""好他""]","[""弱他"",""强我"",""弱我"",""强他""]","","","","","","","","yes","","","","","","","","","SRET","EW_formal","","key","f","16.694803278688074","637","356","朋友","浅薄","Negative","ability","","","","","","","","","","",""
"1473","","j","psychophysics","62","731066","0.0-7.0-3.0-0.48","2","1","2","1","1","2","1","1","2","2","2","-2","-1","-3","-2","-1","-2","-2","-2","1","2","3","2","2","1","1","1","2","2","1","4","3","3","1","1","2","1","2","2","2","3","3","2","1","2","3","1","2","1","1","2","3","1","1","1","2","2","2","2","1","1","3","1","2","5","1","3","1","4","3","1","2","1","1","3","1","7","2","2","688788853804236800","李","18","Male","[""坏他"",""好我"",""坏我"",""好他""]","[""弱他"",""强我"",""弱我"",""强他""]","","","","","","","","no","","","","","","","","","SRET","EW_formal","","key","j","16.694680272108958","637","356","自己","中用","Positive","ability","","","","","","","","","","",""
"1321","","j","psychophysics","63","733409","0.0-7.0-3.0-0.49","2","1","2","1","1","2","1","1","2","2","2","-2","-1","-3","-2","-1","-2","-2","-2","1","2","3","2","2","1","1","1","2","2","1","4","3","3","1","1","2","1","2","2","2","3","3","2","1","2","3","1","2","1","1","2","3","1","1","1","2","2","2","2","1","1","3","1","2","5","1","3","1","4","3","1","2","1","1","3","1","7","2","2","688788853804236800","李","18","Male","[""坏他"",""好我"",""坏我"",""好他""]","[""弱他"",""强我"",""弱我"",""强他""]","","","","","","","","no","","","","","","","","","SRET","EW_formal","","key","j","16.69460000000046","637","356","自己","背叛","Negative","morality","","","","","","","","","","",""
"993","","j","psychophysics","64","735409","0.0-7.0-3.0-0.50","2","1","2","1","1","2","1","1","2","2","2","-2","-1","-3","-2","-1","-2","-2","-2","1","2","3","2","2","1","1","1","2","2","1","4","3","3","1","1","2","1","2","2","2","3","3","2","1","2","3","1","2","1","1","2","3","1","1","1","2","2","2","2","1","1","3","1","2","5","1","3","1","4","3","1","2","1","1","3","1","7","2","2","688788853804236800","李","18","Male","[""坏他"",""好我"",""坏我"",""好他""]","[""弱他"",""强我"",""弱我"",""强他""]","","","","","","","","no","","","","","","","","","SRET","EW_formal","","key","j","16.69565546218533","637","356","朋友","虚假","Negative","morality","","","","","","","","","","",""
"763","","j","psychophysics","65","737198","0.0-7.0-3.0-0.51","2","1","2","1","1","2","1","1","2","2","2","-2","-1","-3","-2","-1","-2","-2","-2","1","2","3","2","2","1","1","1","2","2","1","4","3","3","1","1","2","1","2","2","2","3","3","2","1","2","3","1","2","1","1","2","3","1","1","1","2","2","2","2","1","1","3","1","2","5","1","3","1","4","3","1","2","1","1","3","1","7","2","2","688788853804236800","李","18","Male","[""坏他"",""好我"",""坏我"",""好他""]","[""弱他"",""强我"",""弱我"",""强他""]","","","","","","","","no","","","","","","","","","SRET","EW_formal","","key","j","16.85414285714339","637","356","自己","阴毒","Negative","morality","","","","","","","","","","",""
"842","","j","psychophysics","66","739051","0.0-7.0-3.0-0.52","2","1","2","1","1","2","1","1","2","2","2","-2","-1","-3","-2","-1","-2","-2","-2","1","2","3","2","2","1","1","1","2","2","1","4","3","3","1","1","2","1","2","2","2","3","3","2","1","2","3","1","2","1","1","2","3","1","1","1","2","2","2","2","1","1","3","1","2","5","1","3","1","4","3","1","2","1","1","3","1","7","2","2","688788853804236800","李","18","Male","[""坏他"",""好我"",""坏我"",""好他""]","[""弱他"",""强我"",""弱我"",""强他""]","","","","","","","","no","","","","","","","","","SRET","EW_formal","","key","j","17.00835185185187","637","356","朋友","毅力","Positive","ability","","","","","","","","","","",""
"757","","j","psychophysics","67","740817","0.0-7.0-3.0-0.53","2","1","2","1","1","2","1","1","2","2","2","-2","-1","-3","-2","-1","-2","-2","-2","1","2","3","2","2","1","1","1","2","2","1","4","3","3","1","1","2","1","2","2","2","3","3","2","1","2","3","1","2","1","1","2","3","1","1","1","2","2","2","2","1","1","3","1","2","5","1","3","1","4","3","1","2","1","1","3","1","7","2","2","688788853804236800","李","18","Male","[""坏他"",""好我"",""坏我"",""好他""]","[""弱他"",""强我"",""弱我"",""强他""]","","","","","","","","no","","","","","","","","","SRET","EW_formal","","key","j","16.69493333333327","637","356","朋友","刻苦","Positive","ability","","","","","","","","","","",""
"911","","f","psychophysics","68","742740","0.0-7.0-3.0-0.54","2","1","2","1","1","2","1","1","2","2","2","-2","-1","-3","-2","-1","-2","-2","-2","1","2","3","2","2","1","1","1","2","2","1","4","3","3","1","1","2","1","2","2","2","3","3","2","1","2","3","1","2","1","1","2","3","1","1","1","2","2","2","2","1","1","3","1","2","5","1","3","1","4","3","1","2","1","1","3","1","7","2","2","688788853804236800","李","18","Male","[""坏他"",""好我"",""坏我"",""好他""]","[""弱他"",""强我"",""弱我"",""强他""]","","","","","","","","yes","","","","","","","","","SRET","EW_formal","","key","f","16.847548672566766","637","356","自己","草率","Negative","ability","","","","","","","","","","",""
"1024","","j","psychophysics","69","744774","0.0-7.0-3.0-0.55","2","1","2","1","1","2","1","1","2","2","2","-2","-1","-3","-2","-1","-2","-2","-2","1","2","3","2","2","1","1","1","2","2","1","4","3","3","1","1","2","1","2","2","2","3","3","2","1","2","3","1","2","1","1","2","3","1","1","1","2","2","2","2","1","1","3","1","2","5","1","3","1","4","3","1","2","1","1","3","1","7","2","2","688788853804236800","李","18","Male","[""坏他"",""好我"",""坏我"",""好他""]","[""弱他"",""强我"",""弱我"",""强他""]","","","","","","","","no","","","","","","","","","SRET","EW_formal","","key","j","16.69458677685985","637","356","自己","混账","Negative","morality","","","","","","","","","","",""
"1114","","j","psychophysics","70","746899","0.0-7.0-3.0-0.56","2","1","2","1","1","2","1","1","2","2","2","-2","-1","-3","-2","-1","-2","-2","-2","1","2","3","2","2","1","1","1","2","2","1","4","3","3","1","1","2","1","2","2","2","3","3","2","1","2","3","1","2","1","1","2","3","1","1","1","2","2","2","2","1","1","3","1","2","5","1","3","1","4","3","1","2","1","1","3","1","7","2","2","688788853804236800","李","18","Male","[""坏他"",""好我"",""坏我"",""好他""]","[""弱他"",""强我"",""弱我"",""强他""]","","","","","","","","no","","","","","","","","","SRET","EW_formal","","key","j","16.69543650793651","637","356","自己","敬业","Positive","morality","","","","","","","","","","",""
"993","","f","psychophysics","71","748914","0.0-7.0-3.0-0.57","2","1","2","1","1","2","1","1","2","2","2","-2","-1","-3","-2","-1","-2","-2","-2","1","2","3","2","2","1","1","1","2","2","1","4","3","3","1","1","2","1","2","2","2","3","3","2","1","2","3","1","2","1","1","2","3","1","1","1","2","2","2","2","1","1","3","1","2","5","1","3","1","4","3","1","2","1","1","3","1","7","2","2","688788853804236800","李","18","Male","[""坏他"",""好我"",""坏我"",""好他""]","[""弱他"",""强我"",""弱我"",""强他""]","","","","","","","","yes","","","","","","","","","SRET","EW_formal","","key","f","16.695425000000007","637","356","朋友","逞强","Negative","ability","","","","","","","","","","",""
"759","","j","psychophysics","72","750686","0.0-7.0-3.0-0.58","2","1","2","1","1","2","1","1","2","2","2","-2","-1","-3","-2","-1","-2","-2","-2","1","2","3","2","2","1","1","1","2","2","1","4","3","3","1","1","2","1","2","2","2","3","3","2","1","2","3","1","2","1","1","2","3","1","1","1","2","2","2","2","1","1","3","1","2","5","1","3","1","4","3","1","2","1","1","3","1","7","2","2","688788853804236800","李","18","Male","[""坏他"",""好我"",""坏我"",""好他""]","[""弱他"",""强我"",""弱我"",""强他""]","","","","","","","","no","","","","","","","","","SRET","EW_formal","","key","j","16.695704761904754","637","356","朋友","歹毒","Negative","morality","","","","","","","","","","",""
"1241","","f","psychophysics","73","752957","0.0-7.0-3.0-0.59","2","1","2","1","1","2","1","1","2","2","2","-2","-1","-3","-2","-1","-2","-2","-2","1","2","3","2","2","1","1","1","2","2","1","4","3","3","1","1","2","1","2","2","2","3","3","2","1","2","3","1","2","1","1","2","3","1","1","1","2","2","2","2","1","1","3","1","2","5","1","3","1","4","3","1","2","1","1","3","1","7","2","2","688788853804236800","李","18","Male","[""坏他"",""好我"",""坏我"",""好他""]","[""弱他"",""强我"",""弱我"",""强他""]","","","","","","","","yes","","","","","","","","","SRET","EW_formal","","key","f","16.69821481481453","637","356","自己","新手","Negative","ability","","","","","","","","","","",""
"856","","f","psychophysics","74","754841","0.0-7.0-3.0-0.60","2","1","2","1","1","2","1","1","2","2","2","-2","-1","-3","-2","-1","-2","-2","-2","1","2","3","2","2","1","1","1","2","2","1","4","3","3","1","1","2","1","2","2","2","3","3","2","1","2","3","1","2","1","1","2","3","1","1","1","2","2","2","2","1","1","3","1","2","5","1","3","1","4","3","1","2","1","1","3","1","7","2","2","688788853804236800","李","18","Male","[""坏他"",""好我"",""坏我"",""好他""]","[""弱他"",""强我"",""弱我"",""强他""]","","","","","","","","yes","","","","","","","","","SRET","EW_formal","","key","f","16.695732142857327","637","356","自己","拖拉","Negative","ability","","","","","","","","","","",""
"1271","","j","psychophysics","75","757116","0.0-7.0-3.0-0.61","2","1","2","1","1","2","1","1","2","2","2","-2","-1","-3","-2","-1","-2","-2","-2","1","2","3","2","2","1","1","1","2","2","1","4","3","3","1","1","2","1","2","2","2","3","3","2","1","2","3","1","2","1","1","2","3","1","1","1","2","2","2","2","1","1","3","1","2","5","1","3","1","4","3","1","2","1","1","3","1","7","2","2","688788853804236800","李","18","Male","[""坏他"",""好我"",""坏我"",""好他""]","[""弱他"",""强我"",""弱我"",""强他""]","","","","","","","","no","","","","","","","","","SRET","EW_formal","","key","j","16.69583703703678","637","356","朋友","谦逊","Positive","morality","","","","","","","","","","",""
"1183","","j","psychophysics","76","759318","0.0-7.0-3.0-0.62","2","1","2","1","1","2","1","1","2","2","2","-2","-1","-3","-2","-1","-2","-2","-2","1","2","3","2","2","1","1","1","2","2","1","4","3","3","1","1","2","1","2","2","2","3","3","2","1","2","3","1","2","1","1","2","3","1","1","1","2","2","2","2","1","1","3","1","2","5","1","3","1","4","3","1","2","1","1","3","1","7","2","2","688788853804236800","李","18","Male","[""坏他"",""好我"",""坏我"",""好他""]","[""弱他"",""强我"",""弱我"",""强他""]","","","","","","","","no","","","","","","","","","SRET","EW_formal","","key","j","16.95712403100807","637","356","朋友","坚持","Positive","ability","","","","","","","","","","",""
"981","","f","psychophysics","77","761318","0.0-7.0-3.0-0.63","2","1","2","1","1","2","1","1","2","2","2","-2","-1","-3","-2","-1","-2","-2","-2","1","2","3","2","2","1","1","1","2","2","1","4","3","3","1","1","2","1","2","2","2","3","3","2","1","2","3","1","2","1","1","2","3","1","1","1","2","2","2","2","1","1","3","1","2","5","1","3","1","4","3","1","2","1","1","3","1","7","2","2","688788853804236800","李","18","Male","[""坏他"",""好我"",""坏我"",""好他""]","[""弱他"",""强我"",""弱我"",""强他""]","","","","","","","","yes","","","","","","","","","SRET","EW_formal","","key","f","16.695100840336657","637","356","朋友","业余","Negative","ability","","","","","","","","","","",""
"868","","f","psychophysics","78","763221","0.0-7.0-3.0-0.64","2","1","2","1","1","2","1","1","2","2","2","-2","-1","-3","-2","-1","-2","-2","-2","1","2","3","2","2","1","1","1","2","2","1","4","3","3","1","1","2","1","2","2","2","3","3","2","1","2","3","1","2","1","1","2","3","1","1","1","2","2","2","2","1","1","3","1","2","5","1","3","1","4","3","1","2","1","1","3","1","7","2","2","688788853804236800","李","18","Male","[""坏他"",""好我"",""坏我"",""好他""]","[""弱他"",""强我"",""弱我"",""强他""]","","","","","","","","yes","","","","","","","","","SRET","EW_formal","","key","f","16.695491071428737","637","356","自己","孝顺","Positive","morality","","","","","","","","","","",""
"1059","","j","psychophysics","79","765293","0.0-7.0-3.0-0.65","2","1","2","1","1","2","1","1","2","2","2","-2","-1","-3","-2","-1","-2","-2","-2","1","2","3","2","2","1","1","1","2","2","1","4","3","3","1","1","2","1","2","2","2","3","3","2","1","2","3","1","2","1","1","2","3","1","1","1","2","2","2","2","1","1","3","1","2","5","1","3","1","4","3","1","2","1","1","3","1","7","2","2","688788853804236800","李","18","Male","[""坏他"",""好我"",""坏我"",""好他""]","[""弱他"",""强我"",""弱我"",""强他""]","","","","","","","","no","","","","","","","","","SRET","EW_formal","","key","j","16.695282258064253","637","356","朋友","不孝","Negative","morality","","","","","","","","","","",""
"1378","","f","psychophysics","80","767681","0.0-7.0-3.0-0.66","2","1","2","1","1","2","1","1","2","2","2","-2","-1","-3","-2","-1","-2","-2","-2","1","2","3","2","2","1","1","1","2","2","1","4","3","3","1","1","2","1","2","2","2","3","3","2","1","2","3","1","2","1","1","2","3","1","1","1","2","2","2","2","1","1","3","1","2","5","1","3","1","4","3","1","2","1","1","3","1","7","2","2","688788853804236800","李","18","Male","[""坏他"",""好我"",""坏我"",""好他""]","[""弱他"",""强我"",""弱我"",""强他""]","","","","","","","","yes","","","","","","","","","SRET","EW_formal","","key","f","16.69798591549256","637","356","自己","善良","Positive","morality","","","","","","","","","","",""
"946","","j","psychophysics","81","769638","0.0-7.0-3.0-0.67","2","1","2","1","1","2","1","1","2","2","2","-2","-1","-3","-2","-1","-2","-2","-2","1","2","3","2","2","1","1","1","2","2","1","4","3","3","1","1","2","1","2","2","2","3","3","2","1","2","3","1","2","1","1","2","3","1","1","1","2","2","2","2","1","1","3","1","2","5","1","3","1","4","3","1","2","1","1","3","1","7","2","2","688788853804236800","李","18","Male","[""坏他"",""好我"",""坏我"",""好他""]","[""弱他"",""强我"",""弱我"",""强他""]","","","","","","","","no","","","","","","","","","SRET","EW_formal","","key","j","16.693862068964616","637","356","朋友","小人","Negative","morality","","","","","","","","","","",""
"1098","","j","psychophysics","82","771753","0.0-7.0-3.0-0.68","2","1","2","1","1","2","1","1","2","2","2","-2","-1","-3","-2","-1","-2","-2","-2","1","2","3","2","2","1","1","1","2","2","1","4","3","3","1","1","2","1","2","2","2","3","3","2","1","2","3","1","2","1","1","2","3","1","1","1","2","2","2","2","1","1","3","1","2","5","1","3","1","4","3","1","2","1","1","3","1","7","2","2","688788853804236800","李","18","Male","[""坏他"",""好我"",""坏我"",""好他""]","[""弱他"",""强我"",""弱我"",""强他""]","","","","","","","","no","","","","","","","","","SRET","EW_formal","","key","j","16.695682539682213","637","356","朋友","仁爱","Positive","morality","","","","","","","","","","",""
"894","","f","psychophysics","83","773659","0.0-7.0-3.0-0.69","2","1","2","1","1","2","1","1","2","2","2","-2","-1","-3","-2","-1","-2","-2","-2","1","2","3","2","2","1","1","1","2","2","1","4","3","3","1","1","2","1","2","2","2","3","3","2","1","2","3","1","2","1","1","2","3","1","1","1","2","2","2","2","1","1","3","1","2","5","1","3","1","4","3","1","2","1","1","3","1","7","2","2","688788853804236800","李","18","Male","[""坏他"",""好我"",""坏我"",""好他""]","[""弱他"",""强我"",""弱我"",""强他""]","","","","","","","","yes","","","","","","","","","SRET","EW_formal","","key","f","16.695840707964642","637","356","自己","无知","Negative","ability","","","","","","","","","","",""
"1017","","j","psychophysics","84","775683","0.0-7.0-3.0-0.70","2","1","2","1","1","2","1","1","2","2","2","-2","-1","-3","-2","-1","-2","-2","-2","1","2","3","2","2","1","1","1","2","2","1","4","3","3","1","1","2","1","2","2","2","3","3","2","1","2","3","1","2","1","1","2","3","1","1","1","2","2","2","2","1","1","3","1","2","5","1","3","1","4","3","1","2","1","1","3","1","7","2","2","688788853804236800","李","18","Male","[""坏他"",""好我"",""坏我"",""好他""]","[""弱他"",""强我"",""弱我"",""强他""]","","","","","","","","no","","","","","","","","","SRET","EW_formal","","key","j","16.695650000000022","637","356","自己","刚正","Positive","morality","","","","","","","","","","",""
"1395","","j","psychophysics","85","778084","0.0-7.0-3.0-0.71","2","1","2","1","1","2","1","1","2","2","2","-2","-1","-3","-2","-1","-2","-2","-2","1","2","3","2","2","1","1","1","2","2","1","4","3","3","1","1","2","1","2","2","2","3","3","2","1","2","3","1","2","1","1","2","3","1","1","1","2","2","2","2","1","1","3","1","2","5","1","3","1","4","3","1","2","1","1","3","1","7","2","2","688788853804236800","李","18","Male","[""坏他"",""好我"",""坏我"",""好他""]","[""弱他"",""强我"",""弱我"",""强他""]","","","","","","","","no","","","","","","","","","SRET","EW_formal","","key","j","16.6985804195804","637","356","自己","宽容","Positive","morality","","","","","","","","","","",""
"941","","j","psychophysics","86","780047","0.0-7.0-3.0-0.72","2","1","2","1","1","2","1","1","2","2","2","-2","-1","-3","-2","-1","-2","-2","-2","1","2","3","2","2","1","1","1","2","2","1","4","3","3","1","1","2","1","2","2","2","3","3","2","1","2","3","1","2","1","1","2","3","1","1","1","2","2","2","2","1","1","3","1","2","5","1","3","1","4","3","1","2","1","1","3","1","7","2","2","688788853804236800","李","18","Male","[""坏他"",""好我"",""坏我"",""好他""]","[""弱他"",""强我"",""弱我"",""强他""]","","","","","","","","no","","","","","","","","","SRET","EW_formal","","key","j","16.69924137931004","637","356","自己","仁厚","Positive","morality","","","","","","","","","","",""
"1463","","j","psychophysics","87","782517","0.0-7.0-3.0-0.73","2","1","2","1","1","2","1","1","2","2","2","-2","-1","-3","-2","-1","-2","-2","-2","1","2","3","2","2","1","1","1","2","2","1","4","3","3","1","1","2","1","2","2","2","3","3","2","1","2","3","1","2","1","1","2","3","1","1","1","2","2","2","2","1","1","3","1","2","5","1","3","1","4","3","1","2","1","1","3","1","7","2","2","688788853804236800","李","18","Male","[""坏他"",""好我"",""坏我"",""好他""]","[""弱他"",""强我"",""弱我"",""强他""]","","","","","","","","no","","","","","","","","","SRET","EW_formal","","key","j","16.695523809524392","637","356","自己","不仁","Negative","morality","","","","","","","","","","",""
"1509","","f","psychophysics","88","785048","0.0-7.0-3.0-0.74","2","1","2","1","1","2","1","1","2","2","2","-2","-1","-3","-2","-1","-2","-2","-2","1","2","3","2","2","1","1","1","2","2","1","4","3","3","1","1","2","1","2","2","2","3","3","2","1","2","3","1","2","1","1","2","3","1","1","1","2","2","2","2","1","1","3","1","2","5","1","3","1","4","3","1","2","1","1","3","1","7","2","2","688788853804236800","李","18","Male","[""坏他"",""好我"",""坏我"",""好他""]","[""弱他"",""强我"",""弱我"",""强他""]","","","","","","","","yes","","","","","","","","","SRET","EW_formal","","key","f","16.69923178807968","637","356","自己","龌龊","Negative","morality","","","","","","","","","","",""
"1084","","f","psychophysics","89","787139","0.0-7.0-3.0-0.75","2","1","2","1","1","2","1","1","2","2","2","-2","-1","-3","-2","-1","-2","-2","-2","1","2","3","2","2","1","1","1","2","2","1","4","3","3","1","1","2","1","2","2","2","3","3","2","1","2","3","1","2","1","1","2","3","1","1","1","2","2","2","2","1","1","3","1","2","5","1","3","1","4","3","1","2","1","1","3","1","7","2","2","688788853804236800","李","18","Male","[""坏他"",""好我"",""坏我"",""好他""]","[""弱他"",""强我"",""弱我"",""强他""]","","","","","","","","yes","","","","","","","","","SRET","EW_formal","","key","f","16.696032258065138","637","356","朋友","怠惰","Negative","ability","","","","","","","","","","",""
"955","","j","psychophysics","90","789118","0.0-7.0-3.0-0.76","2","1","2","1","1","2","1","1","2","2","2","-2","-1","-3","-2","-1","-2","-2","-2","1","2","3","2","2","1","1","1","2","2","1","4","3","3","1","1","2","1","2","2","2","3","3","2","1","2","3","1","2","1","1","2","3","1","1","1","2","2","2","2","1","1","3","1","2","5","1","3","1","4","3","1","2","1","1","3","1","7","2","2","688788853804236800","李","18","Male","[""坏他"",""好我"",""坏我"",""好他""]","[""弱他"",""强我"",""弱我"",""强他""]","","","","","","","","no","","","","","","","","","SRET","EW_formal","","key","j","16.696398305084156","637","356","朋友","聪明","Positive","ability","","","","","","","","","","",""
"991","","j","psychophysics","91","791119","0.0-7.0-3.0-0.77","2","1","2","1","1","2","1","1","2","2","2","-2","-1","-3","-2","-1","-2","-2","-2","1","2","3","2","2","1","1","1","2","2","1","4","3","3","1","1","2","1","2","2","2","3","3","2","1","2","3","1","2","1","1","2","3","1","1","1","2","2","2","2","1","1","3","1","2","5","1","3","1","4","3","1","2","1","1","3","1","7","2","2","688788853804236800","李","18","Male","[""坏他"",""好我"",""坏我"",""好他""]","[""弱他"",""强我"",""弱我"",""强他""]","","","","","","","","no","","","","","","","","","SRET","EW_formal","","key","j","16.695737288135174","637","356","朋友","黑心","Negative","morality","","","","","","","","","","",""
"1412","","j","psychophysics","92","793543","0.0-7.0-3.0-0.78","2","1","2","1","1","2","1","1","2","2","2","-2","-1","-3","-2","-1","-2","-2","-2","1","2","3","2","2","1","1","1","2","2","1","4","3","3","1","1","2","1","2","2","2","3","3","2","1","2","3","1","2","1","1","2","3","1","1","1","2","2","2","2","1","1","3","1","2","5","1","3","1","4","3","1","2","1","1","3","1","7","2","2","688788853804236800","李","18","Male","[""坏他"",""好我"",""坏我"",""好他""]","[""弱他"",""强我"",""弱我"",""强他""]","","","","","","","","no","","","","","","","","","SRET","EW_formal","","key","j","16.927195804196057","637","356","自己","不端","Negative","morality","","","","","","","","","","",""
"847","","f","psychophysics","93","795420","0.0-7.0-3.0-0.79","2","1","2","1","1","2","1","1","2","2","2","-2","-1","-3","-2","-1","-2","-2","-2","1","2","3","2","2","1","1","1","2","2","1","4","3","3","1","1","2","1","2","2","2","3","3","2","1","2","3","1","2","1","1","2","3","1","1","1","2","2","2","2","1","1","3","1","2","5","1","3","1","4","3","1","2","1","1","3","1","7","2","2","688788853804236800","李","18","Male","[""坏他"",""好我"",""坏我"",""好他""]","[""弱他"",""强我"",""弱我"",""强他""]","","","","","","","","yes","","","","","","","","","SRET","EW_formal","","key","f","16.69593693693651","637","356","自己","毛糙","Negative","ability","","","","","","","","","","",""
"990","","f","psychophysics","94","797423","0.0-7.0-3.0-0.80","2","1","2","1","1","2","1","1","2","2","2","-2","-1","-3","-2","-1","-2","-2","-2","1","2","3","2","2","1","1","1","2","2","1","4","3","3","1","1","2","1","2","2","2","3","3","2","1","2","3","1","2","1","1","2","3","1","1","1","2","2","2","2","1","1","3","1","2","5","1","3","1","4","3","1","2","1","1","3","1","7","2","2","688788853804236800","李","18","Male","[""坏他"",""好我"",""坏我"",""好他""]","[""弱他"",""强我"",""弱我"",""强他""]","","","","","","","","yes","","","","","","","","","SRET","EW_formal","","key","f","16.980965811966193","637","356","朋友","忠诚","Positive","morality","","","","","","","","","","",""
"1264","","j","psychophysics","95","799705","0.0-7.0-3.0-0.81","2","1","2","1","1","2","1","1","2","2","2","-2","-1","-3","-2","-1","-2","-2","-2","1","2","3","2","2","1","1","1","2","2","1","4","3","3","1","1","2","1","2","2","2","3","3","2","1","2","3","1","2","1","1","2","3","1","1","1","2","2","2","2","1","1","3","1","2","5","1","3","1","4","3","1","2","1","1","3","1","7","2","2","688788853804236800","李","18","Male","[""坏他"",""好我"",""坏我"",""好他""]","[""弱他"",""强我"",""弱我"",""强他""]","","","","","","","","no","","","","","","","","","SRET","EW_formal","","key","j","16.69999264705813","637","356","朋友","慈悲","Positive","morality","","","","","","","","","","",""
"1144","","f","psychophysics","96","801859","0.0-7.0-3.0-0.82","2","1","2","1","1","2","1","1","2","2","2","-2","-1","-3","-2","-1","-2","-2","-2","1","2","3","2","2","1","1","1","2","2","1","4","3","3","1","1","2","1","2","2","2","3","3","2","1","2","3","1","2","1","1","2","3","1","1","1","2","2","2","2","1","1","3","1","2","5","1","3","1","4","3","1","2","1","1","3","1","7","2","2","688788853804236800","李","18","Male","[""坏他"",""好我"",""坏我"",""好他""]","[""弱他"",""强我"",""弱我"",""强他""]","","","","","","","","yes","","","","","","","","","SRET","EW_formal","","key","f","16.69489062499997","637","356","自己","义气","Positive","morality","","","","","","","","","","",""
"866","","j","psychophysics","97","803732","0.0-7.0-3.0-0.83","2","1","2","1","1","2","1","1","2","2","2","-2","-1","-3","-2","-1","-2","-2","-2","1","2","3","2","2","1","1","1","2","2","1","4","3","3","1","1","2","1","2","2","2","3","3","2","1","2","3","1","2","1","1","2","3","1","1","1","2","2","2","2","1","1","3","1","2","5","1","3","1","4","3","1","2","1","1","3","1","7","2","2","688788853804236800","李","18","Male","[""坏他"",""好我"",""坏我"",""好他""]","[""弱他"",""强我"",""弱我"",""强他""]","","","","","","","","no","","","","","","","","","SRET","EW_formal","","key","j","16.696432432432466","637","356","朋友","伪善","Negative","morality","","","","","","","","","","",""
"1012","","f","psychophysics","98","805751","0.0-7.0-3.0-0.84","2","1","2","1","1","2","1","1","2","2","2","-2","-1","-3","-2","-1","-2","-2","-2","1","2","3","2","2","1","1","1","2","2","1","4","3","3","1","1","2","1","2","2","2","3","3","2","1","2","3","1","2","1","1","2","3","1","1","1","2","2","2","2","1","1","3","1","2","5","1","3","1","4","3","1","2","1","1","3","1","7","2","2","688788853804236800","李","18","Male","[""坏他"",""好我"",""坏我"",""好他""]","[""弱他"",""强我"",""弱我"",""强他""]","","","","","","","","yes","","","","","","","","","SRET","EW_formal","","key","f","16.697950000000613","637","356","自己","缓慢","Negative","ability","","","","","","","","","","",""
"1384","","f","psychophysics","99","808144","0.0-7.0-3.0-0.85","2","1","2","1","1","2","1","1","2","2","2","-2","-1","-3","-2","-1","-2","-2","-2","1","2","3","2","2","1","1","1","2","2","1","4","3","3","1","1","2","1","2","2","2","3","3","2","1","2","3","1","2","1","1","2","3","1","1","1","2","2","2","2","1","1","3","1","2","5","1","3","1","4","3","1","2","1","1","3","1","7","2","2","688788853804236800","李","18","Male","[""坏他"",""好我"",""坏我"",""好他""]","[""弱他"",""强我"",""弱我"",""强他""]","","","","","","","","yes","","","","","","","","","SRET","EW_formal","","key","f","16.69868309859147","637","356","朋友","素养","Positive","morality","","","","","","","","","","",""
"1278","","j","psychophysics","100","810439","0.0-7.0-3.0-0.86","2","1","2","1","1","2","1","1","2","2","2","-2","-1","-3","-2","-1","-2","-2","-2","1","2","3","2","2","1","1","1","2","2","1","4","3","3","1","1","2","1","2","2","2","3","3","2","1","2","3","1","2","1","1","2","3","1","1","1","2","2","2","2","1","1","3","1","2","5","1","3","1","4","3","1","2","1","1","3","1","7","2","2","688788853804236800","李","18","Male","[""坏他"",""好我"",""坏我"",""好他""]","[""弱他"",""强我"",""弱我"",""强他""]","","","","","","","","no","","","","","","","","","SRET","EW_formal","","key","j","16.699832116788166","637","356","朋友","低俗","Negative","morality","","","","","","","","","","",""
"844","","j","psychophysics","101","812288","0.0-7.0-3.0-0.87","2","1","2","1","1","2","1","1","2","2","2","-2","-1","-3","-2","-1","-2","-2","-2","1","2","3","2","2","1","1","1","2","2","1","4","3","3","1","1","2","1","2","2","2","3","3","2","1","2","3","1","2","1","1","2","3","1","1","1","2","2","2","2","1","1","3","1","2","5","1","3","1","4","3","1","2","1","1","3","1","7","2","2","688788853804236800","李","18","Male","[""坏他"",""好我"",""坏我"",""好他""]","[""弱他"",""强我"",""弱我"",""强他""]","","","","","","","","no","","","","","","","","","SRET","EW_formal","","key","j","16.696263636363966","637","356","自己","主见","Positive","ability","","","","","","","","","","",""
"77559","
    <p><div style='color:white;font-size:35px; line-height:20px;'>计算任务</div></p><br>
    <p><div style='color:red;font-size:25px; line-height:20px;'>接下来，您将看到一些四则运算题，<b>请从键盘选择 0-9 进行反应。</b></div></p>
    <p><div style='color:red;font-size:25px; line-height:20px;'>请尽可能快地进行计算，计算的速度和正确率将影响报酬的发放。</div></p>
    <p><div class='footer' style='color:white;font-size:25px; line-height:20px;'>如果对本实验还有不清楚之处，请立即向实验员咨询。</p><p style='color:white;font-size:25px; line-height:20px;'>如果您明白了规则：</p><p style='color:white;font-size:22px; line-height:20px;'>请按 继续 进入练习</p>
    </div>
    ","0","html-button-response","102","889849","0.0-7.0-4.0","2","1","2","1","1","2","1","1","2","2","2","-2","-1","-3","-2","-1","-2","-2","-2","1","2","3","2","2","1","1","1","2","2","1","4","3","3","1","1","2","1","2","2","2","3","3","2","1","2","3","1","2","1","1","2","3","1","1","1","2","2","2","2","1","1","3","1","2","5","1","3","1","4","3","1","2","1","1","3","1","7","2","2","688788853804236800","李","18","Male","[""坏他"",""好我"",""坏我"",""好他""]","[""弱他"",""强我"",""弱我"",""强他""]","","","","","","","","","","","","","","","","","SRET_math","math_instructions","Mon Jan 29 2024 21:26:21 GMT+0800 (中国标准时间)","","","","","","","","","","","","","","","","","","","",""
"2465","","5","psychophysics","103","892321","0.0-7.0-5.0-0.0","2","1","2","1","1","2","1","1","2","2","2","-2","-1","-3","-2","-1","-2","-2","-2","1","2","3","2","2","1","1","1","2","2","1","4","3","3","1","1","2","1","2","2","2","3","3","2","1","2","3","1","2","1","1","2","3","1","1","1","2","2","2","2","1","1","3","1","2","5","1","3","1","4","3","1","2","1","1","3","1","7","2","2","688788853804236800","李","18","Male","[""坏他"",""好我"",""坏我"",""好他""]","[""弱他"",""强我"",""弱我"",""强他""]","","","","","","","","5","","","","","","","","","SRET","SRET_math_calculate","","key","5","16.69081081081075","637","356","","","","","9-4= ?","5","1","","","","","","","",""
"3474","","9","psychophysics","104","895815","0.0-7.0-5.0-0.1","2","1","2","1","1","2","1","1","2","2","2","-2","-1","-3","-2","-1","-2","-2","-2","1","2","3","2","2","1","1","1","2","2","1","4","3","3","1","1","2","1","2","2","2","3","3","2","1","2","3","1","2","1","1","2","3","1","1","1","2","2","2","2","1","1","3","1","2","5","1","3","1","4","3","1","2","1","1","3","1","7","2","2","688788853804236800","李","18","Male","[""坏他"",""好我"",""坏我"",""好他""]","[""弱他"",""强我"",""弱我"",""强他""]","","","","","","","","9","","","","","","","","","SRET","SRET_math_calculate","","key","9","16.69221153846145","637","356","","","","","32-23= ?","9","1","","","","","","","",""
"3620","","9","psychophysics","105","899448","0.0-7.0-5.0-0.2","2","1","2","1","1","2","1","1","2","2","2","-2","-1","-3","-2","-1","-2","-2","-2","1","2","3","2","2","1","1","1","2","2","1","4","3","3","1","1","2","1","2","2","2","3","3","2","1","2","3","1","2","1","1","2","3","1","1","1","2","2","2","2","1","1","3","1","2","5","1","3","1","4","3","1","2","1","1","3","1","7","2","2","688788853804236800","李","18","Male","[""坏他"",""好我"",""坏我"",""好他""]","[""弱他"",""强我"",""弱我"",""强他""]","","","","","","","","9","","","","","","","","","SRET","SRET_math_calculate","","key","9","16.692543778801873","637","356","","","","","18/2= ?","9","1","","","","","","","",""
"2932","","6","psychophysics","106","902399","0.0-7.0-5.0-0.3","2","1","2","1","1","2","1","1","2","2","2","-2","-1","-3","-2","-1","-2","-2","-2","1","2","3","2","2","1","1","1","2","2","1","4","3","3","1","1","2","1","2","2","2","3","3","2","1","2","3","1","2","1","1","2","3","1","1","1","2","2","2","2","1","1","3","1","2","5","1","3","1","4","3","1","2","1","1","3","1","7","2","2","688788853804236800","李","18","Male","[""坏他"",""好我"",""坏我"",""好他""]","[""弱他"",""强我"",""弱我"",""强他""]","","","","","","","","6","","","","","","","","","SRET","SRET_math_calculate","","key","6","16.692994318181512","637","356","","","","","11-5= ?","6","1","","","","","","","",""
"2299","","8","psychophysics","107","904704","0.0-7.0-5.0-0.4","2","1","2","1","1","2","1","1","2","2","2","-2","-1","-3","-2","-1","-2","-2","-2","1","2","3","2","2","1","1","1","2","2","1","4","3","3","1","1","2","1","2","2","2","3","3","2","1","2","3","1","2","1","1","2","3","1","1","1","2","2","2","2","1","1","3","1","2","5","1","3","1","4","3","1","2","1","1","3","1","7","2","2","688788853804236800","李","18","Male","[""坏他"",""好我"",""坏我"",""好他""]","[""弱他"",""强我"",""弱我"",""强他""]","","","","","","","","8","","","","","","","","","SRET","SRET_math_calculate","","key","8","16.69294160583913","637","356","","","","","2+6= ?","8","1","","","","","","","",""
"3069","","2","psychophysics","108","907777","0.0-7.0-5.0-0.5","2","1","2","1","1","2","1","1","2","2","2","-2","-1","-3","-2","-1","-2","-2","-2","1","2","3","2","2","1","1","1","2","2","1","4","3","3","1","1","2","1","2","2","2","3","3","2","1","2","3","1","2","1","1","2","3","1","1","1","2","2","2","2","1","1","3","1","2","5","1","3","1","4","3","1","2","1","1","3","1","7","2","2","688788853804236800","李","18","Male","[""坏他"",""好我"",""坏我"",""好他""]","[""弱他"",""强我"",""弱我"",""强他""]","","","","","","","","2","","","","","","","","","SRET","SRET_math_calculate","","key","2","16.693644808743358","637","356","","","","","90/45= ?","2","1","","","","","","","",""
"2300","","7","psychophysics","109","910098","0.0-7.0-5.0-0.6","2","1","2","1","1","2","1","1","2","2","2","-2","-1","-3","-2","-1","-2","-2","-2","1","2","3","2","2","1","1","1","2","2","1","4","3","3","1","1","2","1","2","2","2","3","3","2","1","2","3","1","2","1","1","2","3","1","1","1","2","2","2","2","1","1","3","1","2","5","1","3","1","4","3","1","2","1","1","3","1","7","2","2","688788853804236800","李","18","Male","[""坏他"",""好我"",""坏我"",""好他""]","[""弱他"",""强我"",""弱我"",""强他""]","","","","","","","","7","","","","","","","","","SRET","SRET_math_calculate","","key","7","16.69255797101431","637","356","","","","","9-2= ?","7","1","","","","","","","",""
"2374","","3","psychophysics","110","912501","0.0-7.0-5.0-0.7","2","1","2","1","1","2","1","1","2","2","2","-2","-1","-3","-2","-1","-2","-2","-2","1","2","3","2","2","1","1","1","2","2","1","4","3","3","1","1","2","1","2","2","2","3","3","2","1","2","3","1","2","1","1","2","3","1","1","1","2","2","2","2","1","1","3","1","2","5","1","3","1","4","3","1","2","1","1","3","1","7","2","2","688788853804236800","李","18","Male","[""坏他"",""好我"",""坏我"",""好他""]","[""弱他"",""强我"",""弱我"",""强他""]","","","","","","","","3","","","","","","","","","SRET","SRET_math_calculate","","key","3","16.69695104895098","637","356","","","","","3*1= ?","3","1","","","","","","","",""
"2570","","8","psychophysics","111","915089","0.0-7.0-5.0-0.8","2","1","2","1","1","2","1","1","2","2","2","-2","-1","-3","-2","-1","-2","-2","-2","1","2","3","2","2","1","1","1","2","2","1","4","3","3","1","1","2","1","2","2","2","3","3","2","1","2","3","1","2","1","1","2","3","1","1","1","2","2","2","2","1","1","3","1","2","5","1","3","1","4","3","1","2","1","1","3","1","7","2","2","688788853804236800","李","18","Male","[""坏他"",""好我"",""坏我"",""好他""]","[""弱他"",""强我"",""弱我"",""强他""]","","","","","","","","8","","","","","","","","","SRET","SRET_math_calculate","","key","8","16.6934415584418","637","356","","","","","5+3= ?","8","1","","","","","","","",""
"2423","","3","psychophysics","112","917541","0.0-7.0-5.0-0.9","2","1","2","1","1","2","1","1","2","2","2","-2","-1","-3","-2","-1","-2","-2","-2","1","2","3","2","2","1","1","1","2","2","1","4","3","3","1","1","2","1","2","2","2","3","3","2","1","2","3","1","2","1","1","2","3","1","1","1","2","2","2","2","1","1","3","1","2","5","1","3","1","4","3","1","2","1","1","3","1","7","2","2","688788853804236800","李","18","Male","[""坏他"",""好我"",""坏我"",""好他""]","[""弱他"",""强我"",""弱我"",""强他""]","","","","","","","","3","","","","","","","","","SRET","SRET_math_calculate","","key","3","16.693630136985632","637","356","","","","","9/3= ?","3","1","","","","","","","",""
"2192","","6","psychophysics","113","919761","0.0-7.0-5.0-0.10","2","1","2","1","1","2","1","1","2","2","2","-2","-1","-3","-2","-1","-2","-2","-2","1","2","3","2","2","1","1","1","2","2","1","4","3","3","1","1","2","1","2","2","2","3","3","2","1","2","3","1","2","1","1","2","3","1","1","1","2","2","2","2","1","1","3","1","2","5","1","3","1","4","3","1","2","1","1","3","1","7","2","2","688788853804236800","李","18","Male","[""坏他"",""好我"",""坏我"",""好他""]","[""弱他"",""强我"",""弱我"",""强他""]","","","","","","","","6","","","","","","","","","SRET","SRET_math_calculate","","key","6","16.693871212120442","637","356","","","","","8-2= ?","6","1","","","","","","","",""
"2489","","3","psychophysics","114","922271","0.0-7.0-5.0-0.11","2","1","2","1","1","2","1","1","2","2","2","-2","-1","-3","-2","-1","-2","-2","-2","1","2","3","2","2","1","1","1","2","2","1","4","3","3","1","1","2","1","2","2","2","3","3","2","1","2","3","1","2","1","1","2","3","1","1","1","2","2","2","2","1","1","3","1","2","5","1","3","1","4","3","1","2","1","1","3","1","7","2","2","688788853804236800","李","18","Male","[""坏他"",""好我"",""坏我"",""好他""]","[""弱他"",""强我"",""弱我"",""强他""]","","","","","","","","3","","","","","","","","","SRET","SRET_math_calculate","","key","3","16.694194630872076","637","356","","","","","9-6= ?","3","1","","","","","","","",""
"2203","","2","psychophysics","115","924484","0.0-7.0-5.0-0.12","2","1","2","1","1","2","1","1","2","2","2","-2","-1","-3","-2","-1","-2","-2","-2","1","2","3","2","2","1","1","1","2","2","1","4","3","3","1","1","2","1","2","2","2","3","3","2","1","2","3","1","2","1","1","2","3","1","1","1","2","2","2","2","1","1","3","1","2","5","1","3","1","4","3","1","2","1","1","3","1","7","2","2","688788853804236800","李","18","Male","[""坏他"",""好我"",""坏我"",""好他""]","[""弱他"",""强我"",""弱我"",""强他""]","","","","","","","","2","","","","","","","","","SRET","SRET_math_calculate","","key","2","16.694613636363734","637","356","","","","","19-17= ?","2","1","","","","","","","",""
"2246","","7","psychophysics","116","926736","0.0-7.0-5.0-0.13","2","1","2","1","1","2","1","1","2","2","2","-2","-1","-3","-2","-1","-2","-2","-2","1","2","3","2","2","1","1","1","2","2","1","4","3","3","1","1","2","1","2","2","2","3","3","2","1","2","3","1","2","1","1","2","3","1","1","1","2","2","2","2","1","1","3","1","2","5","1","3","1","4","3","1","2","1","1","3","1","7","2","2","688788853804236800","李","18","Male","[""坏他"",""好我"",""坏我"",""好他""]","[""弱他"",""强我"",""弱我"",""强他""]","","","","","","","","7","","","","","","","","","SRET","SRET_math_calculate","","key","7","16.697669172931736","637","356","","","","","1+6= ?","7","1","","","","","","","",""
"2792","","5","psychophysics","117","929548","0.0-7.0-5.0-0.14","2","1","2","1","1","2","1","1","2","2","2","-2","-1","-3","-2","-1","-2","-2","-2","1","2","3","2","2","1","1","1","2","2","1","4","3","3","1","1","2","1","2","2","2","3","3","2","1","2","3","1","2","1","1","2","3","1","1","1","2","2","2","2","1","1","3","1","2","5","1","3","1","4","3","1","2","1","1","3","1","7","2","2","688788853804236800","李","18","Male","[""坏他"",""好我"",""坏我"",""好他""]","[""弱他"",""强我"",""弱我"",""强他""]","","","","","","","","5","","","","","","","","","SRET","SRET_math_calculate","","key","5","16.694309523810045","637","356","","","","","16-11= ?","5","1","","","","","","","",""
"2194","","4","psychophysics","118","931767","0.0-7.0-5.0-0.15","2","1","2","1","1","2","1","1","2","2","2","-2","-1","-3","-2","-1","-2","-2","-2","1","2","3","2","2","1","1","1","2","2","1","4","3","3","1","1","2","1","2","2","2","3","3","2","1","2","3","1","2","1","1","2","3","1","1","1","2","2","2","2","1","1","3","1","2","5","1","3","1","4","3","1","2","1","1","3","1","7","2","2","688788853804236800","李","18","Male","[""坏他"",""好我"",""坏我"",""好他""]","[""弱他"",""强我"",""弱我"",""强他""]","","","","","","","","4","","","","","","","","","SRET","SRET_math_calculate","","key","4","16.69406818181795","637","356","","","","","9-5= ?","4","1","","","","","","","",""
"2041","","6","psychophysics","119","933833","0.0-7.0-5.0-0.16","2","1","2","1","1","2","1","1","2","2","2","-2","-1","-3","-2","-1","-2","-2","-2","1","2","3","2","2","1","1","1","2","2","1","4","3","3","1","1","2","1","2","2","2","3","3","2","1","2","3","1","2","1","1","2","3","1","1","1","2","2","2","2","1","1","3","1","2","5","1","3","1","4","3","1","2","1","1","3","1","7","2","2","688788853804236800","李","18","Male","[""坏他"",""好我"",""坏我"",""好他""]","[""弱他"",""强我"",""弱我"",""强他""]","","","","","","","","6","","","","","","","","","SRET","SRET_math_calculate","","key","6","16.69436585365859","637","356","","","","","5+1= ?","6","1","","","","","","","",""
"2340","","9","psychophysics","120","936205","0.0-7.0-5.0-0.17","2","1","2","1","1","2","1","1","2","2","2","-2","-1","-3","-2","-1","-2","-2","-2","1","2","3","2","2","1","1","1","2","2","1","4","3","3","1","1","2","1","2","2","2","3","3","2","1","2","3","1","2","1","1","2","3","1","1","1","2","2","2","2","1","1","3","1","2","5","1","3","1","4","3","1","2","1","1","3","1","7","2","2","688788853804236800","李","18","Male","[""坏他"",""好我"",""坏我"",""好他""]","[""弱他"",""强我"",""弱我"",""强他""]","","","","","","","","9","","","","","","","","","SRET","SRET_math_calculate","","key","9","16.696468085106726","637","356","","","","","5*0= ?","0","0","","","","","","","",""
"3258","","2","psychophysics","121","939495","0.0-7.0-5.0-0.18","2","1","2","1","1","2","1","1","2","2","2","-2","-1","-3","-2","-1","-2","-2","-2","1","2","3","2","2","1","1","1","2","2","1","4","3","3","1","1","2","1","2","2","2","3","3","2","1","2","3","1","2","1","1","2","3","1","1","1","2","2","2","2","1","1","3","1","2","5","1","3","1","4","3","1","2","1","1","3","1","7","2","2","688788853804236800","李","18","Male","[""坏他"",""好我"",""坏我"",""好他""]","[""弱他"",""强我"",""弱我"",""强他""]","","","","","","","","2","","","","","","","","","SRET","SRET_math_calculate","","key","2","16.694525510203974","637","356","","","","","9-7= ?","2","1","","","","","","","",""
"2345","","7","psychophysics","122","941845","0.0-7.0-5.0-0.19","2","1","2","1","1","2","1","1","2","2","2","-2","-1","-3","-2","-1","-2","-2","-2","1","2","3","2","2","1","1","1","2","2","1","4","3","3","1","1","2","1","2","2","2","3","3","2","1","2","3","1","2","1","1","2","3","1","1","1","2","2","2","2","1","1","3","1","2","5","1","3","1","4","3","1","2","1","1","3","1","7","2","2","688788853804236800","李","18","Male","[""坏他"",""好我"",""坏我"",""好他""]","[""弱他"",""强我"",""弱我"",""强他""]","","","","","","","","7","","","","","","","","","SRET","SRET_math_calculate","","key","7","16.69537142857111","637","356","","","","","4+3= ?","7","1","","","","","","","",""
"3552","","7","psychophysics","123","945405","0.0-7.0-5.0-0.20","2","1","2","1","1","2","1","1","2","2","2","-2","-1","-3","-2","-1","-2","-2","-2","1","2","3","2","2","1","1","1","2","2","1","4","3","3","1","1","2","1","2","2","2","3","3","2","1","2","3","1","2","1","1","2","3","1","1","1","2","2","2","2","1","1","3","1","2","5","1","3","1","4","3","1","2","1","1","3","1","7","2","2","688788853804236800","李","18","Male","[""坏他"",""好我"",""坏我"",""好他""]","[""弱他"",""强我"",""弱我"",""强他""]","","","","","","","","7","","","","","","","","","SRET","SRET_math_calculate","","key","7","16.775511848341377","637","356","","","","","13-6= ?","7","1","","","","","","","",""
"2060","","9","psychophysics","124","947485","0.0-7.0-5.0-0.21","2","1","2","1","1","2","1","1","2","2","2","-2","-1","-3","-2","-1","-2","-2","-2","1","2","3","2","2","1","1","1","2","2","1","4","3","3","1","1","2","1","2","2","2","3","3","2","1","2","3","1","2","1","1","2","3","1","1","1","2","2","2","2","1","1","3","1","2","5","1","3","1","4","3","1","2","1","1","3","1","7","2","2","688788853804236800","李","18","Male","[""坏他"",""好我"",""坏我"",""好他""]","[""弱他"",""强我"",""弱我"",""强他""]","","","","","","","","9","","","","","","","","","SRET","SRET_math_calculate","","key","9","16.69461788617858","637","356","","","","","7+2= ?","9","1","","","","","","","",""
"2108","","3","psychophysics","125","949609","0.0-7.0-5.0-0.22","2","1","2","1","1","2","1","1","2","2","2","-2","-1","-3","-2","-1","-2","-2","-2","1","2","3","2","2","1","1","1","2","2","1","4","3","3","1","1","2","1","2","2","2","3","3","2","1","2","3","1","2","1","1","2","3","1","1","1","2","2","2","2","1","1","3","1","2","5","1","3","1","4","3","1","2","1","1","3","1","7","2","2","688788853804236800","李","18","Male","[""坏他"",""好我"",""坏我"",""好他""]","[""弱他"",""强我"",""弱我"",""强他""]","","","","","","","","3","","","","","","","","","SRET","SRET_math_calculate","","key","3","16.698456692912682","637","356","","","","","6/2= ?","3","1","","","","","","","",""
"2027","","0","psychophysics","126","951642","0.0-7.0-5.0-0.23","2","1","2","1","1","2","1","1","2","2","2","-2","-1","-3","-2","-1","-2","-2","-2","1","2","3","2","2","1","1","1","2","2","1","4","3","3","1","1","2","1","2","2","2","3","3","2","1","2","3","1","2","1","1","2","3","1","1","1","2","2","2","2","1","1","3","1","2","5","1","3","1","4","3","1","2","1","1","3","1","7","2","2","688788853804236800","李","18","Male","[""坏他"",""好我"",""坏我"",""好他""]","[""弱他"",""强我"",""弱我"",""强他""]","","","","","","","","0","","","","","","","","","SRET","SRET_math_calculate","","key","0","16.69464166666633","637","356","","","","","7*0= ?","0","1","","","","","","","",""
"2008","","4","psychophysics","127","953703","0.0-7.0-5.0-0.24","2","1","2","1","1","2","1","1","2","2","2","-2","-1","-3","-2","-1","-2","-2","-2","1","2","3","2","2","1","1","1","2","2","1","4","3","3","1","1","2","1","2","2","2","3","3","2","1","2","3","1","2","1","1","2","3","1","1","1","2","2","2","2","1","1","3","1","2","5","1","3","1","4","3","1","2","1","1","3","1","7","2","2","688788853804236800","李","18","Male","[""坏他"",""好我"",""坏我"",""好他""]","[""弱他"",""强我"",""弱我"",""强他""]","","","","","","","","4","","","","","","","","","SRET","SRET_math_calculate","","key","4","17.11634999999951","637","356","","","","","3+1= ?","4","1","","","","","","","",""
"2521","","8","psychophysics","128","956252","0.0-7.0-5.0-0.25","2","1","2","1","1","2","1","1","2","2","2","-2","-1","-3","-2","-1","-2","-2","-2","1","2","3","2","2","1","1","1","2","2","1","4","3","3","1","1","2","1","2","2","2","3","3","2","1","2","3","1","2","1","1","2","3","1","1","1","2","2","2","2","1","1","3","1","2","5","1","3","1","4","3","1","2","1","1","3","1","7","2","2","688788853804236800","李","18","Male","[""坏他"",""好我"",""坏我"",""好他""]","[""弱他"",""强我"",""弱我"",""强他""]","","","","","","","","8","","","","","","","","","SRET","SRET_math_calculate","","key","8","16.694629139072624","637","356","","","","","1+7= ?","8","1","","","","","","","",""
"2215","","9","psychophysics","129","958476","0.0-7.0-5.0-0.26","2","1","2","1","1","2","1","1","2","2","2","-2","-1","-3","-2","-1","-2","-2","-2","1","2","3","2","2","1","1","1","2","2","1","4","3","3","1","1","2","1","2","2","2","3","3","2","1","2","3","1","2","1","1","2","3","1","1","1","2","2","2","2","1","1","3","1","2","5","1","3","1","4","3","1","2","1","1","3","1","7","2","2","688788853804236800","李","18","Male","[""坏他"",""好我"",""坏我"",""好他""]","[""弱他"",""强我"",""弱我"",""强他""]","","","","","","","","9","","","","","","","","","SRET","SRET_math_calculate","","key","9","16.82106060606064","637","356","","","","","6+3= ?","9","1","","","","","","","",""
"2621","","3","psychophysics","130","961129","0.0-7.0-5.0-0.27","2","1","2","1","1","2","1","1","2","2","2","-2","-1","-3","-2","-1","-2","-2","-2","1","2","3","2","2","1","1","1","2","2","1","4","3","3","1","1","2","1","2","2","2","3","3","2","1","2","3","1","2","1","1","2","3","1","1","1","2","2","2","2","1","1","3","1","2","5","1","3","1","4","3","1","2","1","1","3","1","7","2","2","688788853804236800","李","18","Male","[""坏他"",""好我"",""坏我"",""好他""]","[""弱他"",""强我"",""弱我"",""强他""]","","","","","","","","3","","","","","","","","","SRET","SRET_math_calculate","","key","3","16.695537974683663","637","356","","","","","3+0= ?","3","1","","","","","","","",""
"2780","","3","psychophysics","131","963920","0.0-7.0-5.0-0.28","2","1","2","1","1","2","1","1","2","2","2","-2","-1","-3","-2","-1","-2","-2","-2","1","2","3","2","2","1","1","1","2","2","1","4","3","3","1","1","2","1","2","2","2","3","3","2","1","2","3","1","2","1","1","2","3","1","1","1","2","2","2","2","1","1","3","1","2","5","1","3","1","4","3","1","2","1","1","3","1","7","2","2","688788853804236800","李","18","Male","[""坏他"",""好我"",""坏我"",""好他""]","[""弱他"",""强我"",""弱我"",""强他""]","","","","","","","","3","","","","","","","","","SRET","SRET_math_calculate","","key","3","16.695819277108047","637","356","","","","","11-8= ?","3","1","","","","","","","",""
"2184","","9","psychophysics","132","966135","0.0-7.0-5.0-0.29","2","1","2","1","1","2","1","1","2","2","2","-2","-1","-3","-2","-1","-2","-2","-2","1","2","3","2","2","1","1","1","2","2","1","4","3","3","1","1","2","1","2","2","2","3","3","2","1","2","3","1","2","1","1","2","3","1","1","1","2","2","2","2","1","1","3","1","2","5","1","3","1","4","3","1","2","1","1","3","1","7","2","2","688788853804236800","李","18","Male","[""坏他"",""好我"",""坏我"",""好他""]","[""弱他"",""强我"",""弱我"",""强他""]","","","","","","","","9","","","","","","","","","SRET","SRET_math_calculate","","key","9","16.69471212121249","637","356","","","","","8+1= ?","9","1","","","","","","","",""
"2706","","8","psychophysics","133","968849","0.0-7.0-5.0-0.30","2","1","2","1","1","2","1","1","2","2","2","-2","-1","-3","-2","-1","-2","-2","-2","1","2","3","2","2","1","1","1","2","2","1","4","3","3","1","1","2","1","2","2","2","3","3","2","1","2","3","1","2","1","1","2","3","1","1","1","2","2","2","2","1","1","3","1","2","5","1","3","1","4","3","1","2","1","1","3","1","7","2","2","688788853804236800","李","18","Male","[""坏他"",""好我"",""坏我"",""好他""]","[""弱他"",""强我"",""弱我"",""强他""]","","","","","","","","8","","","","","","","","","SRET","SRET_math_calculate","","key","8","16.695049689440577","637","356","","","","","1*8= ?","8","1","","","","","","","",""
"1950","","3","psychophysics","134","970826","0.0-7.0-5.0-0.31","2","1","2","1","1","2","1","1","2","2","2","-2","-1","-3","-2","-1","-2","-2","-2","1","2","3","2","2","1","1","1","2","2","1","4","3","3","1","1","2","1","2","2","2","3","3","2","1","2","3","1","2","1","1","2","3","1","1","1","2","2","2","2","1","1","3","1","2","5","1","3","1","4","3","1","2","1","1","3","1","7","2","2","688788853804236800","李","18","Male","[""坏他"",""好我"",""坏我"",""好他""]","[""弱他"",""强我"",""弱我"",""强他""]","","","","","","","","3","","","","","","","","","SRET","SRET_math_calculate","","key","3","16.695923076922664","637","356","","","","","1+2= ?","3","1","","","","","","","",""
"1956","","5","psychophysics","135","972813","0.0-7.0-5.0-0.32","2","1","2","1","1","2","1","1","2","2","2","-2","-1","-3","-2","-1","-2","-2","-2","1","2","3","2","2","1","1","1","2","2","1","4","3","3","1","1","2","1","2","2","2","3","3","2","1","2","3","1","2","1","1","2","3","1","1","1","2","2","2","2","1","1","3","1","2","5","1","3","1","4","3","1","2","1","1","3","1","7","2","2","688788853804236800","李","18","Male","[""坏他"",""好我"",""坏我"",""好他""]","[""弱他"",""强我"",""弱我"",""强他""]","","","","","","","","5","","","","","","","","","SRET","SRET_math_calculate","","key","5","16.69584873949565","637","356","","","","","3+2= ?","5","1","","","","","","","",""
"2731","","3","psychophysics","136","975550","0.0-7.0-5.0-0.33","2","1","2","1","1","2","1","1","2","2","2","-2","-1","-3","-2","-1","-2","-2","-2","1","2","3","2","2","1","1","1","2","2","1","4","3","3","1","1","2","1","2","2","2","3","3","2","1","2","3","1","2","1","1","2","3","1","1","1","2","2","2","2","1","1","3","1","2","5","1","3","1","4","3","1","2","1","1","3","1","7","2","2","688788853804236800","李","18","Male","[""坏他"",""好我"",""坏我"",""好他""]","[""弱他"",""强我"",""弱我"",""强他""]","","","","","","","","3","","","","","","","","","SRET","SRET_math_calculate","","key","3","16.692006172839392","637","356","","","","","21/7=  ?","3","1","","","","","","","",""
"2177","","4","psychophysics","137","977779","0.0-7.0-5.0-0.34","2","1","2","1","1","2","1","1","2","2","2","-2","-1","-3","-2","-1","-2","-2","-2","1","2","3","2","2","1","1","1","2","2","1","4","3","3","1","1","2","1","2","2","2","3","3","2","1","2","3","1","2","1","1","2","3","1","1","1","2","2","2","2","1","1","3","1","2","5","1","3","1","4","3","1","2","1","1","3","1","7","2","2","688788853804236800","李","18","Male","[""坏他"",""好我"",""坏我"",""好他""]","[""弱他"",""强我"",""弱我"",""强他""]","","","","","","","","4","","","","","","","","","SRET","SRET_math_calculate","","key","4","16.823030303030407","637","356","","","","","4*1= ?","4","1","","","","","","","",""
"1874","","3","psychophysics","138","979677","0.0-7.0-5.0-0.35","2","1","2","1","1","2","1","1","2","2","2","-2","-1","-3","-2","-1","-2","-2","-2","1","2","3","2","2","1","1","1","2","2","1","4","3","3","1","1","2","1","2","2","2","3","3","2","1","2","3","1","2","1","1","2","3","1","1","1","2","2","2","2","1","1","3","1","2","5","1","3","1","4","3","1","2","1","1","3","1","7","2","2","688788853804236800","李","18","Male","[""坏他"",""好我"",""坏我"",""好他""]","[""弱他"",""强我"",""弱我"",""强他""]","","","","","","","","3","","","","","","","","","SRET","SRET_math_calculate","","key","3","16.695469026548572","637","356","","","","","5-3= ?","2","0","","","","","","","",""
"2729","","4","psychophysics","139","982413","0.0-7.0-5.0-0.36","2","1","2","1","1","2","1","1","2","2","2","-2","-1","-3","-2","-1","-2","-2","-2","1","2","3","2","2","1","1","1","2","2","1","4","3","3","1","1","2","1","2","2","2","3","3","2","1","2","3","1","2","1","1","2","3","1","1","1","2","2","2","2","1","1","3","1","2","5","1","3","1","4","3","1","2","1","1","3","1","7","2","2","688788853804236800","李","18","Male","[""坏他"",""好我"",""坏我"",""好他""]","[""弱他"",""强我"",""弱我"",""强他""]","","","","","","","","4","","","","","","","","","SRET","SRET_math_calculate","","key","4","16.7993765432103","637","356","","","","","20/5= ?","4","1","","","","","","","",""
"4518","","7","psychophysics","140","986939","0.0-7.0-5.0-0.37","2","1","2","1","1","2","1","1","2","2","2","-2","-1","-3","-2","-1","-2","-2","-2","1","2","3","2","2","1","1","1","2","2","1","4","3","3","1","1","2","1","2","2","2","3","3","2","1","2","3","1","2","1","1","2","3","1","1","1","2","2","2","2","1","1","3","1","2","5","1","3","1","4","3","1","2","1","1","3","1","7","2","2","688788853804236800","李","18","Male","[""坏他"",""好我"",""坏我"",""好他""]","[""弱他"",""强我"",""弱我"",""强他""]","","","","","","","","7","","","","","","","","","SRET","SRET_math_calculate","","key","7","16.759193308550177","637","356","","","","","49/7 = ?","7","1","","","","","","","",""
"2683","","1","psychophysics","141","989627","0.0-7.0-5.0-0.38","2","1","2","1","1","2","1","1","2","2","2","-2","-1","-3","-2","-1","-2","-2","-2","1","2","3","2","2","1","1","1","2","2","1","4","3","3","1","1","2","1","2","2","2","3","3","2","1","2","3","1","2","1","1","2","3","1","1","1","2","2","2","2","1","1","3","1","2","5","1","3","1","4","3","1","2","1","1","3","1","7","2","2","688788853804236800","李","18","Male","[""坏他"",""好我"",""坏我"",""好他""]","[""弱他"",""强我"",""弱我"",""强他""]","","","","","","","","1","","","","","","","","","SRET","SRET_math_calculate","","key","1","16.695993750000344","637","356","","","","","30-29= ?","1","1","","","","","","","",""
