"rt","stimulus","response","trial_type","trial_index","time_elapsed","internal_node_id","swb_1","swb_2","swb_3","swb_4","swb_5","LOT_1","LOT_2","LOT_3","LOT_4","LOT_5","LOT_6","IPC_1","IPC_2","IPC_3","IPC_4","IPC_5","IPC_6","IPC_7","IPC_8","MorIden_1","MorIden_2","MorIden_3","MorIden_4","MorIden_5","MorIden_6","MorIden_7","MorIden_8","MorIden_9","MorIden_10","moralSeImag_1","moralSeImag_2","moralSeImag_3","moralSeImag_4","moralSeImag_5","moralSeImag_6","moralSeImag_7","moralSeImag_8","moralSeImag_9","sde_1","sde_2","sde_3","sde_4","sde_5","sde_6","sde_7","sde_8","sde_9","sde_10","trap2","sde_11","sde_12","sde_13","sde_14","sde_15","sde_16","sde_17","sde_18","sde_19","sde_20","IM_1","IM_2","IM_3","IM_4","IM_5","IM_6","IM_7","IM_8","IM_9","IM_10","IM_11","IM_12","IM_13","IM_14","IM_15","IM_16","IM_17","IM_18","IM_19","IM_20","subj_idx","friend_name","ParticipantID","Sex","Word","Word2","value","success","timeout","failed_images","failed_audio","failed_video","user_agent","responses","item_order","radio_event_ids","radio_event_times","key_event_times","mouse_event_times","straightlining","zigzagging","honeypot","task_id","screen_id","time_stamp","response_type","key_press","avg_frame_time","center_x","center_y","person","word","valence","domain","math","correct_response","correct","status","view_history","identity","duration","Image","condition","question_order","trap2_item"
"4683","
   <p><div style='color:white; font-size: 25px'>您好，欢迎参加本次实验。</div></p>
   <p><div style='color:white; font-size: 25px'>为充分保障您的权利，请确保您已经知晓并同意《参与实验同意书》以及《数据公开知情同意书》。</div></p>
   <p><div style='color:white; font-size: 25px'>如果您未见过上述内容，请咨询实验员。</div></p>
   <p style='color:white; font-size: 25px'>如果您选择继续实验，则表示您已经清楚两份知情同意书的内容并同意。</p>
   <p><div style = ""color: pink;font-size:30px;"">请确保您记得day0的实验编号，您将在本次实验输入该编号，若您忘记，请咨询实验员后作答。</div></p>
   <p><div style = ""color:lightblue;font-size:25px;"">请您尽可能认真地作答，我们将依据您在各问卷和按键任务中的作答质量发放报酬。</div></p>
   <p> <div style = ""color: green""><按空格键至下页></div> </p>
   "," ","html-keyboard-response","0","4687","0.0-0.0","6","6","7","5","5","4","2","5","3","2","3","2","1","0","1","1","1","2","1","5","5","5","5","5","4","4","4","4","3","3","3","4","4","2","3","2","1","3","6","5","5","4","5","2","5","1","6","2","1","6","3","6","2","4","6","3","3","5","3","3","5","3","4","3","7","4","6","5","6","3","7","3","4","2","6","3","6","3","6","672081135265644544","冯","562","Male","[""坏我"",""坏他"",""好我"",""好他""]","[""弱我"",""弱他"",""强我"",""强他""]","","","","","","","","","","","","","","","","","","","","","","","","","","","","","","","","","","","","","","",""
"","","","call-function","1","4688","0.0-1.0-0.0","6","6","7","5","5","4","2","5","3","2","3","2","1","0","1","1","1","2","1","5","5","5","5","5","4","4","4","4","3","3","3","4","4","2","3","2","1","3","6","5","5","4","5","2","5","1","6","2","1","6","3","6","2","4","6","3","3","5","3","3","5","3","4","3","7","4","6","5","6","3","7","3","4","2","6","3","6","3","6","672081135265644544","冯","562","Male","[""坏我"",""坏他"",""好我"",""好他""]","[""弱我"",""弱他"",""强我"",""强他""]","","","","","","","","","","","","","","","","","","","","","","","","","","","","","","","","","","","","","","",""
"25789","","[{""name"":""Sex"",""value"":""0""},{""name"":""friend_name"",""value"":""冯""},{""name"":""ParticipantID"",""value"":""562""}]","survey-html-form","2","30480","0.0-1.0-1.0","6","6","7","5","5","4","2","5","3","2","3","2","1","0","1","1","1","2","1","5","5","5","5","5","4","4","4","4","3","3","3","4","4","2","3","2","1","3","6","5","5","4","5","2","5","1","6","2","1","6","3","6","2","4","6","3","3","5","3","3","5","3","4","3","7","4","6","5","6","3","7","3","4","2","6","3","6","3","6","672081135265644544","冯","562","Male","[""坏我"",""坏他"",""好我"",""好他""]","[""弱我"",""弱他"",""强我"",""强他""]","","","","","","","","","","","","","","","","","","","","","","","","","","","","","","","","","","","","","","",""
"","","","preload","3","31353","0.0-2.0","6","6","7","5","5","4","2","5","3","2","3","2","1","0","1","1","1","2","1","5","5","5","5","5","4","4","4","4","3","3","3","4","4","2","3","2","1","3","6","5","5","4","5","2","5","1","6","2","1","6","3","6","2","4","6","3","3","5","3","3","5","3","4","3","7","4","6","5","6","3","7","3","4","2","6","3","6","3","6","672081135265644544","冯","562","Male","[""坏我"",""坏他"",""好我"",""好他""]","[""弱我"",""弱他"",""强我"",""强他""]","","true","false","[]","[]","[]","","","","","","","","","","","","","","","","","","","","","","","","","","","","","","","","",""
"","","","fullscreen","4","34510","0.0-3.0","6","6","7","5","5","4","2","5","3","2","3","2","1","0","1","1","1","2","1","5","5","5","5","5","4","4","4","4","3","3","3","4","4","2","3","2","1","3","6","5","5","4","5","2","5","1","6","2","1","6","3","6","2","4","6","3","3","5","3","3","5","3","4","3","7","4","6","5","6","3","7","3","4","2","6","3","6","3","6","672081135265644544","冯","562","Male","[""坏我"",""坏他"",""好我"",""好他""]","[""弱我"",""弱他"",""强我"",""强他""]","","true","","","","","{}","","","","","","","","","","","","","","","","","","","","","","","","","","","","","","","",""
"14115.70000000298","","{""Q01"":""6"",""Q02"":""6"",""Q03"":""7"",""Q04"":""5"",""Q05"":""5""}","survey-template","5","48630","0.0-4.0","6","6","7","5","5","4","2","5","3","2","3","2","1","0","1","1","1","2","1","5","5","5","5","5","4","4","4","4","3","3","3","4","4","2","3","2","1","3","6","5","5","4","5","2","5","1","6","2","1","6","3","6","2","4","6","3","3","5","3","3","5","3","4","3","7","4","6","5","6","3","7","3","4","2","6","3","6","3","6","672081135265644544","冯","562","Male","[""坏我"",""坏他"",""好我"",""好他""]","[""弱我"",""弱他"",""强我"",""强他""]","","","","","","","","{""Q01"":""6"",""Q02"":""6"",""Q03"":""7"",""Q04"":""5"",""Q05"":""5""}","[0,1,2,3,4]","[""Q01"",""Q02"",""Q03"",""Q04"",""Q05""]","[3720.7000000029802,6298.29999999702,7868.70000000298,10219.59999999404,12906.5]","[]","[3720.7000000029802,6298.29999999702,7868.70000000298,10219.59999999404,12906.5,14112.59999999404]","0.4","0.25","0","","","","","","","","","","","","","","","","","","","","","","",""
"22000.29999999702","","{""Q01"":""4"",""Q02"":""2"",""Q03"":""5"",""Q04"":""3"",""Q05"":""2"",""Q06"":""3""}","survey-template","6","70640","0.0-5.0","6","6","7","5","5","4","2","5","3","2","3","2","1","0","1","1","1","2","1","5","5","5","5","5","4","4","4","4","3","3","3","4","4","2","3","2","1","3","6","5","5","4","5","2","5","1","6","2","1","6","3","6","2","4","6","3","3","5","3","3","5","3","4","3","7","4","6","5","6","3","7","3","4","2","6","3","6","3","6","672081135265644544","冯","562","Male","[""坏我"",""坏他"",""好我"",""好他""]","[""弱我"",""弱他"",""强我"",""强他""]","","","","","","","","{""Q01"":""4"",""Q02"":""2"",""Q03"":""5"",""Q04"":""3"",""Q05"":""2"",""Q06"":""3""}","[0,1,2,3,4,5]","[""Q01"",""Q02"",""Q03"",""Q04"",""Q05"",""Q06""]","[3036,10774.79999999702,12773.10000000894,16167.10000000894,18395.5,20806.40000000596]","[]","[3036,10774.79999999702,12773.10000000894,16167.10000000894,18395.5,20806.40000000596,21995.79999999702]","0.5","0.6","0","","","","","","","","","","","","","","","","","","","","","","",""
"19480.39999999106","","{""Q01"":""2"",""Q02"":""1"",""Q03"":""0"",""Q04"":""1"",""Q05"":""1"",""Q06"":""1"",""Q07"":""2"",""Q08"":""1""}","survey-template","7","90128","0.0-6.0","6","6","7","5","5","4","2","5","3","2","3","2","1","0","1","1","1","2","1","5","5","5","5","5","4","4","4","4","3","3","3","4","4","2","3","2","1","3","6","5","5","4","5","2","5","1","6","2","1","6","3","6","2","4","6","3","3","5","3","3","5","3","4","3","7","4","6","5","6","3","7","3","4","2","6","3","6","3","6","672081135265644544","冯","562","Male","[""坏我"",""坏他"",""好我"",""好他""]","[""弱我"",""弱他"",""强我"",""强他""]","","","","","","","","{""Q01"":""2"",""Q02"":""1"",""Q03"":""0"",""Q04"":""1"",""Q05"":""1"",""Q06"":""1"",""Q07"":""2"",""Q08"":""1""}","[0,1,2,3,4,5,6,7]","[""Q01"",""Q02"",""Q03"",""Q04"",""Q05"",""Q06"",""Q07"",""Q08""]","[4182.5,6637.29999999702,8556.59999999404,10947.09999999404,13025.39999999106,14674,16705.79999999702,18147.89999999106]","[]","[4182.5,6637.29999999702,8556.59999999404,10947.09999999404,13025.39999999106,14674,16705.79999999702,18147.89999999106,19478.20000000298]","0.625","0.7142857142857143","0","","","","","","","","","","","","","","","","","","","","","","",""
"12910","
    <p><div style='color:white;font-size:35px; line-height:20px;'>词汇评估任务</div></p><br>
    <p><div style='color:white;font-size:25px; line-height:20px;'>请再次回忆该亲密的朋友，你们至少2年前就认识了，并且最近2年经常见面。</div></p>
    <p><div style='color:white;font-size:25px; line-height:20px;'>在本实验中，您将会看到一些形容词。</div></p>
    <p><div style='color:yellow;font-size:25px; line-height:20px;'>您的任务是判断这些形容词是否符合对您自己或您的朋友的描述。</div></p><p style='font-size:35px'>符合按<span style=""color:lightgreen""> f 键</span>，不符合按<span style=""color:red""> j 键</span></p>","0","html-button-response","8","103044","0.0-7.0-0.0","6","6","7","5","5","4","2","5","3","2","3","2","1","0","1","1","1","2","1","5","5","5","5","5","4","4","4","4","3","3","3","4","4","2","3","2","1","3","6","5","5","4","5","2","5","1","6","2","1","6","3","6","2","4","6","3","3","5","3","3","5","3","4","3","7","4","6","5","6","3","7","3","4","2","6","3","6","3","6","672081135265644544","冯","562","Male","[""坏我"",""坏他"",""好我"",""好他""]","[""弱我"",""弱他"",""强我"",""强他""]","","","","","","","","","","","","","","","","","SRET_EW","EW_instructions","Sat Jan 27 2024 19:36:41 GMT+0800 (中国标准时间)","","","","","","","","","","","","","","","","","","","",""
"1841","","j","psychophysics","9","105893","0.0-7.0-1.0-0.0","6","6","7","5","5","4","2","5","3","2","3","2","1","0","1","1","1","2","1","5","5","5","5","5","4","4","4","4","3","3","3","4","4","2","3","2","1","3","6","5","5","4","5","2","5","1","6","2","1","6","3","6","2","4","6","3","3","5","3","3","5","3","4","3","7","4","6","5","6","3","7","3","4","2","6","3","6","3","6","672081135265644544","冯","562","Male","[""坏我"",""坏他"",""好我"",""好他""]","[""弱我"",""弱他"",""强我"",""强他""]","","","","","","","","no","","","","","","","","","SRET_EW","EW_practice","","key","j","16.564912280701705","768","428","自己","刻板","Negative","ability","","","","","","","","","","",""
"973","","f","psychophysics","10","107870","0.0-7.0-1.0-0.1","6","6","7","5","5","4","2","5","3","2","3","2","1","0","1","1","1","2","1","5","5","5","5","5","4","4","4","4","3","3","3","4","4","2","3","2","1","3","6","5","5","4","5","2","5","1","6","2","1","6","3","6","2","4","6","3","3","5","3","3","5","3","4","3","7","4","6","5","6","3","7","3","4","2","6","3","6","3","6","672081135265644544","冯","562","Male","[""坏我"",""坏他"",""好我"",""好他""]","[""弱我"",""弱他"",""强我"",""强他""]","","","","","","","","yes","","","","","","","","","SRET_EW","EW_practice","","key","f","16.662711864406877","768","428","自己","严谨","Positive","ability","","","","","","","","","","",""
"1112","","f","psychophysics","11","109984","0.0-7.0-1.0-0.2","6","6","7","5","5","4","2","5","3","2","3","2","1","0","1","1","1","2","1","5","5","5","5","5","4","4","4","4","3","3","3","4","4","2","3","2","1","3","6","5","5","4","5","2","5","1","6","2","1","6","3","6","2","4","6","3","3","5","3","3","5","3","4","3","7","4","6","5","6","3","7","3","4","2","6","3","6","3","6","672081135265644544","冯","562","Male","[""坏我"",""坏他"",""好我"",""好他""]","[""弱我"",""弱他"",""强我"",""强他""]","","","","","","","","yes","","","","","","","","","SRET_EW","EW_practice","","key","f","16.66349206349211","768","428","朋友","徇私","Negative","morality","","","","","","","","","","",""
"855","","f","psychophysics","12","111841","0.0-7.0-1.0-0.3","6","6","7","5","5","4","2","5","3","2","3","2","1","0","1","1","1","2","1","5","5","5","5","5","4","4","4","4","3","3","3","4","4","2","3","2","1","3","6","5","5","4","5","2","5","1","6","2","1","6","3","6","2","4","6","3","3","5","3","3","5","3","4","3","7","4","6","5","6","3","7","3","4","2","6","3","6","3","6","672081135265644544","冯","562","Male","[""坏我"",""坏他"",""好我"",""好他""]","[""弱我"",""弱他"",""强我"",""强他""]","","","","","","","","yes","","","","","","","","","SRET_EW","EW_practice","","key","f","16.666363636363663","768","428","朋友","忠实","Positive","morality","","","","","","","","","","",""
"5458","
    <p><div style='color:white;font-size:35px; line-height:20px;'>请您再次阅读实验要求</div></p><br>
    <p><div style='color:white;font-size:25px; line-height:20px;'>请回忆某一个亲密的朋友，你们至少2年前就认识了，并且最近2年经常见面。</div></p>
    <p><div style='color:white;font-size:25px; line-height:20px;'>在本实验中，您将会看到一些形容词。</div></p>
    <p><div style='color:yellow;font-size:25px; line-height:20px;'>您的任务是判断这些形容词是否符合对您自己或您的朋友的描述。</div></p>
    <p><div class='footer' style='font-size:25px; line-height:20px;'>如果对本实验还有不清楚之处，请立即向实验员咨询。</p><p style='font-size:25px; line-height:20px;'>如果您明白了规则：</p><p style='font-size:22px; line-height:20px;'>请按 继续 进入正式实验</p>
    </div>
    <p style='font-size:35px'>符合按<span style=""color:lightgreen""> f 键</span>，不符合按<span style=""color:red""> j 键</span></p>","0","html-button-response","13","117301","0.0-7.0-2.0","6","6","7","5","5","4","2","5","3","2","3","2","1","0","1","1","1","2","1","5","5","5","5","5","4","4","4","4","3","3","3","4","4","2","3","2","1","3","6","5","5","4","5","2","5","1","6","2","1","6","3","6","2","4","6","3","3","5","3","3","5","3","4","3","7","4","6","5","6","3","7","3","4","2","6","3","6","3","6","672081135265644544","冯","562","Male","[""坏我"",""坏他"",""好我"",""好他""]","[""弱我"",""弱他"",""强我"",""强他""]","","","","","","","","","","","","","","","","","SRET_EW","prac_instructions","Sat Jan 27 2024 19:36:41 GMT+0800 (中国标准时间)","","","","","","","","","","","","","","","","","","","",""
"781","","f","psychophysics","14","119092","0.0-7.0-3.0-0.0","6","6","7","5","5","4","2","5","3","2","3","2","1","0","1","1","1","2","1","5","5","5","5","5","4","4","4","4","3","3","3","4","4","2","3","2","1","3","6","5","5","4","5","2","5","1","6","2","1","6","3","6","2","4","6","3","3","5","3","3","5","3","4","3","7","4","6","5","6","3","7","3","4","2","6","3","6","3","6","672081135265644544","冯","562","Male","[""坏我"",""坏他"",""好我"",""好他""]","[""弱我"",""弱他"",""强我"",""强他""]","","","","","","","","yes","","","","","","","","","SRET","EW_formal","","key","f","16.661682242990683","768","428","自己","坚贞","Positive","morality","","","","","","","","","","",""
"831","","j","psychophysics","15","120926","0.0-7.0-3.0-0.1","6","6","7","5","5","4","2","5","3","2","3","2","1","0","1","1","1","2","1","5","5","5","5","5","4","4","4","4","3","3","3","4","4","2","3","2","1","3","6","5","5","4","5","2","5","1","6","2","1","6","3","6","2","4","6","3","3","5","3","3","5","3","4","3","7","4","6","5","6","3","7","3","4","2","6","3","6","3","6","672081135265644544","冯","562","Male","[""坏我"",""坏他"",""好我"",""好他""]","[""弱我"",""弱他"",""强我"",""强他""]","","","","","","","","no","","","","","","","","","SRET","EW_formal","","key","j","16.662385321100892","768","428","自己","说谎","Negative","morality","","","","","","","","","","",""
"848","","f","psychophysics","16","122777","0.0-7.0-3.0-0.2","6","6","7","5","5","4","2","5","3","2","3","2","1","0","1","1","1","2","1","5","5","5","5","5","4","4","4","4","3","3","3","4","4","2","3","2","1","3","6","5","5","4","5","2","5","1","6","2","1","6","3","6","2","4","6","3","3","5","3","3","5","3","4","3","7","4","6","5","6","3","7","3","4","2","6","3","6","3","6","672081135265644544","冯","562","Male","[""坏我"",""坏他"",""好我"",""好他""]","[""弱我"",""弱他"",""强我"",""强他""]","","","","","","","","yes","","","","","","","","","SRET","EW_formal","","key","f","16.663636363636364","768","428","朋友","务实","Positive","ability","","","","","","","","","","",""
"957","","j","psychophysics","17","124737","0.0-7.0-3.0-0.3","6","6","7","5","5","4","2","5","3","2","3","2","1","0","1","1","1","2","1","5","5","5","5","5","4","4","4","4","3","3","3","4","4","2","3","2","1","3","6","5","5","4","5","2","5","1","6","2","1","6","3","6","2","4","6","3","3","5","3","3","5","3","4","3","7","4","6","5","6","3","7","3","4","2","6","3","6","3","6","672081135265644544","冯","562","Male","[""坏我"",""坏他"",""好我"",""好他""]","[""弱我"",""弱他"",""强我"",""强他""]","","","","","","","","no","","","","","","","","","SRET","EW_formal","","key","j","16.662393162393162","768","428","朋友","迷糊","Negative","ability","","","","","","","","","","",""
"691","","j","psychophysics","18","126431","0.0-7.0-3.0-0.4","6","6","7","5","5","4","2","5","3","2","3","2","1","0","1","1","1","2","1","5","5","5","5","5","4","4","4","4","3","3","3","4","4","2","3","2","1","3","6","5","5","4","5","2","5","1","6","2","1","6","3","6","2","4","6","3","3","5","3","3","5","3","4","3","7","4","6","5","6","3","7","3","4","2","6","3","6","3","6","672081135265644544","冯","562","Male","[""坏我"",""坏他"",""好我"",""好他""]","[""弱我"",""弱他"",""强我"",""强他""]","","","","","","","","no","","","","","","","","","SRET","EW_formal","","key","j","16.662376237623704","768","428","朋友","庸碌","Negative","ability","","","","","","","","","","",""
"994","","j","psychophysics","19","128431","0.0-7.0-3.0-0.5","6","6","7","5","5","4","2","5","3","2","3","2","1","0","1","1","1","2","1","5","5","5","5","5","4","4","4","4","3","3","3","4","4","2","3","2","1","3","6","5","5","4","5","2","5","1","6","2","1","6","3","6","2","4","6","3","3","5","3","3","5","3","4","3","7","4","6","5","6","3","7","3","4","2","6","3","6","3","6","672081135265644544","冯","562","Male","[""坏我"",""坏他"",""好我"",""好他""]","[""弱我"",""弱他"",""强我"",""强他""]","","","","","","","","no","","","","","","","","","SRET","EW_formal","","key","j","16.662184873949606","768","428","自己","拜金","Negative","morality","","","","","","","","","","",""
"884","","f","psychophysics","20","130321","0.0-7.0-3.0-0.6","6","6","7","5","5","4","2","5","3","2","3","2","1","0","1","1","1","2","1","5","5","5","5","5","4","4","4","4","3","3","3","4","4","2","3","2","1","3","6","5","5","4","5","2","5","1","6","2","1","6","3","6","2","4","6","3","3","5","3","3","5","3","4","3","7","4","6","5","6","3","7","3","4","2","6","3","6","3","6","672081135265644544","冯","562","Male","[""坏我"",""坏他"",""好我"",""好他""]","[""弱我"",""弱他"",""强我"",""强他""]","","","","","","","","yes","","","","","","","","","SRET","EW_formal","","key","f","16.661607142857196","768","428","自己","仗义","Positive","morality","","","","","","","","","","",""
"627","","j","psychophysics","21","131954","0.0-7.0-3.0-0.7","6","6","7","5","5","4","2","5","3","2","3","2","1","0","1","1","1","2","1","5","5","5","5","5","4","4","4","4","3","3","3","4","4","2","3","2","1","3","6","5","5","4","5","2","5","1","6","2","1","6","3","6","2","4","6","3","3","5","3","3","5","3","4","3","7","4","6","5","6","3","7","3","4","2","6","3","6","3","6","672081135265644544","冯","562","Male","[""坏我"",""坏他"",""好我"",""好他""]","[""弱我"",""弱他"",""强我"",""强他""]","","","","","","","","no","","","","","","","","","SRET","EW_formal","","key","j","16.662886597938325","768","428","朋友","自私","Negative","morality","","","","","","","","","","",""
"698","","j","psychophysics","22","133657","0.0-7.0-3.0-0.8","6","6","7","5","5","4","2","5","3","2","3","2","1","0","1","1","1","2","1","5","5","5","5","5","4","4","4","4","3","3","3","4","4","2","3","2","1","3","6","5","5","4","5","2","5","1","6","2","1","6","3","6","2","4","6","3","3","5","3","3","5","3","4","3","7","4","6","5","6","3","7","3","4","2","6","3","6","3","6","672081135265644544","冯","562","Male","[""坏我"",""坏他"",""好我"",""好他""]","[""弱我"",""弱他"",""强我"",""强他""]","","","","","","","","no","","","","","","","","","SRET","EW_formal","","key","j","16.663366336633665","768","428","朋友","利己","Negative","morality","","","","","","","","","","",""
"557","","j","psychophysics","23","135216","0.0-7.0-3.0-0.9","6","6","7","5","5","4","2","5","3","2","3","2","1","0","1","1","1","2","1","5","5","5","5","5","4","4","4","4","3","3","3","4","4","2","3","2","1","3","6","5","5","4","5","2","5","1","6","2","1","6","3","6","2","4","6","3","3","5","3","3","5","3","4","3","7","4","6","5","6","3","7","3","4","2","6","3","6","3","6","672081135265644544","冯","562","Male","[""坏我"",""坏他"",""好我"",""好他""]","[""弱我"",""弱他"",""强我"",""强他""]","","","","","","","","no","","","","","","","","","SRET","EW_formal","","key","j","16.66344086021518","768","428","朋友","腐败","Negative","morality","","","","","","","","","","",""
"992","","j","psychophysics","24","137212","0.0-7.0-3.0-0.10","6","6","7","5","5","4","2","5","3","2","3","2","1","0","1","1","1","2","1","5","5","5","5","5","4","4","4","4","3","3","3","4","4","2","3","2","1","3","6","5","5","4","5","2","5","1","6","2","1","6","3","6","2","4","6","3","3","5","3","3","5","3","4","3","7","4","6","5","6","3","7","3","4","2","6","3","6","3","6","672081135265644544","冯","562","Male","[""坏我"",""坏他"",""好我"",""好他""]","[""弱我"",""弱他"",""强我"",""强他""]","","","","","","","","no","","","","","","","","","SRET","EW_formal","","key","j","16.66386554621849","768","428","自己","独立","Positive","ability","","","","","","","","","","",""
"853","","f","psychophysics","25","139072","0.0-7.0-3.0-0.11","6","6","7","5","5","4","2","5","3","2","3","2","1","0","1","1","1","2","1","5","5","5","5","5","4","4","4","4","3","3","3","4","4","2","3","2","1","3","6","5","5","4","5","2","5","1","6","2","1","6","3","6","2","4","6","3","3","5","3","3","5","3","4","3","7","4","6","5","6","3","7","3","4","2","6","3","6","3","6","672081135265644544","冯","562","Male","[""坏我"",""坏他"",""好我"",""好他""]","[""弱我"",""弱他"",""强我"",""强他""]","","","","","","","","yes","","","","","","","","","SRET","EW_formal","","key","f","16.66272727272722","768","428","朋友","善心","Positive","morality","","","","","","","","","","",""
"586","","f","psychophysics","26","140658","0.0-7.0-3.0-0.12","6","6","7","5","5","4","2","5","3","2","3","2","1","0","1","1","1","2","1","5","5","5","5","5","4","4","4","4","3","3","3","4","4","2","3","2","1","3","6","5","5","4","5","2","5","1","6","2","1","6","3","6","2","4","6","3","3","5","3","3","5","3","4","3","7","4","6","5","6","3","7","3","4","2","6","3","6","3","6","672081135265644544","冯","562","Male","[""坏我"",""坏他"",""好我"",""好他""]","[""弱我"",""弱他"",""强我"",""强他""]","","","","","","","","yes","","","","","","","","","SRET","EW_formal","","key","f","16.662765957446684","768","428","自己","稳健","Positive","ability","","","","","","","","","","",""
"727","","f","psychophysics","27","142394","0.0-7.0-3.0-0.13","6","6","7","5","5","4","2","5","3","2","3","2","1","0","1","1","1","2","1","5","5","5","5","5","4","4","4","4","3","3","3","4","4","2","3","2","1","3","6","5","5","4","5","2","5","1","6","2","1","6","3","6","2","4","6","3","3","5","3","3","5","3","4","3","7","4","6","5","6","3","7","3","4","2","6","3","6","3","6","672081135265644544","冯","562","Male","[""坏我"",""坏他"",""好我"",""好他""]","[""弱我"",""弱他"",""强我"",""强他""]","","","","","","","","yes","","","","","","","","","SRET","EW_formal","","key","f","16.662499999999945","768","428","自己","马虎","Negative","ability","","","","","","","","","","",""
"1288","","j","psychophysics","28","144689","0.0-7.0-3.0-0.14","6","6","7","5","5","4","2","5","3","2","3","2","1","0","1","1","1","2","1","5","5","5","5","5","4","4","4","4","3","3","3","4","4","2","3","2","1","3","6","5","5","4","5","2","5","1","6","2","1","6","3","6","2","4","6","3","3","5","3","3","5","3","4","3","7","4","6","5","6","3","7","3","4","2","6","3","6","3","6","672081135265644544","冯","562","Male","[""坏我"",""坏他"",""好我"",""好他""]","[""弱我"",""弱他"",""强我"",""强他""]","","","","","","","","no","","","","","","","","","SRET","EW_formal","","key","j","16.662500000000044","768","428","朋友","差生","Negative","ability","","","","","","","","","","",""
"1000","","j","psychophysics","29","146693","0.0-7.0-3.0-0.15","6","6","7","5","5","4","2","5","3","2","3","2","1","0","1","1","1","2","1","5","5","5","5","5","4","4","4","4","3","3","3","4","4","2","3","2","1","3","6","5","5","4","5","2","5","1","6","2","1","6","3","6","2","4","6","3","3","5","3","3","5","3","4","3","7","4","6","5","6","3","7","3","4","2","6","3","6","3","6","672081135265644544","冯","562","Male","[""坏我"",""坏他"",""好我"",""好他""]","[""弱我"",""弱他"",""强我"",""强他""]","","","","","","","","no","","","","","","","","","SRET","EW_formal","","key","j","16.66333333333338","768","428","朋友","草率","Negative","ability","","","","","","","","","","",""
"536","","f","psychophysics","30","148237","0.0-7.0-3.0-0.16","6","6","7","5","5","4","2","5","3","2","3","2","1","0","1","1","1","2","1","5","5","5","5","5","4","4","4","4","3","3","3","4","4","2","3","2","1","3","6","5","5","4","5","2","5","1","6","2","1","6","3","6","2","4","6","3","3","5","3","3","5","3","4","3","7","4","6","5","6","3","7","3","4","2","6","3","6","3","6","672081135265644544","冯","562","Male","[""坏我"",""坏他"",""好我"",""好他""]","[""弱我"",""弱他"",""强我"",""强他""]","","","","","","","","yes","","","","","","","","","SRET","EW_formal","","key","f","16.662637362637554","768","428","自己","能干","Positive","ability","","","","","","","","","","",""
"1597","","f","psychophysics","31","150836","0.0-7.0-3.0-0.17","6","6","7","5","5","4","2","5","3","2","3","2","1","0","1","1","1","2","1","5","5","5","5","5","4","4","4","4","3","3","3","4","4","2","3","2","1","3","6","5","5","4","5","2","5","1","6","2","1","6","3","6","2","4","6","3","3","5","3","3","5","3","4","3","7","4","6","5","6","3","7","3","4","2","6","3","6","3","6","672081135265644544","冯","562","Male","[""坏我"",""坏他"",""好我"",""好他""]","[""弱我"",""弱他"",""强我"",""强他""]","","","","","","","","yes","","","","","","","","","SRET","EW_formal","","key","f","16.627741935483982","768","428","朋友","变通","Positive","ability","","","","","","","","","","",""
"764","","j","psychophysics","32","152603","0.0-7.0-3.0-0.18","6","6","7","5","5","4","2","5","3","2","3","2","1","0","1","1","1","2","1","5","5","5","5","5","4","4","4","4","3","3","3","4","4","2","3","2","1","3","6","5","5","4","5","2","5","1","6","2","1","6","3","6","2","4","6","3","3","5","3","3","5","3","4","3","7","4","6","5","6","3","7","3","4","2","6","3","6","3","6","672081135265644544","冯","562","Male","[""坏我"",""坏他"",""好我"",""好他""]","[""弱我"",""弱他"",""强我"",""强他""]","","","","","","","","no","","","","","","","","","SRET","EW_formal","","key","j","16.66476190476207","768","428","朋友","不良","Negative","morality","","","","","","","","","","",""
"658","","j","psychophysics","33","154265","0.0-7.0-3.0-0.19","6","6","7","5","5","4","2","5","3","2","3","2","1","0","1","1","1","2","1","5","5","5","5","5","4","4","4","4","3","3","3","4","4","2","3","2","1","3","6","5","5","4","5","2","5","1","6","2","1","6","3","6","2","4","6","3","3","5","3","3","5","3","4","3","7","4","6","5","6","3","7","3","4","2","6","3","6","3","6","672081135265644544","冯","562","Male","[""坏我"",""坏他"",""好我"",""好他""]","[""弱我"",""弱他"",""强我"",""强他""]","","","","","","","","no","","","","","","","","","SRET","EW_formal","","key","j","16.664646464646346","768","428","自己","黑心","Negative","morality","","","","","","","","","","",""
"912","","j","psychophysics","34","156183","0.0-7.0-3.0-0.20","6","6","7","5","5","4","2","5","3","2","3","2","1","0","1","1","1","2","1","5","5","5","5","5","4","4","4","4","3","3","3","4","4","2","3","2","1","3","6","5","5","4","5","2","5","1","6","2","1","6","3","6","2","4","6","3","3","5","3","3","5","3","4","3","7","4","6","5","6","3","7","3","4","2","6","3","6","3","6","672081135265644544","冯","562","Male","[""坏我"",""坏他"",""好我"",""好他""]","[""弱我"",""弱他"",""强我"",""强他""]","","","","","","","","no","","","","","","","","","SRET","EW_formal","","key","j","16.663157894736894","768","428","自己","无耻","Negative","morality","","","","","","","","","","",""
"710","","j","psychophysics","35","157894","0.0-7.0-3.0-0.21","6","6","7","5","5","4","2","5","3","2","3","2","1","0","1","1","1","2","1","5","5","5","5","5","4","4","4","4","3","3","3","4","4","2","3","2","1","3","6","5","5","4","5","2","5","1","6","2","1","6","3","6","2","4","6","3","3","5","3","3","5","3","4","3","7","4","6","5","6","3","7","3","4","2","6","3","6","3","6","672081135265644544","冯","562","Male","[""坏我"",""坏他"",""好我"",""好他""]","[""弱我"",""弱他"",""强我"",""强他""]","","","","","","","","no","","","","","","","","","SRET","EW_formal","","key","j","16.662745098039274","768","428","自己","恶劣","Negative","morality","","","","","","","","","","",""
"721","","f","psychophysics","36","159619","0.0-7.0-3.0-0.22","6","6","7","5","5","4","2","5","3","2","3","2","1","0","1","1","1","2","1","5","5","5","5","5","4","4","4","4","3","3","3","4","4","2","3","2","1","3","6","5","5","4","5","2","5","1","6","2","1","6","3","6","2","4","6","3","3","5","3","3","5","3","4","3","7","4","6","5","6","3","7","3","4","2","6","3","6","3","6","672081135265644544","冯","562","Male","[""坏我"",""坏他"",""好我"",""好他""]","[""弱我"",""弱他"",""强我"",""强他""]","","","","","","","","yes","","","","","","","","","SRET","EW_formal","","key","f","16.662745098038986","768","428","自己","顶事","Positive","ability","","","","","","","","","","",""
"553","","f","psychophysics","37","161173","0.0-7.0-3.0-0.23","6","6","7","5","5","4","2","5","3","2","3","2","1","0","1","1","1","2","1","5","5","5","5","5","4","4","4","4","3","3","3","4","4","2","3","2","1","3","6","5","5","4","5","2","5","1","6","2","1","6","3","6","2","4","6","3","3","5","3","3","5","3","4","3","7","4","6","5","6","3","7","3","4","2","6","3","6","3","6","672081135265644544","冯","562","Male","[""坏我"",""坏他"",""好我"",""好他""]","[""弱我"",""弱他"",""强我"",""强他""]","","","","","","","","yes","","","","","","","","","SRET","EW_formal","","key","f","16.664516129032446","768","428","自己","爱国","Positive","morality","","","","","","","","","","",""
"508","","j","psychophysics","38","162688","0.0-7.0-3.0-0.24","6","6","7","5","5","4","2","5","3","2","3","2","1","0","1","1","1","2","1","5","5","5","5","5","4","4","4","4","3","3","3","4","4","2","3","2","1","3","6","5","5","4","5","2","5","1","6","2","1","6","3","6","2","4","6","3","3","5","3","3","5","3","4","3","7","4","6","5","6","3","7","3","4","2","6","3","6","3","6","672081135265644544","冯","562","Male","[""坏我"",""坏他"",""好我"",""好他""]","[""弱我"",""弱他"",""强我"",""强他""]","","","","","","","","no","","","","","","","","","SRET","EW_formal","","key","j","16.663333333333462","768","428","自己","废物","Negative","ability","","","","","","","","","","",""
"832","","f","psychophysics","39","164527","0.0-7.0-3.0-0.25","6","6","7","5","5","4","2","5","3","2","3","2","1","0","1","1","1","2","1","5","5","5","5","5","4","4","4","4","3","3","3","4","4","2","3","2","1","3","6","5","5","4","5","2","5","1","6","2","1","6","3","6","2","4","6","3","3","5","3","3","5","3","4","3","7","4","6","5","6","3","7","3","4","2","6","3","6","3","6","672081135265644544","冯","562","Male","[""坏我"",""坏他"",""好我"",""好他""]","[""弱我"",""弱他"",""强我"",""强他""]","","","","","","","","yes","","","","","","","","","SRET","EW_formal","","key","f","16.662385321100757","768","428","自己","勤恳","Positive","morality","","","","","","","","","","",""
"969","","f","psychophysics","40","166498","0.0-7.0-3.0-0.26","6","6","7","5","5","4","2","5","3","2","3","2","1","0","1","1","1","2","1","5","5","5","5","5","4","4","4","4","3","3","3","4","4","2","3","2","1","3","6","5","5","4","5","2","5","1","6","2","1","6","3","6","2","4","6","3","3","5","3","3","5","3","4","3","7","4","6","5","6","3","7","3","4","2","6","3","6","3","6","672081135265644544","冯","562","Male","[""坏我"",""坏他"",""好我"",""好他""]","[""弱我"",""弱他"",""强我"",""强他""]","","","","","","","","yes","","","","","","","","","SRET","EW_formal","","key","f","16.663247863247665","768","428","自己","独断","Negative","ability","","","","","","","","","","",""
"582","","j","psychophysics","41","168084","0.0-7.0-3.0-0.27","6","6","7","5","5","4","2","5","3","2","3","2","1","0","1","1","1","2","1","5","5","5","5","5","4","4","4","4","3","3","3","4","4","2","3","2","1","3","6","5","5","4","5","2","5","1","6","2","1","6","3","6","2","4","6","3","3","5","3","3","5","3","4","3","7","4","6","5","6","3","7","3","4","2","6","3","6","3","6","672081135265644544","冯","562","Male","[""坏我"",""坏他"",""好我"",""好他""]","[""弱我"",""弱他"",""强我"",""强他""]","","","","","","","","no","","","","","","","","","SRET","EW_formal","","key","j","16.662765957446684","768","428","朋友","歹毒","Negative","morality","","","","","","","","","","",""
"841","","j","psychophysics","42","169927","0.0-7.0-3.0-0.28","6","6","7","5","5","4","2","5","3","2","3","2","1","0","1","1","1","2","1","5","5","5","5","5","4","4","4","4","3","3","3","4","4","2","3","2","1","3","6","5","5","4","5","2","5","1","6","2","1","6","3","6","2","4","6","3","3","5","3","3","5","3","4","3","7","4","6","5","6","3","7","3","4","2","6","3","6","3","6","672081135265644544","冯","562","Male","[""坏我"",""坏他"",""好我"",""好他""]","[""弱我"",""弱他"",""强我"",""强他""]","","","","","","","","no","","","","","","","","","SRET","EW_formal","","key","j","16.66272727272722","768","428","朋友","廉正","Positive","morality","","","","","","","","","","",""
"736","","j","psychophysics","43","171670","0.0-7.0-3.0-0.29","6","6","7","5","5","4","2","5","3","2","3","2","1","0","1","1","1","2","1","5","5","5","5","5","4","4","4","4","3","3","3","4","4","2","3","2","1","3","6","5","5","4","5","2","5","1","6","2","1","6","3","6","2","4","6","3","3","5","3","3","5","3","4","3","7","4","6","5","6","3","7","3","4","2","6","3","6","3","6","672081135265644544","冯","562","Male","[""坏我"",""坏他"",""好我"",""好他""]","[""弱我"",""弱他"",""强我"",""强他""]","","","","","","","","no","","","","","","","","","SRET","EW_formal","","key","j","16.66346153846154","768","428","自己","淫乱","Negative","morality","","","","","","","","","","",""
"797","","j","psychophysics","44","173474","0.0-7.0-3.0-0.30","6","6","7","5","5","4","2","5","3","2","3","2","1","0","1","1","1","2","1","5","5","5","5","5","4","4","4","4","3","3","3","4","4","2","3","2","1","3","6","5","5","4","5","2","5","1","6","2","1","6","3","6","2","4","6","3","3","5","3","3","5","3","4","3","7","4","6","5","6","3","7","3","4","2","6","3","6","3","6","672081135265644544","冯","562","Male","[""坏我"",""坏他"",""好我"",""好他""]","[""弱我"",""弱他"",""强我"",""强他""]","","","","","","","","no","","","","","","","","","SRET","EW_formal","","key","j","16.66355140186916","768","428","自己","屈才","Negative","ability","","","","","","","","","","",""
"509","","f","psychophysics","45","174991","0.0-7.0-3.0-0.31","6","6","7","5","5","4","2","5","3","2","3","2","1","0","1","1","1","2","1","5","5","5","5","5","4","4","4","4","3","3","3","4","4","2","3","2","1","3","6","5","5","4","5","2","5","1","6","2","1","6","3","6","2","4","6","3","3","5","3","3","5","3","4","3","7","4","6","5","6","3","7","3","4","2","6","3","6","3","6","672081135265644544","冯","562","Male","[""坏我"",""坏他"",""好我"",""好他""]","[""弱我"",""弱他"",""强我"",""强他""]","","","","","","","","yes","","","","","","","","","SRET","EW_formal","","key","f","16.663333333333462","768","428","自己","思辨","Positive","ability","","","","","","","","","","",""
"725","","f","psychophysics","46","176721","0.0-7.0-3.0-0.32","6","6","7","5","5","4","2","5","3","2","3","2","1","0","1","1","1","2","1","5","5","5","5","5","4","4","4","4","3","3","3","4","4","2","3","2","1","3","6","5","5","4","5","2","5","1","6","2","1","6","3","6","2","4","6","3","3","5","3","3","5","3","4","3","7","4","6","5","6","3","7","3","4","2","6","3","6","3","6","672081135265644544","冯","562","Male","[""坏我"",""坏他"",""好我"",""好他""]","[""弱我"",""弱他"",""强我"",""强他""]","","","","","","","","yes","","","","","","","","","SRET","EW_formal","","key","f","16.663106796116676","768","428","朋友","守时","Positive","morality","","","","","","","","","","",""
"575","","f","psychophysics","47","178301","0.0-7.0-3.0-0.33","6","6","7","5","5","4","2","5","3","2","3","2","1","0","1","1","1","2","1","5","5","5","5","5","4","4","4","4","3","3","3","4","4","2","3","2","1","3","6","5","5","4","5","2","5","1","6","2","1","6","3","6","2","4","6","3","3","5","3","3","5","3","4","3","7","4","6","5","6","3","7","3","4","2","6","3","6","3","6","672081135265644544","冯","562","Male","[""坏我"",""坏他"",""好我"",""好他""]","[""弱我"",""弱他"",""强我"",""强他""]","","","","","","","","yes","","","","","","","","","SRET","EW_formal","","key","f","16.663440860214866","768","428","自己","君子","Positive","morality","","","","","","","","","","",""
"476","","f","psychophysics","48","179784","0.0-7.0-3.0-0.34","6","6","7","5","5","4","2","5","3","2","3","2","1","0","1","1","1","2","1","5","5","5","5","5","4","4","4","4","3","3","3","4","4","2","3","2","1","3","6","5","5","4","5","2","5","1","6","2","1","6","3","6","2","4","6","3","3","5","3","3","5","3","4","3","7","4","6","5","6","3","7","3","4","2","6","3","6","3","6","672081135265644544","冯","562","Male","[""坏我"",""坏他"",""好我"",""好他""]","[""弱我"",""弱他"",""强我"",""强他""]","","","","","","","","yes","","","","","","","","","SRET","EW_formal","","key","f","16.665168539325645","768","428","朋友","仁爱","Positive","morality","","","","","","","","","","",""
"575","","j","psychophysics","49","181368","0.0-7.0-3.0-0.35","6","6","7","5","5","4","2","5","3","2","3","2","1","0","1","1","1","2","1","5","5","5","5","5","4","4","4","4","3","3","3","4","4","2","3","2","1","3","6","5","5","4","5","2","5","1","6","2","1","6","3","6","2","4","6","3","3","5","3","3","5","3","4","3","7","4","6","5","6","3","7","3","4","2","6","3","6","3","6","672081135265644544","冯","562","Male","[""坏我"",""坏他"",""好我"",""好他""]","[""弱我"",""弱他"",""强我"",""强他""]","","","","","","","","no","","","","","","","","","SRET","EW_formal","","key","j","16.664893617021278","768","428","朋友","阴毒","Negative","morality","","","","","","","","","","",""
"1223","","j","psychophysics","50","183626","0.0-7.0-3.0-0.36","6","6","7","5","5","4","2","5","3","2","3","2","1","0","1","1","1","2","1","5","5","5","5","5","4","4","4","4","3","3","3","4","4","2","3","2","1","3","6","5","5","4","5","2","5","1","6","2","1","6","3","6","2","4","6","3","3","5","3","3","5","3","4","3","7","4","6","5","6","3","7","3","4","2","6","3","6","3","6","672081135265644544","冯","562","Male","[""坏我"",""坏他"",""好我"",""好他""]","[""弱我"",""弱他"",""强我"",""强他""]","","","","","","","","no","","","","","","","","","SRET","EW_formal","","key","j","16.66343283582107","768","428","自己","弱智","Negative","ability","","","","","","","","","","",""
"652","","j","psychophysics","51","185281","0.0-7.0-3.0-0.37","6","6","7","5","5","4","2","5","3","2","3","2","1","0","1","1","1","2","1","5","5","5","5","5","4","4","4","4","3","3","3","4","4","2","3","2","1","3","6","5","5","4","5","2","5","1","6","2","1","6","3","6","2","4","6","3","3","5","3","3","5","3","4","3","7","4","6","5","6","3","7","3","4","2","6","3","6","3","6","672081135265644544","冯","562","Male","[""坏我"",""坏他"",""好我"",""好他""]","[""弱我"",""弱他"",""强我"",""强他""]","","","","","","","","no","","","","","","","","","SRET","EW_formal","","key","j","16.664285714285775","768","428","朋友","缺德","Negative","morality","","","","","","","","","","",""
"773","","f","psychophysics","52","187060","0.0-7.0-3.0-0.38","6","6","7","5","5","4","2","5","3","2","3","2","1","0","1","1","1","2","1","5","5","5","5","5","4","4","4","4","3","3","3","4","4","2","3","2","1","3","6","5","5","4","5","2","5","1","6","2","1","6","3","6","2","4","6","3","3","5","3","3","5","3","4","3","7","4","6","5","6","3","7","3","4","2","6","3","6","3","6","672081135265644544","冯","562","Male","[""坏我"",""坏他"",""好我"",""好他""]","[""弱我"",""弱他"",""强我"",""强他""]","","","","","","","","yes","","","","","","","","","SRET","EW_formal","","key","f","16.664150943396173","768","428","自己","高效","Positive","ability","","","","","","","","","","",""
"542","","j","psychophysics","53","188605","0.0-7.0-3.0-0.39","6","6","7","5","5","4","2","5","3","2","3","2","1","0","1","1","1","2","1","5","5","5","5","5","4","4","4","4","3","3","3","4","4","2","3","2","1","3","6","5","5","4","5","2","5","1","6","2","1","6","3","6","2","4","6","3","3","5","3","3","5","3","4","3","7","4","6","5","6","3","7","3","4","2","6","3","6","3","6","672081135265644544","冯","562","Male","[""坏我"",""坏他"",""好我"",""好他""]","[""弱我"",""弱他"",""强我"",""强他""]","","","","","","","","no","","","","","","","","","SRET","EW_formal","","key","j","16.66304347826087","768","428","朋友","背叛","Negative","morality","","","","","","","","","","",""
"541","","j","psychophysics","54","190153","0.0-7.0-3.0-0.40","6","6","7","5","5","4","2","5","3","2","3","2","1","0","1","1","1","2","1","5","5","5","5","5","4","4","4","4","3","3","3","4","4","2","3","2","1","3","6","5","5","4","5","2","5","1","6","2","1","6","3","6","2","4","6","3","3","5","3","3","5","3","4","3","7","4","6","5","6","3","7","3","4","2","6","3","6","3","6","672081135265644544","冯","562","Male","[""坏我"",""坏他"",""好我"",""好他""]","[""弱我"",""弱他"",""强我"",""强他""]","","","","","","","","no","","","","","","","","","SRET","EW_formal","","key","j","16.66304347826087","768","428","自己","骁勇","Positive","ability","","","","","","","","","","",""
"726","","j","psychophysics","55","191887","0.0-7.0-3.0-0.41","6","6","7","5","5","4","2","5","3","2","3","2","1","0","1","1","1","2","1","5","5","5","5","5","4","4","4","4","3","3","3","4","4","2","3","2","1","3","6","5","5","4","5","2","5","1","6","2","1","6","3","6","2","4","6","3","3","5","3","3","5","3","4","3","7","4","6","5","6","3","7","3","4","2","6","3","6","3","6","672081135265644544","冯","562","Male","[""坏我"",""坏他"",""好我"",""好他""]","[""弱我"",""弱他"",""强我"",""强他""]","","","","","","","","no","","","","","","","","","SRET","EW_formal","","key","j","16.663106796116676","768","428","自己","不孝","Negative","morality","","","","","","","","","","",""
"617","","f","psychophysics","56","193509","0.0-7.0-3.0-0.42","6","6","7","5","5","4","2","5","3","2","3","2","1","0","1","1","1","2","1","5","5","5","5","5","4","4","4","4","3","3","3","4","4","2","3","2","1","3","6","5","5","4","5","2","5","1","6","2","1","6","3","6","2","4","6","3","3","5","3","3","5","3","4","3","7","4","6","5","6","3","7","3","4","2","6","3","6","3","6","672081135265644544","冯","562","Male","[""坏我"",""坏他"",""好我"",""好他""]","[""弱我"",""弱他"",""强我"",""强他""]","","","","","","","","yes","","","","","","","","","SRET","EW_formal","","key","f","16.666666666666668","768","428","自己","热心","Positive","morality","","","","","","","","","","",""
"544","","j","psychophysics","57","195069","0.0-7.0-3.0-0.43","6","6","7","5","5","4","2","5","3","2","3","2","1","0","1","1","1","2","1","5","5","5","5","5","4","4","4","4","3","3","3","4","4","2","3","2","1","3","6","5","5","4","5","2","5","1","6","2","1","6","3","6","2","4","6","3","3","5","3","3","5","3","4","3","7","4","6","5","6","3","7","3","4","2","6","3","6","3","6","672081135265644544","冯","562","Male","[""坏我"",""坏他"",""好我"",""好他""]","[""弱我"",""弱他"",""强我"",""强他""]","","","","","","","","no","","","","","","","","","SRET","EW_formal","","key","j","16.663440860214866","768","428","自己","无赖","Negative","morality","","","","","","","","","","",""
"557","","f","psychophysics","58","196634","0.0-7.0-3.0-0.44","6","6","7","5","5","4","2","5","3","2","3","2","1","0","1","1","1","2","1","5","5","5","5","5","4","4","4","4","3","3","3","4","4","2","3","2","1","3","6","5","5","4","5","2","5","1","6","2","1","6","3","6","2","4","6","3","3","5","3","3","5","3","4","3","7","4","6","5","6","3","7","3","4","2","6","3","6","3","6","672081135265644544","冯","562","Male","[""坏我"",""坏他"",""好我"",""好他""]","[""弱我"",""弱他"",""强我"",""强他""]","","","","","","","","yes","","","","","","","","","SRET","EW_formal","","key","f","16.663440860214866","768","428","自己","孝顺","Positive","morality","","","","","","","","","","",""
"773","","f","psychophysics","59","198415","0.0-7.0-3.0-0.45","6","6","7","5","5","4","2","5","3","2","3","2","1","0","1","1","1","2","1","5","5","5","5","5","4","4","4","4","3","3","3","4","4","2","3","2","1","3","6","5","5","4","5","2","5","1","6","2","1","6","3","6","2","4","6","3","3","5","3","3","5","3","4","3","7","4","6","5","6","3","7","3","4","2","6","3","6","3","6","672081135265644544","冯","562","Male","[""坏我"",""坏他"",""好我"",""好他""]","[""弱我"",""弱他"",""强我"",""强他""]","","","","","","","","yes","","","","","","","","","SRET","EW_formal","","key","f","16.662264150943507","768","428","朋友","淡泊","Positive","morality","","","","","","","","","","",""
"844","","j","psychophysics","60","200268","0.0-7.0-3.0-0.46","6","6","7","5","5","4","2","5","3","2","3","2","1","0","1","1","1","2","1","5","5","5","5","5","4","4","4","4","3","3","3","4","4","2","3","2","1","3","6","5","5","4","5","2","5","1","6","2","1","6","3","6","2","4","6","3","3","5","3","3","5","3","4","3","7","4","6","5","6","3","7","3","4","2","6","3","6","3","6","672081135265644544","冯","562","Male","[""坏我"",""坏他"",""好我"",""好他""]","[""弱我"",""弱他"",""强我"",""强他""]","","","","","","","","no","","","","","","","","","SRET","EW_formal","","key","j","16.667272727272675","768","428","自己","蛇蝎","Negative","morality","","","","","","","","","","",""
"686","","j","psychophysics","61","201958","0.0-7.0-3.0-0.47","6","6","7","5","5","4","2","5","3","2","3","2","1","0","1","1","1","2","1","5","5","5","5","5","4","4","4","4","3","3","3","4","4","2","3","2","1","3","6","5","5","4","5","2","5","1","6","2","1","6","3","6","2","4","6","3","3","5","3","3","5","3","4","3","7","4","6","5","6","3","7","3","4","2","6","3","6","3","6","672081135265644544","冯","562","Male","[""坏我"",""坏他"",""好我"",""好他""]","[""弱我"",""弱他"",""强我"",""强他""]","","","","","","","","no","","","","","","","","","SRET","EW_formal","","key","j","16.662999999999883","768","428","朋友","浅薄","Negative","ability","","","","","","","","","","",""
"1221","","f","psychophysics","62","204183","0.0-7.0-3.0-0.48","6","6","7","5","5","4","2","5","3","2","3","2","1","0","1","1","1","2","1","5","5","5","5","5","4","4","4","4","3","3","3","4","4","2","3","2","1","3","6","5","5","4","5","2","5","1","6","2","1","6","3","6","2","4","6","3","3","5","3","3","5","3","4","3","7","4","6","5","6","3","7","3","4","2","6","3","6","3","6","672081135265644544","冯","562","Male","[""坏我"",""坏他"",""好我"",""好他""]","[""弱我"",""弱他"",""强我"",""强他""]","","","","","","","","yes","","","","","","","","","SRET","EW_formal","","key","f","16.66315789473671","768","428","自己","无为","Negative","ability","","","","","","","","","","",""
"684","","f","psychophysics","63","205873","0.0-7.0-3.0-0.49","6","6","7","5","5","4","2","5","3","2","3","2","1","0","1","1","1","2","1","5","5","5","5","5","4","4","4","4","3","3","3","4","4","2","3","2","1","3","6","5","5","4","5","2","5","1","6","2","1","6","3","6","2","4","6","3","3","5","3","3","5","3","4","3","7","4","6","5","6","3","7","3","4","2","6","3","6","3","6","672081135265644544","冯","562","Male","[""坏我"",""坏他"",""好我"",""好他""]","[""弱我"",""弱他"",""强我"",""强他""]","","","","","","","","yes","","","","","","","","","SRET","EW_formal","","key","f","16.662999999999883","768","428","自己","刻苦","Positive","ability","","","","","","","","","","",""
"899","","j","psychophysics","64","207773","0.0-7.0-3.0-0.50","6","6","7","5","5","4","2","5","3","2","3","2","1","0","1","1","1","2","1","5","5","5","5","5","4","4","4","4","3","3","3","4","4","2","3","2","1","3","6","5","5","4","5","2","5","1","6","2","1","6","3","6","2","4","6","3","3","5","3","3","5","3","4","3","7","4","6","5","6","3","7","3","4","2","6","3","6","3","6","672081135265644544","冯","562","Male","[""坏我"",""坏他"",""好我"",""好他""]","[""弱我"",""弱他"",""强我"",""强他""]","","","","","","","","no","","","","","","","","","SRET","EW_formal","","key","j","16.662831858407028","768","428","朋友","有力","Positive","ability","","","","","","","","","","",""
"927","","j","psychophysics","65","209704","0.0-7.0-3.0-0.51","6","6","7","5","5","4","2","5","3","2","3","2","1","0","1","1","1","2","1","5","5","5","5","5","4","4","4","4","3","3","3","4","4","2","3","2","1","3","6","5","5","4","5","2","5","1","6","2","1","6","3","6","2","4","6","3","3","5","3","3","5","3","4","3","7","4","6","5","6","3","7","3","4","2","6","3","6","3","6","672081135265644544","冯","562","Male","[""坏我"",""坏他"",""好我"",""好他""]","[""弱我"",""弱他"",""强我"",""强他""]","","","","","","","","no","","","","","","","","","SRET","EW_formal","","key","j","16.662608695652022","768","428","朋友","才尽","Negative","ability","","","","","","","","","","",""
"572","","f","psychophysics","66","211281","0.0-7.0-3.0-0.52","6","6","7","5","5","4","2","5","3","2","3","2","1","0","1","1","1","2","1","5","5","5","5","5","4","4","4","4","3","3","3","4","4","2","3","2","1","3","6","5","5","4","5","2","5","1","6","2","1","6","3","6","2","4","6","3","3","5","3","3","5","3","4","3","7","4","6","5","6","3","7","3","4","2","6","3","6","3","6","672081135265644544","冯","562","Male","[""坏我"",""坏他"",""好我"",""好他""]","[""弱我"",""弱他"",""强我"",""强他""]","","","","","","","","yes","","","","","","","","","SRET","EW_formal","","key","f","16.680851063829788","768","428","朋友","博学","Positive","ability","","","","","","","","","","",""
"692","","j","psychophysics","67","212976","0.0-7.0-3.0-0.53","6","6","7","5","5","4","2","5","3","2","3","2","1","0","1","1","1","2","1","5","5","5","5","5","4","4","4","4","3","3","3","4","4","2","3","2","1","3","6","5","5","4","5","2","5","1","6","2","1","6","3","6","2","4","6","3","3","5","3","3","5","3","4","3","7","4","6","5","6","3","7","3","4","2","6","3","6","3","6","672081135265644544","冯","562","Male","[""坏我"",""坏他"",""好我"",""好他""]","[""弱我"",""弱他"",""强我"",""强他""]","","","","","","","","no","","","","","","","","","SRET","EW_formal","","key","j","16.661999999999825","768","428","朋友","盲目","Negative","ability","","","","","","","","","","",""
"872","","f","psychophysics","68","214853","0.0-7.0-3.0-0.54","6","6","7","5","5","4","2","5","3","2","3","2","1","0","1","1","1","2","1","5","5","5","5","5","4","4","4","4","3","3","3","4","4","2","3","2","1","3","6","5","5","4","5","2","5","1","6","2","1","6","3","6","2","4","6","3","3","5","3","3","5","3","4","3","7","4","6","5","6","3","7","3","4","2","6","3","6","3","6","672081135265644544","冯","562","Male","[""坏我"",""坏他"",""好我"",""好他""]","[""弱我"",""弱他"",""强我"",""强他""]","","","","","","","","yes","","","","","","","","","SRET","EW_formal","","key","f","16.663392857142753","768","428","朋友","高明","Positive","ability","","","","","","","","","","",""
"627","","j","psychophysics","69","216486","0.0-7.0-3.0-0.55","6","6","7","5","5","4","2","5","3","2","3","2","1","0","1","1","1","2","1","5","5","5","5","5","4","4","4","4","3","3","3","4","4","2","3","2","1","3","6","5","5","4","5","2","5","1","6","2","1","6","3","6","2","4","6","3","3","5","3","3","5","3","4","3","7","4","6","5","6","3","7","3","4","2","6","3","6","3","6","672081135265644544","冯","562","Male","[""坏我"",""坏他"",""好我"",""好他""]","[""弱我"",""弱他"",""强我"",""强他""]","","","","","","","","no","","","","","","","","","SRET","EW_formal","","key","j","16.662886597938023","768","428","自己","业余","Negative","ability","","","","","","","","","","",""
"530","","j","psychophysics","70","218022","0.0-7.0-3.0-0.56","6","6","7","5","5","4","2","5","3","2","3","2","1","0","1","1","1","2","1","5","5","5","5","5","4","4","4","4","3","3","3","4","4","2","3","2","1","3","6","5","5","4","5","2","5","1","6","2","1","6","3","6","2","4","6","3","3","5","3","3","5","3","4","3","7","4","6","5","6","3","7","3","4","2","6","3","6","3","6","672081135265644544","冯","562","Male","[""坏我"",""坏他"",""好我"",""好他""]","[""弱我"",""弱他"",""强我"",""强他""]","","","","","","","","no","","","","","","","","","SRET","EW_formal","","key","j","16.662637362637234","768","428","朋友","愚钝","Negative","ability","","","","","","","","","","",""
"461","","f","psychophysics","71","219485","0.0-7.0-3.0-0.57","6","6","7","5","5","4","2","5","3","2","3","2","1","0","1","1","1","2","1","5","5","5","5","5","4","4","4","4","3","3","3","4","4","2","3","2","1","3","6","5","5","4","5","2","5","1","6","2","1","6","3","6","2","4","6","3","3","5","3","3","5","3","4","3","7","4","6","5","6","3","7","3","4","2","6","3","6","3","6","672081135265644544","冯","562","Male","[""坏我"",""坏他"",""好我"",""好他""]","[""弱我"",""弱他"",""强我"",""强他""]","","","","","","","","yes","","","","","","","","","SRET","EW_formal","","key","f","16.662068965517307","768","428","自己","忠良","Positive","morality","","","","","","","","","","",""
"402","","j","psychophysics","72","220893","0.0-7.0-3.0-0.58","6","6","7","5","5","4","2","5","3","2","3","2","1","0","1","1","1","2","1","5","5","5","5","5","4","4","4","4","3","3","3","4","4","2","3","2","1","3","6","5","5","4","5","2","5","1","6","2","1","6","3","6","2","4","6","3","3","5","3","3","5","3","4","3","7","4","6","5","6","3","7","3","4","2","6","3","6","3","6","672081135265644544","冯","562","Male","[""坏我"",""坏他"",""好我"",""好他""]","[""弱我"",""弱他"",""强我"",""强他""]","","","","","","","","no","","","","","","","","","SRET","EW_formal","","key","j","16.66385542168682","768","428","朋友","沉着","Positive","ability","","","","","","","","","","",""
"883","","j","psychophysics","73","222794","0.0-7.0-3.0-0.59","6","6","7","5","5","4","2","5","3","2","3","2","1","0","1","1","1","2","1","5","5","5","5","5","4","4","4","4","3","3","3","4","4","2","3","2","1","3","6","5","5","4","5","2","5","1","6","2","1","6","3","6","2","4","6","3","3","5","3","3","5","3","4","3","7","4","6","5","6","3","7","3","4","2","6","3","6","3","6","672081135265644544","冯","562","Male","[""坏我"",""坏他"",""好我"",""好他""]","[""弱我"",""弱他"",""强我"",""强他""]","","","","","","","","no","","","","","","","","","SRET","EW_formal","","key","j","16.664912280701653","768","428","朋友","果断","Positive","ability","","","","","","","","","","",""
"1125","","f","psychophysics","74","224928","0.0-7.0-3.0-0.60","6","6","7","5","5","4","2","5","3","2","3","2","1","0","1","1","1","2","1","5","5","5","5","5","4","4","4","4","3","3","3","4","4","2","3","2","1","3","6","5","5","4","5","2","5","1","6","2","1","6","3","6","2","4","6","3","3","5","3","3","5","3","4","3","7","4","6","5","6","3","7","3","4","2","6","3","6","3","6","672081135265644544","冯","562","Male","[""坏我"",""坏他"",""好我"",""好他""]","[""弱我"",""弱他"",""强我"",""强他""]","","","","","","","","yes","","","","","","","","","SRET","EW_formal","","key","f","16.663779527559193","768","428","朋友","敬业","Positive","morality","","","","","","","","","","",""
"null","","null","psychophysics","75","227942","0.0-7.0-3.0-0.61","6","6","7","5","5","4","2","5","3","2","3","2","1","0","1","1","1","2","1","5","5","5","5","5","4","4","4","4","3","3","3","4","4","2","3","2","1","3","6","5","5","4","5","2","5","1","6","2","1","6","3","6","2","4","6","3","3","5","3","3","5","3","4","3","7","4","6","5","6","3","7","3","4","2","6","3","6","3","6","672081135265644544","冯","562","Male","[""坏我"",""坏他"",""好我"",""好他""]","[""弱我"",""弱他"",""强我"",""强他""]","","","","","","","","","","","","","","","","","SRET","EW_formal","","key","null","16.663333333333462","768","428","自己","偏私","Negative","morality","","","","","","","","","","",""
"708","","j","psychophysics","76","229675","0.0-7.0-3.0-0.62","6","6","7","5","5","4","2","5","3","2","3","2","1","0","1","1","1","2","1","5","5","5","5","5","4","4","4","4","3","3","3","4","4","2","3","2","1","3","6","5","5","4","5","2","5","1","6","2","1","6","3","6","2","4","6","3","3","5","3","3","5","3","4","3","7","4","6","5","6","3","7","3","4","2","6","3","6","3","6","672081135265644544","冯","562","Male","[""坏我"",""坏他"",""好我"",""好他""]","[""弱我"",""弱他"",""强我"",""强他""]","","","","","","","","no","","","","","","","","","SRET","EW_formal","","key","j","16.663725490196192","768","428","朋友","贪腐","Negative","morality","","","","","","","","","","",""
"593","","f","psychophysics","77","231276","0.0-7.0-3.0-0.63","6","6","7","5","5","4","2","5","3","2","3","2","1","0","1","1","1","2","1","5","5","5","5","5","4","4","4","4","3","3","3","4","4","2","3","2","1","3","6","5","5","4","5","2","5","1","6","2","1","6","3","6","2","4","6","3","3","5","3","3","5","3","4","3","7","4","6","5","6","3","7","3","4","2","6","3","6","3","6","672081135265644544","冯","562","Male","[""坏我"",""坏他"",""好我"",""好他""]","[""弱我"",""弱他"",""强我"",""强他""]","","","","","","","","yes","","","","","","","","","SRET","EW_formal","","key","f","16.661458333333332","768","428","朋友","义气","Positive","morality","","","","","","","","","","",""
"514","","f","psychophysics","78","232798","0.0-7.0-3.0-0.64","6","6","7","5","5","4","2","5","3","2","3","2","1","0","1","1","1","2","1","5","5","5","5","5","4","4","4","4","3","3","3","4","4","2","3","2","1","3","6","5","5","4","5","2","5","1","6","2","1","6","3","6","2","4","6","3","3","5","3","3","5","3","4","3","7","4","6","5","6","3","7","3","4","2","6","3","6","3","6","672081135265644544","冯","562","Male","[""坏我"",""坏他"",""好我"",""好他""]","[""弱我"",""弱他"",""强我"",""强他""]","","","","","","","","yes","","","","","","","","","SRET","EW_formal","","key","f","16.66333333333314","768","428","自己","守法","Positive","morality","","","","","","","","","","",""
"473","","f","psychophysics","79","234275","0.0-7.0-3.0-0.65","6","6","7","5","5","4","2","5","3","2","3","2","1","0","1","1","1","2","1","5","5","5","5","5","4","4","4","4","3","3","3","4","4","2","3","2","1","3","6","5","5","4","5","2","5","1","6","2","1","6","3","6","2","4","6","3","3","5","3","3","5","3","4","3","7","4","6","5","6","3","7","3","4","2","6","3","6","3","6","672081135265644544","冯","562","Male","[""坏我"",""坏他"",""好我"",""好他""]","[""弱我"",""弱他"",""强我"",""强他""]","","","","","","","","yes","","","","","","","","","SRET","EW_formal","","key","f","16.662499999999866","768","428","朋友","忠诚","Positive","morality","","","","","","","","","","",""
"677","","f","psychophysics","80","235967","0.0-7.0-3.0-0.66","6","6","7","5","5","4","2","5","3","2","3","2","1","0","1","1","1","2","1","5","5","5","5","5","4","4","4","4","3","3","3","4","4","2","3","2","1","3","6","5","5","4","5","2","5","1","6","2","1","6","3","6","2","4","6","3","3","5","3","3","5","3","4","3","7","4","6","5","6","3","7","3","4","2","6","3","6","3","6","672081135265644544","冯","562","Male","[""坏我"",""坏他"",""好我"",""好他""]","[""弱我"",""弱他"",""强我"",""强他""]","","","","","","","","yes","","","","","","","","","SRET","EW_formal","","key","f","16.662000000000116","768","428","朋友","干练","Positive","ability","","","","","","","","","","",""
"444","","f","psychophysics","81","237416","0.0-7.0-3.0-0.67","6","6","7","5","5","4","2","5","3","2","3","2","1","0","1","1","1","2","1","5","5","5","5","5","4","4","4","4","3","3","3","4","4","2","3","2","1","3","6","5","5","4","5","2","5","1","6","2","1","6","3","6","2","4","6","3","3","5","3","3","5","3","4","3","7","4","6","5","6","3","7","3","4","2","6","3","6","3","6","672081135265644544","冯","562","Male","[""坏我"",""坏他"",""好我"",""好他""]","[""弱我"",""弱他"",""强我"",""强他""]","","","","","","","","yes","","","","","","","","","SRET","EW_formal","","key","f","16.662790697674417","768","428","自己","努力","Positive","ability","","","","","","","","","","",""
"533","","j","psychophysics","82","238954","0.0-7.0-3.0-0.68","6","6","7","5","5","4","2","5","3","2","3","2","1","0","1","1","1","2","1","5","5","5","5","5","4","4","4","4","3","3","3","4","4","2","3","2","1","3","6","5","5","4","5","2","5","1","6","2","1","6","3","6","2","4","6","3","3","5","3","3","5","3","4","3","7","4","6","5","6","3","7","3","4","2","6","3","6","3","6","672081135265644544","冯","562","Male","[""坏我"",""坏他"",""好我"",""好他""]","[""弱我"",""弱他"",""强我"",""强他""]","","","","","","","","no","","","","","","","","","SRET","EW_formal","","key","j","16.662637362637234","768","428","自己","邪恶","Negative","morality","","","","","","","","","","",""
"537","","f","psychophysics","83","240501","0.0-7.0-3.0-0.69","6","6","7","5","5","4","2","5","3","2","3","2","1","0","1","1","1","2","1","5","5","5","5","5","4","4","4","4","3","3","3","4","4","2","3","2","1","3","6","5","5","4","5","2","5","1","6","2","1","6","3","6","2","4","6","3","3","5","3","3","5","3","4","3","7","4","6","5","6","3","7","3","4","2","6","3","6","3","6","672081135265644544","冯","562","Male","[""坏我"",""坏他"",""好我"",""好他""]","[""弱我"",""弱他"",""强我"",""强他""]","","","","","","","","yes","","","","","","","","","SRET","EW_formal","","key","f","16.66304347826087","768","428","自己","上进","Positive","ability","","","","","","","","","","",""
"534","","j","psychophysics","84","242070","0.0-7.0-3.0-0.70","6","6","7","5","5","4","2","5","3","2","3","2","1","0","1","1","1","2","1","5","5","5","5","5","4","4","4","4","3","3","3","4","4","2","3","2","1","3","6","5","5","4","5","2","5","1","6","2","1","6","3","6","2","4","6","3","3","5","3","3","5","3","4","3","7","4","6","5","6","3","7","3","4","2","6","3","6","3","6","672081135265644544","冯","562","Male","[""坏我"",""坏他"",""好我"",""好他""]","[""弱我"",""弱他"",""强我"",""强他""]","","","","","","","","no","","","","","","","","","SRET","EW_formal","","key","j","16.66344086021518","768","428","自己","短浅","Negative","ability","","","","","","","","","","",""
"715","","j","psychophysics","85","243790","0.0-7.0-3.0-0.71","6","6","7","5","5","4","2","5","3","2","3","2","1","0","1","1","1","2","1","5","5","5","5","5","4","4","4","4","3","3","3","4","4","2","3","2","1","3","6","5","5","4","5","2","5","1","6","2","1","6","3","6","2","4","6","3","3","5","3","3","5","3","4","3","7","4","6","5","6","3","7","3","4","2","6","3","6","3","6","672081135265644544","冯","562","Male","[""坏我"",""坏他"",""好我"",""好他""]","[""弱我"",""弱他"",""强我"",""强他""]","","","","","","","","no","","","","","","","","","SRET","EW_formal","","key","j","16.663106796116676","768","428","朋友","笨蛋","Negative","ability","","","","","","","","","","",""
"721","","j","psychophysics","86","245515","0.0-7.0-3.0-0.72","6","6","7","5","5","4","2","5","3","2","3","2","1","0","1","1","1","2","1","5","5","5","5","5","4","4","4","4","3","3","3","4","4","2","3","2","1","3","6","5","5","4","5","2","5","1","6","2","1","6","3","6","2","4","6","3","3","5","3","3","5","3","4","3","7","4","6","5","6","3","7","3","4","2","6","3","6","3","6","672081135265644544","冯","562","Male","[""坏我"",""坏他"",""好我"",""好他""]","[""弱我"",""弱他"",""强我"",""强他""]","","","","","","","","no","","","","","","","","","SRET","EW_formal","","key","j","16.662745098039274","768","428","朋友","迂拙","Negative","ability","","","","","","","","","","",""
"555","","j","psychophysics","87","247075","0.0-7.0-3.0-0.73","6","6","7","5","5","4","2","5","3","2","3","2","1","0","1","1","1","2","1","5","5","5","5","5","4","4","4","4","3","3","3","4","4","2","3","2","1","3","6","5","5","4","5","2","5","1","6","2","1","6","3","6","2","4","6","3","3","5","3","3","5","3","4","3","7","4","6","5","6","3","7","3","4","2","6","3","6","3","6","672081135265644544","冯","562","Male","[""坏我"",""坏他"",""好我"",""好他""]","[""弱我"",""弱他"",""强我"",""强他""]","","","","","","","","no","","","","","","","","","SRET","EW_formal","","key","j","16.663440860214866","768","428","自己","驽钝","Negative","ability","","","","","","","","","","",""
"570","","f","psychophysics","88","248647","0.0-7.0-3.0-0.74","6","6","7","5","5","4","2","5","3","2","3","2","1","0","1","1","1","2","1","5","5","5","5","5","4","4","4","4","3","3","3","4","4","2","3","2","1","3","6","5","5","4","5","2","5","1","6","2","1","6","3","6","2","4","6","3","3","5","3","3","5","3","4","3","7","4","6","5","6","3","7","3","4","2","6","3","6","3","6","672081135265644544","冯","562","Male","[""坏我"",""坏他"",""好我"",""好他""]","[""弱我"",""弱他"",""强我"",""强他""]","","","","","","","","yes","","","","","","","","","SRET","EW_formal","","key","f","16.66236559139791","768","428","朋友","刚正","Positive","morality","","","","","","","","","","",""
"657","","f","psychophysics","89","250309","0.0-7.0-3.0-0.75","6","6","7","5","5","4","2","5","3","2","3","2","1","0","1","1","1","2","1","5","5","5","5","5","4","4","4","4","3","3","3","4","4","2","3","2","1","3","6","5","5","4","5","2","5","1","6","2","1","6","3","6","2","4","6","3","3","5","3","3","5","3","4","3","7","4","6","5","6","3","7","3","4","2","6","3","6","3","6","672081135265644544","冯","562","Male","[""坏我"",""坏他"",""好我"",""好他""]","[""弱我"",""弱他"",""强我"",""强他""]","","","","","","","","yes","","","","","","","","","SRET","EW_formal","","key","f","16.662626262626322","768","428","自己","廉明","Positive","morality","","","","","","","","","","",""
"572","","f","psychophysics","90","251884","0.0-7.0-3.0-0.76","6","6","7","5","5","4","2","5","3","2","3","2","1","0","1","1","1","2","1","5","5","5","5","5","4","4","4","4","3","3","3","4","4","2","3","2","1","3","6","5","5","4","5","2","5","1","6","2","1","6","3","6","2","4","6","3","3","5","3","3","5","3","4","3","7","4","6","5","6","3","7","3","4","2","6","3","6","3","6","672081135265644544","冯","562","Male","[""坏我"",""坏他"",""好我"",""好他""]","[""弱我"",""弱他"",""强我"",""强他""]","","","","","","","","yes","","","","","","","","","SRET","EW_formal","","key","f","16.667741935483935","768","428","朋友","勤奋","Positive","ability","","","","","","","","","","",""
"602","","j","psychophysics","91","253504","0.0-7.0-3.0-0.77","6","6","7","5","5","4","2","5","3","2","3","2","1","0","1","1","1","2","1","5","5","5","5","5","4","4","4","4","3","3","3","4","4","2","3","2","1","3","6","5","5","4","5","2","5","1","6","2","1","6","3","6","2","4","6","3","3","5","3","3","5","3","4","3","7","4","6","5","6","3","7","3","4","2","6","3","6","3","6","672081135265644544","冯","562","Male","[""坏我"",""坏他"",""好我"",""好他""]","[""弱我"",""弱他"",""强我"",""强他""]","","","","","","","","no","","","","","","","","","SRET","EW_formal","","key","j","16.662886597938023","768","428","朋友","畏难","Negative","ability","","","","","","","","","","",""
"714","","j","psychophysics","92","255220","0.0-7.0-3.0-0.78","6","6","7","5","5","4","2","5","3","2","3","2","1","0","1","1","1","2","1","5","5","5","5","5","4","4","4","4","3","3","3","4","4","2","3","2","1","3","6","5","5","4","5","2","5","1","6","2","1","6","3","6","2","4","6","3","3","5","3","3","5","3","4","3","7","4","6","5","6","3","7","3","4","2","6","3","6","3","6","672081135265644544","冯","562","Male","[""坏我"",""坏他"",""好我"",""好他""]","[""弱我"",""弱他"",""强我"",""强他""]","","","","","","","","no","","","","","","","","","SRET","EW_formal","","key","j","16.662745098039274","768","428","朋友","虚伪","Negative","morality","","","","","","","","","","",""
"554","","f","psychophysics","93","256776","0.0-7.0-3.0-0.79","6","6","7","5","5","4","2","5","3","2","3","2","1","0","1","1","1","2","1","5","5","5","5","5","4","4","4","4","3","3","3","4","4","2","3","2","1","3","6","5","5","4","5","2","5","1","6","2","1","6","3","6","2","4","6","3","3","5","3","3","5","3","4","3","7","4","6","5","6","3","7","3","4","2","6","3","6","3","6","672081135265644544","冯","562","Male","[""坏我"",""坏他"",""好我"",""好他""]","[""弱我"",""弱他"",""强我"",""强他""]","","","","","","","","yes","","","","","","","","","SRET","EW_formal","","key","f","16.661956521739068","768","428","朋友","博识","Positive","ability","","","","","","","","","","",""
"534","","j","psychophysics","94","258315","0.0-7.0-3.0-0.80","6","6","7","5","5","4","2","5","3","2","3","2","1","0","1","1","1","2","1","5","5","5","5","5","4","4","4","4","3","3","3","4","4","2","3","2","1","3","6","5","5","4","5","2","5","1","6","2","1","6","3","6","2","4","6","3","3","5","3","3","5","3","4","3","7","4","6","5","6","3","7","3","4","2","6","3","6","3","6","672081135265644544","冯","562","Male","[""坏我"",""坏他"",""好我"",""好他""]","[""弱我"",""弱他"",""强我"",""强他""]","","","","","","","","no","","","","","","","","","SRET","EW_formal","","key","j","16.6637362637362","768","428","自己","迟钝","Negative","ability","","","","","","","","","","",""
"478","","f","psychophysics","95","259805","0.0-7.0-3.0-0.81","6","6","7","5","5","4","2","5","3","2","3","2","1","0","1","1","1","2","1","5","5","5","5","5","4","4","4","4","3","3","3","4","4","2","3","2","1","3","6","5","5","4","5","2","5","1","6","2","1","6","3","6","2","4","6","3","3","5","3","3","5","3","4","3","7","4","6","5","6","3","7","3","4","2","6","3","6","3","6","672081135265644544","冯","562","Male","[""坏我"",""坏他"",""好我"",""好他""]","[""弱我"",""弱他"",""强我"",""强他""]","","","","","","","","yes","","","","","","","","","SRET","EW_formal","","key","f","16.66404494382029","768","428","朋友","娴熟","Positive","ability","","","","","","","","","","",""
"779","","f","psychophysics","96","261580","0.0-7.0-3.0-0.82","6","6","7","5","5","4","2","5","3","2","3","2","1","0","1","1","1","2","1","5","5","5","5","5","4","4","4","4","3","3","3","4","4","2","3","2","1","3","6","5","5","4","5","2","5","1","6","2","1","6","3","6","2","4","6","3","3","5","3","3","5","3","4","3","7","4","6","5","6","3","7","3","4","2","6","3","6","3","6","672081135265644544","冯","562","Male","[""坏我"",""坏他"",""好我"",""好他""]","[""弱我"",""弱他"",""强我"",""强他""]","","","","","","","","yes","","","","","","","","","SRET","EW_formal","","key","f","16.666037735848835","768","428","自己","慷慨","Positive","morality","","","","","","","","","","",""
"494","","f","psychophysics","97","263076","0.0-7.0-3.0-0.83","6","6","7","5","5","4","2","5","3","2","3","2","1","0","1","1","1","2","1","5","5","5","5","5","4","4","4","4","3","3","3","4","4","2","3","2","1","3","6","5","5","4","5","2","5","1","6","2","1","6","3","6","2","4","6","3","3","5","3","3","5","3","4","3","7","4","6","5","6","3","7","3","4","2","6","3","6","3","6","672081135265644544","冯","562","Male","[""坏我"",""坏他"",""好我"",""好他""]","[""弱我"",""弱他"",""强我"",""强他""]","","","","","","","","yes","","","","","","","","","SRET","EW_formal","","key","f","16.662499999999866","768","428","朋友","高洁","Positive","morality","","","","","","","","","","",""
"623","","j","psychophysics","98","264701","0.0-7.0-3.0-0.84","6","6","7","5","5","4","2","5","3","2","3","2","1","0","1","1","1","2","1","5","5","5","5","5","4","4","4","4","3","3","3","4","4","2","3","2","1","3","6","5","5","4","5","2","5","1","6","2","1","6","3","6","2","4","6","3","3","5","3","3","5","3","4","3","7","4","6","5","6","3","7","3","4","2","6","3","6","3","6","672081135265644544","冯","562","Male","[""坏我"",""坏他"",""好我"",""好他""]","[""弱我"",""弱他"",""强我"",""强他""]","","","","","","","","no","","","","","","","","","SRET","EW_formal","","key","j","16.664948453608247","768","428","自己","缓慢","Negative","ability","","","","","","","","","","",""
"481","","f","psychophysics","99","266184","0.0-7.0-3.0-0.85","6","6","7","5","5","4","2","5","3","2","3","2","1","0","1","1","1","2","1","5","5","5","5","5","4","4","4","4","3","3","3","4","4","2","3","2","1","3","6","5","5","4","5","2","5","1","6","2","1","6","3","6","2","4","6","3","3","5","3","3","5","3","4","3","7","4","6","5","6","3","7","3","4","2","6","3","6","3","6","672081135265644544","冯","562","Male","[""坏我"",""坏他"",""好我"",""好他""]","[""弱我"",""弱他"",""强我"",""强他""]","","","","","","","","yes","","","","","","","","","SRET","EW_formal","","key","f","16.663636363635966","768","428","朋友","素养","Positive","morality","","","","","","","","","","",""
"579","","j","psychophysics","100","267767","0.0-7.0-3.0-0.86","6","6","7","5","5","4","2","5","3","2","3","2","1","0","1","1","1","2","1","5","5","5","5","5","4","4","4","4","3","3","3","4","4","2","3","2","1","3","6","5","5","4","5","2","5","1","6","2","1","6","3","6","2","4","6","3","3","5","3","3","5","3","4","3","7","4","6","5","6","3","7","3","4","2","6","3","6","3","6","672081135265644544","冯","562","Male","[""坏我"",""坏他"",""好我"",""好他""]","[""弱我"",""弱他"",""强我"",""强他""]","","","","","","","","no","","","","","","","","","SRET","EW_formal","","key","j","16.66382978723429","768","428","朋友","低俗","Negative","morality","","","","","","","","","","",""
"450","","f","psychophysics","101","269222","0.0-7.0-3.0-0.87","6","6","7","5","5","4","2","5","3","2","3","2","1","0","1","1","1","2","1","5","5","5","5","5","4","4","4","4","3","3","3","4","4","2","3","2","1","3","6","5","5","4","5","2","5","1","6","2","1","6","3","6","2","4","6","3","3","5","3","3","5","3","4","3","7","4","6","5","6","3","7","3","4","2","6","3","6","3","6","672081135265644544","冯","562","Male","[""坏我"",""坏他"",""好我"",""好他""]","[""弱我"",""弱他"",""强我"",""强他""]","","","","","","","","yes","","","","","","","","","SRET","EW_formal","","key","f","16.666279069767306","768","428","自己","主见","Positive","ability","","","","","","","","","","",""
"12113","
    <p><div style='color:white;font-size:35px; line-height:20px;'>计算任务</div></p><br>
    <p><div style='color:red;font-size:25px; line-height:20px;'>接下来，您将看到一些四则运算题，<b>请从键盘选择 0-9 进行反应。</b></div></p>
    <p><div style='color:red;font-size:25px; line-height:20px;'>请尽可能快地进行计算，计算的速度和正确率将影响报酬的发放。</div></p>
    <p><div class='footer' style='color:white;font-size:25px; line-height:20px;'>如果对本实验还有不清楚之处，请立即向实验员咨询。</p><p style='color:white;font-size:25px; line-height:20px;'>如果您明白了规则：</p><p style='color:white;font-size:22px; line-height:20px;'>请按 继续 进入练习</p>
    </div>
    ","0","html-button-response","102","281336","0.0-7.0-4.0","6","6","7","5","5","4","2","5","3","2","3","2","1","0","1","1","1","2","1","5","5","5","5","5","4","4","4","4","3","3","3","4","4","2","3","2","1","3","6","5","5","4","5","2","5","1","6","2","1","6","3","6","2","4","6","3","3","5","3","3","5","3","4","3","7","4","6","5","6","3","7","3","4","2","6","3","6","3","6","672081135265644544","冯","562","Male","[""坏我"",""坏他"",""好我"",""好他""]","[""弱我"",""弱他"",""强我"",""强他""]","","","","","","","","","","","","","","","","","SRET_math","math_instructions","Sat Jan 27 2024 19:36:41 GMT+0800 (中国标准时间)","","","","","","","","","","","","","","","","","","","",""
"2301","","7","psychophysics","103","283643","0.0-7.0-5.0-0.0","6","6","7","5","5","4","2","5","3","2","3","2","1","0","1","1","1","2","1","5","5","5","5","5","4","4","4","4","3","3","3","4","4","2","3","2","1","3","6","5","5","4","5","2","5","1","6","2","1","6","3","6","2","4","6","3","3","5","3","3","5","3","4","3","7","4","6","5","6","3","7","3","4","2","6","3","6","3","6","672081135265644544","冯","562","Male","[""坏我"",""坏他"",""好我"",""好他""]","[""弱我"",""弱他"",""强我"",""强他""]","","","","","","","","7","","","","","","","","","SRET","SRET_math_calculate","","key","7","16.658273381294965","768","428","","","","","2+5= ?","7","1","","","","","","","",""
"2053","","8","psychophysics","104","285698","0.0-7.0-5.0-0.1","6","6","7","5","5","4","2","5","3","2","3","2","1","0","1","1","1","2","1","5","5","5","5","5","4","4","4","4","3","3","3","4","4","2","3","2","1","3","6","5","5","4","5","2","5","1","6","2","1","6","3","6","2","4","6","3","3","5","3","3","5","3","4","3","7","4","6","5","6","3","7","3","4","2","6","3","6","3","6","672081135265644544","冯","562","Male","[""坏我"",""坏他"",""好我"",""好他""]","[""弱我"",""弱他"",""强我"",""强他""]","","","","","","","","8","","","","","","","","","SRET","SRET_math_calculate","","key","8","16.666393442622855","768","428","","","","","3+6= ?","9","0","","","","","","","",""
"2953","","2","psychophysics","105","288675","0.0-7.0-5.0-0.2","6","6","7","5","5","4","2","5","3","2","3","2","1","0","1","1","1","2","1","5","5","5","5","5","4","4","4","4","3","3","3","4","4","2","3","2","1","3","6","5","5","4","5","2","5","1","6","2","1","6","3","6","2","4","6","3","3","5","3","3","5","3","4","3","7","4","6","5","6","3","7","3","4","2","6","3","6","3","6","672081135265644544","冯","562","Male","[""坏我"",""坏他"",""好我"",""好他""]","[""弱我"",""弱他"",""强我"",""强他""]","","","","","","","","2","","","","","","","","","SRET","SRET_math_calculate","","key","2","16.662921348314608","768","428","","","","","19-17= ?","2","1","","","","","","","",""
"2222","","4","psychophysics","106","290900","0.0-7.0-5.0-0.3","6","6","7","5","5","4","2","5","3","2","3","2","1","0","1","1","1","2","1","5","5","5","5","5","4","4","4","4","3","3","3","4","4","2","3","2","1","3","6","5","5","4","5","2","5","1","6","2","1","6","3","6","2","4","6","3","3","5","3","3","5","3","4","3","7","4","6","5","6","3","7","3","4","2","6","3","6","3","6","672081135265644544","冯","562","Male","[""坏我"",""坏他"",""好我"",""好他""]","[""弱我"",""弱他"",""强我"",""强他""]","","","","","","","","4","","","","","","","","","SRET","SRET_math_calculate","","key","4","16.663636363636627","768","428","","","","","3+1= ?","4","1","","","","","","","",""
"2355","","1","psychophysics","107","293257","0.0-7.0-5.0-0.4","6","6","7","5","5","4","2","5","3","2","3","2","1","0","1","1","1","2","1","5","5","5","5","5","4","4","4","4","3","3","3","4","4","2","3","2","1","3","6","5","5","4","5","2","5","1","6","2","1","6","3","6","2","4","6","3","3","5","3","3","5","3","4","3","7","4","6","5","6","3","7","3","4","2","6","3","6","3","6","672081135265644544","冯","562","Male","[""坏我"",""坏他"",""好我"",""好他""]","[""弱我"",""弱他"",""强我"",""强他""]","","","","","","","","1","","","","","","","","","SRET","SRET_math_calculate","","key","1","16.663120567375888","768","428","","","","","9-8= ?","1","1","","","","","","","",""
"2409","","6","psychophysics","108","295669","0.0-7.0-5.0-0.5","6","6","7","5","5","4","2","5","3","2","3","2","1","0","1","1","1","2","1","5","5","5","5","5","4","4","4","4","3","3","3","4","4","2","3","2","1","3","6","5","5","4","5","2","5","1","6","2","1","6","3","6","2","4","6","3","3","5","3","3","5","3","4","3","7","4","6","5","6","3","7","3","4","2","6","3","6","3","6","672081135265644544","冯","562","Male","[""坏我"",""坏他"",""好我"",""好他""]","[""弱我"",""弱他"",""强我"",""强他""]","","","","","","","","6","","","","","","","","","SRET","SRET_math_calculate","","key","6","16.662937062936983","768","428","","","","","2*3= ?","6","1","","","","","","","",""
"2229","","4","psychophysics","109","297903","0.0-7.0-5.0-0.6","6","6","7","5","5","4","2","5","3","2","3","2","1","0","1","1","1","2","1","5","5","5","5","5","4","4","4","4","3","3","3","4","4","2","3","2","1","3","6","5","5","4","5","2","5","1","6","2","1","6","3","6","2","4","6","3","3","5","3","3","5","3","4","3","7","4","6","5","6","3","7","3","4","2","6","3","6","3","6","672081135265644544","冯","562","Male","[""坏我"",""坏他"",""好我"",""好他""]","[""弱我"",""弱他"",""强我"",""强他""]","","","","","","","","4","","","","","","","","","SRET","SRET_math_calculate","","key","4","16.663909774436004","768","428","","","","","9-5= ?","4","1","","","","","","","",""
"2295","","8","psychophysics","110","300207","0.0-7.0-5.0-0.7","6","6","7","5","5","4","2","5","3","2","3","2","1","0","1","1","1","2","1","5","5","5","5","5","4","4","4","4","3","3","3","4","4","2","3","2","1","3","6","5","5","4","5","2","5","1","6","2","1","6","3","6","2","4","6","3","3","5","3","3","5","3","4","3","7","4","6","5","6","3","7","3","4","2","6","3","6","3","6","672081135265644544","冯","562","Male","[""坏我"",""坏他"",""好我"",""好他""]","[""弱我"",""弱他"",""强我"",""强他""]","","","","","","","","8","","","","","","","","","SRET","SRET_math_calculate","","key","8","16.66304347826087","768","428","","","","","2*4= ?","8","1","","","","","","","",""
"2227","","2","psychophysics","111","302437","0.0-7.0-5.0-0.8","6","6","7","5","5","4","2","5","3","2","3","2","1","0","1","1","1","2","1","5","5","5","5","5","4","4","4","4","3","3","3","4","4","2","3","2","1","3","6","5","5","4","5","2","5","1","6","2","1","6","3","6","2","4","6","3","3","5","3","3","5","3","4","3","7","4","6","5","6","3","7","3","4","2","6","3","6","3","6","672081135265644544","冯","562","Male","[""坏我"",""坏他"",""好我"",""好他""]","[""弱我"",""弱他"",""强我"",""强他""]","","","","","","","","2","","","","","","","","","SRET","SRET_math_calculate","","key","2","16.66287878787879","768","428","","","","","9-7= ?","2","1","","","","","","","",""
"2066","","8","psychophysics","112","304508","0.0-7.0-5.0-0.9","6","6","7","5","5","4","2","5","3","2","3","2","1","0","1","1","1","2","1","5","5","5","5","5","4","4","4","4","3","3","3","4","4","2","3","2","1","3","6","5","5","4","5","2","5","1","6","2","1","6","3","6","2","4","6","3","3","5","3","3","5","3","4","3","7","4","6","5","6","3","7","3","4","2","6","3","6","3","6","672081135265644544","冯","562","Male","[""坏我"",""坏他"",""好我"",""好他""]","[""弱我"",""弱他"",""强我"",""强他""]","","","","","","","","8","","","","","","","","","SRET","SRET_math_calculate","","key","8","16.662903225806545","768","428","","","","","4+4= ?","8","1","","","","","","","",""
"2032","","8","psychophysics","113","306541","0.0-7.0-5.0-0.10","6","6","7","5","5","4","2","5","3","2","3","2","1","0","1","1","1","2","1","5","5","5","5","5","4","4","4","4","3","3","3","4","4","2","3","2","1","3","6","5","5","4","5","2","5","1","6","2","1","6","3","6","2","4","6","3","3","5","3","3","5","3","4","3","7","4","6","5","6","3","7","3","4","2","6","3","6","3","6","672081135265644544","冯","562","Male","[""坏我"",""坏他"",""好我"",""好他""]","[""弱我"",""弱他"",""强我"",""强他""]","","","","","","","","8","","","","","","","","","SRET","SRET_math_calculate","","key","8","16.662809917355467","768","428","","","","","1*8= ?","8","1","","","","","","","",""
"1994","","8","psychophysics","114","308537","0.0-7.0-5.0-0.11","6","6","7","5","5","4","2","5","3","2","3","2","1","0","1","1","1","2","1","5","5","5","5","5","4","4","4","4","3","3","3","4","4","2","3","2","1","3","6","5","5","4","5","2","5","1","6","2","1","6","3","6","2","4","6","3","3","5","3","3","5","3","4","3","7","4","6","5","6","3","7","3","4","2","6","3","6","3","6","672081135265644544","冯","562","Male","[""坏我"",""坏他"",""好我"",""好他""]","[""弱我"",""弱他"",""强我"",""强他""]","","","","","","","","8","","","","","","","","","SRET","SRET_math_calculate","","key","8","16.666949152541978","768","428","","","","","8*1= ?","8","1","","","","","","","",""
"2313","","1","psychophysics","115","310855","0.0-7.0-5.0-0.12","6","6","7","5","5","4","2","5","3","2","3","2","1","0","1","1","1","2","1","5","5","5","5","5","4","4","4","4","3","3","3","4","4","2","3","2","1","3","6","5","5","4","5","2","5","1","6","2","1","6","3","6","2","4","6","3","3","5","3","3","5","3","4","3","7","4","6","5","6","3","7","3","4","2","6","3","6","3","6","672081135265644544","冯","562","Male","[""坏我"",""坏他"",""好我"",""好他""]","[""弱我"",""弱他"",""强我"",""强他""]","","","","","","","","1","","","","","","","","","SRET","SRET_math_calculate","","key","1","16.66330935251765","768","428","","","","","12/12= ?","1","1","","","","","","","",""
"2014","","8","psychophysics","116","312872","0.0-7.0-5.0-0.13","6","6","7","5","5","4","2","5","3","2","3","2","1","0","1","1","1","2","1","5","5","5","5","5","4","4","4","4","3","3","3","4","4","2","3","2","1","3","6","5","5","4","5","2","5","1","6","2","1","6","3","6","2","4","6","3","3","5","3","3","5","3","4","3","7","4","6","5","6","3","7","3","4","2","6","3","6","3","6","672081135265644544","冯","562","Male","[""坏我"",""坏他"",""好我"",""好他""]","[""弱我"",""弱他"",""强我"",""强他""]","","","","","","","","8","","","","","","","","","SRET","SRET_math_calculate","","key","8","16.664166666666762","768","428","","","","","6+2= ?","8","1","","","","","","","",""
"1909","","8","psychophysics","117","314783","0.0-7.0-5.0-0.14","6","6","7","5","5","4","2","5","3","2","3","2","1","0","1","1","1","2","1","5","5","5","5","5","4","4","4","4","3","3","3","4","4","2","3","2","1","3","6","5","5","4","5","2","5","1","6","2","1","6","3","6","2","4","6","3","3","5","3","3","5","3","4","3","7","4","6","5","6","3","7","3","4","2","6","3","6","3","6","672081135265644544","冯","562","Male","[""坏我"",""坏他"",""好我"",""好他""]","[""弱我"",""弱他"",""强我"",""强他""]","","","","","","","","8","","","","","","","","","SRET","SRET_math_calculate","","key","8","16.662831858407287","768","428","","","","","9-1= ?","8","1","","","","","","","",""
"2304","","9","psychophysics","118","317092","0.0-7.0-5.0-0.15","6","6","7","5","5","4","2","5","3","2","3","2","1","0","1","1","1","2","1","5","5","5","5","5","4","4","4","4","3","3","3","4","4","2","3","2","1","3","6","5","5","4","5","2","5","1","6","2","1","6","3","6","2","4","6","3","3","5","3","3","5","3","4","3","7","4","6","5","6","3","7","3","4","2","6","3","6","3","6","672081135265644544","冯","562","Male","[""坏我"",""坏他"",""好我"",""好他""]","[""弱我"",""弱他"",""强我"",""强他""]","","","","","","","","9","","","","","","","","","SRET","SRET_math_calculate","","key","9","16.66304347826087","768","428","","","","","9-9= ?","0","0","","","","","","","",""
"2193","","5","psychophysics","119","319287","0.0-7.0-5.0-0.16","6","6","7","5","5","4","2","5","3","2","3","2","1","0","1","1","1","2","1","5","5","5","5","5","4","4","4","4","3","3","3","4","4","2","3","2","1","3","6","5","5","4","5","2","5","1","6","2","1","6","3","6","2","4","6","3","3","5","3","3","5","3","4","3","7","4","6","5","6","3","7","3","4","2","6","3","6","3","6","672081135265644544","冯","562","Male","[""坏我"",""坏他"",""好我"",""好他""]","[""弱我"",""弱他"",""强我"",""强他""]","","","","","","","","5","","","","","","","","","SRET","SRET_math_calculate","","key","5","16.66259541984724","768","428","","","","","2+3= ?","5","1","","","","","","","",""
"2406","","3","psychophysics","120","321703","0.0-7.0-5.0-0.17","6","6","7","5","5","4","2","5","3","2","3","2","1","0","1","1","1","2","1","5","5","5","5","5","4","4","4","4","3","3","3","4","4","2","3","2","1","3","6","5","5","4","5","2","5","1","6","2","1","6","3","6","2","4","6","3","3","5","3","3","5","3","4","3","7","4","6","5","6","3","7","3","4","2","6","3","6","3","6","672081135265644544","冯","562","Male","[""坏我"",""坏他"",""好我"",""好他""]","[""弱我"",""弱他"",""强我"",""强他""]","","","","","","","","3","","","","","","","","","SRET","SRET_math_calculate","","key","3","16.662937062936983","768","428","","","","","6/2= ?","3","1","","","","","","","",""
"2136","","4","psychophysics","121","323842","0.0-7.0-5.0-0.18","6","6","7","5","5","4","2","5","3","2","3","2","1","0","1","1","1","2","1","5","5","5","5","5","4","4","4","4","3","3","3","4","4","2","3","2","1","3","6","5","5","4","5","2","5","1","6","2","1","6","3","6","2","4","6","3","3","5","3","3","5","3","4","3","7","4","6","5","6","3","7","3","4","2","6","3","6","3","6","672081135265644544","冯","562","Male","[""坏我"",""坏他"",""好我"",""好他""]","[""弱我"",""弱他"",""强我"",""强他""]","","","","","","","","4","","","","","","","","","SRET","SRET_math_calculate","","key","4","16.662204724409264","768","428","","","","","4*1= ?","4","1","","","","","","","",""
"1990","","6","psychophysics","122","325836","0.0-7.0-5.0-0.19","6","6","7","5","5","4","2","5","3","2","3","2","1","0","1","1","1","2","1","5","5","5","5","5","4","4","4","4","3","3","3","4","4","2","3","2","1","3","6","5","5","4","5","2","5","1","6","2","1","6","3","6","2","4","6","3","3","5","3","3","5","3","4","3","7","4","6","5","6","3","7","3","4","2","6","3","6","3","6","672081135265644544","冯","562","Male","[""坏我"",""坏他"",""好我"",""好他""]","[""弱我"",""弱他"",""强我"",""强他""]","","","","","","","","6","","","","","","","","","SRET","SRET_math_calculate","","key","6","16.660504201680478","768","428","","","","","5+1= ?","6","1","","","","","","","",""
"2355","","0","psychophysics","123","328193","0.0-7.0-5.0-0.20","6","6","7","5","5","4","2","5","3","2","3","2","1","0","1","1","1","2","1","5","5","5","5","5","4","4","4","4","3","3","3","4","4","2","3","2","1","3","6","5","5","4","5","2","5","1","6","2","1","6","3","6","2","4","6","3","3","5","3","3","5","3","4","3","7","4","6","5","6","3","7","3","4","2","6","3","6","3","6","672081135265644544","冯","562","Male","[""坏我"",""坏他"",""好我"",""好他""]","[""弱我"",""弱他"",""强我"",""强他""]","","","","","","","","0","","","","","","","","","SRET","SRET_math_calculate","","key","0","16.663120567375888","768","428","","","","","22-22= ?","0","1","","","","","","","",""
"2109","","6","psychophysics","124","330324","0.0-7.0-5.0-0.21","6","6","7","5","5","4","2","5","3","2","3","2","1","0","1","1","1","2","1","5","5","5","5","5","4","4","4","4","3","3","3","4","4","2","3","2","1","3","6","5","5","4","5","2","5","1","6","2","1","6","3","6","2","4","6","3","3","5","3","3","5","3","4","3","7","4","6","5","6","3","7","3","4","2","6","3","6","3","6","672081135265644544","冯","562","Male","[""坏我"",""坏他"",""好我"",""好他""]","[""弱我"",""弱他"",""强我"",""强他""]","","","","","","","","6","","","","","","","","","SRET","SRET_math_calculate","","key","6","16.662992125984342","768","428","","","","","3+3= ?","6","1","","","","","","","",""
"2065","","9","psychophysics","125","332392","0.0-7.0-5.0-0.22","6","6","7","5","5","4","2","5","3","2","3","2","1","0","1","1","1","2","1","5","5","5","5","5","4","4","4","4","3","3","3","4","4","2","3","2","1","3","6","5","5","4","5","2","5","1","6","2","1","6","3","6","2","4","6","3","3","5","3","3","5","3","4","3","7","4","6","5","6","3","7","3","4","2","6","3","6","3","6","672081135265644544","冯","562","Male","[""坏我"",""坏他"",""好我"",""好他""]","[""弱我"",""弱他"",""强我"",""强他""]","","","","","","","","9","","","","","","","","","SRET","SRET_math_calculate","","key","9","16.66260162601626","768","428","","","","","5+4= ?","9","1","","","","","","","",""
"2188","","5","psychophysics","126","334582","0.0-7.0-5.0-0.23","6","6","7","5","5","4","2","5","3","2","3","2","1","0","1","1","1","2","1","5","5","5","5","5","4","4","4","4","3","3","3","4","4","2","3","2","1","3","6","5","5","4","5","2","5","1","6","2","1","6","3","6","2","4","6","3","3","5","3","3","5","3","4","3","7","4","6","5","6","3","7","3","4","2","6","3","6","3","6","672081135265644544","冯","562","Male","[""坏我"",""坏他"",""好我"",""好他""]","[""弱我"",""弱他"",""强我"",""强他""]","","","","","","","","5","","","","","","","","","SRET","SRET_math_calculate","","key","5","16.662307692307515","768","428","","","","","12-7= ?","5","1","","","","","","","",""
"1960","","8","psychophysics","127","336544","0.0-7.0-5.0-0.24","6","6","7","5","5","4","2","5","3","2","3","2","1","0","1","1","1","2","1","5","5","5","5","5","4","4","4","4","3","3","3","4","4","2","3","2","1","3","6","5","5","4","5","2","5","1","6","2","1","6","3","6","2","4","6","3","3","5","3","3","5","3","4","3","7","4","6","5","6","3","7","3","4","2","6","3","6","3","6","672081135265644544","冯","562","Male","[""坏我"",""坏他"",""好我"",""好他""]","[""弱我"",""弱他"",""强我"",""强他""]","","","","","","","","8","","","","","","","","","SRET","SRET_math_calculate","","key","8","16.662393162393162","768","428","","","","","3+5= ?","8","1","","","","","","","",""
"1843","","7","psychophysics","128","338389","0.0-7.0-5.0-0.25","6","6","7","5","5","4","2","5","3","2","3","2","1","0","1","1","1","2","1","5","5","5","5","5","4","4","4","4","3","3","3","4","4","2","3","2","1","3","6","5","5","4","5","2","5","1","6","2","1","6","3","6","2","4","6","3","3","5","3","3","5","3","4","3","7","4","6","5","6","3","7","3","4","2","6","3","6","3","6","672081135265644544","冯","562","Male","[""坏我"",""坏他"",""好我"",""好他""]","[""弱我"",""弱他"",""强我"",""强他""]","","","","","","","","7","","","","","","","","","SRET","SRET_math_calculate","","key","7","16.661818181818607","768","428","","","","","5+2= ?","7","1","","","","","","","",""
"3156","","5","psychophysics","129","341547","0.0-7.0-5.0-0.26","6","6","7","5","5","4","2","5","3","2","3","2","1","0","1","1","1","2","1","5","5","5","5","5","4","4","4","4","3","3","3","4","4","2","3","2","1","3","6","5","5","4","5","2","5","1","6","2","1","6","3","6","2","4","6","3","3","5","3","3","5","3","4","3","7","4","6","5","6","3","7","3","4","2","6","3","6","3","6","672081135265644544","冯","562","Male","[""坏我"",""坏他"",""好我"",""好他""]","[""弱我"",""弱他"",""强我"",""强他""]","","","","","","","","5","","","","","","","","","SRET","SRET_math_calculate","","key","5","16.663297872340486","768","428","","","","","14-9= ?","5","1","","","","","","","",""
"2173","","0","psychophysics","130","343723","0.0-7.0-5.0-0.27","6","6","7","5","5","4","2","5","3","2","3","2","1","0","1","1","1","2","1","5","5","5","5","5","4","4","4","4","3","3","3","4","4","2","3","2","1","3","6","5","5","4","5","2","5","1","6","2","1","6","3","6","2","4","6","3","3","5","3","3","5","3","4","3","7","4","6","5","6","3","7","3","4","2","6","3","6","3","6","672081135265644544","冯","562","Male","[""坏我"",""坏他"",""好我"",""好他""]","[""弱我"",""弱他"",""强我"",""强他""]","","","","","","","","0","","","","","","","","","SRET","SRET_math_calculate","","key","0","16.661538461538463","768","428","","","","","5*0= ?","0","1","","","","","","","",""
"2319","","1","psychophysics","131","346044","0.0-7.0-5.0-0.28","6","6","7","5","5","4","2","5","3","2","3","2","1","0","1","1","1","2","1","5","5","5","5","5","4","4","4","4","3","3","3","4","4","2","3","2","1","3","6","5","5","4","5","2","5","1","6","2","1","6","3","6","2","4","6","3","3","5","3","3","5","3","4","3","7","4","6","5","6","3","7","3","4","2","6","3","6","3","6","672081135265644544","冯","562","Male","[""坏我"",""坏他"",""好我"",""好他""]","[""弱我"",""弱他"",""强我"",""强他""]","","","","","","","","1","","","","","","","","","SRET","SRET_math_calculate","","key","1","16.66304347826087","768","428","","","","","4/4= ?","1","1","","","","","","","",""
"2260","","0","psychophysics","132","348306","0.0-7.0-5.0-0.29","6","6","7","5","5","4","2","5","3","2","3","2","1","0","1","1","1","2","1","5","5","5","5","5","4","4","4","4","3","3","3","4","4","2","3","2","1","3","6","5","5","4","5","2","5","1","6","2","1","6","3","6","2","4","6","3","3","5","3","3","5","3","4","3","7","4","6","5","6","3","7","3","4","2","6","3","6","3","6","672081135265644544","冯","562","Male","[""坏我"",""坏他"",""好我"",""好他""]","[""弱我"",""弱他"",""强我"",""强他""]","","","","","","","","0","","","","","","","","","SRET","SRET_math_calculate","","key","0","16.663703703703963","768","428","","","","","1-1= ?","0","1","","","","","","","",""
"2031","","0","psychophysics","133","350339","0.0-7.0-5.0-0.30","6","6","7","5","5","4","2","5","3","2","3","2","1","0","1","1","1","2","1","5","5","5","5","5","4","4","4","4","3","3","3","4","4","2","3","2","1","3","6","5","5","4","5","2","5","1","6","2","1","6","3","6","2","4","6","3","3","5","3","3","5","3","4","3","7","4","6","5","6","3","7","3","4","2","6","3","6","3","6","672081135265644544","冯","562","Male","[""坏我"",""坏他"",""好我"",""好他""]","[""弱我"",""弱他"",""强我"",""强他""]","","","","","","","","0","","","","","","","","","SRET","SRET_math_calculate","","key","0","16.661983471074187","768","428","","","","","32-32= ?","0","1","","","","","","","",""
"2048","","6","psychophysics","134","352390","0.0-7.0-5.0-0.31","6","6","7","5","5","4","2","5","3","2","3","2","1","0","1","1","1","2","1","5","5","5","5","5","4","4","4","4","3","3","3","4","4","2","3","2","1","3","6","5","5","4","5","2","5","1","6","2","1","6","3","6","2","4","6","3","3","5","3","3","5","3","4","3","7","4","6","5","6","3","7","3","4","2","6","3","6","3","6","672081135265644544","冯","562","Male","[""坏我"",""坏他"",""好我"",""好他""]","[""弱我"",""弱他"",""强我"",""强他""]","","","","","","","","6","","","","","","","","","SRET","SRET_math_calculate","","key","6","16.66393442622951","768","428","","","","","2+4= ?","6","1","","","","","","","",""
"2464","","3","psychophysics","135","354856","0.0-7.0-5.0-0.32","6","6","7","5","5","4","2","5","3","2","3","2","1","0","1","1","1","2","1","5","5","5","5","5","4","4","4","4","3","3","3","4","4","2","3","2","1","3","6","5","5","4","5","2","5","1","6","2","1","6","3","6","2","4","6","3","3","5","3","3","5","3","4","3","7","4","6","5","6","3","7","3","4","2","6","3","6","3","6","672081135265644544","冯","562","Male","[""坏我"",""坏他"",""好我"",""好他""]","[""弱我"",""弱他"",""强我"",""强他""]","","","","","","","","3","","","","","","","","","SRET","SRET_math_calculate","","key","3","16.661224489796","768","428","","","","","3+0= ?","3","1","","","","","","","",""
"2373","","5","psychophysics","136","357231","0.0-7.0-5.0-0.33","6","6","7","5","5","4","2","5","3","2","3","2","1","0","1","1","1","2","1","5","5","5","5","5","4","4","4","4","3","3","3","4","4","2","3","2","1","3","6","5","5","4","5","2","5","1","6","2","1","6","3","6","2","4","6","3","3","5","3","3","5","3","4","3","7","4","6","5","6","3","7","3","4","2","6","3","6","3","6","672081135265644544","冯","562","Male","[""坏我"",""坏他"",""好我"",""好他""]","[""弱我"",""弱他"",""强我"",""强他""]","","","","","","","","5","","","","","","","","","SRET","SRET_math_calculate","","key","5","16.663120567375888","768","428","","","","","15-10= ?","5","1","","","","","","","",""
"2009","","7","psychophysics","137","359244","0.0-7.0-5.0-0.34","6","6","7","5","5","4","2","5","3","2","3","2","1","0","1","1","1","2","1","5","5","5","5","5","4","4","4","4","3","3","3","4","4","2","3","2","1","3","6","5","5","4","5","2","5","1","6","2","1","6","3","6","2","4","6","3","3","5","3","3","5","3","4","3","7","4","6","5","6","3","7","3","4","2","6","3","6","3","6","672081135265644544","冯","562","Male","[""坏我"",""坏他"",""好我"",""好他""]","[""弱我"",""弱他"",""强我"",""强他""]","","","","","","","","7","","","","","","","","","SRET","SRET_math_calculate","","key","7","16.6625","768","428","","","","","6+1= ?","7","1","","","","","","","",""
"2021","","6","psychophysics","138","361268","0.0-7.0-5.0-0.35","6","6","7","5","5","4","2","5","3","2","3","2","1","0","1","1","1","2","1","5","5","5","5","5","4","4","4","4","3","3","3","4","4","2","3","2","1","3","6","5","5","4","5","2","5","1","6","2","1","6","3","6","2","4","6","3","3","5","3","3","5","3","4","3","7","4","6","5","6","3","7","3","4","2","6","3","6","3","6","672081135265644544","冯","562","Male","[""坏我"",""坏他"",""好我"",""好他""]","[""弱我"",""弱他"",""强我"",""强他""]","","","","","","","","6","","","","","","","","","SRET","SRET_math_calculate","","key","6","16.665289256198346","768","428","","","","","3*2= ?","6","1","","","","","","","",""
"2104","","9","psychophysics","139","363375","0.0-7.0-5.0-0.36","6","6","7","5","5","4","2","5","3","2","3","2","1","0","1","1","1","2","1","5","5","5","5","5","4","4","4","4","3","3","3","4","4","2","3","2","1","3","6","5","5","4","5","2","5","1","6","2","1","6","3","6","2","4","6","3","3","5","3","3","5","3","4","3","7","4","6","5","6","3","7","3","4","2","6","3","6","3","6","672081135265644544","冯","562","Male","[""坏我"",""坏他"",""好我"",""好他""]","[""弱我"",""弱他"",""强我"",""强他""]","","","","","","","","9","","","","","","","","","SRET","SRET_math_calculate","","key","9","16.662399999999906","768","428","","","","","3*3= ?","9","1","","","","","","","",""
"2376","","2","psychophysics","140","365754","0.0-7.0-5.0-0.37","6","6","7","5","5","4","2","5","3","2","3","2","1","0","1","1","1","2","1","5","5","5","5","5","4","4","4","4","3","3","3","4","4","2","3","2","1","3","6","5","5","4","5","2","5","1","6","2","1","6","3","6","2","4","6","3","3","5","3","3","5","3","4","3","7","4","6","5","6","3","7","3","4","2","6","3","6","3","6","672081135265644544","冯","562","Male","[""坏我"",""坏他"",""好我"",""好他""]","[""弱我"",""弱他"",""强我"",""强他""]","","","","","","","","2","","","","","","","","","SRET","SRET_math_calculate","","key","2","16.66549295774648","768","428","","","","","5-3= ?","2","1","","","","","","","",""
"2241","","5","psychophysics","141","367997","0.0-7.0-5.0-0.38","6","6","7","5","5","4","2","5","3","2","3","2","1","0","1","1","1","2","1","5","5","5","5","5","4","4","4","4","3","3","3","4","4","2","3","2","1","3","6","5","5","4","5","2","5","1","6","2","1","6","3","6","2","4","6","3","3","5","3","3","5","3","4","3","7","4","6","5","6","3","7","3","4","2","6","3","6","3","6","672081135265644544","冯","562","Male","[""坏我"",""坏他"",""好我"",""好他""]","[""弱我"",""弱他"",""强我"",""强他""]","","","","","","","","5","","","","","","","","","SRET","SRET_math_calculate","","key","5","16.663157894736493","768","428","","","","","4+1= ?","5","1","","","","","","","",""
"1901","","8","psychophysics","142","369903","0.0-7.0-5.0-0.39","6","6","7","5","5","4","2","5","3","2","3","2","1","0","1","1","1","2","1","5","5","5","5","5","4","4","4","4","3","3","3","4","4","2","3","2","1","3","6","5","5","4","5","2","5","1","6","2","1","6","3","6","2","4","6","3","3","5","3","3","5","3","4","3","7","4","6","5","6","3","7","3","4","2","6","3","6","3","6","672081135265644544","冯","562","Male","[""坏我"",""坏他"",""好我"",""好他""]","[""弱我"",""弱他"",""强我"",""强他""]","","","","","","","","8","","","","","","","","","SRET","SRET_math_calculate","","key","8","16.662280701754387","768","428","","","","","7+1= ?","8","1","","","","","","","",""
"3264","","3","psychophysics","143","373170","0.0-7.0-5.0-0.40","6","6","7","5","5","4","2","5","3","2","3","2","1","0","1","1","1","2","1","5","5","5","5","5","4","4","4","4","3","3","3","4","4","2","3","2","1","3","6","5","5","4","5","2","5","1","6","2","1","6","3","6","2","4","6","3","3","5","3","3","5","3","4","3","7","4","6","5","6","3","7","3","4","2","6","3","6","3","6","672081135265644544","冯","562","Male","[""坏我"",""坏他"",""好我"",""好他""]","[""弱我"",""弱他"",""强我"",""强他""]","","","","","","","","3","","","","","","","","","SRET","SRET_math_calculate","","key","3","16.663589743589863","768","428","","","","","11-8= ?","3","1","","","","","","","",""
