"rt","stimulus","response","trial_type","trial_index","time_elapsed","internal_node_id","swb_1","swb_2","swb_3","swb_4","swb_5","LOT_1","LOT_2","LOT_3","LOT_4","LOT_5","LOT_6","IPC_1","IPC_2","IPC_3","IPC_4","IPC_5","IPC_6","IPC_7","IPC_8","MorIden_1","MorIden_2","MorIden_3","MorIden_4","MorIden_5","MorIden_6","MorIden_7","MorIden_8","MorIden_9","MorIden_10","moralSeImag_1","moralSeImag_2","moralSeImag_3","moralSeImag_4","moralSeImag_5","moralSeImag_6","moralSeImag_7","moralSeImag_8","moralSeImag_9","sde_1","sde_2","sde_3","sde_4","sde_5","sde_6","sde_7","sde_8","sde_9","sde_10","trap2","sde_11","sde_12","sde_13","sde_14","sde_15","sde_16","sde_17","sde_18","sde_19","sde_20","IM_1","IM_2","IM_3","IM_4","IM_5","IM_6","IM_7","IM_8","IM_9","IM_10","IM_11","IM_12","IM_13","IM_14","IM_15","IM_16","IM_17","IM_18","IM_19","IM_20","subj_idx","friend_name","ParticipantID","Sex","Word","Word2","value","success","timeout","failed_images","failed_audio","failed_video","user_agent","responses","item_order","radio_event_ids","radio_event_times","key_event_times","mouse_event_times","straightlining","zigzagging","honeypot","task_id","screen_id","time_stamp","response_type","key_press","avg_frame_time","center_x","center_y","person","word","valence","domain","math","correct_response","correct","status","view_history","identity","duration","Image","condition","question_order","trap2_item"
"4307","
   <p><div style='color:white; font-size: 25px'>您好，欢迎参加本次实验。</div></p>
   <p><div style='color:white; font-size: 25px'>为充分保障您的权利，请确保您已经知晓并同意《参与实验同意书》以及《数据公开知情同意书》。</div></p>
   <p><div style='color:white; font-size: 25px'>如果您未见过上述内容，请咨询实验员。</div></p>
   <p style='color:white; font-size: 25px'>如果您选择继续实验，则表示您已经清楚两份知情同意书的内容并同意。</p>
   <p><div style = ""color: pink;font-size:30px;"">请确保您记得day0的实验编号，您将在本次实验输入该编号，若您忘记，请咨询实验员后作答。</div></p>
   <p><div style = ""color:lightblue;font-size:25px;"">请您尽可能认真地作答，我们将依据您在各问卷和按键任务中的作答质量发放报酬。</div></p>
   <p> <div style = ""color: green""><按空格键至下页></div> </p>
   "," ","html-keyboard-response","0","4310","0.0-0.0","6","6","6","6","5","5","2","4","4","4","5","0","0","1","1","0","1","1","1","5","5","5","5","5","5","5","5","5","5","4","4","5","5","4","5","5","5","5","3","5","5","5","5","3","5","7","5","7","1","5","5","5","3","5","5","5","5","3","3","3","5","3","5","3","5","3","5","3","5","3","5","7","1","3","5","3","5","3","5","789952361161433089","罗","448","Female","[""好她"",""坏她"",""好我"",""坏我""]","[""强她"",""弱她"",""强我"",""弱我""]","","","","","","","","","","","","","","","","","","","","","","","","","","","","","","","","","","","","","","",""
"","","","call-function","1","4311","0.0-1.0-0.0","6","6","6","6","5","5","2","4","4","4","5","0","0","1","1","0","1","1","1","5","5","5","5","5","5","5","5","5","5","4","4","5","5","4","5","5","5","5","3","5","5","5","5","3","5","7","5","7","1","5","5","5","3","5","5","5","5","3","3","3","5","3","5","3","5","3","5","3","5","3","5","7","1","3","5","3","5","3","5","789952361161433089","罗","448","Female","[""好她"",""坏她"",""好我"",""坏我""]","[""强她"",""弱她"",""强我"",""弱我""]","","","","","","","","","","","","","","","","","","","","","","","","","","","","","","","","","","","","","","",""
"14998","","[{""name"":""Sex"",""value"":""1""},{""name"":""friend_name"",""value"":""罗""},{""name"":""ParticipantID"",""value"":""448""}]","survey-html-form","2","19311","0.0-1.0-1.0","6","6","6","6","5","5","2","4","4","4","5","0","0","1","1","0","1","1","1","5","5","5","5","5","5","5","5","5","5","4","4","5","5","4","5","5","5","5","3","5","5","5","5","3","5","7","5","7","1","5","5","5","3","5","5","5","5","3","3","3","5","3","5","3","5","3","5","3","5","3","5","7","1","3","5","3","5","3","5","789952361161433089","罗","448","Female","[""好她"",""坏她"",""好我"",""坏我""]","[""强她"",""弱她"",""强我"",""弱我""]","","","","","","","","","","","","","","","","","","","","","","","","","","","","","","","","","","","","","","",""
"","","","preload","3","20819","0.0-2.0","6","6","6","6","5","5","2","4","4","4","5","0","0","1","1","0","1","1","1","5","5","5","5","5","5","5","5","5","5","4","4","5","5","4","5","5","5","5","3","5","5","5","5","3","5","7","5","7","1","5","5","5","3","5","5","5","5","3","3","3","5","3","5","3","5","3","5","3","5","3","5","7","1","3","5","3","5","3","5","789952361161433089","罗","448","Female","[""好她"",""坏她"",""好我"",""坏我""]","[""强她"",""弱她"",""强我"",""弱我""]","","true","false","[]","[]","[]","","","","","","","","","","","","","","","","","","","","","","","","","","","","","","","","",""
"","","","fullscreen","4","26629","0.0-3.0","6","6","6","6","5","5","2","4","4","4","5","0","0","1","1","0","1","1","1","5","5","5","5","5","5","5","5","5","5","4","4","5","5","4","5","5","5","5","3","5","5","5","5","3","5","7","5","7","1","5","5","5","3","5","5","5","5","3","3","3","5","3","5","3","5","3","5","3","5","3","5","7","1","3","5","3","5","3","5","789952361161433089","罗","448","Female","[""好她"",""坏她"",""好我"",""坏我""]","[""强她"",""弱她"",""强我"",""弱我""]","","true","","","","","{}","","","","","","","","","","","","","","","","","","","","","","","","","","","","","","","",""
"23887.89999999851","","{""Q01"":""6"",""Q02"":""6"",""Q03"":""6"",""Q04"":""6"",""Q05"":""5""}","survey-template","5","50521","0.0-4.0","6","6","6","6","5","5","2","4","4","4","5","0","0","1","1","0","1","1","1","5","5","5","5","5","5","5","5","5","5","4","4","5","5","4","5","5","5","5","3","5","5","5","5","3","5","7","5","7","1","5","5","5","3","5","5","5","5","3","3","3","5","3","5","3","5","3","5","3","5","3","5","7","1","3","5","3","5","3","5","789952361161433089","罗","448","Female","[""好她"",""坏她"",""好我"",""坏我""]","[""强她"",""弱她"",""强我"",""弱我""]","","","","","","","","{""Q01"":""6"",""Q02"":""6"",""Q03"":""6"",""Q04"":""6"",""Q05"":""5""}","[0,1,2,3,4]","[""Q01"",""Q02"",""Q03"",""Q04"",""Q05""]","[5966.199999999255,8285,10508.199999999255,13804.199999999255,20854.5]","[]","[5966.199999999255,8285,10508.199999999255,13804.199999999255,20854.5,23885]","0.8","0.25","0","","","","","","","","","","","","","","","","","","","","","","",""
"45852.09999999963","","{""Q01"":""5"",""Q02"":""2"",""Q03"":""4"",""Q04"":""4"",""Q05"":""4"",""Q06"":""5""}","survey-template","6","96389","0.0-5.0","6","6","6","6","5","5","2","4","4","4","5","0","0","1","1","0","1","1","1","5","5","5","5","5","5","5","5","5","5","4","4","5","5","4","5","5","5","5","3","5","5","5","5","3","5","7","5","7","1","5","5","5","3","5","5","5","5","3","3","3","5","3","5","3","5","3","5","3","5","3","5","7","1","3","5","3","5","3","5","789952361161433089","罗","448","Female","[""好她"",""坏她"",""好我"",""坏我""]","[""强她"",""弱她"",""强我"",""弱我""]","","","","","","","","{""Q01"":""5"",""Q02"":""2"",""Q03"":""4"",""Q04"":""4"",""Q05"":""4"",""Q06"":""5""}","[0,1,2,3,4,5]","[""Q01"",""Q02"",""Q03"",""Q03"",""Q04"",""Q05"",""Q06""]","[7124.800000000745,19331.800000000745,22499.800000000745,25667.300000000745,31803.099999999627,39401.90000000037,44954]","[]","[7124.800000000745,19331.800000000745,22499.800000000745,25667.300000000745,31803.099999999627,39401.90000000037,44954,45850.300000000745]","0.3333333333333333","0.2","0","","","","","","","","","","","","","","","","","","","","","","",""
"43171.79999999888","","{""Q01"":""0"",""Q02"":""0"",""Q03"":""1"",""Q04"":""1"",""Q05"":""0"",""Q06"":""1"",""Q07"":""1"",""Q08"":""1""}","survey-template","7","139570","0.0-6.0","6","6","6","6","5","5","2","4","4","4","5","0","0","1","1","0","1","1","1","5","5","5","5","5","5","5","5","5","5","4","4","5","5","4","5","5","5","5","3","5","5","5","5","3","5","7","5","7","1","5","5","5","3","5","5","5","5","3","3","3","5","3","5","3","5","3","5","3","5","3","5","7","1","3","5","3","5","3","5","789952361161433089","罗","448","Female","[""好她"",""坏她"",""好我"",""坏我""]","[""强她"",""弱她"",""强我"",""弱我""]","","","","","","","","{""Q01"":""0"",""Q02"":""0"",""Q03"":""1"",""Q04"":""1"",""Q05"":""0"",""Q06"":""1"",""Q07"":""1"",""Q08"":""1""}","[0,1,2,3,4,5,6,7]","[""Q01"",""Q02"",""Q03"",""Q04"",""Q05"",""Q05"",""Q06"",""Q07"",""Q08""]","[6195.5,13442.299999998882,19465.39999999851,24642.89999999851,27338.199999999255,30057.599999999627,33753,39192.79999999888,41984.39999999851]","[]","[6195.5,13442.299999998882,19465.39999999851,24642.89999999851,27338.199999999255,30057.599999999627,33753,39192.79999999888,41984.39999999851,43169]","0.625","0.42857142857142855","0","","","","","","","","","","","","","","","","","","","","","","",""
"16698","
    <p><div style='color:white;font-size:35px; line-height:20px;'>词汇评估任务</div></p><br>
    <p><div style='color:white;font-size:25px; line-height:20px;'>请再次回忆该亲密的朋友，你们至少2年前就认识了，并且最近2年经常见面。</div></p>
    <p><div style='color:white;font-size:25px; line-height:20px;'>在本实验中，您将会看到一些形容词。</div></p>
    <p><div style='color:yellow;font-size:25px; line-height:20px;'>您的任务是判断这些形容词是否符合对您自己或您的朋友的描述。</div></p><p style='font-size:35px'>符合按<span style=""color:lightgreen""> f 键</span>，不符合按<span style=""color:red""> j 键</span></p>","0","html-button-response","8","156277","0.0-7.0-0.0","6","6","6","6","5","5","2","4","4","4","5","0","0","1","1","0","1","1","1","5","5","5","5","5","5","5","5","5","5","4","4","5","5","4","5","5","5","5","3","5","5","5","5","3","5","7","5","7","1","5","5","5","3","5","5","5","5","3","3","3","5","3","5","3","5","3","5","3","5","3","5","7","1","3","5","3","5","3","5","789952361161433089","罗","448","Female","[""好她"",""坏她"",""好我"",""坏我""]","[""强她"",""弱她"",""强我"",""弱我""]","","","","","","","","","","","","","","","","","SRET_EW","EW_instructions","Mon Jan 29 2024 10:42:44 GMT+0800 (中国标准时间)","","","","","","","","","","","","","","","","","","","",""
"1858","","j","psychophysics","9","159149","0.0-7.0-1.0-0.0","6","6","6","6","5","5","2","4","4","4","5","0","0","1","1","0","1","1","1","5","5","5","5","5","5","5","5","5","5","4","4","5","5","4","5","5","5","5","3","5","5","5","5","3","5","7","5","7","1","5","5","5","3","5","5","5","5","3","3","3","5","3","5","3","5","3","5","3","5","3","5","7","1","3","5","3","5","3","5","789952361161433089","罗","448","Female","[""好她"",""坏她"",""好我"",""坏我""]","[""强她"",""弱她"",""强我"",""弱我""]","","","","","","","","no","","","","","","","","","SRET_EW","EW_practice","","key","j","16.665999999999993","960","536","朋友","徇私","Negative","morality","","","","","","","","","","",""
"985","","f","psychophysics","10","161139","0.0-7.0-1.0-0.1","6","6","6","6","5","5","2","4","4","4","5","0","0","1","1","0","1","1","1","5","5","5","5","5","5","5","5","5","5","4","4","5","5","4","5","5","5","5","3","5","5","5","5","3","5","7","5","7","1","5","5","5","3","5","5","5","5","3","3","3","5","3","5","3","5","3","5","3","5","3","5","7","1","3","5","3","5","3","5","789952361161433089","罗","448","Female","[""好她"",""坏她"",""好我"",""坏我""]","[""强她"",""弱她"",""强我"",""弱我""]","","","","","","","","yes","","","","","","","","","SRET_EW","EW_practice","","key","f","16.665999999999883","960","536","朋友","忠实","Positive","morality","","","","","","","","","","",""
"1254","","j","psychophysics","11","163395","0.0-7.0-1.0-0.2","6","6","6","6","5","5","2","4","4","4","5","0","0","1","1","0","1","1","1","5","5","5","5","5","5","5","5","5","5","4","4","5","5","4","5","5","5","5","3","5","5","5","5","3","5","7","5","7","1","5","5","5","3","5","5","5","5","3","3","3","5","3","5","3","5","3","5","3","5","3","5","7","1","3","5","3","5","3","5","789952361161433089","罗","448","Female","[""好她"",""坏她"",""好我"",""坏我""]","[""强她"",""弱她"",""强我"",""弱我""]","","","","","","","","no","","","","","","","","","SRET_EW","EW_practice","","key","j","16.790373134328384","960","536","自己","刻板","Negative","ability","","","","","","","","","","",""
"1246","","f","psychophysics","12","165643","0.0-7.0-1.0-0.3","6","6","6","6","5","5","2","4","4","4","5","0","0","1","1","0","1","1","1","5","5","5","5","5","5","5","5","5","5","4","4","5","5","4","5","5","5","5","3","5","5","5","5","3","5","7","5","7","1","5","5","5","3","5","5","5","5","3","3","3","5","3","5","3","5","3","5","3","5","3","5","7","1","3","5","3","5","3","5","789952361161433089","罗","448","Female","[""好她"",""坏她"",""好我"",""坏我""]","[""强她"",""弱她"",""强我"",""弱我""]","","","","","","","","yes","","","","","","","","","SRET_EW","EW_practice","","key","f","16.666000000000047","960","536","自己","严谨","Positive","ability","","","","","","","","","","",""
"10286","
    <p><div style='color:white;font-size:35px; line-height:20px;'>请您再次阅读实验要求</div></p><br>
    <p><div style='color:white;font-size:25px; line-height:20px;'>请回忆某一个亲密的朋友，你们至少2年前就认识了，并且最近2年经常见面。</div></p>
    <p><div style='color:white;font-size:25px; line-height:20px;'>在本实验中，您将会看到一些形容词。</div></p>
    <p><div style='color:yellow;font-size:25px; line-height:20px;'>您的任务是判断这些形容词是否符合对您自己或您的朋友的描述。</div></p>
    <p><div class='footer' style='font-size:25px; line-height:20px;'>如果对本实验还有不清楚之处，请立即向实验员咨询。</p><p style='font-size:25px; line-height:20px;'>如果您明白了规则：</p><p style='font-size:22px; line-height:20px;'>请按 继续 进入正式实验</p>
    </div>
    <p style='font-size:35px'>符合按<span style=""color:lightgreen""> f 键</span>，不符合按<span style=""color:red""> j 键</span></p>","0","html-button-response","13","175931","0.0-7.0-2.0","6","6","6","6","5","5","2","4","4","4","5","0","0","1","1","0","1","1","1","5","5","5","5","5","5","5","5","5","5","4","4","5","5","4","5","5","5","5","3","5","5","5","5","3","5","7","5","7","1","5","5","5","3","5","5","5","5","3","3","3","5","3","5","3","5","3","5","3","5","3","5","7","1","3","5","3","5","3","5","789952361161433089","罗","448","Female","[""好她"",""坏她"",""好我"",""坏我""]","[""强她"",""弱她"",""强我"",""弱我""]","","","","","","","","","","","","","","","","","SRET_EW","prac_instructions","Mon Jan 29 2024 10:42:44 GMT+0800 (中国标准时间)","","","","","","","","","","","","","","","","","","","",""
"866","","j","psychophysics","14","177802","0.0-7.0-3.0-0.0","6","6","6","6","5","5","2","4","4","4","5","0","0","1","1","0","1","1","1","5","5","5","5","5","5","5","5","5","5","4","4","5","5","4","5","5","5","5","3","5","5","5","5","3","5","7","5","7","1","5","5","5","3","5","5","5","5","3","3","3","5","3","5","3","5","3","5","3","5","3","5","7","1","3","5","3","5","3","5","789952361161433089","罗","448","Female","[""好她"",""坏她"",""好我"",""坏我""]","[""强她"",""弱她"",""强我"",""弱我""]","","","","","","","","no","","","","","","","","","SRET","EW_formal","","key","j","16.666000000000036","960","536","自己","说谎","Negative","morality","","","","","","","","","","",""
"1166","","f","psychophysics","15","179970","0.0-7.0-3.0-0.1","6","6","6","6","5","5","2","4","4","4","5","0","0","1","1","0","1","1","1","5","5","5","5","5","5","5","5","5","5","4","4","5","5","4","5","5","5","5","3","5","5","5","5","3","5","7","5","7","1","5","5","5","3","5","5","5","5","3","3","3","5","3","5","3","5","3","5","3","5","3","5","7","1","3","5","3","5","3","5","789952361161433089","罗","448","Female","[""好她"",""坏她"",""好我"",""坏我""]","[""强她"",""弱她"",""强我"",""弱我""]","","","","","","","","yes","","","","","","","","","SRET","EW_formal","","key","f","16.665999999999922","960","536","朋友","务实","Positive","ability","","","","","","","","","","",""
"1328","","j","psychophysics","16","182297","0.0-7.0-3.0-0.2","6","6","6","6","5","5","2","4","4","4","5","0","0","1","1","0","1","1","1","5","5","5","5","5","5","5","5","5","5","4","4","5","5","4","5","5","5","5","3","5","5","5","5","3","5","7","5","7","1","5","5","5","3","5","5","5","5","3","3","3","5","3","5","3","5","3","5","3","5","3","5","7","1","3","5","3","5","3","5","789952361161433089","罗","448","Female","[""好她"",""坏她"",""好我"",""坏我""]","[""强她"",""弱她"",""强我"",""弱我""]","","","","","","","","no","","","","","","","","","SRET","EW_formal","","key","j","16.66599999999995","960","536","朋友","迷糊","Negative","ability","","","","","","","","","","",""
"1083","","f","psychophysics","17","184383","0.0-7.0-3.0-0.3","6","6","6","6","5","5","2","4","4","4","5","0","0","1","1","0","1","1","1","5","5","5","5","5","5","5","5","5","5","4","4","5","5","4","5","5","5","5","3","5","5","5","5","3","5","7","5","7","1","5","5","5","3","5","5","5","5","3","3","3","5","3","5","3","5","3","5","3","5","3","5","7","1","3","5","3","5","3","5","789952361161433089","罗","448","Female","[""好她"",""坏她"",""好我"",""坏我""]","[""强她"",""弱她"",""强我"",""弱我""]","","","","","","","","yes","","","","","","","","","SRET","EW_formal","","key","f","16.66600000000002","960","536","自己","坚贞","Positive","morality","","","","","","","","","","",""
"1095","","j","psychophysics","18","186481","0.0-7.0-3.0-0.4","6","6","6","6","5","5","2","4","4","4","5","0","0","1","1","0","1","1","1","5","5","5","5","5","5","5","5","5","5","4","4","5","5","4","5","5","5","5","3","5","5","5","5","3","5","7","5","7","1","5","5","5","3","5","5","5","5","3","3","3","5","3","5","3","5","3","5","3","5","3","5","7","1","3","5","3","5","3","5","789952361161433089","罗","448","Female","[""好她"",""坏她"",""好我"",""坏我""]","[""强她"",""弱她"",""强我"",""弱我""]","","","","","","","","no","","","","","","","","","SRET","EW_formal","","key","j","16.666","960","536","自己","不良","Negative","morality","","","","","","","","","","",""
"1628","","f","psychophysics","19","189112","0.0-7.0-3.0-0.5","6","6","6","6","5","5","2","4","4","4","5","0","0","1","1","0","1","1","1","5","5","5","5","5","5","5","5","5","5","4","4","5","5","4","5","5","5","5","3","5","5","5","5","3","5","7","5","7","1","5","5","5","3","5","5","5","5","3","3","3","5","3","5","3","5","3","5","3","5","3","5","7","1","3","5","3","5","3","5","789952361161433089","罗","448","Female","[""好她"",""坏她"",""好我"",""坏我""]","[""强她"",""弱她"",""强我"",""弱我""]","","","","","","","","yes","","","","","","","","","SRET","EW_formal","","key","f","16.666000000000032","960","536","朋友","短浅","Negative","ability","","","","","","","","","","",""
"932","","j","psychophysics","20","191048","0.0-7.0-3.0-0.6","6","6","6","6","5","5","2","4","4","4","5","0","0","1","1","0","1","1","1","5","5","5","5","5","5","5","5","5","5","4","4","5","5","4","5","5","5","5","3","5","5","5","5","3","5","7","5","7","1","5","5","5","3","5","5","5","5","3","3","3","5","3","5","3","5","3","5","3","5","3","5","7","1","3","5","3","5","3","5","789952361161433089","罗","448","Female","[""好她"",""坏她"",""好我"",""坏我""]","[""强她"",""弱她"",""强我"",""弱我""]","","","","","","","","no","","","","","","","","","SRET","EW_formal","","key","j","16.66599999999997","960","536","朋友","驽钝","Negative","ability","","","","","","","","","","",""
"1022","","j","psychophysics","21","193071","0.0-7.0-3.0-0.7","6","6","6","6","5","5","2","4","4","4","5","0","0","1","1","0","1","1","1","5","5","5","5","5","5","5","5","5","5","4","4","5","5","4","5","5","5","5","3","5","5","5","5","3","5","7","5","7","1","5","5","5","3","5","5","5","5","3","3","3","5","3","5","3","5","3","5","3","5","3","5","7","1","3","5","3","5","3","5","789952361161433089","罗","448","Female","[""好她"",""坏她"",""好我"",""坏我""]","[""强她"",""弱她"",""强我"",""弱我""]","","","","","","","","no","","","","","","","","","SRET","EW_formal","","key","j","16.806050420168173","960","536","朋友","龌龊","Negative","morality","","","","","","","","","","",""
"1206","","j","psychophysics","22","195279","0.0-7.0-3.0-0.8","6","6","6","6","5","5","2","4","4","4","5","0","0","1","1","0","1","1","1","5","5","5","5","5","5","5","5","5","5","4","4","5","5","4","5","5","5","5","3","5","5","5","5","3","5","7","5","7","1","5","5","5","3","5","5","5","5","3","3","3","5","3","5","3","5","3","5","3","5","3","5","7","1","3","5","3","5","3","5","789952361161433089","罗","448","Female","[""好她"",""坏她"",""好我"",""坏我""]","[""强她"",""弱她"",""强我"",""弱我""]","","","","","","","","no","","","","","","","","","SRET","EW_formal","","key","j","16.665999999999865","960","536","自己","拙笨","Negative","ability","","","","","","","","","","",""
"1468","","j","psychophysics","23","197750","0.0-7.0-3.0-0.9","6","6","6","6","5","5","2","4","4","4","5","0","0","1","1","0","1","1","1","5","5","5","5","5","5","5","5","5","5","4","4","5","5","4","5","5","5","5","3","5","5","5","5","3","5","7","5","7","1","5","5","5","3","5","5","5","5","3","3","3","5","3","5","3","5","3","5","3","5","3","5","7","1","3","5","3","5","3","5","789952361161433089","罗","448","Female","[""好她"",""坏她"",""好我"",""坏我""]","[""强她"",""弱她"",""强我"",""弱我""]","","","","","","","","no","","","","","","","","","SRET","EW_formal","","key","j","16.66600000000001","960","536","自己","学霸","Positive","ability","","","","","","","","","","",""
"1280","","j","psychophysics","24","200031","0.0-7.0-3.0-0.10","6","6","6","6","5","5","2","4","4","4","5","0","0","1","1","0","1","1","1","5","5","5","5","5","5","5","5","5","5","4","4","5","5","4","5","5","5","5","3","5","5","5","5","3","5","7","5","7","1","5","5","5","3","5","5","5","5","3","3","3","5","3","5","3","5","3","5","3","5","3","5","7","1","3","5","3","5","3","5","789952361161433089","罗","448","Female","[""好她"",""坏她"",""好我"",""坏我""]","[""强她"",""弱她"",""强我"",""弱我""]","","","","","","","","no","","","","","","","","","SRET","EW_formal","","key","j","16.666000000000007","960","536","朋友","无耻","Negative","morality","","","","","","","","","","",""
"1279","","f","psychophysics","25","202312","0.0-7.0-3.0-0.11","6","6","6","6","5","5","2","4","4","4","5","0","0","1","1","0","1","1","1","5","5","5","5","5","5","5","5","5","5","4","4","5","5","4","5","5","5","5","3","5","5","5","5","3","5","7","5","7","1","5","5","5","3","5","5","5","5","3","3","3","5","3","5","3","5","3","5","3","5","3","5","7","1","3","5","3","5","3","5","789952361161433089","罗","448","Female","[""好她"",""坏她"",""好我"",""坏我""]","[""强她"",""弱她"",""强我"",""弱我""]","","","","","","","","yes","","","","","","","","","SRET","EW_formal","","key","f","16.665999999999794","960","536","自己","谦逊","Positive","morality","","","","","","","","","","",""
"1123","","j","psychophysics","26","204439","0.0-7.0-3.0-0.12","6","6","6","6","5","5","2","4","4","4","5","0","0","1","1","0","1","1","1","5","5","5","5","5","5","5","5","5","5","4","4","5","5","4","5","5","5","5","3","5","5","5","5","3","5","7","5","7","1","5","5","5","3","5","5","5","5","3","3","3","5","3","5","3","5","3","5","3","5","3","5","7","1","3","5","3","5","3","5","789952361161433089","罗","448","Female","[""好她"",""坏她"",""好我"",""坏我""]","[""强她"",""弱她"",""强我"",""弱我""]","","","","","","","","no","","","","","","","","","SRET","EW_formal","","key","j","16.66599999999998","960","536","朋友","愚蠢","Negative","ability","","","","","","","","","","",""
"1088","","j","psychophysics","27","206529","0.0-7.0-3.0-0.13","6","6","6","6","5","5","2","4","4","4","5","0","0","1","1","0","1","1","1","5","5","5","5","5","5","5","5","5","5","4","4","5","5","4","5","5","5","5","3","5","5","5","5","3","5","7","5","7","1","5","5","5","3","5","5","5","5","3","3","3","5","3","5","3","5","3","5","3","5","3","5","7","1","3","5","3","5","3","5","789952361161433089","罗","448","Female","[""好她"",""坏她"",""好我"",""坏我""]","[""强她"",""弱她"",""强我"",""弱我""]","","","","","","","","no","","","","","","","","","SRET","EW_formal","","key","j","16.666","960","536","自己","刻苦","Positive","ability","","","","","","","","","","",""
"1146","","f","psychophysics","28","208681","0.0-7.0-3.0-0.14","6","6","6","6","5","5","2","4","4","4","5","0","0","1","1","0","1","1","1","5","5","5","5","5","5","5","5","5","5","4","4","5","5","4","5","5","5","5","3","5","5","5","5","3","5","7","5","7","1","5","5","5","3","5","5","5","5","3","3","3","5","3","5","3","5","3","5","3","5","3","5","7","1","3","5","3","5","3","5","789952361161433089","罗","448","Female","[""好她"",""坏她"",""好我"",""坏我""]","[""强她"",""弱她"",""强我"",""弱我""]","","","","","","","","yes","","","","","","","","","SRET","EW_formal","","key","f","16.66599999999994","960","536","朋友","厚道","Positive","morality","","","","","","","","","","",""
"1130","","j","psychophysics","29","210814","0.0-7.0-3.0-0.15","6","6","6","6","5","5","2","4","4","4","5","0","0","1","1","0","1","1","1","5","5","5","5","5","5","5","5","5","5","4","4","5","5","4","5","5","5","5","3","5","5","5","5","3","5","7","5","7","1","5","5","5","3","5","5","5","5","3","3","3","5","3","5","3","5","3","5","3","5","3","5","7","1","3","5","3","5","3","5","789952361161433089","罗","448","Female","[""好她"",""坏她"",""好我"",""坏我""]","[""强她"",""弱她"",""强我"",""弱我""]","","","","","","","","no","","","","","","","","","SRET","EW_formal","","key","j","16.66599999999996","960","536","自己","下流","Negative","morality","","","","","","","","","","",""
"1342","","j","psychophysics","30","213157","0.0-7.0-3.0-0.16","6","6","6","6","5","5","2","4","4","4","5","0","0","1","1","0","1","1","1","5","5","5","5","5","5","5","5","5","5","4","4","5","5","4","5","5","5","5","3","5","5","5","5","3","5","7","5","7","1","5","5","5","3","5","5","5","5","3","3","3","5","3","5","3","5","3","5","3","5","3","5","7","1","3","5","3","5","3","5","789952361161433089","罗","448","Female","[""好她"",""坏她"",""好我"",""坏我""]","[""强她"",""弱她"",""强我"",""弱我""]","","","","","","","","no","","","","","","","","","SRET","EW_formal","","key","j","16.66600000000016","960","536","朋友","邪恶","Negative","morality","","","","","","","","","","",""
"1022","","f","psychophysics","31","215181","0.0-7.0-3.0-0.17","6","6","6","6","5","5","2","4","4","4","5","0","0","1","1","0","1","1","1","5","5","5","5","5","5","5","5","5","5","4","4","5","5","4","5","5","5","5","3","5","5","5","5","3","5","7","5","7","1","5","5","5","3","5","5","5","5","3","3","3","5","3","5","3","5","3","5","3","5","3","5","7","1","3","5","3","5","3","5","789952361161433089","罗","448","Female","[""好她"",""坏她"",""好我"",""坏我""]","[""强她"",""弱她"",""强我"",""弱我""]","","","","","","","","yes","","","","","","","","","SRET","EW_formal","","key","f","16.665999999999844","960","536","自己","精干","Positive","ability","","","","","","","","","","",""
"1264","","f","psychophysics","32","217446","0.0-7.0-3.0-0.18","6","6","6","6","5","5","2","4","4","4","5","0","0","1","1","0","1","1","1","5","5","5","5","5","5","5","5","5","5","4","4","5","5","4","5","5","5","5","3","5","5","5","5","3","5","7","5","7","1","5","5","5","3","5","5","5","5","3","3","3","5","3","5","3","5","3","5","3","5","3","5","7","1","3","5","3","5","3","5","789952361161433089","罗","448","Female","[""好她"",""坏她"",""好我"",""坏我""]","[""强她"",""弱她"",""强我"",""弱我""]","","","","","","","","yes","","","","","","","","","SRET","EW_formal","","key","f","16.66599999999981","960","536","自己","变通","Positive","ability","","","","","","","","","","",""
"845","","f","psychophysics","33","219294","0.0-7.0-3.0-0.19","6","6","6","6","5","5","2","4","4","4","5","0","0","1","1","0","1","1","1","5","5","5","5","5","5","5","5","5","5","4","4","5","5","4","5","5","5","5","3","5","5","5","5","3","5","7","5","7","1","5","5","5","3","5","5","5","5","3","3","3","5","3","5","3","5","3","5","3","5","3","5","7","1","3","5","3","5","3","5","789952361161433089","罗","448","Female","[""好她"",""坏她"",""好我"",""坏我""]","[""强她"",""弱她"",""强我"",""弱我""]","","","","","","","","yes","","","","","","","","","SRET","EW_formal","","key","f","16.818899082568894","960","536","朋友","热心","Positive","morality","","","","","","","","","","",""
"1516","","j","psychophysics","34","221813","0.0-7.0-3.0-0.20","6","6","6","6","5","5","2","4","4","4","5","0","0","1","1","0","1","1","1","5","5","5","5","5","5","5","5","5","5","4","4","5","5","4","5","5","5","5","3","5","5","5","5","3","5","7","5","7","1","5","5","5","3","5","5","5","5","3","3","3","5","3","5","3","5","3","5","3","5","3","5","7","1","3","5","3","5","3","5","789952361161433089","罗","448","Female","[""好她"",""坏她"",""好我"",""坏我""]","[""强她"",""弱她"",""强我"",""弱我""]","","","","","","","","no","","","","","","","","","SRET","EW_formal","","key","j","16.66599999999996","960","536","自己","短视","Negative","ability","","","","","","","","","","",""
"null","","null","psychophysics","35","224848","0.0-7.0-3.0-0.21","6","6","6","6","5","5","2","4","4","4","5","0","0","1","1","0","1","1","1","5","5","5","5","5","5","5","5","5","5","4","4","5","5","4","5","5","5","5","3","5","5","5","5","3","5","7","5","7","1","5","5","5","3","5","5","5","5","3","3","3","5","3","5","3","5","3","5","3","5","3","5","7","1","3","5","3","5","3","5","789952361161433089","罗","448","Female","[""好她"",""坏她"",""好我"",""坏我""]","[""强她"",""弱她"",""强我"",""弱我""]","","","","","","","","","","","","","","","","","SRET","EW_formal","","key","null","16.66599999999985","960","536","朋友","全才","Positive","ability","","","","","","","","","","",""
"1050","","f","psychophysics","36","226900","0.0-7.0-3.0-0.22","6","6","6","6","5","5","2","4","4","4","5","0","0","1","1","0","1","1","1","5","5","5","5","5","5","5","5","5","5","4","4","5","5","4","5","5","5","5","3","5","5","5","5","3","5","7","5","7","1","5","5","5","3","5","5","5","5","3","3","3","5","3","5","3","5","3","5","3","5","3","5","7","1","3","5","3","5","3","5","789952361161433089","罗","448","Female","[""好她"",""坏她"",""好我"",""坏我""]","[""强她"",""弱她"",""强我"",""弱我""]","","","","","","","","yes","","","","","","","","","SRET","EW_formal","","key","f","16.665999999999823","960","536","朋友","慈悲","Positive","morality","","","","","","","","","","",""
"958","","j","psychophysics","37","228861","0.0-7.0-3.0-0.23","6","6","6","6","5","5","2","4","4","4","5","0","0","1","1","0","1","1","1","5","5","5","5","5","5","5","5","5","5","4","4","5","5","4","5","5","5","5","3","5","5","5","5","3","5","7","5","7","1","5","5","5","3","5","5","5","5","3","3","3","5","3","5","3","5","3","5","3","5","3","5","7","1","3","5","3","5","3","5","789952361161433089","罗","448","Female","[""好她"",""坏她"",""好我"",""坏我""]","[""强她"",""弱她"",""强我"",""弱我""]","","","","","","","","no","","","","","","","","","SRET","EW_formal","","key","j","16.666000000000174","960","536","朋友","奸诈","Negative","morality","","","","","","","","","","",""
"1062","","j","psychophysics","38","230926","0.0-7.0-3.0-0.24","6","6","6","6","5","5","2","4","4","4","5","0","0","1","1","0","1","1","1","5","5","5","5","5","5","5","5","5","5","4","4","5","5","4","5","5","5","5","3","5","5","5","5","3","5","7","5","7","1","5","5","5","3","5","5","5","5","3","3","3","5","3","5","3","5","3","5","3","5","3","5","7","1","3","5","3","5","3","5","789952361161433089","罗","448","Female","[""好她"",""坏她"",""好我"",""坏我""]","[""强她"",""弱她"",""强我"",""弱我""]","","","","","","","","no","","","","","","","","","SRET","EW_formal","","key","j","16.665999999999823","960","536","朋友","自私","Negative","morality","","","","","","","","","","",""
"1380","","j","psychophysics","39","233310","0.0-7.0-3.0-0.25","6","6","6","6","5","5","2","4","4","4","5","0","0","1","1","0","1","1","1","5","5","5","5","5","5","5","5","5","5","4","4","5","5","4","5","5","5","5","3","5","5","5","5","3","5","7","5","7","1","5","5","5","3","5","5","5","5","3","3","3","5","3","5","3","5","3","5","3","5","3","5","7","1","3","5","3","5","3","5","789952361161433089","罗","448","Female","[""好她"",""坏她"",""好我"",""坏我""]","[""强她"",""弱她"",""强我"",""弱我""]","","","","","","","","no","","","","","","","","","SRET","EW_formal","","key","j","16.66599999999988","960","536","自己","迟钝","Negative","ability","","","","","","","","","","",""
"1274","","j","psychophysics","40","235588","0.0-7.0-3.0-0.26","6","6","6","6","5","5","2","4","4","4","5","0","0","1","1","0","1","1","1","5","5","5","5","5","5","5","5","5","5","4","4","5","5","4","5","5","5","5","3","5","5","5","5","3","5","7","5","7","1","5","5","5","3","5","5","5","5","3","3","3","5","3","5","3","5","3","5","3","5","3","5","7","1","3","5","3","5","3","5","789952361161433089","罗","448","Female","[""好她"",""坏她"",""好我"",""坏我""]","[""强她"",""弱她"",""强我"",""弱我""]","","","","","","","","no","","","","","","","","","SRET","EW_formal","","key","j","16.666000000000025","960","536","朋友","逞强","Negative","ability","","","","","","","","","","",""
"1231","","j","psychophysics","41","237821","0.0-7.0-3.0-0.27","6","6","6","6","5","5","2","4","4","4","5","0","0","1","1","0","1","1","1","5","5","5","5","5","5","5","5","5","5","4","4","5","5","4","5","5","5","5","3","5","5","5","5","3","5","7","5","7","1","5","5","5","3","5","5","5","5","3","3","3","5","3","5","3","5","3","5","3","5","3","5","7","1","3","5","3","5","3","5","789952361161433089","罗","448","Female","[""好她"",""坏她"",""好我"",""坏我""]","[""强她"",""弱她"",""强我"",""弱我""]","","","","","","","","no","","","","","","","","","SRET","EW_formal","","key","j","16.666000000000064","960","536","自己","无为","Negative","ability","","","","","","","","","","",""
"989","","f","psychophysics","42","239812","0.0-7.0-3.0-0.28","6","6","6","6","5","5","2","4","4","4","5","0","0","1","1","0","1","1","1","5","5","5","5","5","5","5","5","5","5","4","4","5","5","4","5","5","5","5","3","5","5","5","5","3","5","7","5","7","1","5","5","5","3","5","5","5","5","3","3","3","5","3","5","3","5","3","5","3","5","3","5","7","1","3","5","3","5","3","5","789952361161433089","罗","448","Female","[""好她"",""坏她"",""好我"",""坏我""]","[""强她"",""弱她"",""强我"",""弱我""]","","","","","","","","yes","","","","","","","","","SRET","EW_formal","","key","f","16.665999999999883","960","536","自己","高效","Positive","ability","","","","","","","","","","",""
"1023","","j","psychophysics","43","241834","0.0-7.0-3.0-0.29","6","6","6","6","5","5","2","4","4","4","5","0","0","1","1","0","1","1","1","5","5","5","5","5","5","5","5","5","5","4","4","5","5","4","5","5","5","5","3","5","5","5","5","3","5","7","5","7","1","5","5","5","3","5","5","5","5","3","3","3","5","3","5","3","5","3","5","3","5","3","5","7","1","3","5","3","5","3","5","789952361161433089","罗","448","Female","[""好她"",""坏她"",""好我"",""坏我""]","[""强她"",""弱她"",""强我"",""弱我""]","","","","","","","","no","","","","","","","","","SRET","EW_formal","","key","j","16.665999999999865","960","536","朋友","拖拉","Negative","ability","","","","","","","","","","",""
"1101","","j","psychophysics","44","243937","0.0-7.0-3.0-0.30","6","6","6","6","5","5","2","4","4","4","5","0","0","1","1","0","1","1","1","5","5","5","5","5","5","5","5","5","5","4","4","5","5","4","5","5","5","5","3","5","5","5","5","3","5","7","5","7","1","5","5","5","3","5","5","5","5","3","3","3","5","3","5","3","5","3","5","3","5","3","5","7","1","3","5","3","5","3","5","789952361161433089","罗","448","Female","[""好她"",""坏她"",""好我"",""坏我""]","[""强她"",""弱她"",""强我"",""弱我""]","","","","","","","","no","","","","","","","","","SRET","EW_formal","","key","j","16.666","960","536","朋友","无知","Negative","ability","","","","","","","","","","",""
"951","","f","psychophysics","45","245890","0.0-7.0-3.0-0.31","6","6","6","6","5","5","2","4","4","4","5","0","0","1","1","0","1","1","1","5","5","5","5","5","5","5","5","5","5","4","4","5","5","4","5","5","5","5","3","5","5","5","5","3","5","7","5","7","1","5","5","5","3","5","5","5","5","3","3","3","5","3","5","3","5","3","5","3","5","3","5","7","1","3","5","3","5","3","5","789952361161433089","罗","448","Female","[""好她"",""坏她"",""好我"",""坏我""]","[""强她"",""弱她"",""强我"",""弱我""]","","","","","","","","yes","","","","","","","","","SRET","EW_formal","","key","f","16.666000000000174","960","536","朋友","守信","Positive","morality","","","","","","","","","","",""
"923","","f","psychophysics","46","247817","0.0-7.0-3.0-0.32","6","6","6","6","5","5","2","4","4","4","5","0","0","1","1","0","1","1","1","5","5","5","5","5","5","5","5","5","5","4","4","5","5","4","5","5","5","5","3","5","5","5","5","3","5","7","5","7","1","5","5","5","3","5","5","5","5","3","3","3","5","3","5","3","5","3","5","3","5","3","5","7","1","3","5","3","5","3","5","789952361161433089","罗","448","Female","[""好她"",""坏她"",""好我"",""坏我""]","[""强她"",""弱她"",""强我"",""弱我""]","","","","","","","","yes","","","","","","","","","SRET","EW_formal","","key","f","16.665999999999993","960","536","自己","忠勇","Positive","morality","","","","","","","","","","",""
"927","","f","psychophysics","47","249745","0.0-7.0-3.0-0.33","6","6","6","6","5","5","2","4","4","4","5","0","0","1","1","0","1","1","1","5","5","5","5","5","5","5","5","5","5","4","4","5","5","4","5","5","5","5","3","5","5","5","5","3","5","7","5","7","1","5","5","5","3","5","5","5","5","3","3","3","5","3","5","3","5","3","5","3","5","3","5","7","1","3","5","3","5","3","5","789952361161433089","罗","448","Female","[""好她"",""坏她"",""好我"",""坏我""]","[""强她"",""弱她"",""强我"",""弱我""]","","","","","","","","yes","","","","","","","","","SRET","EW_formal","","key","f","16.81219298245611","960","536","朋友","侠义","Positive","morality","","","","","","","","","","",""
"1053","","j","psychophysics","48","251801","0.0-7.0-3.0-0.34","6","6","6","6","5","5","2","4","4","4","5","0","0","1","1","0","1","1","1","5","5","5","5","5","5","5","5","5","5","4","4","5","5","4","5","5","5","5","3","5","5","5","5","3","5","7","5","7","1","5","5","5","3","5","5","5","5","3","3","3","5","3","5","3","5","3","5","3","5","3","5","7","1","3","5","3","5","3","5","789952361161433089","罗","448","Female","[""好她"",""坏她"",""好我"",""坏我""]","[""强她"",""弱她"",""强我"",""弱我""]","","","","","","","","no","","","","","","","","","SRET","EW_formal","","key","j","16.666000000000064","960","536","自己","失信","Negative","morality","","","","","","","","","","",""
"846","","j","psychophysics","49","253649","0.0-7.0-3.0-0.35","6","6","6","6","5","5","2","4","4","4","5","0","0","1","1","0","1","1","1","5","5","5","5","5","5","5","5","5","5","4","4","5","5","4","5","5","5","5","3","5","5","5","5","3","5","7","5","7","1","5","5","5","3","5","5","5","5","3","3","3","5","3","5","3","5","3","5","3","5","3","5","7","1","3","5","3","5","3","5","789952361161433089","罗","448","Female","[""好她"",""坏她"",""好我"",""坏我""]","[""强她"",""弱她"",""强我"",""弱我""]","","","","","","","","no","","","","","","","","","SRET","EW_formal","","key","j","16.666000000000086","960","536","自己","奸险","Negative","morality","","","","","","","","","","",""
"878","","j","psychophysics","50","255529","0.0-7.0-3.0-0.36","6","6","6","6","5","5","2","4","4","4","5","0","0","1","1","0","1","1","1","5","5","5","5","5","5","5","5","5","5","4","4","5","5","4","5","5","5","5","3","5","5","5","5","3","5","7","5","7","1","5","5","5","3","5","5","5","5","3","3","3","5","3","5","3","5","3","5","3","5","3","5","7","1","3","5","3","5","3","5","789952361161433089","罗","448","Female","[""好她"",""坏她"",""好我"",""坏我""]","[""强她"",""弱她"",""强我"",""弱我""]","","","","","","","","no","","","","","","","","","SRET","EW_formal","","key","j","16.665999999999777","960","536","自己","屈才","Negative","ability","","","","","","","","","","",""
"1037","","f","psychophysics","51","257568","0.0-7.0-3.0-0.37","6","6","6","6","5","5","2","4","4","4","5","0","0","1","1","0","1","1","1","5","5","5","5","5","5","5","5","5","5","4","4","5","5","4","5","5","5","5","3","5","5","5","5","3","5","7","5","7","1","5","5","5","3","5","5","5","5","3","3","3","5","3","5","3","5","3","5","3","5","3","5","7","1","3","5","3","5","3","5","789952361161433089","罗","448","Female","[""好她"",""坏她"",""好我"",""坏我""]","[""强她"",""弱她"",""强我"",""弱我""]","","","","","","","","yes","","","","","","","","","SRET","EW_formal","","key","f","16.804883333333176","960","536","朋友","高尚","Positive","morality","","","","","","","","","","",""
"921","","j","psychophysics","52","259490","0.0-7.0-3.0-0.38","6","6","6","6","5","5","2","4","4","4","5","0","0","1","1","0","1","1","1","5","5","5","5","5","5","5","5","5","5","4","4","5","5","4","5","5","5","5","3","5","5","5","5","3","5","7","5","7","1","5","5","5","3","5","5","5","5","3","3","3","5","3","5","3","5","3","5","3","5","3","5","7","1","3","5","3","5","3","5","789952361161433089","罗","448","Female","[""好她"",""坏她"",""好我"",""坏我""]","[""强她"",""弱她"",""强我"",""弱我""]","","","","","","","","no","","","","","","","","","SRET","EW_formal","","key","j","16.666000000000224","960","536","朋友","恶劣","Negative","morality","","","","","","","","","","",""
"1181","","f","psychophysics","53","261673","0.0-7.0-3.0-0.39","6","6","6","6","5","5","2","4","4","4","5","0","0","1","1","0","1","1","1","5","5","5","5","5","5","5","5","5","5","4","4","5","5","4","5","5","5","5","3","5","5","5","5","3","5","7","5","7","1","5","5","5","3","5","5","5","5","3","3","3","5","3","5","3","5","3","5","3","5","3","5","7","1","3","5","3","5","3","5","789952361161433089","罗","448","Female","[""好她"",""坏她"",""好我"",""坏我""]","[""强她"",""弱她"",""强我"",""弱我""]","","","","","","","","yes","","","","","","","","","SRET","EW_formal","","key","f","16.666000000000125","960","536","朋友","懂行","Positive","ability","","","","","","","","","","",""
"1204","","f","psychophysics","54","263880","0.0-7.0-3.0-0.40","6","6","6","6","5","5","2","4","4","4","5","0","0","1","1","0","1","1","1","5","5","5","5","5","5","5","5","5","5","4","4","5","5","4","5","5","5","5","3","5","5","5","5","3","5","7","5","7","1","5","5","5","3","5","5","5","5","3","3","3","5","3","5","3","5","3","5","3","5","3","5","7","1","3","5","3","5","3","5","789952361161433089","罗","448","Female","[""好她"",""坏她"",""好我"",""坏我""]","[""强她"",""弱她"",""强我"",""弱我""]","","","","","","","","yes","","","","","","","","","SRET","EW_formal","","key","f","16.665999999999883","960","536","朋友","博学","Positive","ability","","","","","","","","","","",""
"1119","","j","psychophysics","55","266001","0.0-7.0-3.0-0.41","6","6","6","6","5","5","2","4","4","4","5","0","0","1","1","0","1","1","1","5","5","5","5","5","5","5","5","5","5","4","4","5","5","4","5","5","5","5","3","5","5","5","5","3","5","7","5","7","1","5","5","5","3","5","5","5","5","3","3","3","5","3","5","3","5","3","5","3","5","3","5","7","1","3","5","3","5","3","5","789952361161433089","罗","448","Female","[""好她"",""坏她"",""好我"",""坏我""]","[""强她"",""弱她"",""强我"",""弱我""]","","","","","","","","no","","","","","","","","","SRET","EW_formal","","key","j","16.7982698412698","960","536","自己","庸碌","Negative","ability","","","","","","","","","","",""
"1222","","f","psychophysics","56","268224","0.0-7.0-3.0-0.42","6","6","6","6","5","5","2","4","4","4","5","0","0","1","1","0","1","1","1","5","5","5","5","5","5","5","5","5","5","4","4","5","5","4","5","5","5","5","3","5","5","5","5","3","5","7","5","7","1","5","5","5","3","5","5","5","5","3","3","3","5","3","5","3","5","3","5","3","5","3","5","7","1","3","5","3","5","3","5","789952361161433089","罗","448","Female","[""好她"",""坏她"",""好我"",""坏我""]","[""强她"",""弱她"",""强我"",""弱我""]","","","","","","","","yes","","","","","","","","","SRET","EW_formal","","key","f","16.666000000000086","960","536","朋友","独立","Positive","ability","","","","","","","","","","",""
"1087","","j","psychophysics","57","270312","0.0-7.0-3.0-0.43","6","6","6","6","5","5","2","4","4","4","5","0","0","1","1","0","1","1","1","5","5","5","5","5","5","5","5","5","5","4","4","5","5","4","5","5","5","5","3","5","5","5","5","3","5","7","5","7","1","5","5","5","3","5","5","5","5","3","3","3","5","3","5","3","5","3","5","3","5","3","5","7","1","3","5","3","5","3","5","789952361161433089","罗","448","Female","[""好她"",""坏她"",""好我"",""坏我""]","[""强她"",""弱她"",""强我"",""弱我""]","","","","","","","","no","","","","","","","","","SRET","EW_formal","","key","j","16.666000000000256","960","536","自己","怠惰","Negative","ability","","","","","","","","","","",""
"1397","","f","psychophysics","58","272711","0.0-7.0-3.0-0.44","6","6","6","6","5","5","2","4","4","4","5","0","0","1","1","0","1","1","1","5","5","5","5","5","5","5","5","5","5","4","4","5","5","4","5","5","5","5","3","5","5","5","5","3","5","7","5","7","1","5","5","5","3","5","5","5","5","3","3","3","5","3","5","3","5","3","5","3","5","3","5","7","1","3","5","3","5","3","5","789952361161433089","罗","448","Female","[""好她"",""坏她"",""好我"",""坏我""]","[""强她"",""弱她"",""强我"",""弱我""]","","","","","","","","yes","","","","","","","","","SRET","EW_formal","","key","f","16.783366197183184","960","536","朋友","娴熟","Positive","ability","","","","","","","","","","",""
"1454","","f","psychophysics","59","275168","0.0-7.0-3.0-0.45","6","6","6","6","5","5","2","4","4","4","5","0","0","1","1","0","1","1","1","5","5","5","5","5","5","5","5","5","5","4","4","5","5","4","5","5","5","5","3","5","5","5","5","3","5","7","5","7","1","5","5","5","3","5","5","5","5","3","3","3","5","3","5","3","5","3","5","3","5","3","5","7","1","3","5","3","5","3","5","789952361161433089","罗","448","Female","[""好她"",""坏她"",""好我"",""坏我""]","[""强她"",""弱她"",""强我"",""弱我""]","","","","","","","","yes","","","","","","","","","SRET","EW_formal","","key","f","16.66599999999983","960","536","自己","拜金","Negative","morality","","","","","","","","","","",""
"828","","f","psychophysics","60","276999","0.0-7.0-3.0-0.46","6","6","6","6","5","5","2","4","4","4","5","0","0","1","1","0","1","1","1","5","5","5","5","5","5","5","5","5","5","4","4","5","5","4","5","5","5","5","3","5","5","5","5","3","5","7","5","7","1","5","5","5","3","5","5","5","5","3","3","3","5","3","5","3","5","3","5","3","5","3","5","7","1","3","5","3","5","3","5","789952361161433089","罗","448","Female","[""好她"",""坏她"",""好我"",""坏我""]","[""强她"",""弱她"",""强我"",""弱我""]","","","","","","","","yes","","","","","","","","","SRET","EW_formal","","key","f","16.66599999999984","960","536","自己","义气","Positive","morality","","","","","","","","","","",""
"1410","","f","psychophysics","61","279411","0.0-7.0-3.0-0.47","6","6","6","6","5","5","2","4","4","4","5","0","0","1","1","0","1","1","1","5","5","5","5","5","5","5","5","5","5","4","4","5","5","4","5","5","5","5","3","5","5","5","5","3","5","7","5","7","1","5","5","5","3","5","5","5","5","3","3","3","5","3","5","3","5","3","5","3","5","3","5","7","1","3","5","3","5","3","5","789952361161433089","罗","448","Female","[""好她"",""坏她"",""好我"",""坏我""]","[""强她"",""弱她"",""强我"",""弱我""]","","","","","","","","yes","","","","","","","","","SRET","EW_formal","","key","f","16.666000000000267","960","536","朋友","爱国","Positive","morality","","","","","","","","","","",""
"1114","","j","psychophysics","62","281527","0.0-7.0-3.0-0.48","6","6","6","6","5","5","2","4","4","4","5","0","0","1","1","0","1","1","1","5","5","5","5","5","5","5","5","5","5","4","4","5","5","4","5","5","5","5","3","5","5","5","5","3","5","7","5","7","1","5","5","5","3","5","5","5","5","3","3","3","5","3","5","3","5","3","5","3","5","3","5","7","1","3","5","3","5","3","5","789952361161433089","罗","448","Female","[""好她"",""坏她"",""好我"",""坏我""]","[""强她"",""弱她"",""强我"",""弱我""]","","","","","","","","no","","","","","","","","","SRET","EW_formal","","key","j","16.799328000000212","960","536","自己","蛇蝎","Negative","morality","","","","","","","","","","",""
"1038","","j","psychophysics","63","283567","0.0-7.0-3.0-0.49","6","6","6","6","5","5","2","4","4","4","5","0","0","1","1","0","1","1","1","5","5","5","5","5","5","5","5","5","5","4","4","5","5","4","5","5","5","5","3","5","5","5","5","3","5","7","5","7","1","5","5","5","3","5","5","5","5","3","3","3","5","3","5","3","5","3","5","3","5","3","5","7","1","3","5","3","5","3","5","789952361161433089","罗","448","Female","[""好她"",""坏她"",""好我"",""坏我""]","[""强她"",""弱她"",""强我"",""弱我""]","","","","","","","","no","","","","","","","","","SRET","EW_formal","","key","j","16.666000000000086","960","536","自己","差生","Negative","ability","","","","","","","","","","",""
"1384","","f","psychophysics","64","285959","0.0-7.0-3.0-0.50","6","6","6","6","5","5","2","4","4","4","5","0","0","1","1","0","1","1","1","5","5","5","5","5","5","5","5","5","5","4","4","5","5","4","5","5","5","5","3","5","5","5","5","3","5","7","5","7","1","5","5","5","3","5","5","5","5","3","3","3","5","3","5","3","5","3","5","3","5","3","5","7","1","3","5","3","5","3","5","789952361161433089","罗","448","Female","[""好她"",""坏她"",""好我"",""坏我""]","[""强她"",""弱她"",""强我"",""弱我""]","","","","","","","","yes","","","","","","","","","SRET","EW_formal","","key","f","16.666000000000086","960","536","朋友","肯干","Positive","ability","","","","","","","","","","",""
"797","","f","psychophysics","65","287758","0.0-7.0-3.0-0.51","6","6","6","6","5","5","2","4","4","4","5","0","0","1","1","0","1","1","1","5","5","5","5","5","5","5","5","5","5","4","4","5","5","4","5","5","5","5","3","5","5","5","5","3","5","7","5","7","1","5","5","5","3","5","5","5","5","3","3","3","5","3","5","3","5","3","5","3","5","3","5","7","1","3","5","3","5","3","5","789952361161433089","罗","448","Female","[""好她"",""坏她"",""好我"",""坏我""]","[""强她"",""弱她"",""强我"",""弱我""]","","","","","","","","yes","","","","","","","","","SRET","EW_formal","","key","f","16.665999999999887","960","536","朋友","聪明","Positive","ability","","","","","","","","","","",""
"1022","","j","psychophysics","66","289782","0.0-7.0-3.0-0.52","6","6","6","6","5","5","2","4","4","4","5","0","0","1","1","0","1","1","1","5","5","5","5","5","5","5","5","5","5","4","4","5","5","4","5","5","5","5","3","5","5","5","5","3","5","7","5","7","1","5","5","5","3","5","5","5","5","3","3","3","5","3","5","3","5","3","5","3","5","3","5","7","1","3","5","3","5","3","5","789952361161433089","罗","448","Female","[""好她"",""坏她"",""好我"",""坏我""]","[""强她"",""弱她"",""强我"",""弱我""]","","","","","","","","no","","","","","","","","","SRET","EW_formal","","key","j","16.665999999999865","960","536","自己","笨蛋","Negative","ability","","","","","","","","","","",""
"1190","","f","psychophysics","67","291974","0.0-7.0-3.0-0.53","6","6","6","6","5","5","2","4","4","4","5","0","0","1","1","0","1","1","1","5","5","5","5","5","5","5","5","5","5","4","4","5","5","4","5","5","5","5","3","5","5","5","5","3","5","7","5","7","1","5","5","5","3","5","5","5","5","3","3","3","5","3","5","3","5","3","5","3","5","3","5","7","1","3","5","3","5","3","5","789952361161433089","罗","448","Female","[""好她"",""坏她"",""好我"",""坏我""]","[""强她"",""弱她"",""强我"",""弱我""]","","","","","","","","yes","","","","","","","","","SRET","EW_formal","","key","f","16.794199999999883","960","536","自己","孝顺","Positive","morality","","","","","","","","","","",""
"950","","f","psychophysics","68","293927","0.0-7.0-3.0-0.54","6","6","6","6","5","5","2","4","4","4","5","0","0","1","1","0","1","1","1","5","5","5","5","5","5","5","5","5","5","4","4","5","5","4","5","5","5","5","3","5","5","5","5","3","5","7","5","7","1","5","5","5","3","5","5","5","5","3","3","3","5","3","5","3","5","3","5","3","5","3","5","7","1","3","5","3","5","3","5","789952361161433089","罗","448","Female","[""好她"",""坏她"",""好我"",""坏我""]","[""强她"",""弱她"",""强我"",""弱我""]","","","","","","","","yes","","","","","","","","","SRET","EW_formal","","key","f","16.665999999999947","960","536","自己","廉正","Positive","morality","","","","","","","","","","",""
"733","","f","psychophysics","69","295663","0.0-7.0-3.0-0.55","6","6","6","6","5","5","2","4","4","4","5","0","0","1","1","0","1","1","1","5","5","5","5","5","5","5","5","5","5","4","4","5","5","4","5","5","5","5","3","5","5","5","5","3","5","7","5","7","1","5","5","5","3","5","5","5","5","3","3","3","5","3","5","3","5","3","5","3","5","3","5","7","1","3","5","3","5","3","5","789952361161433089","罗","448","Female","[""好她"",""坏她"",""好我"",""坏我""]","[""强她"",""弱她"",""强我"",""弱我""]","","","","","","","","yes","","","","","","","","","SRET","EW_formal","","key","f","16.665999999999983","960","536","自己","自律","Positive","ability","","","","","","","","","","",""
"917","","f","psychophysics","70","297582","0.0-7.0-3.0-0.56","6","6","6","6","5","5","2","4","4","4","5","0","0","1","1","0","1","1","1","5","5","5","5","5","5","5","5","5","5","4","4","5","5","4","5","5","5","5","3","5","5","5","5","3","5","7","5","7","1","5","5","5","3","5","5","5","5","3","3","3","5","3","5","3","5","3","5","3","5","3","5","7","1","3","5","3","5","3","5","789952361161433089","罗","448","Female","[""好她"",""坏她"",""好我"",""坏我""]","[""强她"",""弱她"",""强我"",""弱我""]","","","","","","","","yes","","","","","","","","","SRET","EW_formal","","key","f","16.665999999999993","960","536","自己","思辨","Positive","ability","","","","","","","","","","",""
"830","","f","psychophysics","71","299414","0.0-7.0-3.0-0.57","6","6","6","6","5","5","2","4","4","4","5","0","0","1","1","0","1","1","1","5","5","5","5","5","5","5","5","5","5","4","4","5","5","4","5","5","5","5","3","5","5","5","5","3","5","7","5","7","1","5","5","5","3","5","5","5","5","3","3","3","5","3","5","3","5","3","5","3","5","3","5","7","1","3","5","3","5","3","5","789952361161433089","罗","448","Female","[""好她"",""坏她"",""好我"",""坏我""]","[""强她"",""弱她"",""强我"",""弱我""]","","","","","","","","yes","","","","","","","","","SRET","EW_formal","","key","f","16.666000000000377","960","536","自己","高明","Positive","ability","","","","","","","","","","",""
"974","","j","psychophysics","72","301388","0.0-7.0-3.0-0.58","6","6","6","6","5","5","2","4","4","4","5","0","0","1","1","0","1","1","1","5","5","5","5","5","5","5","5","5","5","4","4","5","5","4","5","5","5","5","3","5","5","5","5","3","5","7","5","7","1","5","5","5","3","5","5","5","5","3","3","3","5","3","5","3","5","3","5","3","5","3","5","7","1","3","5","3","5","3","5","789952361161433089","罗","448","Female","[""好她"",""坏她"",""好我"",""坏我""]","[""强她"",""弱她"",""强我"",""弱我""]","","","","","","","","no","","","","","","","","","SRET","EW_formal","","key","j","16.665999999999904","960","536","自己","贪污","Negative","morality","","","","","","","","","","",""
"1072","","f","psychophysics","73","303461","0.0-7.0-3.0-0.59","6","6","6","6","5","5","2","4","4","4","5","0","0","1","1","0","1","1","1","5","5","5","5","5","5","5","5","5","5","4","4","5","5","4","5","5","5","5","3","5","5","5","5","3","5","7","5","7","1","5","5","5","3","5","5","5","5","3","3","3","5","3","5","3","5","3","5","3","5","3","5","7","1","3","5","3","5","3","5","789952361161433089","罗","448","Female","[""好她"",""坏她"",""好我"",""坏我""]","[""强她"",""弱她"",""强我"",""弱我""]","","","","","","","","yes","","","","","","","","","SRET","EW_formal","","key","f","16.666000000000043","960","536","朋友","坦荡","Positive","morality","","","","","","","","","","",""
"1068","","j","psychophysics","74","305531","0.0-7.0-3.0-0.60","6","6","6","6","5","5","2","4","4","4","5","0","0","1","1","0","1","1","1","5","5","5","5","5","5","5","5","5","5","4","4","5","5","4","5","5","5","5","3","5","5","5","5","3","5","7","5","7","1","5","5","5","3","5","5","5","5","3","3","3","5","3","5","3","5","3","5","3","5","3","5","7","1","3","5","3","5","3","5","789952361161433089","罗","448","Female","[""好她"",""坏她"",""好我"",""坏我""]","[""强她"",""弱她"",""强我"",""弱我""]","","","","","","","","no","","","","","","","","","SRET","EW_formal","","key","j","16.666000000000043","960","536","朋友","狡诈","Negative","morality","","","","","","","","","","",""
"752","","f","psychophysics","75","307286","0.0-7.0-3.0-0.61","6","6","6","6","5","5","2","4","4","4","5","0","0","1","1","0","1","1","1","5","5","5","5","5","5","5","5","5","5","4","4","5","5","4","5","5","5","5","3","5","5","5","5","3","5","7","5","7","1","5","5","5","3","5","5","5","5","3","3","3","5","3","5","3","5","3","5","3","5","3","5","7","1","3","5","3","5","3","5","789952361161433089","罗","448","Female","[""好她"",""坏她"",""好我"",""坏我""]","[""强她"",""弱她"",""强我"",""弱我""]","","","","","","","","yes","","","","","","","","","SRET","EW_formal","","key","f","16.665999999999933","960","536","自己","君子","Positive","morality","","","","","","","","","","",""
"1634","","f","psychophysics","76","309923","0.0-7.0-3.0-0.62","6","6","6","6","5","5","2","4","4","4","5","0","0","1","1","0","1","1","1","5","5","5","5","5","5","5","5","5","5","4","4","5","5","4","5","5","5","5","3","5","5","5","5","3","5","7","5","7","1","5","5","5","3","5","5","5","5","3","3","3","5","3","5","3","5","3","5","3","5","3","5","7","1","3","5","3","5","3","5","789952361161433089","罗","448","Female","[""好她"",""坏她"",""好我"",""坏我""]","[""强她"",""弱她"",""强我"",""弱我""]","","","","","","","","yes","","","","","","","","","SRET","EW_formal","","key","f","16.66600000000022","960","536","自己","无私","Positive","morality","","","","","","","","","","",""
"1246","","j","psychophysics","77","312171","0.0-7.0-3.0-0.63","6","6","6","6","5","5","2","4","4","4","5","0","0","1","1","0","1","1","1","5","5","5","5","5","5","5","5","5","5","4","4","5","5","4","5","5","5","5","3","5","5","5","5","3","5","7","5","7","1","5","5","5","3","5","5","5","5","3","3","3","5","3","5","3","5","3","5","3","5","3","5","7","1","3","5","3","5","3","5","789952361161433089","罗","448","Female","[""好她"",""坏她"",""好我"",""坏我""]","[""强她"",""弱她"",""强我"",""弱我""]","","","","","","","","no","","","","","","","","","SRET","EW_formal","","key","j","16.666000000000047","960","536","朋友","势利","Negative","morality","","","","","","","","","","",""
"1055","","f","psychophysics","78","314227","0.0-7.0-3.0-0.64","6","6","6","6","5","5","2","4","4","4","5","0","0","1","1","0","1","1","1","5","5","5","5","5","5","5","5","5","5","4","4","5","5","4","5","5","5","5","3","5","5","5","5","3","5","7","5","7","1","5","5","5","3","5","5","5","5","3","3","3","5","3","5","3","5","3","5","3","5","3","5","7","1","3","5","3","5","3","5","789952361161433089","罗","448","Female","[""好她"",""坏她"",""好我"",""坏我""]","[""强她"",""弱她"",""强我"",""弱我""]","","","","","","","","yes","","","","","","","","","SRET","EW_formal","","key","f","16.665999999999823","960","536","朋友","仁爱","Positive","morality","","","","","","","","","","",""
"1183","","j","psychophysics","79","316411","0.0-7.0-3.0-0.65","6","6","6","6","5","5","2","4","4","4","5","0","0","1","1","0","1","1","1","5","5","5","5","5","5","5","5","5","5","4","4","5","5","4","5","5","5","5","3","5","5","5","5","3","5","7","5","7","1","5","5","5","3","5","5","5","5","3","3","3","5","3","5","3","5","3","5","3","5","3","5","7","1","3","5","3","5","3","5","789952361161433089","罗","448","Female","[""好她"",""坏她"",""好我"",""坏我""]","[""强她"",""弱她"",""强我"",""弱我""]","","","","","","","","no","","","","","","","","","SRET","EW_formal","","key","j","16.665999999999677","960","536","自己","不仁","Negative","morality","","","","","","","","","","",""
"1638","","j","psychophysics","80","319051","0.0-7.0-3.0-0.66","6","6","6","6","5","5","2","4","4","4","5","0","0","1","1","0","1","1","1","5","5","5","5","5","5","5","5","5","5","4","4","5","5","4","5","5","5","5","3","5","5","5","5","3","5","7","5","7","1","5","5","5","3","5","5","5","5","3","3","3","5","3","5","3","5","3","5","3","5","3","5","7","1","3","5","3","5","3","5","789952361161433089","罗","448","Female","[""好她"",""坏她"",""好我"",""坏我""]","[""强她"",""弱她"",""强我"",""弱我""]","","","","","","","","no","","","","","","","","","SRET","EW_formal","","key","j","16.666000000000018","960","536","自己","粗心","Negative","ability","","","","","","","","","","",""
"1267","","f","psychophysics","81","321322","0.0-7.0-3.0-0.67","6","6","6","6","5","5","2","4","4","4","5","0","0","1","1","0","1","1","1","5","5","5","5","5","5","5","5","5","5","4","4","5","5","4","5","5","5","5","3","5","5","5","5","3","5","7","5","7","1","5","5","5","3","5","5","5","5","3","3","3","5","3","5","3","5","3","5","3","5","3","5","7","1","3","5","3","5","3","5","789952361161433089","罗","448","Female","[""好她"",""坏她"",""好我"",""坏我""]","[""强她"",""弱她"",""强我"",""弱我""]","","","","","","","","yes","","","","","","","","","SRET","EW_formal","","key","f","16.66599999999981","960","536","朋友","果断","Positive","ability","","","","","","","","","","",""
"999","","f","psychophysics","82","323324","0.0-7.0-3.0-0.68","6","6","6","6","5","5","2","4","4","4","5","0","0","1","1","0","1","1","1","5","5","5","5","5","5","5","5","5","5","4","4","5","5","4","5","5","5","5","3","5","5","5","5","3","5","7","5","7","1","5","5","5","3","5","5","5","5","3","3","3","5","3","5","3","5","3","5","3","5","3","5","7","1","3","5","3","5","3","5","789952361161433089","罗","448","Female","[""好她"",""坏她"",""好我"",""坏我""]","[""强她"",""弱她"",""强我"",""弱我""]","","","","","","","","yes","","","","","","","","","SRET","EW_formal","","key","f","16.66600000000013","960","536","朋友","清廉","Positive","morality","","","","","","","","","","",""
"1068","","j","psychophysics","83","325394","0.0-7.0-3.0-0.69","6","6","6","6","5","5","2","4","4","4","5","0","0","1","1","0","1","1","1","5","5","5","5","5","5","5","5","5","5","4","4","5","5","4","5","5","5","5","3","5","5","5","5","3","5","7","5","7","1","5","5","5","3","5","5","5","5","3","3","3","5","3","5","3","5","3","5","3","5","3","5","7","1","3","5","3","5","3","5","789952361161433089","罗","448","Female","[""好她"",""坏她"",""好我"",""坏我""]","[""强她"",""弱她"",""强我"",""弱我""]","","","","","","","","no","","","","","","","","","SRET","EW_formal","","key","j","16.666000000000043","960","536","朋友","无能","Negative","ability","","","","","","","","","","",""
"1375","","j","psychophysics","84","327770","0.0-7.0-3.0-0.70","6","6","6","6","5","5","2","4","4","4","5","0","0","1","1","0","1","1","1","5","5","5","5","5","5","5","5","5","5","4","4","5","5","4","5","5","5","5","3","5","5","5","5","3","5","7","5","7","1","5","5","5","3","5","5","5","5","3","3","3","5","3","5","3","5","3","5","3","5","3","5","7","1","3","5","3","5","3","5","789952361161433089","罗","448","Female","[""好她"",""坏她"",""好我"",""坏我""]","[""强她"",""弱她"",""强我"",""弱我""]","","","","","","","","no","","","","","","","","","SRET","EW_formal","","key","j","16.665999999999897","960","536","自己","无敌","Positive","ability","","","","","","","","","","",""
"939","","f","psychophysics","85","329715","0.0-7.0-3.0-0.71","6","6","6","6","5","5","2","4","4","4","5","0","0","1","1","0","1","1","1","5","5","5","5","5","5","5","5","5","5","4","4","5","5","4","5","5","5","5","3","5","5","5","5","3","5","7","5","7","1","5","5","5","3","5","5","5","5","3","3","3","5","3","5","3","5","3","5","3","5","3","5","7","1","3","5","3","5","3","5","789952361161433089","罗","448","Female","[""好她"",""坏她"",""好我"",""坏我""]","[""强她"",""弱她"",""强我"",""弱我""]","","","","","","","","yes","","","","","","","","","SRET","EW_formal","","key","f","16.666000000000224","960","536","自己","利己","Negative","morality","","","","","","","","","","",""
"940","","f","psychophysics","86","331658","0.0-7.0-3.0-0.72","6","6","6","6","5","5","2","4","4","4","5","0","0","1","1","0","1","1","1","5","5","5","5","5","5","5","5","5","5","4","4","5","5","4","5","5","5","5","3","5","5","5","5","3","5","7","5","7","1","5","5","5","3","5","5","5","5","3","3","3","5","3","5","3","5","3","5","3","5","3","5","7","1","3","5","3","5","3","5","789952361161433089","罗","448","Female","[""好她"",""坏她"",""好我"",""坏我""]","[""强她"",""弱她"",""强我"",""弱我""]","","","","","","","","yes","","","","","","","","","SRET","EW_formal","","key","f","16.665999999999947","960","536","朋友","干练","Positive","ability","","","","","","","","","","",""
"1022","","j","psychophysics","87","333683","0.0-7.0-3.0-0.73","6","6","6","6","5","5","2","4","4","4","5","0","0","1","1","0","1","1","1","5","5","5","5","5","5","5","5","5","5","4","4","5","5","4","5","5","5","5","3","5","5","5","5","3","5","7","5","7","1","5","5","5","3","5","5","5","5","3","3","3","5","3","5","3","5","3","5","3","5","3","5","7","1","3","5","3","5","3","5","789952361161433089","罗","448","Female","[""好她"",""坏她"",""好我"",""坏我""]","[""强她"",""弱她"",""强我"",""弱我""]","","","","","","","","no","","","","","","","","","SRET","EW_formal","","key","j","16.666000000000086","960","536","朋友","业余","Negative","ability","","","","","","","","","","",""
"916","","j","psychophysics","88","335602","0.0-7.0-3.0-0.74","6","6","6","6","5","5","2","4","4","4","5","0","0","1","1","0","1","1","1","5","5","5","5","5","5","5","5","5","5","4","4","5","5","4","5","5","5","5","3","5","5","5","5","3","5","7","5","7","1","5","5","5","3","5","5","5","5","3","3","3","5","3","5","3","5","3","5","3","5","3","5","7","1","3","5","3","5","3","5","789952361161433089","罗","448","Female","[""好她"",""坏她"",""好我"",""坏我""]","[""强她"",""弱她"",""强我"",""弱我""]","","","","","","","","no","","","","","","","","","SRET","EW_formal","","key","j","16.665999999999993","960","536","朋友","小人","Negative","morality","","","","","","","","","","",""
"926","","f","psychophysics","89","337529","0.0-7.0-3.0-0.75","6","6","6","6","5","5","2","4","4","4","5","0","0","1","1","0","1","1","1","5","5","5","5","5","5","5","5","5","5","4","4","5","5","4","5","5","5","5","3","5","5","5","5","3","5","7","5","7","1","5","5","5","3","5","5","5","5","3","3","3","5","3","5","3","5","3","5","3","5","3","5","7","1","3","5","3","5","3","5","789952361161433089","罗","448","Female","[""好她"",""坏她"",""好我"",""坏我""]","[""强她"",""弱她"",""强我"",""弱我""]","","","","","","","","yes","","","","","","","","","SRET","EW_formal","","key","f","16.665999999999993","960","536","自己","稳健","Positive","ability","","","","","","","","","","",""
"813","","f","psychophysics","90","339345","0.0-7.0-3.0-0.76","6","6","6","6","5","5","2","4","4","4","5","0","0","1","1","0","1","1","1","5","5","5","5","5","5","5","5","5","5","4","4","5","5","4","5","5","5","5","3","5","5","5","5","3","5","7","5","7","1","5","5","5","3","5","5","5","5","3","3","3","5","3","5","3","5","3","5","3","5","3","5","7","1","3","5","3","5","3","5","789952361161433089","罗","448","Female","[""好她"",""坏她"",""好我"",""坏我""]","[""强她"",""弱她"",""强我"",""弱我""]","","","","","","","","yes","","","","","","","","","SRET","EW_formal","","key","f","16.666000000000135","960","536","自己","刚正","Positive","morality","","","","","","","","","","",""
"870","","j","psychophysics","91","341219","0.0-7.0-3.0-0.77","6","6","6","6","5","5","2","4","4","4","5","0","0","1","1","0","1","1","1","5","5","5","5","5","5","5","5","5","5","4","4","5","5","4","5","5","5","5","3","5","5","5","5","3","5","7","5","7","1","5","5","5","3","5","5","5","5","3","3","3","5","3","5","3","5","3","5","3","5","3","5","7","1","3","5","3","5","3","5","789952361161433089","罗","448","Female","[""好她"",""坏她"",""好我"",""坏我""]","[""强她"",""弱她"",""强我"",""弱我""]","","","","","","","","no","","","","","","","","","SRET","EW_formal","","key","j","16.665999999999517","960","536","自己","混账","Negative","morality","","","","","","","","","","",""
"1062","","f","psychophysics","92","343282","0.0-7.0-3.0-0.78","6","6","6","6","5","5","2","4","4","4","5","0","0","1","1","0","1","1","1","5","5","5","5","5","5","5","5","5","5","4","4","5","5","4","5","5","5","5","3","5","5","5","5","3","5","7","5","7","1","5","5","5","3","5","5","5","5","3","3","3","5","3","5","3","5","3","5","3","5","3","5","7","1","3","5","3","5","3","5","789952361161433089","罗","448","Female","[""好她"",""坏她"",""好我"",""坏我""]","[""强她"",""弱她"",""强我"",""弱我""]","","","","","","","","yes","","","","","","","","","SRET","EW_formal","","key","f","16.666000000000043","960","536","朋友","细心","Positive","ability","","","","","","","","","","",""
"1877","","f","psychophysics","93","346162","0.0-7.0-3.0-0.79","6","6","6","6","5","5","2","4","4","4","5","0","0","1","1","0","1","1","1","5","5","5","5","5","5","5","5","5","5","4","4","5","5","4","5","5","5","5","3","5","5","5","5","3","5","7","5","7","1","5","5","5","3","5","5","5","5","3","3","3","5","3","5","3","5","3","5","3","5","3","5","7","1","3","5","3","5","3","5","789952361161433089","罗","448","Female","[""好她"",""坏她"",""好我"",""坏我""]","[""强她"",""弱她"",""强我"",""弱我""]","","","","","","","","yes","","","","","","","","","SRET","EW_formal","","key","f","16.66600000000033","960","536","朋友","独断","Negative","ability","","","","","","","","","","",""
"763","","f","psychophysics","94","347929","0.0-7.0-3.0-0.80","6","6","6","6","5","5","2","4","4","4","5","0","0","1","1","0","1","1","1","5","5","5","5","5","5","5","5","5","5","4","4","5","5","4","5","5","5","5","3","5","5","5","5","3","5","7","5","7","1","5","5","5","3","5","5","5","5","3","3","3","5","3","5","3","5","3","5","3","5","3","5","7","1","3","5","3","5","3","5","789952361161433089","罗","448","Female","[""好她"",""坏她"",""好我"",""坏我""]","[""强她"",""弱她"",""强我"",""弱我""]","","","","","","","","yes","","","","","","","","","SRET","EW_formal","","key","f","16.665999999999933","960","536","自己","慷慨","Positive","morality","","","","","","","","","","",""
"741","","j","psychophysics","95","349673","0.0-7.0-3.0-0.81","6","6","6","6","5","5","2","4","4","4","5","0","0","1","1","0","1","1","1","5","5","5","5","5","5","5","5","5","5","4","4","5","5","4","5","5","5","5","3","5","5","5","5","3","5","7","5","7","1","5","5","5","3","5","5","5","5","3","3","3","5","3","5","3","5","3","5","3","5","3","5","7","1","3","5","3","5","3","5","789952361161433089","罗","448","Female","[""好她"",""坏她"",""好我"",""坏我""]","[""强她"",""弱她"",""强我"",""弱我""]","","","","","","","","no","","","","","","","","","SRET","EW_formal","","key","j","16.827805825242393","960","536","朋友","诡诈","Negative","morality","","","","","","","","","","",""
"966","","f","psychophysics","96","351641","0.0-7.0-3.0-0.82","6","6","6","6","5","5","2","4","4","4","5","0","0","1","1","0","1","1","1","5","5","5","5","5","5","5","5","5","5","4","4","5","5","4","5","5","5","5","3","5","5","5","5","3","5","7","5","7","1","5","5","5","3","5","5","5","5","3","3","3","5","3","5","3","5","3","5","3","5","3","5","7","1","3","5","3","5","3","5","789952361161433089","罗","448","Female","[""好她"",""坏她"",""好我"",""坏我""]","[""强她"",""弱她"",""强我"",""弱我""]","","","","","","","","yes","","","","","","","","","SRET","EW_formal","","key","f","16.665999999999677","960","536","自己","仁厚","Positive","morality","","","","","","","","","","",""
"1223","","j","psychophysics","97","353866","0.0-7.0-3.0-0.83","6","6","6","6","5","5","2","4","4","4","5","0","0","1","1","0","1","1","1","5","5","5","5","5","5","5","5","5","5","4","4","5","5","4","5","5","5","5","3","5","5","5","5","3","5","7","5","7","1","5","5","5","3","5","5","5","5","3","3","3","5","3","5","3","5","3","5","3","5","3","5","7","1","3","5","3","5","3","5","789952361161433089","罗","448","Female","[""好她"",""坏她"",""好我"",""坏我""]","[""强她"",""弱她"",""强我"",""弱我""]","","","","","","","","no","","","","","","","","","SRET","EW_formal","","key","j","16.79225757575742","960","536","朋友","无助","Negative","ability","","","","","","","","","","",""
"858","","f","psychophysics","98","355728","0.0-7.0-3.0-0.84","6","6","6","6","5","5","2","4","4","4","5","0","0","1","1","0","1","1","1","5","5","5","5","5","5","5","5","5","5","4","4","5","5","4","5","5","5","5","3","5","5","5","5","3","5","7","5","7","1","5","5","5","3","5","5","5","5","3","3","3","5","3","5","3","5","3","5","3","5","3","5","7","1","3","5","3","5","3","5","789952361161433089","罗","448","Female","[""好她"",""坏她"",""好我"",""坏我""]","[""强她"",""弱她"",""强我"",""弱我""]","","","","","","","","yes","","","","","","","","","SRET","EW_formal","","key","f","16.666000000000086","960","536","朋友","素养","Positive","morality","","","","","","","","","","",""
"950","","f","psychophysics","99","357682","0.0-7.0-3.0-0.85","6","6","6","6","5","5","2","4","4","4","5","0","0","1","1","0","1","1","1","5","5","5","5","5","5","5","5","5","5","4","4","5","5","4","5","5","5","5","3","5","5","5","5","3","5","7","5","7","1","5","5","5","3","5","5","5","5","3","3","3","5","3","5","3","5","3","5","3","5","3","5","7","1","3","5","3","5","3","5","789952361161433089","罗","448","Female","[""好她"",""坏她"",""好我"",""坏我""]","[""强她"",""弱她"",""强我"",""弱我""]","","","","","","","","yes","","","","","","","","","SRET","EW_formal","","key","f","16.666000000000174","960","536","自己","主见","Positive","ability","","","","","","","","","","",""
"840","","j","psychophysics","100","359528","0.0-7.0-3.0-0.86","6","6","6","6","5","5","2","4","4","4","5","0","0","1","1","0","1","1","1","5","5","5","5","5","5","5","5","5","5","4","4","5","5","4","5","5","5","5","3","5","5","5","5","3","5","7","5","7","1","5","5","5","3","5","5","5","5","3","3","3","5","3","5","3","5","3","5","3","5","3","5","7","1","3","5","3","5","3","5","789952361161433089","罗","448","Female","[""好她"",""坏她"",""好我"",""坏我""]","[""强她"",""弱她"",""强我"",""弱我""]","","","","","","","","no","","","","","","","","","SRET","EW_formal","","key","j","16.666000000000377","960","536","朋友","低俗","Negative","morality","","","","","","","","","","",""
"1044","","j","psychophysics","101","361573","0.0-7.0-3.0-0.87","6","6","6","6","5","5","2","4","4","4","5","0","0","1","1","0","1","1","1","5","5","5","5","5","5","5","5","5","5","4","4","5","5","4","5","5","5","5","3","5","5","5","5","3","5","7","5","7","1","5","5","5","3","5","5","5","5","3","3","3","5","3","5","3","5","3","5","3","5","3","5","7","1","3","5","3","5","3","5","789952361161433089","罗","448","Female","[""好她"",""坏她"",""好我"",""坏我""]","[""强她"",""弱她"",""强我"",""弱我""]","","","","","","","","no","","","","","","","","","SRET","EW_formal","","key","j","16.666000000000302","960","536","自己","缓慢","Negative","ability","","","","","","","","","","",""
"11083","
    <p><div style='color:white;font-size:35px; line-height:20px;'>计算任务</div></p><br>
    <p><div style='color:red;font-size:25px; line-height:20px;'>接下来，您将看到一些四则运算题，<b>请从键盘选择 0-9 进行反应。</b></div></p>
    <p><div style='color:red;font-size:25px; line-height:20px;'>请尽可能快地进行计算，计算的速度和正确率将影响报酬的发放。</div></p>
    <p><div class='footer' style='color:white;font-size:25px; line-height:20px;'>如果对本实验还有不清楚之处，请立即向实验员咨询。</p><p style='color:white;font-size:25px; line-height:20px;'>如果您明白了规则：</p><p style='color:white;font-size:22px; line-height:20px;'>请按 继续 进入练习</p>
    </div>
    ","0","html-button-response","102","372657","0.0-7.0-4.0","6","6","6","6","5","5","2","4","4","4","5","0","0","1","1","0","1","1","1","5","5","5","5","5","5","5","5","5","5","4","4","5","5","4","5","5","5","5","3","5","5","5","5","3","5","7","5","7","1","5","5","5","3","5","5","5","5","3","3","3","5","3","5","3","5","3","5","3","5","3","5","7","1","3","5","3","5","3","5","789952361161433089","罗","448","Female","[""好她"",""坏她"",""好我"",""坏我""]","[""强她"",""弱她"",""强我"",""弱我""]","","","","","","","","","","","","","","","","","SRET_math","math_instructions","Mon Jan 29 2024 10:42:44 GMT+0800 (中国标准时间)","","","","","","","","","","","","","","","","","","","",""
"1848","","3","psychophysics","103","374509","0.0-7.0-5.0-0.0","6","6","6","6","5","5","2","4","4","4","5","0","0","1","1","0","1","1","1","5","5","5","5","5","5","5","5","5","5","4","4","5","5","4","5","5","5","5","3","5","5","5","5","3","5","7","5","7","1","5","5","5","3","5","5","5","5","3","3","3","5","3","5","3","5","3","5","3","5","3","5","7","1","3","5","3","5","3","5","789952361161433089","罗","448","Female","[""好她"",""坏她"",""好我"",""坏我""]","[""强她"",""弱她"",""强我"",""弱我""]","","","","","","","","3","","","","","","","","","SRET","SRET_math_calculate","","key","3","16.666000000000036","960","536","","","","","3+0= ?","3","1","","","","","","","",""
"2226","","3","psychophysics","104","376741","0.0-7.0-5.0-0.1","6","6","6","6","5","5","2","4","4","4","5","0","0","1","1","0","1","1","1","5","5","5","5","5","5","5","5","5","5","4","4","5","5","4","5","5","5","5","3","5","5","5","5","3","5","7","5","7","1","5","5","5","3","5","5","5","5","3","3","3","5","3","5","3","5","3","5","3","5","3","5","7","1","3","5","3","5","3","5","789952361161433089","罗","448","Female","[""好她"",""坏她"",""好我"",""坏我""]","[""强她"",""弱她"",""强我"",""弱我""]","","","","","","","","3","","","","","","","","","SRET","SRET_math_calculate","","key","3","16.665999999999848","960","536","","","","","12/4= ?","3","1","","","","","","","",""
"2290","","9","psychophysics","105","379036","0.0-7.0-5.0-0.2","6","6","6","6","5","5","2","4","4","4","5","0","0","1","1","0","1","1","1","5","5","5","5","5","5","5","5","5","5","4","4","5","5","4","5","5","5","5","3","5","5","5","5","3","5","7","5","7","1","5","5","5","3","5","5","5","5","3","3","3","5","3","5","3","5","3","5","3","5","3","5","7","1","3","5","3","5","3","5","789952361161433089","罗","448","Female","[""好她"",""坏她"",""好我"",""坏我""]","[""强她"",""弱她"",""强我"",""弱我""]","","","","","","","","9","","","","","","","","","SRET","SRET_math_calculate","","key","9","16.666000000000007","960","536","","","","","1+8= ?","9","1","","","","","","","",""
"2045","","3","psychophysics","106","381084","0.0-7.0-5.0-0.3","6","6","6","6","5","5","2","4","4","4","5","0","0","1","1","0","1","1","1","5","5","5","5","5","5","5","5","5","5","4","4","5","5","4","5","5","5","5","3","5","5","5","5","3","5","7","5","7","1","5","5","5","3","5","5","5","5","3","3","3","5","3","5","3","5","3","5","3","5","3","5","7","1","3","5","3","5","3","5","789952361161433089","罗","448","Female","[""好她"",""坏她"",""好我"",""坏我""]","[""强她"",""弱她"",""强我"",""弱我""]","","","","","","","","3","","","","","","","","","SRET","SRET_math_calculate","","key","3","16.666000000000302","960","536","","","","","2+2= ?","4","0","","","","","","","",""
"2239","","7","psychophysics","107","383326","0.0-7.0-5.0-0.4","6","6","6","6","5","5","2","4","4","4","5","0","0","1","1","0","1","1","1","5","5","5","5","5","5","5","5","5","5","4","4","5","5","4","5","5","5","5","3","5","5","5","5","3","5","7","5","7","1","5","5","5","3","5","5","5","5","3","3","3","5","3","5","3","5","3","5","3","5","3","5","7","1","3","5","3","5","3","5","789952361161433089","罗","448","Female","[""好她"",""坏她"",""好我"",""坏我""]","[""强她"",""弱她"",""强我"",""弱我""]","","","","","","","","7","","","","","","","","","SRET","SRET_math_calculate","","key","7","16.666000000000047","960","536","","","","","1+6= ?","7","1","","","","","","","",""
"2524","","0","psychophysics","108","385854","0.0-7.0-5.0-0.5","6","6","6","6","5","5","2","4","4","4","5","0","0","1","1","0","1","1","1","5","5","5","5","5","5","5","5","5","5","4","4","5","5","4","5","5","5","5","3","5","5","5","5","3","5","7","5","7","1","5","5","5","3","5","5","5","5","3","3","3","5","3","5","3","5","3","5","3","5","3","5","7","1","3","5","3","5","3","5","789952361161433089","罗","448","Female","[""好她"",""坏她"",""好我"",""坏我""]","[""强她"",""弱她"",""强我"",""弱我""]","","","","","","","","0","","","","","","","","","SRET","SRET_math_calculate","","key","0","16.665999999999766","960","536","","","","","22-22= ?","0","1","","","","","","","",""
"2266","","5","psychophysics","109","388124","0.0-7.0-5.0-0.6","6","6","6","6","5","5","2","4","4","4","5","0","0","1","1","0","1","1","1","5","5","5","5","5","5","5","5","5","5","4","4","5","5","4","5","5","5","5","3","5","5","5","5","3","5","7","5","7","1","5","5","5","3","5","5","5","5","3","3","3","5","3","5","3","5","3","5","3","5","3","5","7","1","3","5","3","5","3","5","789952361161433089","罗","448","Female","[""好她"",""坏她"",""好我"",""坏我""]","[""强她"",""弱她"",""强我"",""弱我""]","","","","","","","","5","","","","","","","","","SRET","SRET_math_calculate","","key","5","16.666000000000007","960","536","","","","","9-4= ?","5","1","","","","","","","",""
"2276","","6","psychophysics","110","390404","0.0-7.0-5.0-0.7","6","6","6","6","5","5","2","4","4","4","5","0","0","1","1","0","1","1","1","5","5","5","5","5","5","5","5","5","5","4","4","5","5","4","5","5","5","5","3","5","5","5","5","3","5","7","5","7","1","5","5","5","3","5","5","5","5","3","3","3","5","3","5","3","5","3","5","3","5","3","5","7","1","3","5","3","5","3","5","789952361161433089","罗","448","Female","[""好她"",""坏她"",""好我"",""坏我""]","[""强她"",""弱她"",""强我"",""弱我""]","","","","","","","","6","","","","","","","","","SRET","SRET_math_calculate","","key","6","16.666000000000242","960","536","","","","","3+3= ?","6","1","","","","","","","",""
"1873","","1","psychophysics","111","392283","0.0-7.0-5.0-0.8","6","6","6","6","5","5","2","4","4","4","5","0","0","1","1","0","1","1","1","5","5","5","5","5","5","5","5","5","5","4","4","5","5","4","5","5","5","5","3","5","5","5","5","3","5","7","5","7","1","5","5","5","3","5","5","5","5","3","3","3","5","3","5","3","5","3","5","3","5","3","5","7","1","3","5","3","5","3","5","789952361161433089","罗","448","Female","[""好她"",""坏她"",""好我"",""坏我""]","[""强她"",""弱她"",""强我"",""弱我""]","","","","","","","","1","","","","","","","","","SRET","SRET_math_calculate","","key","1","16.666000000000036","960","536","","","","","10-9= ?","1","1","","","","","","","",""
"2158","","5","psychophysics","112","394445","0.0-7.0-5.0-0.9","6","6","6","6","5","5","2","4","4","4","5","0","0","1","1","0","1","1","1","5","5","5","5","5","5","5","5","5","5","4","4","5","5","4","5","5","5","5","3","5","5","5","5","3","5","7","5","7","1","5","5","5","3","5","5","5","5","3","3","3","5","3","5","3","5","3","5","3","5","3","5","7","1","3","5","3","5","3","5","789952361161433089","罗","448","Female","[""好她"",""坏她"",""好我"",""坏我""]","[""强她"",""弱她"",""强我"",""弱我""]","","","","","","","","5","","","","","","","","","SRET","SRET_math_calculate","","key","5","16.665999999999922","960","536","","","","","4+1= ?","5","1","","","","","","","",""
"2115","","4","psychophysics","113","396563","0.0-7.0-5.0-0.10","6","6","6","6","5","5","2","4","4","4","5","0","0","1","1","0","1","1","1","5","5","5","5","5","5","5","5","5","5","4","4","5","5","4","5","5","5","5","3","5","5","5","5","3","5","7","5","7","1","5","5","5","3","5","5","5","5","3","3","3","5","3","5","3","5","3","5","3","5","3","5","7","1","3","5","3","5","3","5","789952361161433089","罗","448","Female","[""好她"",""坏她"",""好我"",""坏我""]","[""强她"",""弱她"",""强我"",""弱我""]","","","","","","","","4","","","","","","","","","SRET","SRET_math_calculate","","key","4","16.665999999999748","960","536","","","","","8/4= ?","2","0","","","","","","","",""
"2391","","3","psychophysics","114","398956","0.0-7.0-5.0-0.11","6","6","6","6","5","5","2","4","4","4","5","0","0","1","1","0","1","1","1","5","5","5","5","5","5","5","5","5","5","4","4","5","5","4","5","5","5","5","3","5","5","5","5","3","5","7","5","7","1","5","5","5","3","5","5","5","5","3","3","3","5","3","5","3","5","3","5","3","5","3","5","7","1","3","5","3","5","3","5","789952361161433089","罗","448","Female","[""好她"",""坏她"",""好我"",""坏我""]","[""强她"",""弱她"",""强我"",""弱我""]","","","","","","","","3","","","","","","","","","SRET","SRET_math_calculate","","key","3","16.665999999999897","960","536","","","","","9/3= ?","3","1","","","","","","","",""
"2665","","7","psychophysics","115","401628","0.0-7.0-5.0-0.12","6","6","6","6","5","5","2","4","4","4","5","0","0","1","1","0","1","1","1","5","5","5","5","5","5","5","5","5","5","4","4","5","5","4","5","5","5","5","3","5","5","5","5","3","5","7","5","7","1","5","5","5","3","5","5","5","5","3","3","3","5","3","5","3","5","3","5","3","5","3","5","7","1","3","5","3","5","3","5","789952361161433089","罗","448","Female","[""好她"",""坏她"",""好我"",""坏我""]","[""强她"",""弱她"",""强我"",""弱我""]","","","","","","","","7","","","","","","","","","SRET","SRET_math_calculate","","key","7","16.665999999999986","960","536","","","","","49/7 = ?","7","1","","","","","","","",""
"4981","","9","psychophysics","116","406612","0.0-7.0-5.0-0.13","6","6","6","6","5","5","2","4","4","4","5","0","0","1","1","0","1","1","1","5","5","5","5","5","5","5","5","5","5","4","4","5","5","4","5","5","5","5","3","5","5","5","5","3","5","7","5","7","1","5","5","5","3","5","5","5","5","3","3","3","5","3","5","3","5","3","5","3","5","3","5","7","1","3","5","3","5","3","5","789952361161433089","罗","448","Female","[""好她"",""坏她"",""好我"",""坏我""]","[""强她"",""弱她"",""强我"",""弱我""]","","","","","","","","9","","","","","","","","","SRET","SRET_math_calculate","","key","9","16.66599999999998","960","536","","","","","43-34= ?","9","1","","","","","","","",""
"2364","","0","psychophysics","117","408979","0.0-7.0-5.0-0.14","6","6","6","6","5","5","2","4","4","4","5","0","0","1","1","0","1","1","1","5","5","5","5","5","5","5","5","5","5","4","4","5","5","4","5","5","5","5","3","5","5","5","5","3","5","7","5","7","1","5","5","5","3","5","5","5","5","3","3","3","5","3","5","3","5","3","5","3","5","3","5","7","1","3","5","3","5","3","5","789952361161433089","罗","448","Female","[""好她"",""坏她"",""好我"",""坏我""]","[""强她"",""弱她"",""强我"",""弱我""]","","","","","","","","0","","","","","","","","","SRET","SRET_math_calculate","","key","0","16.785042857142564","960","536","","","","","1-1= ?","0","1","","","","","","","",""
"2278","","7","psychophysics","118","411259","0.0-7.0-5.0-0.15","6","6","6","6","5","5","2","4","4","4","5","0","0","1","1","0","1","1","1","5","5","5","5","5","5","5","5","5","5","4","4","5","5","4","5","5","5","5","3","5","5","5","5","3","5","7","5","7","1","5","5","5","3","5","5","5","5","3","3","3","5","3","5","3","5","3","5","3","5","3","5","7","1","3","5","3","5","3","5","789952361161433089","罗","448","Female","[""好她"",""坏她"",""好我"",""坏我""]","[""强她"",""弱她"",""强我"",""弱我""]","","","","","","","","7","","","","","","","","","SRET","SRET_math_calculate","","key","7","16.666000000000007","960","536","","","","","7*1=  ?","7","1","","","","","","","",""
"2132","","7","psychophysics","119","413395","0.0-7.0-5.0-0.16","6","6","6","6","5","5","2","4","4","4","5","0","0","1","1","0","1","1","1","5","5","5","5","5","5","5","5","5","5","4","4","5","5","4","5","5","5","5","3","5","5","5","5","3","5","7","5","7","1","5","5","5","3","5","5","5","5","3","3","3","5","3","5","3","5","3","5","3","5","3","5","7","1","3","5","3","5","3","5","789952361161433089","罗","448","Female","[""好她"",""坏她"",""好我"",""坏我""]","[""强她"",""弱她"",""强我"",""弱我""]","","","","","","","","7","","","","","","","","","SRET","SRET_math_calculate","","key","7","16.66600000000042","960","536","","","","","9-2= ?","7","1","","","","","","","",""
"2885","","8","psychophysics","120","416282","0.0-7.0-5.0-0.17","6","6","6","6","5","5","2","4","4","4","5","0","0","1","1","0","1","1","1","5","5","5","5","5","5","5","5","5","5","4","4","5","5","4","5","5","5","5","3","5","5","5","5","3","5","7","5","7","1","5","5","5","3","5","5","5","5","3","3","3","5","3","5","3","5","3","5","3","5","3","5","7","1","3","5","3","5","3","5","789952361161433089","罗","448","Female","[""好她"",""坏她"",""好我"",""坏我""]","[""强她"",""弱她"",""强我"",""弱我""]","","","","","","","","8","","","","","","","","","SRET","SRET_math_calculate","","key","8","16.76346198830424","960","536","","","","","11-3= ?","8","1","","","","","","","",""
"2237","","9","psychophysics","121","418522","0.0-7.0-5.0-0.18","6","6","6","6","5","5","2","4","4","4","5","0","0","1","1","0","1","1","1","5","5","5","5","5","5","5","5","5","5","4","4","5","5","4","5","5","5","5","3","5","5","5","5","3","5","7","5","7","1","5","5","5","3","5","5","5","5","3","3","3","5","3","5","3","5","3","5","3","5","3","5","7","1","3","5","3","5","3","5","789952361161433089","罗","448","Female","[""好她"",""坏她"",""好我"",""坏我""]","[""强她"",""弱她"",""强我"",""弱我""]","","","","","","","","9","","","","","","","","","SRET","SRET_math_calculate","","key","9","16.666000000000285","960","536","","","","","4+5= ?","9","1","","","","","","","",""
"2654","","6","psychophysics","122","421199","0.0-7.0-5.0-0.19","6","6","6","6","5","5","2","4","4","4","5","0","0","1","1","0","1","1","1","5","5","5","5","5","5","5","5","5","5","4","4","5","5","4","5","5","5","5","3","5","5","5","5","3","5","7","5","7","1","5","5","5","3","5","5","5","5","3","3","3","5","3","5","3","5","3","5","3","5","3","5","7","1","3","5","3","5","3","5","789952361161433089","罗","448","Female","[""好她"",""坏她"",""好我"",""坏我""]","[""强她"",""弱她"",""强我"",""弱我""]","","","","","","","","6","","","","","","","","","SRET","SRET_math_calculate","","key","6","16.665999999999986","960","536","","","","","8-2= ?","6","1","","","","","","","",""
"2230","","6","psychophysics","123","423432","0.0-7.0-5.0-0.20","6","6","6","6","5","5","2","4","4","4","5","0","0","1","1","0","1","1","1","5","5","5","5","5","5","5","5","5","5","4","4","5","5","4","5","5","5","5","3","5","5","5","5","3","5","7","5","7","1","5","5","5","3","5","5","5","5","3","3","3","5","3","5","3","5","3","5","3","5","3","5","7","1","3","5","3","5","3","5","789952361161433089","罗","448","Female","[""好她"",""坏她"",""好我"",""坏我""]","[""强她"",""弱她"",""强我"",""弱我""]","","","","","","","","6","","","","","","","","","SRET","SRET_math_calculate","","key","6","16.665999999999848","960","536","","","","","4+2= ?","6","1","","","","","","","",""
"2212","","9","psychophysics","124","425647","0.0-7.0-5.0-0.21","6","6","6","6","5","5","2","4","4","4","5","0","0","1","1","0","1","1","1","5","5","5","5","5","5","5","5","5","5","4","4","5","5","4","5","5","5","5","3","5","5","5","5","3","5","7","5","7","1","5","5","5","3","5","5","5","5","3","3","3","5","3","5","3","5","3","5","3","5","3","5","7","1","3","5","3","5","3","5","789952361161433089","罗","448","Female","[""好她"",""坏她"",""好我"",""坏我""]","[""强她"",""弱她"",""强我"",""弱我""]","","","","","","","","9","","","","","","","","","SRET","SRET_math_calculate","","key","9","16.665999999999645","960","536","","","","","6+3= ?","9","1","","","","","","","",""
"2391","","8","psychophysics","125","428040","0.0-7.0-5.0-0.22","6","6","6","6","5","5","2","4","4","4","5","0","0","1","1","0","1","1","1","5","5","5","5","5","5","5","5","5","5","4","4","5","5","4","5","5","5","5","3","5","5","5","5","3","5","7","5","7","1","5","5","5","3","5","5","5","5","3","3","3","5","3","5","3","5","3","5","3","5","3","5","7","1","3","5","3","5","3","5","789952361161433089","罗","448","Female","[""好她"",""坏她"",""好我"",""坏我""]","[""强她"",""弱她"",""强我"",""弱我""]","","","","","","","","8","","","","","","","","","SRET","SRET_math_calculate","","key","8","16.666000000000086","960","536","","","","","8*1= ?","8","1","","","","","","","",""
"3348","","2","psychophysics","126","431392","0.0-7.0-5.0-0.23","6","6","6","6","5","5","2","4","4","4","5","0","0","1","1","0","1","1","1","5","5","5","5","5","5","5","5","5","5","4","4","5","5","4","5","5","5","5","3","5","5","5","5","3","5","7","5","7","1","5","5","5","3","5","5","5","5","3","3","3","5","3","5","3","5","3","5","3","5","3","5","7","1","3","5","3","5","3","5","789952361161433089","罗","448","Female","[""好她"",""坏她"",""好我"",""坏我""]","[""强她"",""弱她"",""强我"",""弱我""]","","","","","","","","2","","","","","","","","","SRET","SRET_math_calculate","","key","2","16.666000000000057","960","536","","","","","18/9= ?","2","1","","","","","","","",""
"2604","","5","psychophysics","127","433999","0.0-7.0-5.0-0.24","6","6","6","6","5","5","2","4","4","4","5","0","0","1","1","0","1","1","1","5","5","5","5","5","5","5","5","5","5","4","4","5","5","4","5","5","5","5","3","5","5","5","5","3","5","7","5","7","1","5","5","5","3","5","5","5","5","3","3","3","5","3","5","3","5","3","5","3","5","3","5","7","1","3","5","3","5","3","5","789952361161433089","罗","448","Female","[""好她"",""坏她"",""好我"",""坏我""]","[""强她"",""弱她"",""强我"",""弱我""]","","","","","","","","5","","","","","","","","","SRET","SRET_math_calculate","","key","5","16.66599999999988","960","536","","","","","5/1= ?","5","1","","","","","","","",""
"2223","","8","psychophysics","128","436223","0.0-7.0-5.0-0.25","6","6","6","6","5","5","2","4","4","4","5","0","0","1","1","0","1","1","1","5","5","5","5","5","5","5","5","5","5","4","4","5","5","4","5","5","5","5","3","5","5","5","5","3","5","7","5","7","1","5","5","5","3","5","5","5","5","3","3","3","5","3","5","3","5","3","5","3","5","3","5","7","1","3","5","3","5","3","5","789952361161433089","罗","448","Female","[""好她"",""坏她"",""好我"",""坏我""]","[""强她"",""弱她"",""强我"",""弱我""]","","","","","","","","8","","","","","","","","","SRET","SRET_math_calculate","","key","8","16.666000000000285","960","536","","","","","5+3= ?","8","1","","","","","","","",""
"3292","","8","psychophysics","129","439519","0.0-7.0-5.0-0.26","6","6","6","6","5","5","2","4","4","4","5","0","0","1","1","0","1","1","1","5","5","5","5","5","5","5","5","5","5","4","4","5","5","4","5","5","5","5","3","5","5","5","5","3","5","7","5","7","1","5","5","5","3","5","5","5","5","3","3","3","5","3","5","3","5","3","5","3","5","3","5","7","1","3","5","3","5","3","5","789952361161433089","罗","448","Female","[""好她"",""坏她"",""好我"",""坏我""]","[""强她"",""弱她"",""强我"",""弱我""]","","","","","","","","8","","","","","","","","","SRET","SRET_math_calculate","","key","8","16.66600000000011","960","536","","","","","50-42= ?","8","1","","","","","","","",""
"2082","","8","psychophysics","130","441608","0.0-7.0-5.0-0.27","6","6","6","6","5","5","2","4","4","4","5","0","0","1","1","0","1","1","1","5","5","5","5","5","5","5","5","5","5","4","4","5","5","4","5","5","5","5","3","5","5","5","5","3","5","7","5","7","1","5","5","5","3","5","5","5","5","3","3","3","5","3","5","3","5","3","5","3","5","3","5","7","1","3","5","3","5","3","5","789952361161433089","罗","448","Female","[""好她"",""坏她"",""好我"",""坏我""]","[""强她"",""弱她"",""强我"",""弱我""]","","","","","","","","8","","","","","","","","","SRET","SRET_math_calculate","","key","8","16.666","960","536","","","","","4*2= ?","8","1","","","","","","","",""
"2333","","0","psychophysics","131","443943","0.0-7.0-5.0-0.28","6","6","6","6","5","5","2","4","4","4","5","0","0","1","1","0","1","1","1","5","5","5","5","5","5","5","5","5","5","4","4","5","5","4","5","5","5","5","3","5","5","5","5","3","5","7","5","7","1","5","5","5","3","5","5","5","5","3","3","3","5","3","5","3","5","3","5","3","5","3","5","7","1","3","5","3","5","3","5","789952361161433089","罗","448","Female","[""好她"",""坏她"",""好我"",""坏我""]","[""强她"",""弱她"",""强我"",""弱我""]","","","","","","","","0","","","","","","","","","SRET","SRET_math_calculate","","key","0","16.66600000000016","960","536","","","","","12-12= ?","0","1","","","","","","","",""
"2541","","7","psychophysics","132","446488","0.0-7.0-5.0-0.29","6","6","6","6","5","5","2","4","4","4","5","0","0","1","1","0","1","1","1","5","5","5","5","5","5","5","5","5","5","4","4","5","5","4","5","5","5","5","3","5","5","5","5","3","5","7","5","7","1","5","5","5","3","5","5","5","5","3","3","3","5","3","5","3","5","3","5","3","5","3","5","7","1","3","5","3","5","3","5","789952361161433089","罗","448","Female","[""好她"",""坏她"",""好我"",""坏我""]","[""强她"",""弱她"",""强我"",""弱我""]","","","","","","","","7","","","","","","","","","SRET","SRET_math_calculate","","key","7","16.66600000000012","960","536","","","","","5+2= ?","7","1","","","","","","","",""
"2699","","2","psychophysics","133","449191","0.0-7.0-5.0-0.30","6","6","6","6","5","5","2","4","4","4","5","0","0","1","1","0","1","1","1","5","5","5","5","5","5","5","5","5","5","4","4","5","5","4","5","5","5","5","3","5","5","5","5","3","5","7","5","7","1","5","5","5","3","5","5","5","5","3","3","3","5","3","5","3","5","3","5","3","5","3","5","7","1","3","5","3","5","3","5","789952361161433089","罗","448","Female","[""好她"",""坏她"",""好我"",""坏我""]","[""强她"",""弱她"",""强我"",""弱我""]","","","","","","","","2","","","","","","","","","SRET","SRET_math_calculate","","key","2","16.66600000000015","960","536","","","","","22/11= ?","2","1","","","","","","","",""
"2462","","2","psychophysics","134","451656","0.0-7.0-5.0-0.31","6","6","6","6","5","5","2","4","4","4","5","0","0","1","1","0","1","1","1","5","5","5","5","5","5","5","5","5","5","4","4","5","5","4","5","5","5","5","3","5","5","5","5","3","5","7","5","7","1","5","5","5","3","5","5","5","5","3","3","3","5","3","5","3","5","3","5","3","5","3","5","7","1","3","5","3","5","3","5","789952361161433089","罗","448","Female","[""好她"",""坏她"",""好我"",""坏我""]","[""强她"",""弱她"",""强我"",""弱我""]","","","","","","","","2","","","","","","","","","SRET","SRET_math_calculate","","key","2","16.66600000000001","960","536","","","","","12/6= ?","2","1","","","","","","","",""
"2563","","6","psychophysics","135","454222","0.0-7.0-5.0-0.32","6","6","6","6","5","5","2","4","4","4","5","0","0","1","1","0","1","1","1","5","5","5","5","5","5","5","5","5","5","4","4","5","5","4","5","5","5","5","3","5","5","5","5","3","5","7","5","7","1","5","5","5","3","5","5","5","5","3","3","3","5","3","5","3","5","3","5","3","5","3","5","7","1","3","5","3","5","3","5","789952361161433089","罗","448","Female","[""好她"",""坏她"",""好我"",""坏我""]","[""强她"",""弱她"",""强我"",""弱我""]","","","","","","","","6","","","","","","","","","SRET","SRET_math_calculate","","key","6","16.66599999999991","960","536","","","","","5+1= ?","6","1","","","","","","","",""
"2867","","9","psychophysics","136","457093","0.0-7.0-5.0-0.33","6","6","6","6","5","5","2","4","4","4","5","0","0","1","1","0","1","1","1","5","5","5","5","5","5","5","5","5","5","4","4","5","5","4","5","5","5","5","3","5","5","5","5","3","5","7","5","7","1","5","5","5","3","5","5","5","5","3","3","3","5","3","5","3","5","3","5","3","5","3","5","7","1","3","5","3","5","3","5","789952361161433089","罗","448","Female","[""好她"",""坏她"",""好我"",""坏我""]","[""强她"",""弱她"",""强我"",""弱我""]","","","","","","","","9","","","","","","","","","SRET","SRET_math_calculate","","key","9","16.665999999999993","960","536","","","","","3*3= ?","9","1","","","","","","","",""
"1934","","2","psychophysics","137","459029","0.0-7.0-5.0-0.34","6","6","6","6","5","5","2","4","4","4","5","0","0","1","1","0","1","1","1","5","5","5","5","5","5","5","5","5","5","4","4","5","5","4","5","5","5","5","3","5","5","5","5","3","5","7","5","7","1","5","5","5","3","5","5","5","5","3","3","3","5","3","5","3","5","3","5","3","5","3","5","7","1","3","5","3","5","3","5","789952361161433089","罗","448","Female","[""好她"",""坏她"",""好我"",""坏我""]","[""强她"",""弱她"",""强我"",""弱我""]","","","","","","","","2","","","","","","","","","SRET","SRET_math_calculate","","key","2","16.666000000000224","960","536","","","","","9-7= ?","2","1","","","","","","","",""
"2389","","8","psychophysics","138","461454","0.0-7.0-5.0-0.35","6","6","6","6","5","5","2","4","4","4","5","0","0","1","1","0","1","1","1","5","5","5","5","5","5","5","5","5","5","4","4","5","5","4","5","5","5","5","3","5","5","5","5","3","5","7","5","7","1","5","5","5","3","5","5","5","5","3","3","3","5","3","5","3","5","3","5","3","5","3","5","7","1","3","5","3","5","3","5","789952361161433089","罗","448","Female","[""好她"",""坏她"",""好我"",""坏我""]","[""强她"",""弱她"",""强我"",""弱我""]","","","","","","","","8","","","","","","","","","SRET","SRET_math_calculate","","key","8","16.781736111110757","960","536","","","","","3+5= ?","8","1","","","","","","","",""
"2606","","2","psychophysics","139","464063","0.0-7.0-5.0-0.36","6","6","6","6","5","5","2","4","4","4","5","0","0","1","1","0","1","1","1","5","5","5","5","5","5","5","5","5","5","4","4","5","5","4","5","5","5","5","3","5","5","5","5","3","5","7","5","7","1","5","5","5","3","5","5","5","5","3","3","3","5","3","5","3","5","3","5","3","5","3","5","7","1","3","5","3","5","3","5","789952361161433089","罗","448","Female","[""好她"",""坏她"",""好我"",""坏我""]","[""强她"",""弱她"",""强我"",""弱我""]","","","","","","","","2","","","","","","","","","SRET","SRET_math_calculate","","key","2","16.66599999999988","960","536","","","","","29-27= ?","2","1","","","","","","","",""
"2558","","9","psychophysics","140","466623","0.0-7.0-5.0-0.37","6","6","6","6","5","5","2","4","4","4","5","0","0","1","1","0","1","1","1","5","5","5","5","5","5","5","5","5","5","4","4","5","5","4","5","5","5","5","3","5","5","5","5","3","5","7","5","7","1","5","5","5","3","5","5","5","5","3","3","3","5","3","5","3","5","3","5","3","5","3","5","7","1","3","5","3","5","3","5","789952361161433089","罗","448","Female","[""好她"",""坏她"",""好我"",""坏我""]","[""强她"",""弱她"",""强我"",""弱我""]","","","","","","","","9","","","","","","","","","SRET","SRET_math_calculate","","key","9","16.66599999999991","960","536","","","","","81/9= ?","9","1","","","","","","","",""
"2707","","0","psychophysics","141","469332","0.0-7.0-5.0-0.38","6","6","6","6","5","5","2","4","4","4","5","0","0","1","1","0","1","1","1","5","5","5","5","5","5","5","5","5","5","4","4","5","5","4","5","5","5","5","3","5","5","5","5","3","5","7","5","7","1","5","5","5","3","5","5","5","5","3","3","3","5","3","5","3","5","3","5","3","5","3","5","7","1","3","5","3","5","3","5","789952361161433089","罗","448","Female","[""好她"",""坏她"",""好我"",""坏我""]","[""强她"",""弱她"",""强我"",""弱我""]","","","","","","","","0","","","","","","","","","SRET","SRET_math_calculate","","key","0","16.665999999999787","960","536","","","","","5*0= ?","0","1","","","","","","","",""
"2403","","7","psychophysics","142","471740","0.0-7.0-5.0-0.39","6","6","6","6","5","5","2","4","4","4","5","0","0","1","1","0","1","1","1","5","5","5","5","5","5","5","5","5","5","4","4","5","5","4","5","5","5","5","3","5","5","5","5","3","5","7","5","7","1","5","5","5","3","5","5","5","5","3","3","3","5","3","5","3","5","3","5","3","5","3","5","7","1","3","5","3","5","3","5","789952361161433089","罗","448","Female","[""好她"",""坏她"",""好我"",""坏我""]","[""强她"",""弱她"",""强我"",""弱我""]","","","","","","","","7","","","","","","","","","SRET","SRET_math_calculate","","key","7","16.665999999999865","960","536","","","","","4+3= ?","7","1","","","","","","","",""
