"rt","stimulus","response","trial_type","trial_index","time_elapsed","internal_node_id","swb_1","swb_2","swb_3","swb_4","swb_5","LOT_1","LOT_2","LOT_3","LOT_4","LOT_5","LOT_6","IPC_1","IPC_2","IPC_3","IPC_4","IPC_5","IPC_6","IPC_7","IPC_8","MorIden_1","MorIden_2","MorIden_3","MorIden_4","MorIden_5","MorIden_6","MorIden_7","MorIden_8","MorIden_9","MorIden_10","moralSeImag_1","moralSeImag_2","moralSeImag_3","moralSeImag_4","moralSeImag_5","moralSeImag_6","moralSeImag_7","moralSeImag_8","moralSeImag_9","sde_1","sde_2","sde_3","sde_4","sde_5","sde_6","sde_7","sde_8","sde_9","sde_10","trap2","sde_11","sde_12","sde_13","sde_14","sde_15","sde_16","sde_17","sde_18","sde_19","sde_20","IM_1","IM_2","IM_3","IM_4","IM_5","IM_6","IM_7","IM_8","IM_9","IM_10","IM_11","IM_12","IM_13","IM_14","IM_15","IM_16","IM_17","IM_18","IM_19","IM_20","subj_idx","friend_name","ParticipantID","Sex","Word","Word2","value","success","timeout","failed_images","failed_audio","failed_video","user_agent","responses","item_order","radio_event_ids","radio_event_times","key_event_times","mouse_event_times","straightlining","zigzagging","honeypot","task_id","screen_id","time_stamp","response_type","key_press","avg_frame_time","center_x","center_y","person","word","valence","domain","math","correct_response","correct","status","view_history","identity","duration","Image","condition","question_order","trap2_item"
"2559","
   <p><div style='color:white; font-size: 25px'>您好，欢迎参加本次实验。</div></p>
   <p><div style='color:white; font-size: 25px'>为充分保障您的权利，请确保您已经知晓并同意《参与实验同意书》以及《数据公开知情同意书》。</div></p>
   <p><div style='color:white; font-size: 25px'>如果您未见过上述内容，请咨询实验员。</div></p>
   <p style='color:white; font-size: 25px'>如果您选择继续实验，则表示您已经清楚两份知情同意书的内容并同意。</p>
   <p><div style = ""color: pink;font-size:30px;"">请确保您记得day0的实验编号，您将在本次实验输入该编号，若您忘记，请咨询实验员后作答。</div></p>
   <p><div style = ""color:lightblue;font-size:25px;"">请您尽可能认真地作答，我们将依据您在各问卷和按键任务中的作答质量发放报酬。</div></p>
   <p> <div style = ""color: green""><按空格键至下页></div> </p>
   "," ","html-keyboard-response","0","2562","0.0-0.0","3","2","2","1","1","3","2","2","3","4","4","-2","0","-1","1","-1","0","0","1","4","2","5","2","2","4","4","3","4","4","4","6","7","7","5","6","4","6","6","5","3","3","4","2","2","5","5","4","3","1","3","3","6","6","3","3","3","4","3","3","3","3","2","2","3","5","2","4","5","5","7","3","5","4","3","2","3","3","3","4","798586383785664514","李","599","Male","[""坏他"",""好他"",""坏我"",""好我""]","[""弱他"",""强他"",""弱我"",""强我""]","","","","","","","","","","","","","","","","","","","","","","","","","","","","","","","","","","","","","","",""
"","","","call-function","1","2562","0.0-1.0-0.0","3","2","2","1","1","3","2","2","3","4","4","-2","0","-1","1","-1","0","0","1","4","2","5","2","2","4","4","3","4","4","4","6","7","7","5","6","4","6","6","5","3","3","4","2","2","5","5","4","3","1","3","3","6","6","3","3","3","4","3","3","3","3","2","2","3","5","2","4","5","5","7","3","5","4","3","2","3","3","3","4","798586383785664514","李","599","Male","[""坏他"",""好他"",""坏我"",""好我""]","[""弱他"",""强他"",""弱我"",""强我""]","","","","","","","","","","","","","","","","","","","","","","","","","","","","","","","","","","","","","","",""
"36645","","[{""name"":""Sex"",""value"":""0""},{""name"":""friend_name"",""value"":""李""},{""name"":""ParticipantID"",""value"":""599""}]","survey-html-form","2","39207","0.0-1.0-1.0","3","2","2","1","1","3","2","2","3","4","4","-2","0","-1","1","-1","0","0","1","4","2","5","2","2","4","4","3","4","4","4","6","7","7","5","6","4","6","6","5","3","3","4","2","2","5","5","4","3","1","3","3","6","6","3","3","3","4","3","3","3","3","2","2","3","5","2","4","5","5","7","3","5","4","3","2","3","3","3","4","798586383785664514","李","599","Male","[""坏他"",""好他"",""坏我"",""好我""]","[""弱他"",""强他"",""弱我"",""强我""]","","","","","","","","","","","","","","","","","","","","","","","","","","","","","","","","","","","","","","",""
"","","","preload","3","39556","0.0-2.0","3","2","2","1","1","3","2","2","3","4","4","-2","0","-1","1","-1","0","0","1","4","2","5","2","2","4","4","3","4","4","4","6","7","7","5","6","4","6","6","5","3","3","4","2","2","5","5","4","3","1","3","3","6","6","3","3","3","4","3","3","3","3","2","2","3","5","2","4","5","5","7","3","5","4","3","2","3","3","3","4","798586383785664514","李","599","Male","[""坏他"",""好他"",""坏我"",""好我""]","[""弱他"",""强他"",""弱我"",""强我""]","","true","false","[]","[]","[]","","","","","","","","","","","","","","","","","","","","","","","","","","","","","","","","",""
"","","","fullscreen","4","50423","0.0-3.0","3","2","2","1","1","3","2","2","3","4","4","-2","0","-1","1","-1","0","0","1","4","2","5","2","2","4","4","3","4","4","4","6","7","7","5","6","4","6","6","5","3","3","4","2","2","5","5","4","3","1","3","3","6","6","3","3","3","4","3","3","3","3","2","2","3","5","2","4","5","5","7","3","5","4","3","2","3","3","3","4","798586383785664514","李","599","Male","[""坏他"",""好他"",""坏我"",""好我""]","[""弱他"",""强他"",""弱我"",""强我""]","","true","","","","","{}","","","","","","","","","","","","","","","","","","","","","","","","","","","","","","","",""
"11808.600000023842","","{""Q01"":""3"",""Q02"":""2"",""Q03"":""2"",""Q04"":""1"",""Q05"":""1""}","survey-template","5","62233","0.0-4.0","3","2","2","1","1","3","2","2","3","4","4","-2","0","-1","1","-1","0","0","1","4","2","5","2","2","4","4","3","4","4","4","6","7","7","5","6","4","6","6","5","3","3","4","2","2","5","5","4","3","1","3","3","6","6","3","3","3","4","3","3","3","3","2","2","3","5","2","4","5","5","7","3","5","4","3","2","3","3","3","4","798586383785664514","李","599","Male","[""坏他"",""好他"",""坏我"",""好我""]","[""弱他"",""强他"",""弱我"",""强我""]","","","","","","","","{""Q01"":""3"",""Q02"":""2"",""Q03"":""2"",""Q04"":""1"",""Q05"":""1""}","[0,1,2,3,4]","[""Q01"",""Q02"",""Q03"",""Q04"",""Q05""]","[5803,7027.600000023842,7761.100000023842,8604.5,9930.5]","[]","[3427.199999988079,5803,7027.600000023842,7761.100000023842,8604.5,9930.5,11807.899999976158]","0.4","0.5","0","","","","","","","","","","","","","","","","","","","","","","",""
"14109.699999988079","","{""Q01"":""3"",""Q02"":""2"",""Q03"":""2"",""Q04"":""3"",""Q05"":""4"",""Q06"":""4""}","survey-template","6","76345","0.0-5.0","3","2","2","1","1","3","2","2","3","4","4","-2","0","-1","1","-1","0","0","1","4","2","5","2","2","4","4","3","4","4","4","6","7","7","5","6","4","6","6","5","3","3","4","2","2","5","5","4","3","1","3","3","6","6","3","3","3","4","3","3","3","3","2","2","3","5","2","4","5","5","7","3","5","4","3","2","3","3","3","4","798586383785664514","李","599","Male","[""坏他"",""好他"",""坏我"",""好我""]","[""弱他"",""强他"",""弱我"",""强我""]","","","","","","","","{""Q01"":""3"",""Q02"":""2"",""Q03"":""2"",""Q04"":""3"",""Q05"":""4"",""Q06"":""4""}","[0,1,2,3,4,5]","[""Q01"",""Q01"",""Q02"",""Q03"",""Q04"",""Q05"",""Q06""]","[3756.199999988079,5359.199999988079,6212.099999964237,7265,9135.5,10684.199999988079,12883.299999952316]","[]","[3756.199999988079,5359.199999988079,6212.099999964237,7265,9135.5,10684.199999988079,12883.299999952316,14109.199999988079]","0.3333333333333333","0.6","0","","","","","","","","","","","","","","","","","","","","","","",""
"19777.30000001192","","{""Q01"":""-2"",""Q02"":""0"",""Q03"":""-1"",""Q04"":""1"",""Q05"":""-1"",""Q06"":""0"",""Q07"":""0"",""Q08"":""1""}","survey-template","7","96124","0.0-6.0","3","2","2","1","1","3","2","2","3","4","4","-2","0","-1","1","-1","0","0","1","4","2","5","2","2","4","4","3","4","4","4","6","7","7","5","6","4","6","6","5","3","3","4","2","2","5","5","4","3","1","3","3","6","6","3","3","3","4","3","3","3","3","2","2","3","5","2","4","5","5","7","3","5","4","3","2","3","3","3","4","798586383785664514","李","599","Male","[""坏他"",""好他"",""坏我"",""好我""]","[""弱他"",""强他"",""弱我"",""强我""]","","","","","","","","{""Q01"":""-2"",""Q02"":""0"",""Q03"":""-1"",""Q04"":""1"",""Q05"":""-1"",""Q06"":""0"",""Q07"":""0"",""Q08"":""1""}","[0,1,2,3,4,5,6,7]","[""Q01"",""Q02"",""Q03"",""Q04"",""Q05"",""Q06"",""Q07"",""Q08""]","[3515.600000023842,4882.200000047684,6987.300000011921,8919,11410.5,12489.700000047684,14289.400000035763,19030.200000047684]","[]","[3515.600000023842,4882.200000047684,6987.300000011921,8919,11410.5,12489.700000047684,13781.100000023842,14289.400000035763,19030.200000047684,19776.600000023842]","0.375","0.42857142857142855","0","","","","","","","","","","","","","","","","","","","","","","",""
"110187","
    <p><div style='color:white;font-size:35px; line-height:20px;'>词汇评估任务</div></p><br>
    <p><div style='color:white;font-size:25px; line-height:20px;'>请再次回忆该亲密的朋友，你们至少2年前就认识了，并且最近2年经常见面。</div></p>
    <p><div style='color:white;font-size:25px; line-height:20px;'>在本实验中，您将会看到一些形容词。</div></p>
    <p><div style='color:yellow;font-size:25px; line-height:20px;'>您的任务是判断这些形容词是否符合对您自己或您的朋友的描述。</div></p><p style='font-size:35px'>符合按<span style=""color:lightgreen""> j 键</span>，不符合按<span style=""color:red""> f 键</span></p>","0","html-button-response","8","206312","0.0-7.0-0.0","3","2","2","1","1","3","2","2","3","4","4","-2","0","-1","1","-1","0","0","1","4","2","5","2","2","4","4","3","4","4","4","6","7","7","5","6","4","6","6","5","3","3","4","2","2","5","5","4","3","1","3","3","6","6","3","3","3","4","3","3","3","3","2","2","3","5","2","4","5","5","7","3","5","4","3","2","3","3","3","4","798586383785664514","李","599","Male","[""坏他"",""好他"",""坏我"",""好我""]","[""弱他"",""强他"",""弱我"",""强我""]","","","","","","","","","","","","","","","","","SRET_EW","EW_instructions","Mon Jan 29 2024 15:23:50 GMT+0800 (中国标准时间)","","","","","","","","","","","","","","","","","","","",""
"1917","","f","psychophysics","9","209233","0.0-7.0-1.0-0.0","3","2","2","1","1","3","2","2","3","4","4","-2","0","-1","1","-1","0","0","1","4","2","5","2","2","4","4","3","4","4","4","6","7","7","5","6","4","6","6","5","3","3","4","2","2","5","5","4","3","1","3","3","6","6","3","3","3","4","3","3","3","3","2","2","3","5","2","4","5","5","7","3","5","4","3","2","3","3","3","4","798586383785664514","李","599","Male","[""坏他"",""好他"",""坏我"",""好我""]","[""弱他"",""强他"",""弱我"",""强我""]","","","","","","","","no","","","","","","","","","SRET_EW","EW_practice","","key","f","6.060580912863034","853.3333333333334","529.3333333333334","自己","刻板","Negative","ability","","","","","","","","","","",""
"1097","","j","psychophysics","10","211331","0.0-7.0-1.0-0.1","3","2","2","1","1","3","2","2","3","4","4","-2","0","-1","1","-1","0","0","1","4","2","5","2","2","4","4","3","4","4","4","6","7","7","5","6","4","6","6","5","3","3","4","2","2","5","5","4","3","1","3","3","6","6","3","3","3","4","3","3","3","3","2","2","3","5","2","4","5","5","7","3","5","4","3","2","3","3","3","4","798586383785664514","李","599","Male","[""坏他"",""好他"",""坏我"",""好我""]","[""弱他"",""强他"",""弱我"",""强我""]","","","","","","","","yes","","","","","","","","","SRET_EW","EW_practice","","key","j","6.060289855072514","853.3333333333334","529.3333333333334","自己","严谨","Positive","ability","","","","","","","","","","",""
"938","","j","psychophysics","11","213270","0.0-7.0-1.0-0.2","3","2","2","1","1","3","2","2","3","4","4","-2","0","-1","1","-1","0","0","1","4","2","5","2","2","4","4","3","4","4","4","6","7","7","5","6","4","6","6","5","3","3","4","2","2","5","5","4","3","1","3","3","6","6","3","3","3","4","3","3","3","3","2","2","3","5","2","4","5","5","7","3","5","4","3","2","3","3","3","4","798586383785664514","李","599","Male","[""坏他"",""好他"",""坏我"",""好我""]","[""弱他"",""强他"",""弱我"",""强我""]","","","","","","","","yes","","","","","","","","","SRET_EW","EW_practice","","key","j","6.060815047021926","853.3333333333334","529.3333333333334","朋友","忠实","Positive","morality","","","","","","","","","","",""
"897","","f","psychophysics","12","215168","0.0-7.0-1.0-0.3","3","2","2","1","1","3","2","2","3","4","4","-2","0","-1","1","-1","0","0","1","4","2","5","2","2","4","4","3","4","4","4","6","7","7","5","6","4","6","6","5","3","3","4","2","2","5","5","4","3","1","3","3","6","6","3","3","3","4","3","3","3","3","2","2","3","5","2","4","5","5","7","3","5","4","3","2","3","3","3","4","798586383785664514","李","599","Male","[""坏他"",""好他"",""坏我"",""好我""]","[""弱他"",""强他"",""弱我"",""强我""]","","","","","","","","no","","","","","","","","","SRET_EW","EW_practice","","key","f","6.060256410256373","853.3333333333334","529.3333333333334","朋友","徇私","Negative","morality","","","","","","","","","","",""
"10440","
    <p><div style='color:white;font-size:35px; line-height:20px;'>请您再次阅读实验要求</div></p><br>
    <p><div style='color:white;font-size:25px; line-height:20px;'>请回忆某一个亲密的朋友，你们至少2年前就认识了，并且最近2年经常见面。</div></p>
    <p><div style='color:white;font-size:25px; line-height:20px;'>在本实验中，您将会看到一些形容词。</div></p>
    <p><div style='color:yellow;font-size:25px; line-height:20px;'>您的任务是判断这些形容词是否符合对您自己或您的朋友的描述。</div></p>
    <p><div class='footer' style='font-size:25px; line-height:20px;'>如果对本实验还有不清楚之处，请立即向实验员咨询。</p><p style='font-size:25px; line-height:20px;'>如果您明白了规则：</p><p style='font-size:22px; line-height:20px;'>请按 继续 进入正式实验</p>
    </div>
    <p style='font-size:35px'>符合按<span style=""color:lightgreen""> j 键</span>，不符合按<span style=""color:red""> f 键</span></p>","0","html-button-response","13","225610","0.0-7.0-2.0","3","2","2","1","1","3","2","2","3","4","4","-2","0","-1","1","-1","0","0","1","4","2","5","2","2","4","4","3","4","4","4","6","7","7","5","6","4","6","6","5","3","3","4","2","2","5","5","4","3","1","3","3","6","6","3","3","3","4","3","3","3","3","2","2","3","5","2","4","5","5","7","3","5","4","3","2","3","3","3","4","798586383785664514","李","599","Male","[""坏他"",""好他"",""坏我"",""好我""]","[""弱他"",""强他"",""弱我"",""强我""]","","","","","","","","","","","","","","","","","SRET_EW","prac_instructions","Mon Jan 29 2024 15:23:50 GMT+0800 (中国标准时间)","","","","","","","","","","","","","","","","","","","",""
"1907","","f","psychophysics","14","228518","0.0-7.0-3.0-0.0","3","2","2","1","1","3","2","2","3","4","4","-2","0","-1","1","-1","0","0","1","4","2","5","2","2","4","4","3","4","4","4","6","7","7","5","6","4","6","6","5","3","3","4","2","2","5","5","4","3","1","3","3","6","6","3","3","3","4","3","3","3","3","2","2","3","5","2","4","5","5","7","3","5","4","3","2","3","3","3","4","798586383785664514","李","599","Male","[""坏他"",""好他"",""坏我"",""好我""]","[""弱他"",""强他"",""弱我"",""强我""]","","","","","","","","no","","","","","","","","","SRET","EW_formal","","key","f","6.060624999999951","853.3333333333334","529.3333333333334","朋友","迷糊","Negative","ability","","","","","","","","","","",""
"1435","","j","psychophysics","15","230954","0.0-7.0-3.0-0.1","3","2","2","1","1","3","2","2","3","4","4","-2","0","-1","1","-1","0","0","1","4","2","5","2","2","4","4","3","4","4","4","6","7","7","5","6","4","6","6","5","3","3","4","2","2","5","5","4","3","1","3","3","6","6","3","3","3","4","3","3","3","3","2","2","3","5","2","4","5","5","7","3","5","4","3","2","3","3","3","4","798586383785664514","李","599","Male","[""坏他"",""好他"",""坏我"",""好我""]","[""弱他"",""强他"",""弱我"",""强我""]","","","","","","","","yes","","","","","","","","","SRET","EW_formal","","key","j","6.060349127182074","853.3333333333334","529.3333333333334","朋友","务实","Positive","ability","","","","","","","","","","",""
"1476","","j","psychophysics","16","233431","0.0-7.0-3.0-0.2","3","2","2","1","1","3","2","2","3","4","4","-2","0","-1","1","-1","0","0","1","4","2","5","2","2","4","4","3","4","4","4","6","7","7","5","6","4","6","6","5","3","3","4","2","2","5","5","4","3","1","3","3","6","6","3","3","3","4","3","3","3","3","2","2","3","5","2","4","5","5","7","3","5","4","3","2","3","3","3","4","798586383785664514","李","599","Male","[""坏他"",""好他"",""坏我"",""好我""]","[""弱他"",""强他"",""弱我"",""强我""]","","","","","","","","yes","","","","","","","","","SRET","EW_formal","","key","j","6.060687960687917","853.3333333333334","529.3333333333334","自己","说谎","Negative","morality","","","","","","","","","","",""
"1511","","j","psychophysics","17","235943","0.0-7.0-3.0-0.3","3","2","2","1","1","3","2","2","3","4","4","-2","0","-1","1","-1","0","0","1","4","2","5","2","2","4","4","3","4","4","4","6","7","7","5","6","4","6","6","5","3","3","4","2","2","5","5","4","3","1","3","3","6","6","3","3","3","4","3","3","3","3","2","2","3","5","2","4","5","5","7","3","5","4","3","2","3","3","3","4","798586383785664514","李","599","Male","[""坏他"",""好他"",""坏我"",""好我""]","[""弱他"",""强他"",""弱我"",""强我""]","","","","","","","","yes","","","","","","","","","SRET","EW_formal","","key","j","6.060628019323685","853.3333333333334","529.3333333333334","自己","坚贞","Positive","morality","","","","","","","","","","",""
"1661","","f","psychophysics","18","238604","0.0-7.0-3.0-0.4","3","2","2","1","1","3","2","2","3","4","4","-2","0","-1","1","-1","0","0","1","4","2","5","2","2","4","4","3","4","4","4","6","7","7","5","6","4","6","6","5","3","3","4","2","2","5","5","4","3","1","3","3","6","6","3","3","3","4","3","3","3","3","2","2","3","5","2","4","5","5","7","3","5","4","3","2","3","3","3","4","798586383785664514","李","599","Male","[""坏他"",""好他"",""坏我"",""好我""]","[""弱他"",""强他"",""弱我"",""强我""]","","","","","","","","no","","","","","","","","","SRET","EW_formal","","key","f","6.060502283105023","853.3333333333334","529.3333333333334","朋友","屈才","Negative","ability","","","","","","","","","","",""
"1157","","j","psychophysics","19","240762","0.0-7.0-3.0-0.5","3","2","2","1","1","3","2","2","3","4","4","-2","0","-1","1","-1","0","0","1","4","2","5","2","2","4","4","3","4","4","4","6","7","7","5","6","4","6","6","5","3","3","4","2","2","5","5","4","3","1","3","3","6","6","3","3","3","4","3","3","3","3","2","2","3","5","2","4","5","5","7","3","5","4","3","2","3","3","3","4","798586383785664514","李","599","Male","[""坏他"",""好他"",""坏我"",""好我""]","[""弱他"",""强他"",""弱我"",""强我""]","","","","","","","","yes","","","","","","","","","SRET","EW_formal","","key","j","6.060845070422552","853.3333333333334","529.3333333333334","自己","娴熟","Positive","ability","","","","","","","","","","",""
"759","","f","psychophysics","20","242523","0.0-7.0-3.0-0.6","3","2","2","1","1","3","2","2","3","4","4","-2","0","-1","1","-1","0","0","1","4","2","5","2","2","4","4","3","4","4","4","6","7","7","5","6","4","6","6","5","3","3","4","2","2","5","5","4","3","1","3","3","6","6","3","3","3","4","3","3","3","3","2","2","3","5","2","4","5","5","7","3","5","4","3","2","3","3","3","4","798586383785664514","李","599","Male","[""坏他"",""好他"",""坏我"",""好我""]","[""弱他"",""强他"",""弱我"",""强我""]","","","","","","","","no","","","","","","","","","SRET","EW_formal","","key","f","6.060344827586207","853.3333333333334","529.3333333333334","自己","背叛","Negative","morality","","","","","","","","","","",""
"792","","j","psychophysics","21","244316","0.0-7.0-3.0-0.7","3","2","2","1","1","3","2","2","3","4","4","-2","0","-1","1","-1","0","0","1","4","2","5","2","2","4","4","3","4","4","4","6","7","7","5","6","4","6","6","5","3","3","4","2","2","5","5","4","3","1","3","3","6","6","3","3","3","4","3","3","3","3","2","2","3","5","2","4","5","5","7","3","5","4","3","2","3","3","3","4","798586383785664514","李","599","Male","[""坏他"",""好他"",""坏我"",""好我""]","[""弱他"",""强他"",""弱我"",""强我""]","","","","","","","","yes","","","","","","","","","SRET","EW_formal","","key","j","6.060544217687036","853.3333333333334","529.3333333333334","朋友","肯干","Positive","ability","","","","","","","","","","",""
"653","","f","psychophysics","22","245971","0.0-7.0-3.0-0.8","3","2","2","1","1","3","2","2","3","4","4","-2","0","-1","1","-1","0","0","1","4","2","5","2","2","4","4","3","4","4","4","6","7","7","5","6","4","6","6","5","3","3","4","2","2","5","5","4","3","1","3","3","6","6","3","3","3","4","3","3","3","3","2","2","3","5","2","4","5","5","7","3","5","4","3","2","3","3","3","4","798586383785664514","李","599","Male","[""坏他"",""好他"",""坏我"",""好我""]","[""弱他"",""强他"",""弱我"",""强我""]","","","","","","","","no","","","","","","","","","SRET","EW_formal","","key","f","6.06043956043956","853.3333333333334","529.3333333333334","朋友","邪恶","Negative","morality","","","","","","","","","","",""
"978","","f","psychophysics","23","247950","0.0-7.0-3.0-0.9","3","2","2","1","1","3","2","2","3","4","4","-2","0","-1","1","-1","0","0","1","4","2","5","2","2","4","4","3","4","4","4","6","7","7","5","6","4","6","6","5","3","3","4","2","2","5","5","4","3","1","3","3","6","6","3","3","3","4","3","3","3","3","2","2","3","5","2","4","5","5","7","3","5","4","3","2","3","3","3","4","798586383785664514","李","599","Male","[""坏他"",""好他"",""坏我"",""好我""]","[""弱他"",""强他"",""弱我"",""强我""]","","","","","","","","no","","","","","","","","","SRET","EW_formal","","key","f","6.060615384615421","853.3333333333334","529.3333333333334","自己","小人","Negative","morality","","","","","","","","","","",""
"769","","f","psychophysics","24","249720","0.0-7.0-3.0-0.10","3","2","2","1","1","3","2","2","3","4","4","-2","0","-1","1","-1","0","0","1","4","2","5","2","2","4","4","3","4","4","4","6","7","7","5","6","4","6","6","5","3","3","4","2","2","5","5","4","3","1","3","3","6","6","3","3","3","4","3","3","3","3","2","2","3","5","2","4","5","5","7","3","5","4","3","2","3","3","3","4","798586383785664514","李","599","Male","[""坏他"",""好他"",""坏我"",""好我""]","[""弱他"",""强他"",""弱我"",""强我""]","","","","","","","","no","","","","","","","","","SRET","EW_formal","","key","f","6.060481099656277","853.3333333333334","529.3333333333334","朋友","失信","Negative","morality","","","","","","","","","","",""
"737","","f","psychophysics","25","251458","0.0-7.0-3.0-0.11","3","2","2","1","1","3","2","2","3","4","4","-2","0","-1","1","-1","0","0","1","4","2","5","2","2","4","4","3","4","4","4","6","7","7","5","6","4","6","6","5","3","3","4","2","2","5","5","4","3","1","3","3","6","6","3","3","3","4","3","3","3","3","2","2","3","5","2","4","5","5","7","3","5","4","3","2","3","3","3","4","798586383785664514","李","599","Male","[""坏他"",""好他"",""坏我"",""好我""]","[""弱他"",""强他"",""弱我"",""强我""]","","","","","","","","no","","","","","","","","","SRET","EW_formal","","key","f","6.060139860139901","853.3333333333334","529.3333333333334","朋友","无助","Negative","ability","","","","","","","","","","",""
"773","","j","psychophysics","26","253233","0.0-7.0-3.0-0.12","3","2","2","1","1","3","2","2","3","4","4","-2","0","-1","1","-1","0","0","1","4","2","5","2","2","4","4","3","4","4","4","6","7","7","5","6","4","6","6","5","3","3","4","2","2","5","5","4","3","1","3","3","6","6","3","3","3","4","3","3","3","3","2","2","3","5","2","4","5","5","7","3","5","4","3","2","3","3","3","4","798586383785664514","李","599","Male","[""坏他"",""好他"",""坏我"",""好我""]","[""弱他"",""强他"",""弱我"",""强我""]","","","","","","","","yes","","","","","","","","","SRET","EW_formal","","key","j","6.06027397260276","853.3333333333334","529.3333333333334","朋友","独立","Positive","ability","","","","","","","","","","",""
"648","","f","psychophysics","27","254881","0.0-7.0-3.0-0.13","3","2","2","1","1","3","2","2","3","4","4","-2","0","-1","1","-1","0","0","1","4","2","5","2","2","4","4","3","4","4","4","6","7","7","5","6","4","6","6","5","3","3","4","2","2","5","5","4","3","1","3","3","6","6","3","3","3","4","3","3","3","3","2","2","3","5","2","4","5","5","7","3","5","4","3","2","3","3","3","4","798586383785664514","李","599","Male","[""坏他"",""好他"",""坏我"",""好我""]","[""弱他"",""强他"",""弱我"",""强我""]","","","","","","","","no","","","","","","","","","SRET","EW_formal","","key","f","6.06051660516603","853.3333333333334","529.3333333333334","朋友","虚伪","Negative","morality","","","","","","","","","","",""
"722","","j","psychophysics","28","256605","0.0-7.0-3.0-0.14","3","2","2","1","1","3","2","2","3","4","4","-2","0","-1","1","-1","0","0","1","4","2","5","2","2","4","4","3","4","4","4","6","7","7","5","6","4","6","6","5","3","3","4","2","2","5","5","4","3","1","3","3","6","6","3","3","3","4","3","3","3","3","2","2","3","5","2","4","5","5","7","3","5","4","3","2","3","3","3","4","798586383785664514","李","599","Male","[""坏他"",""好他"",""坏我"",""好我""]","[""弱他"",""强他"",""弱我"",""强我""]","","","","","","","","yes","","","","","","","","","SRET","EW_formal","","key","j","6.060070671378092","853.3333333333334","529.3333333333334","朋友","毅力","Positive","ability","","","","","","","","","","",""
"663","","j","psychophysics","29","258269","0.0-7.0-3.0-0.15","3","2","2","1","1","3","2","2","3","4","4","-2","0","-1","1","-1","0","0","1","4","2","5","2","2","4","4","3","4","4","4","6","7","7","5","6","4","6","6","5","3","3","4","2","2","5","5","4","3","1","3","3","6","6","3","3","3","4","3","3","3","3","2","2","3","5","2","4","5","5","7","3","5","4","3","2","3","3","3","4","798586383785664514","李","599","Male","[""坏他"",""好他"",""坏我"",""好我""]","[""弱他"",""强他"",""弱我"",""强我""]","","","","","","","","yes","","","","","","","","","SRET","EW_formal","","key","j","6.060218978102189","853.3333333333334","529.3333333333334","朋友","正气","Positive","morality","","","","","","","","","","",""
"620","","f","psychophysics","30","259890","0.0-7.0-3.0-0.16","3","2","2","1","1","3","2","2","3","4","4","-2","0","-1","1","-1","0","0","1","4","2","5","2","2","4","4","3","4","4","4","6","7","7","5","6","4","6","6","5","3","3","4","2","2","5","5","4","3","1","3","3","6","6","3","3","3","4","3","3","3","3","2","2","3","5","2","4","5","5","7","3","5","4","3","2","3","3","3","4","798586383785664514","李","599","Male","[""坏他"",""好他"",""坏我"",""好我""]","[""弱他"",""强他"",""弱我"",""强我""]","","","","","","","","no","","","","","","","","","SRET","EW_formal","","key","f","6.060526315789495","853.3333333333334","529.3333333333334","自己","愚蠢","Negative","ability","","","","","","","","","","",""
"1113","","f","psychophysics","31","262004","0.0-7.0-3.0-0.17","3","2","2","1","1","3","2","2","3","4","4","-2","0","-1","1","-1","0","0","1","4","2","5","2","2","4","4","3","4","4","4","6","7","7","5","6","4","6","6","5","3","3","4","2","2","5","5","4","3","1","3","3","6","6","3","3","3","4","3","3","3","3","2","2","3","5","2","4","5","5","7","3","5","4","3","2","3","3","3","4","798586383785664514","李","599","Male","[""坏他"",""好他"",""坏我"",""好我""]","[""弱他"",""强他"",""弱我"",""强我""]","","","","","","","","no","","","","","","","","","SRET","EW_formal","","key","f","6.060344827586207","853.3333333333334","529.3333333333334","自己","淡泊","Positive","morality","","","","","","","","","","",""
"641","","j","psychophysics","32","263646","0.0-7.0-3.0-0.18","3","2","2","1","1","3","2","2","3","4","4","-2","0","-1","1","-1","0","0","1","4","2","5","2","2","4","4","3","4","4","4","6","7","7","5","6","4","6","6","5","3","3","4","2","2","5","5","4","3","1","3","3","6","6","3","3","3","4","3","3","3","3","2","2","3","5","2","4","5","5","7","3","5","4","3","2","3","3","3","4","798586383785664514","李","599","Male","[""坏他"",""好他"",""坏我"",""好我""]","[""弱他"",""强他"",""弱我"",""强我""]","","","","","","","","yes","","","","","","","","","SRET","EW_formal","","key","j","6.060370370370543","853.3333333333334","529.3333333333334","朋友","善良","Positive","morality","","","","","","","","","","",""
"643","","f","psychophysics","33","265290","0.0-7.0-3.0-0.19","3","2","2","1","1","3","2","2","3","4","4","-2","0","-1","1","-1","0","0","1","4","2","5","2","2","4","4","3","4","4","4","6","7","7","5","6","4","6","6","5","3","3","4","2","2","5","5","4","3","1","3","3","6","6","3","3","3","4","3","3","3","3","2","2","3","5","2","4","5","5","7","3","5","4","3","2","3","3","3","4","798586383785664514","李","599","Male","[""坏他"",""好他"",""坏我"",""好我""]","[""弱他"",""强他"",""弱我"",""强我""]","","","","","","","","no","","","","","","","","","SRET","EW_formal","","key","f","6.060000000000043","853.3333333333334","529.3333333333334","朋友","利落","Positive","ability","","","","","","","","","","",""
"785","","f","psychophysics","34","267076","0.0-7.0-3.0-0.20","3","2","2","1","1","3","2","2","3","4","4","-2","0","-1","1","-1","0","0","1","4","2","5","2","2","4","4","3","4","4","4","6","7","7","5","6","4","6","6","5","3","3","4","2","2","5","5","4","3","1","3","3","6","6","3","3","3","4","3","3","3","3","2","2","3","5","2","4","5","5","7","3","5","4","3","2","3","3","3","4","798586383785664514","李","599","Male","[""坏他"",""好他"",""坏我"",""好我""]","[""弱他"",""强他"",""弱我"",""强我""]","","","","","","","","no","","","","","","","","","SRET","EW_formal","","key","f","6.062244897959144","853.3333333333334","529.3333333333334","自己","无知","Negative","ability","","","","","","","","","","",""
"1059","","f","psychophysics","35","269136","0.0-7.0-3.0-0.21","3","2","2","1","1","3","2","2","3","4","4","-2","0","-1","1","-1","0","0","1","4","2","5","2","2","4","4","3","4","4","4","6","7","7","5","6","4","6","6","5","3","3","4","2","2","5","5","4","3","1","3","3","6","6","3","3","3","4","3","3","3","3","2","2","3","5","2","4","5","5","7","3","5","4","3","2","3","3","3","4","798586383785664514","李","599","Male","[""坏他"",""好他"",""坏我"",""好我""]","[""弱他"",""强他"",""弱我"",""强我""]","","","","","","","","no","","","","","","","","","SRET","EW_formal","","key","f","6.06047197640118","853.3333333333334","529.3333333333334","自己","高尚","Positive","morality","","","","","","","","","","",""
"781","","j","psychophysics","36","270918","0.0-7.0-3.0-0.22","3","2","2","1","1","3","2","2","3","4","4","-2","0","-1","1","-1","0","0","1","4","2","5","2","2","4","4","3","4","4","4","6","7","7","5","6","4","6","6","5","3","3","4","2","2","5","5","4","3","1","3","3","6","6","3","3","3","4","3","3","3","3","2","2","3","5","2","4","5","5","7","3","5","4","3","2","3","3","3","4","798586383785664514","李","599","Male","[""坏他"",""好他"",""坏我"",""好我""]","[""弱他"",""强他"",""弱我"",""强我""]","","","","","","","","yes","","","","","","","","","SRET","EW_formal","","key","j","6.060068259385785","853.3333333333334","529.3333333333334","自己","思辨","Positive","ability","","","","","","","","","","",""
"731","","f","psychophysics","37","272650","0.0-7.0-3.0-0.23","3","2","2","1","1","3","2","2","3","4","4","-2","0","-1","1","-1","0","0","1","4","2","5","2","2","4","4","3","4","4","4","6","7","7","5","6","4","6","6","5","3","3","4","2","2","5","5","4","3","1","3","3","6","6","3","3","3","4","3","3","3","3","2","2","3","5","2","4","5","5","7","3","5","4","3","2","3","3","3","4","798586383785664514","李","599","Male","[""坏他"",""好他"",""坏我"",""好我""]","[""弱他"",""强他"",""弱我"",""强我""]","","","","","","","","no","","","","","","","","","SRET","EW_formal","","key","f","6.059649122807017","853.3333333333334","529.3333333333334","自己","淫乱","Negative","morality","","","","","","","","","","",""
"660","","j","psychophysics","38","274312","0.0-7.0-3.0-0.24","3","2","2","1","1","3","2","2","3","4","4","-2","0","-1","1","-1","0","0","1","4","2","5","2","2","4","4","3","4","4","4","6","7","7","5","6","4","6","6","5","3","3","4","2","2","5","5","4","3","1","3","3","6","6","3","3","3","4","3","3","3","3","2","2","3","5","2","4","5","5","7","3","5","4","3","2","3","3","3","4","798586383785664514","李","599","Male","[""坏他"",""好他"",""坏我"",""好我""]","[""弱他"",""强他"",""弱我"",""强我""]","","","","","","","","yes","","","","","","","","","SRET","EW_formal","","key","j","6.06043956043956","853.3333333333334","529.3333333333334","自己","能干","Positive","ability","","","","","","","","","","",""
"948","","f","psychophysics","39","276260","0.0-7.0-3.0-0.25","3","2","2","1","1","3","2","2","3","4","4","-2","0","-1","1","-1","0","0","1","4","2","5","2","2","4","4","3","4","4","4","6","7","7","5","6","4","6","6","5","3","3","4","2","2","5","5","4","3","1","3","3","6","6","3","3","3","4","3","3","3","3","2","2","3","5","2","4","5","5","7","3","5","4","3","2","3","3","3","4","798586383785664514","李","599","Male","[""坏他"",""好他"",""坏我"",""好我""]","[""弱他"",""强他"",""弱我"",""强我""]","","","","","","","","no","","","","","","","","","SRET","EW_formal","","key","f","6.060624999999891","853.3333333333334","529.3333333333334","朋友","贪污","Negative","morality","","","","","","","","","","",""
"740","","f","psychophysics","40","278000","0.0-7.0-3.0-0.26","3","2","2","1","1","3","2","2","3","4","4","-2","0","-1","1","-1","0","0","1","4","2","5","2","2","4","4","3","4","4","4","6","7","7","5","6","4","6","6","5","3","3","4","2","2","5","5","4","3","1","3","3","6","6","3","3","3","4","3","3","3","3","2","2","3","5","2","4","5","5","7","3","5","4","3","2","3","3","3","4","798586383785664514","李","599","Male","[""坏他"",""好他"",""坏我"",""好我""]","[""弱他"",""强他"",""弱我"",""强我""]","","","","","","","","no","","","","","","","","","SRET","EW_formal","","key","f","6.081403508771767","853.3333333333334","529.3333333333334","自己","阴毒","Negative","morality","","","","","","","","","","",""
"647","","f","psychophysics","41","279648","0.0-7.0-3.0-0.27","3","2","2","1","1","3","2","2","3","4","4","-2","0","-1","1","-1","0","0","1","4","2","5","2","2","4","4","3","4","4","4","6","7","7","5","6","4","6","6","5","3","3","4","2","2","5","5","4","3","1","3","3","6","6","3","3","3","4","3","3","3","3","2","2","3","5","2","4","5","5","7","3","5","4","3","2","3","3","3","4","798586383785664514","李","599","Male","[""坏他"",""好他"",""坏我"",""好我""]","[""弱他"",""强他"",""弱我"",""强我""]","","","","","","","","no","","","","","","","","","SRET","EW_formal","","key","f","6.060885608856089","853.3333333333334","529.3333333333334","自己","恶劣","Negative","morality","","","","","","","","","","",""
"855","","j","psychophysics","42","281504","0.0-7.0-3.0-0.28","3","2","2","1","1","3","2","2","3","4","4","-2","0","-1","1","-1","0","0","1","4","2","5","2","2","4","4","3","4","4","4","6","7","7","5","6","4","6","6","5","3","3","4","2","2","5","5","4","3","1","3","3","6","6","3","3","3","4","3","3","3","3","2","2","3","5","2","4","5","5","7","3","5","4","3","2","3","3","3","4","798586383785664514","李","599","Male","[""坏他"",""好他"",""坏我"",""好我""]","[""弱他"",""强他"",""弱我"",""强我""]","","","","","","","","yes","","","","","","","","","SRET","EW_formal","","key","j","6.060457516339869","853.3333333333334","529.3333333333334","朋友","廉明","Positive","morality","","","","","","","","","","",""
"785","","j","psychophysics","43","283290","0.0-7.0-3.0-0.29","3","2","2","1","1","3","2","2","3","4","4","-2","0","-1","1","-1","0","0","1","4","2","5","2","2","4","4","3","4","4","4","6","7","7","5","6","4","6","6","5","3","3","4","2","2","5","5","4","3","1","3","3","6","6","3","3","3","4","3","3","3","3","2","2","3","5","2","4","5","5","7","3","5","4","3","2","3","3","3","4","798586383785664514","李","599","Male","[""坏他"",""好他"",""坏我"",""好我""]","[""弱他"",""强他"",""弱我"",""强我""]","","","","","","","","yes","","","","","","","","","SRET","EW_formal","","key","j","6.060068259385785","853.3333333333334","529.3333333333334","自己","仁爱","Positive","morality","","","","","","","","","","",""
"593","","j","psychophysics","44","284884","0.0-7.0-3.0-0.30","3","2","2","1","1","3","2","2","3","4","4","-2","0","-1","1","-1","0","0","1","4","2","5","2","2","4","4","3","4","4","4","6","7","7","5","6","4","6","6","5","3","3","4","2","2","5","5","4","3","1","3","3","6","6","3","3","3","4","3","3","3","3","2","2","3","5","2","4","5","5","7","3","5","4","3","2","3","3","3","4","798586383785664514","李","599","Male","[""坏他"",""好他"",""坏我"",""好我""]","[""弱他"",""强他"",""弱我"",""强我""]","","","","","","","","yes","","","","","","","","","SRET","EW_formal","","key","j","6.0606870229008525","853.3333333333334","529.3333333333334","朋友","仁厚","Positive","morality","","","","","","","","","","",""
"697","","j","psychophysics","45","286582","0.0-7.0-3.0-0.31","3","2","2","1","1","3","2","2","3","4","4","-2","0","-1","1","-1","0","0","1","4","2","5","2","2","4","4","3","4","4","4","6","7","7","5","6","4","6","6","5","3","3","4","2","2","5","5","4","3","1","3","3","6","6","3","3","3","4","3","3","3","3","2","2","3","5","2","4","5","5","7","3","5","4","3","2","3","3","3","4","798586383785664514","李","599","Male","[""坏他"",""好他"",""坏我"",""好我""]","[""弱他"",""强他"",""弱我"",""强我""]","","","","","","","","yes","","","","","","","","","SRET","EW_formal","","key","j","6.060215053763399","853.3333333333334","529.3333333333334","自己","文明","Positive","morality","","","","","","","","","","",""
"777","","j","psychophysics","46","288360","0.0-7.0-3.0-0.32","3","2","2","1","1","3","2","2","3","4","4","-2","0","-1","1","-1","0","0","1","4","2","5","2","2","4","4","3","4","4","4","6","7","7","5","6","4","6","6","5","3","3","4","2","2","5","5","4","3","1","3","3","6","6","3","3","3","4","3","3","3","3","2","2","3","5","2","4","5","5","7","3","5","4","3","2","3","3","3","4","798586383785664514","李","599","Male","[""坏他"",""好他"",""坏我"",""好我""]","[""弱他"",""强他"",""弱我"",""强我""]","","","","","","","","yes","","","","","","","","","SRET","EW_formal","","key","j","6.060750853242281","853.3333333333334","529.3333333333334","朋友","忠义","Positive","morality","","","","","","","","","","",""
"1191","","f","psychophysics","47","290552","0.0-7.0-3.0-0.33","3","2","2","1","1","3","2","2","3","4","4","-2","0","-1","1","-1","0","0","1","4","2","5","2","2","4","4","3","4","4","4","6","7","7","5","6","4","6","6","5","3","3","4","2","2","5","5","4","3","1","3","3","6","6","3","3","3","4","3","3","3","3","2","2","3","5","2","4","5","5","7","3","5","4","3","2","3","3","3","4","798586383785664514","李","599","Male","[""坏他"",""好他"",""坏我"",""好我""]","[""弱他"",""强他"",""弱我"",""强我""]","","","","","","","","no","","","","","","","","","SRET","EW_formal","","key","f","6.060387811634317","853.3333333333334","529.3333333333334","自己","畏难","Negative","ability","","","","","","","","","","",""
"865","","f","psychophysics","48","292418","0.0-7.0-3.0-0.34","3","2","2","1","1","3","2","2","3","4","4","-2","0","-1","1","-1","0","0","1","4","2","5","2","2","4","4","3","4","4","4","6","7","7","5","6","4","6","6","5","3","3","4","2","2","5","5","4","3","1","3","3","6","6","3","3","3","4","3","3","3","3","2","2","3","5","2","4","5","5","7","3","5","4","3","2","3","3","3","4","798586383785664514","李","599","Male","[""坏他"",""好他"",""坏我"",""好我""]","[""弱他"",""强他"",""弱我"",""强我""]","","","","","","","","no","","","","","","","","","SRET","EW_formal","","key","f","6.060457516339869","853.3333333333334","529.3333333333334","朋友","不良","Negative","morality","","","","","","","","","","",""
"892","","f","psychophysics","49","294312","0.0-7.0-3.0-0.35","3","2","2","1","1","3","2","2","3","4","4","-2","0","-1","1","-1","0","0","1","4","2","5","2","2","4","4","3","4","4","4","6","7","7","5","6","4","6","6","5","3","3","4","2","2","5","5","4","3","1","3","3","6","6","3","3","3","4","3","3","3","3","2","2","3","5","2","4","5","5","7","3","5","4","3","2","3","3","3","4","798586383785664514","李","599","Male","[""坏他"",""好他"",""坏我"",""好我""]","[""弱他"",""强他"",""弱我"",""强我""]","","","","","","","","no","","","","","","","","","SRET","EW_formal","","key","f","6.060256410256559","853.3333333333334","529.3333333333334","朋友","草率","Negative","ability","","","","","","","","","","",""
"549","","f","psychophysics","50","295862","0.0-7.0-3.0-0.36","3","2","2","1","1","3","2","2","3","4","4","-2","0","-1","1","-1","0","0","1","4","2","5","2","2","4","4","3","4","4","4","6","7","7","5","6","4","6","6","5","3","3","4","2","2","5","5","4","3","1","3","3","6","6","3","3","3","4","3","3","3","3","2","2","3","5","2","4","5","5","7","3","5","4","3","2","3","3","3","4","798586383785664514","李","599","Male","[""坏他"",""好他"",""坏我"",""好我""]","[""弱他"",""强他"",""弱我"",""强我""]","","","","","","","","no","","","","","","","","","SRET","EW_formal","","key","f","6.060000000000183","853.3333333333334","529.3333333333334","朋友","不仁","Negative","morality","","","","","","","","","","",""
"639","","j","psychophysics","51","297502","0.0-7.0-3.0-0.37","3","2","2","1","1","3","2","2","3","4","4","-2","0","-1","1","-1","0","0","1","4","2","5","2","2","4","4","3","4","4","4","6","7","7","5","6","4","6","6","5","3","3","4","2","2","5","5","4","3","1","3","3","6","6","3","3","3","4","3","3","3","3","2","2","3","5","2","4","5","5","7","3","5","4","3","2","3","3","3","4","798586383785664514","李","599","Male","[""坏他"",""好他"",""坏我"",""好我""]","[""弱他"",""强他"",""弱我"",""强我""]","","","","","","","","yes","","","","","","","","","SRET","EW_formal","","key","j","6.06059479553899","853.3333333333334","529.3333333333334","自己","上进","Positive","ability","","","","","","","","","","",""
"654","","j","psychophysics","52","299157","0.0-7.0-3.0-0.38","3","2","2","1","1","3","2","2","3","4","4","-2","0","-1","1","-1","0","0","1","4","2","5","2","2","4","4","3","4","4","4","6","7","7","5","6","4","6","6","5","3","3","4","2","2","5","5","4","3","1","3","3","6","6","3","3","3","4","3","3","3","3","2","2","3","5","2","4","5","5","7","3","5","4","3","2","3","3","3","4","798586383785664514","李","599","Male","[""坏他"",""好他"",""坏我"",""好我""]","[""弱他"",""强他"",""弱我"",""强我""]","","","","","","","","yes","","","","","","","","","SRET","EW_formal","","key","j","6.060661764705882","853.3333333333334","529.3333333333334","自己","独断","Negative","ability","","","","","","","","","","",""
"577","","j","psychophysics","53","300734","0.0-7.0-3.0-0.39","3","2","2","1","1","3","2","2","3","4","4","-2","0","-1","1","-1","0","0","1","4","2","5","2","2","4","4","3","4","4","4","6","7","7","5","6","4","6","6","5","3","3","4","2","2","5","5","4","3","1","3","3","6","6","3","3","3","4","3","3","3","3","2","2","3","5","2","4","5","5","7","3","5","4","3","2","3","3","3","4","798586383785664514","李","599","Male","[""坏他"",""好他"",""坏我"",""好我""]","[""弱他"",""强他"",""弱我"",""强我""]","","","","","","","","yes","","","","","","","","","SRET","EW_formal","","key","j","6.060769230769186","853.3333333333334","529.3333333333334","自己","敬业","Positive","morality","","","","","","","","","","",""
"621","","f","psychophysics","54","302356","0.0-7.0-3.0-0.40","3","2","2","1","1","3","2","2","3","4","4","-2","0","-1","1","-1","0","0","1","4","2","5","2","2","4","4","3","4","4","4","6","7","7","5","6","4","6","6","5","3","3","4","2","2","5","5","4","3","1","3","3","6","6","3","3","3","4","3","3","3","3","2","2","3","5","2","4","5","5","7","3","5","4","3","2","3","3","3","4","798586383785664514","李","599","Male","[""坏他"",""好他"",""坏我"",""好我""]","[""弱他"",""强他"",""弱我"",""强我""]","","","","","","","","no","","","","","","","","","SRET","EW_formal","","key","f","6.060526315789386","853.3333333333334","529.3333333333334","自己","驽钝","Negative","ability","","","","","","","","","","",""
"693","","f","psychophysics","55","304050","0.0-7.0-3.0-0.41","3","2","2","1","1","3","2","2","3","4","4","-2","0","-1","1","-1","0","0","1","4","2","5","2","2","4","4","3","4","4","4","6","7","7","5","6","4","6","6","5","3","3","4","2","2","5","5","4","3","1","3","3","6","6","3","3","3","4","3","3","3","3","2","2","3","5","2","4","5","5","7","3","5","4","3","2","3","3","3","4","798586383785664514","李","599","Male","[""坏他"",""好他"",""坏我"",""好我""]","[""弱他"",""强他"",""弱我"",""强我""]","","","","","","","","no","","","","","","","","","SRET","EW_formal","","key","f","6.060573476702593","853.3333333333334","529.3333333333334","自己","自私","Negative","morality","","","","","","","","","","",""
"931","","f","psychophysics","56","305982","0.0-7.0-3.0-0.42","3","2","2","1","1","3","2","2","3","4","4","-2","0","-1","1","-1","0","0","1","4","2","5","2","2","4","4","3","4","4","4","6","7","7","5","6","4","6","6","5","3","3","4","2","2","5","5","4","3","1","3","3","6","6","3","3","3","4","3","3","3","3","2","2","3","5","2","4","5","5","7","3","5","4","3","2","3","3","3","4","798586383785664514","李","599","Male","[""坏他"",""好他"",""坏我"",""好我""]","[""弱他"",""强他"",""弱我"",""强我""]","","","","","","","","no","","","","","","","","","SRET","EW_formal","","key","f","6.06025236593071","853.3333333333334","529.3333333333334","朋友","果断","Positive","ability","","","","","","","","","","",""
"1193","","f","psychophysics","57","308176","0.0-7.0-3.0-0.43","3","2","2","1","1","3","2","2","3","4","4","-2","0","-1","1","-1","0","0","1","4","2","5","2","2","4","4","3","4","4","4","6","7","7","5","6","4","6","6","5","3","3","4","2","2","5","5","4","3","1","3","3","6","6","3","3","3","4","3","3","3","3","2","2","3","5","2","4","5","5","7","3","5","4","3","2","3","3","3","4","798586383785664514","李","599","Male","[""坏他"",""好他"",""坏我"",""好我""]","[""弱他"",""强他"",""弱我"",""强我""]","","","","","","","","no","","","","","","","","","SRET","EW_formal","","key","f","6.060773480662983","853.3333333333334","529.3333333333334","自己","混账","Negative","morality","","","","","","","","","","",""
"548","","f","psychophysics","58","309727","0.0-7.0-3.0-0.44","3","2","2","1","1","3","2","2","3","4","4","-2","0","-1","1","-1","0","0","1","4","2","5","2","2","4","4","3","4","4","4","6","7","7","5","6","4","6","6","5","3","3","4","2","2","5","5","4","3","1","3","3","6","6","3","3","3","4","3","3","3","3","2","2","3","5","2","4","5","5","7","3","5","4","3","2","3","3","3","4","798586383785664514","李","599","Male","[""坏他"",""好他"",""坏我"",""好我""]","[""弱他"",""强他"",""弱我"",""强我""]","","","","","","","","no","","","","","","","","","SRET","EW_formal","","key","f","6.060236220472395","853.3333333333334","529.3333333333334","自己","笨蛋","Negative","ability","","","","","","","","","","",""
"541","","f","psychophysics","59","311270","0.0-7.0-3.0-0.45","3","2","2","1","1","3","2","2","3","4","4","-2","0","-1","1","-1","0","0","1","4","2","5","2","2","4","4","3","4","4","4","6","7","7","5","6","4","6","6","5","3","3","4","2","2","5","5","4","3","1","3","3","6","6","3","3","3","4","3","3","3","3","2","2","3","5","2","4","5","5","7","3","5","4","3","2","3","3","3","4","798586383785664514","李","599","Male","[""坏他"",""好他"",""坏我"",""好我""]","[""弱他"",""强他"",""弱我"",""强我""]","","","","","","","","no","","","","","","","","","SRET","EW_formal","","key","f","6.061023622047244","853.3333333333334","529.3333333333334","朋友","腐败","Negative","morality","","","","","","","","","","",""
"759","","j","psychophysics","60","313030","0.0-7.0-3.0-0.46","3","2","2","1","1","3","2","2","3","4","4","-2","0","-1","1","-1","0","0","1","4","2","5","2","2","4","4","3","4","4","4","6","7","7","5","6","4","6","6","5","3","3","4","2","2","5","5","4","3","1","3","3","6","6","3","3","3","4","3","3","3","3","2","2","3","5","2","4","5","5","7","3","5","4","3","2","3","3","3","4","798586383785664514","李","599","Male","[""坏他"",""好他"",""坏我"",""好我""]","[""弱他"",""强他"",""弱我"",""强我""]","","","","","","","","yes","","","","","","","","","SRET","EW_formal","","key","j","6.060207612456828","853.3333333333334","529.3333333333334","朋友","勤奋","Positive","ability","","","","","","","","","","",""
"1044","","f","psychophysics","61","315076","0.0-7.0-3.0-0.47","3","2","2","1","1","3","2","2","3","4","4","-2","0","-1","1","-1","0","0","1","4","2","5","2","2","4","4","3","4","4","4","6","7","7","5","6","4","6","6","5","3","3","4","2","2","5","5","4","3","1","3","3","6","6","3","3","3","4","3","3","3","3","2","2","3","5","2","4","5","5","7","3","5","4","3","2","3","3","3","4","798586383785664514","李","599","Male","[""坏他"",""好他"",""坏我"",""好我""]","[""弱他"",""强他"",""弱我"",""强我""]","","","","","","","","no","","","","","","","","","SRET","EW_formal","","key","f","6.060237388724001","853.3333333333334","529.3333333333334","自己","迂拙","Negative","ability","","","","","","","","","","",""
"697","","j","psychophysics","62","316774","0.0-7.0-3.0-0.48","3","2","2","1","1","3","2","2","3","4","4","-2","0","-1","1","-1","0","0","1","4","2","5","2","2","4","4","3","4","4","4","6","7","7","5","6","4","6","6","5","3","3","4","2","2","5","5","4","3","1","3","3","6","6","3","3","3","4","3","3","3","3","2","2","3","5","2","4","5","5","7","3","5","4","3","2","3","3","3","4","798586383785664514","李","599","Male","[""坏他"",""好他"",""坏我"",""好我""]","[""弱他"",""强他"",""弱我"",""强我""]","","","","","","","","yes","","","","","","","","","SRET","EW_formal","","key","j","6.082374100719508","853.3333333333334","529.3333333333334","自己","刻苦","Positive","ability","","","","","","","","","","",""
"665","","f","psychophysics","63","318440","0.0-7.0-3.0-0.49","3","2","2","1","1","3","2","2","3","4","4","-2","0","-1","1","-1","0","0","1","4","2","5","2","2","4","4","3","4","4","4","6","7","7","5","6","4","6","6","5","3","3","4","2","2","5","5","4","3","1","3","3","6","6","3","3","3","4","3","3","3","3","2","2","3","5","2","4","5","5","7","3","5","4","3","2","3","3","3","4","798586383785664514","李","599","Male","[""坏他"",""好他"",""坏我"",""好我""]","[""弱他"",""强他"",""弱我"",""强我""]","","","","","","","","no","","","","","","","","","SRET","EW_formal","","key","f","6.0605839416057545","853.3333333333334","529.3333333333334","朋友","顶事","Positive","ability","","","","","","","","","","",""
"1353","","j","psychophysics","64","320794","0.0-7.0-3.0-0.50","3","2","2","1","1","3","2","2","3","4","4","-2","0","-1","1","-1","0","0","1","4","2","5","2","2","4","4","3","4","4","4","6","7","7","5","6","4","6","6","5","3","3","4","2","2","5","5","4","3","1","3","3","6","6","3","3","3","4","3","3","3","3","2","2","3","5","2","4","5","5","7","3","5","4","3","2","3","3","3","4","798586383785664514","李","599","Male","[""坏他"",""好他"",""坏我"",""好我""]","[""弱他"",""强他"",""弱我"",""强我""]","","","","","","","","yes","","","","","","","","","SRET","EW_formal","","key","j","6.0603092783504255","853.3333333333334","529.3333333333334","自己","坚持","Positive","ability","","","","","","","","","","",""
"635","","f","psychophysics","65","322429","0.0-7.0-3.0-0.51","3","2","2","1","1","3","2","2","3","4","4","-2","0","-1","1","-1","0","0","1","4","2","5","2","2","4","4","3","4","4","4","6","7","7","5","6","4","6","6","5","3","3","4","2","2","5","5","4","3","1","3","3","6","6","3","3","3","4","3","3","3","3","2","2","3","5","2","4","5","5","7","3","5","4","3","2","3","3","3","4","798586383785664514","李","599","Male","[""坏他"",""好他"",""坏我"",""好我""]","[""弱他"",""强他"",""弱我"",""强我""]","","","","","","","","no","","","","","","","","","SRET","EW_formal","","key","f","6.060447761193856","853.3333333333334","529.3333333333334","朋友","无耻","Negative","morality","","","","","","","","","","",""
"616","","f","psychophysics","66","324047","0.0-7.0-3.0-0.52","3","2","2","1","1","3","2","2","3","4","4","-2","0","-1","1","-1","0","0","1","4","2","5","2","2","4","4","3","4","4","4","6","7","7","5","6","4","6","6","5","3","3","4","2","2","5","5","4","3","1","3","3","6","6","3","3","3","4","3","3","3","3","2","2","3","5","2","4","5","5","7","3","5","4","3","2","3","3","3","4","798586383785664514","李","599","Male","[""坏他"",""好他"",""坏我"",""好我""]","[""弱他"",""强他"",""弱我"",""强我""]","","","","","","","","no","","","","","","","","","SRET","EW_formal","","key","f","6.0605263157896045","853.3333333333334","529.3333333333334","朋友","狡狯","Negative","morality","","","","","","","","","","",""
"886","","f","psychophysics","67","325935","0.0-7.0-3.0-0.53","3","2","2","1","1","3","2","2","3","4","4","-2","0","-1","1","-1","0","0","1","4","2","5","2","2","4","4","3","4","4","4","6","7","7","5","6","4","6","6","5","3","3","4","2","2","5","5","4","3","1","3","3","6","6","3","3","3","4","3","3","3","3","2","2","3","5","2","4","5","5","7","3","5","4","3","2","3","3","3","4","798586383785664514","李","599","Male","[""坏他"",""好他"",""坏我"",""好我""]","[""弱他"",""强他"",""弱我"",""强我""]","","","","","","","","no","","","","","","","","","SRET","EW_formal","","key","f","6.0604501607716665","853.3333333333334","529.3333333333334","朋友","奉献","Positive","morality","","","","","","","","","","",""
"525","","f","psychophysics","68","327461","0.0-7.0-3.0-0.54","3","2","2","1","1","3","2","2","3","4","4","-2","0","-1","1","-1","0","0","1","4","2","5","2","2","4","4","3","4","4","4","6","7","7","5","6","4","6","6","5","3","3","4","2","2","5","5","4","3","1","3","3","6","6","3","3","3","4","3","3","3","3","2","2","3","5","2","4","5","5","7","3","5","4","3","2","3","3","3","4","798586383785664514","李","599","Male","[""坏他"",""好他"",""坏我"",""好我""]","[""弱他"",""强他"",""弱我"",""强我""]","","","","","","","","no","","","","","","","","","SRET","EW_formal","","key","f","6.060159362549708","853.3333333333334","529.3333333333334","自己","低劣","Negative","morality","","","","","","","","","","",""
"685","","f","psychophysics","69","329147","0.0-7.0-3.0-0.55","3","2","2","1","1","3","2","2","3","4","4","-2","0","-1","1","-1","0","0","1","4","2","5","2","2","4","4","3","4","4","4","6","7","7","5","6","4","6","6","5","3","3","4","2","2","5","5","4","3","1","3","3","6","6","3","3","3","4","3","3","3","3","2","2","3","5","2","4","5","5","7","3","5","4","3","2","3","3","3","4","798586383785664514","李","599","Male","[""坏他"",""好他"",""坏我"",""好我""]","[""弱他"",""强他"",""弱我"",""强我""]","","","","","","","","no","","","","","","","","","SRET","EW_formal","","key","f","6.060288808664302","853.3333333333334","529.3333333333334","朋友","坦荡","Positive","morality","","","","","","","","","","",""
"586","","j","psychophysics","70","330733","0.0-7.0-3.0-0.56","3","2","2","1","1","3","2","2","3","4","4","-2","0","-1","1","-1","0","0","1","4","2","5","2","2","4","4","3","4","4","4","6","7","7","5","6","4","6","6","5","3","3","4","2","2","5","5","4","3","1","3","3","6","6","3","3","3","4","3","3","3","3","2","2","3","5","2","4","5","5","7","3","5","4","3","2","3","3","3","4","798586383785664514","李","599","Male","[""坏他"",""好他"",""坏我"",""好我""]","[""弱他"",""强他"",""弱我"",""强我""]","","","","","","","","yes","","","","","","","","","SRET","EW_formal","","key","j","6.060536398467389","853.3333333333334","529.3333333333334","朋友","敏捷","Positive","ability","","","","","","","","","","",""
"564","","j","psychophysics","71","332298","0.0-7.0-3.0-0.57","3","2","2","1","1","3","2","2","3","4","4","-2","0","-1","1","-1","0","0","1","4","2","5","2","2","4","4","3","4","4","4","6","7","7","5","6","4","6","6","5","3","3","4","2","2","5","5","4","3","1","3","3","6","6","3","3","3","4","3","3","3","3","2","2","3","5","2","4","5","5","7","3","5","4","3","2","3","3","3","4","798586383785664514","李","599","Male","[""坏他"",""好他"",""坏我"",""好我""]","[""弱他"",""强他"",""弱我"",""强我""]","","","","","","","","yes","","","","","","","","","SRET","EW_formal","","key","j","6.060311284046692","853.3333333333334","529.3333333333334","自己","善心","Positive","morality","","","","","","","","","","",""
"608","","f","psychophysics","72","333907","0.0-7.0-3.0-0.58","3","2","2","1","1","3","2","2","3","4","4","-2","0","-1","1","-1","0","0","1","4","2","5","2","2","4","4","3","4","4","4","6","7","7","5","6","4","6","6","5","3","3","4","2","2","5","5","4","3","1","3","3","6","6","3","3","3","4","3","3","3","3","2","2","3","5","2","4","5","5","7","3","5","4","3","2","3","3","3","4","798586383785664514","李","599","Male","[""坏他"",""好他"",""坏我"",""好我""]","[""弱他"",""强他"",""弱我"",""强我""]","","","","","","","","no","","","","","","","","","SRET","EW_formal","","key","f","6.0606060606060606","853.3333333333334","529.3333333333334","朋友","愚痴","Negative","ability","","","","","","","","","","",""
"668","","f","psychophysics","73","335577","0.0-7.0-3.0-0.59","3","2","2","1","1","3","2","2","3","4","4","-2","0","-1","1","-1","0","0","1","4","2","5","2","2","4","4","3","4","4","4","6","7","7","5","6","4","6","6","5","3","3","4","2","2","5","5","4","3","1","3","3","6","6","3","3","3","4","3","3","3","3","2","2","3","5","2","4","5","5","7","3","5","4","3","2","3","3","3","4","798586383785664514","李","599","Male","[""坏他"",""好他"",""坏我"",""好我""]","[""弱他"",""强他"",""弱我"",""强我""]","","","","","","","","no","","","","","","","","","SRET","EW_formal","","key","f","6.060727272727315","853.3333333333334","529.3333333333334","朋友","拖拉","Negative","ability","","","","","","","","","","",""
"631","","f","psychophysics","74","337209","0.0-7.0-3.0-0.60","3","2","2","1","1","3","2","2","3","4","4","-2","0","-1","1","-1","0","0","1","4","2","5","2","2","4","4","3","4","4","4","6","7","7","5","6","4","6","6","5","3","3","4","2","2","5","5","4","3","1","3","3","6","6","3","3","3","4","3","3","3","3","2","2","3","5","2","4","5","5","7","3","5","4","3","2","3","3","3","4","798586383785664514","李","599","Male","[""坏他"",""好他"",""坏我"",""好我""]","[""弱他"",""强他"",""弱我"",""强我""]","","","","","","","","no","","","","","","","","","SRET","EW_formal","","key","f","6.0835205992508925","853.3333333333334","529.3333333333334","自己","歹毒","Negative","morality","","","","","","","","","","",""
"737","","f","psychophysics","75","338947","0.0-7.0-3.0-0.61","3","2","2","1","1","3","2","2","3","4","4","-2","0","-1","1","-1","0","0","1","4","2","5","2","2","4","4","3","4","4","4","6","7","7","5","6","4","6","6","5","3","3","4","2","2","5","5","4","3","1","3","3","6","6","3","3","3","4","3","3","3","3","2","2","3","5","2","4","5","5","7","3","5","4","3","2","3","3","3","4","798586383785664514","李","599","Male","[""坏他"",""好他"",""坏我"",""好我""]","[""弱他"",""强他"",""弱我"",""强我""]","","","","","","","","no","","","","","","","","","SRET","EW_formal","","key","f","6.081754385964872","853.3333333333334","529.3333333333334","朋友","怠惰","Negative","ability","","","","","","","","","","",""
"668","","f","psychophysics","76","340615","0.0-7.0-3.0-0.62","3","2","2","1","1","3","2","2","3","4","4","-2","0","-1","1","-1","0","0","1","4","2","5","2","2","4","4","3","4","4","4","6","7","7","5","6","4","6","6","5","3","3","4","2","2","5","5","4","3","1","3","3","6","6","3","3","3","4","3","3","3","3","2","2","3","5","2","4","5","5","7","3","5","4","3","2","3","3","3","4","798586383785664514","李","599","Male","[""坏他"",""好他"",""坏我"",""好我""]","[""弱他"",""强他"",""弱我"",""强我""]","","","","","","","","no","","","","","","","","","SRET","EW_formal","","key","f","6.0813186813185105","853.3333333333334","529.3333333333334","朋友","果决","Positive","ability","","","","","","","","","","",""
"764","","j","psychophysics","77","342380","0.0-7.0-3.0-0.63","3","2","2","1","1","3","2","2","3","4","4","-2","0","-1","1","-1","0","0","1","4","2","5","2","2","4","4","3","4","4","4","6","7","7","5","6","4","6","6","5","3","3","4","2","2","5","5","4","3","1","3","3","6","6","3","3","3","4","3","3","3","3","2","2","3","5","2","4","5","5","7","3","5","4","3","2","3","3","3","4","798586383785664514","李","599","Male","[""坏他"",""好他"",""坏我"",""好我""]","[""弱他"",""强他"",""弱我"",""强我""]","","","","","","","","yes","","","","","","","","","SRET","EW_formal","","key","j","6.060344827586207","853.3333333333334","529.3333333333334","自己","智慧","Positive","ability","","","","","","","","","","",""
"688","","j","psychophysics","78","344069","0.0-7.0-3.0-0.64","3","2","2","1","1","3","2","2","3","4","4","-2","0","-1","1","-1","0","0","1","4","2","5","2","2","4","4","3","4","4","4","6","7","7","5","6","4","6","6","5","3","3","4","2","2","5","5","4","3","1","3","3","6","6","3","3","3","4","3","3","3","3","2","2","3","5","2","4","5","5","7","3","5","4","3","2","3","3","3","4","798586383785664514","李","599","Male","[""坏他"",""好他"",""坏我"",""好我""]","[""弱他"",""强他"",""弱我"",""强我""]","","","","","","","","yes","","","","","","","","","SRET","EW_formal","","key","j","6.060791366906349","853.3333333333334","529.3333333333334","自己","有力","Positive","ability","","","","","","","","","","",""
"661","","f","psychophysics","79","345731","0.0-7.0-3.0-0.65","3","2","2","1","1","3","2","2","3","4","4","-2","0","-1","1","-1","0","0","1","4","2","5","2","2","4","4","3","4","4","4","6","7","7","5","6","4","6","6","5","3","3","4","2","2","5","5","4","3","1","3","3","6","6","3","3","3","4","3","3","3","3","2","2","3","5","2","4","5","5","7","3","5","4","3","2","3","3","3","4","798586383785664514","李","599","Male","[""坏他"",""好他"",""坏我"",""好我""]","[""弱他"",""强他"",""弱我"",""强我""]","","","","","","","","no","","","","","","","","","SRET","EW_formal","","key","f","6.060073260073132","853.3333333333334","529.3333333333334","朋友","虚假","Negative","morality","","","","","","","","","","",""
"676","","j","psychophysics","80","347409","0.0-7.0-3.0-0.66","3","2","2","1","1","3","2","2","3","4","4","-2","0","-1","1","-1","0","0","1","4","2","5","2","2","4","4","3","4","4","4","6","7","7","5","6","4","6","6","5","3","3","4","2","2","5","5","4","3","1","3","3","6","6","3","3","3","4","3","3","3","3","2","2","3","5","2","4","5","5","7","3","5","4","3","2","3","3","3","4","798586383785664514","李","599","Male","[""坏他"",""好他"",""坏我"",""好我""]","[""弱他"",""强他"",""弱我"",""强我""]","","","","","","","","yes","","","","","","","","","SRET","EW_formal","","key","j","6.0605072463768535","853.3333333333334","529.3333333333334","朋友","新手","Negative","ability","","","","","","","","","","",""
"399","","f","psychophysics","81","348809","0.0-7.0-3.0-0.67","3","2","2","1","1","3","2","2","3","4","4","-2","0","-1","1","-1","0","0","1","4","2","5","2","2","4","4","3","4","4","4","6","7","7","5","6","4","6","6","5","3","3","4","2","2","5","5","4","3","1","3","3","6","6","3","3","3","4","3","3","3","3","2","2","3","5","2","4","5","5","7","3","5","4","3","2","3","3","3","4","798586383785664514","李","599","Male","[""坏他"",""好他"",""坏我"",""好我""]","[""弱他"",""强他"",""弱我"",""强我""]","","","","","","","","no","","","","","","","","","SRET","EW_formal","","key","f","6.060869565217391","853.3333333333334","529.3333333333334","朋友","短浅","Negative","ability","","","","","","","","","","",""
"917","","j","psychophysics","82","350727","0.0-7.0-3.0-0.68","3","2","2","1","1","3","2","2","3","4","4","-2","0","-1","1","-1","0","0","1","4","2","5","2","2","4","4","3","4","4","4","6","7","7","5","6","4","6","6","5","3","3","4","2","2","5","5","4","3","1","3","3","6","6","3","3","3","4","3","3","3","3","2","2","3","5","2","4","5","5","7","3","5","4","3","2","3","3","3","4","798586383785664514","李","599","Male","[""坏他"",""好他"",""坏我"",""好我""]","[""弱他"",""强他"",""弱我"",""强我""]","","","","","","","","yes","","","","","","","","","SRET","EW_formal","","key","j","6.060759493670739","853.3333333333334","529.3333333333334","自己","博学","Positive","ability","","","","","","","","","","",""
"708","","j","psychophysics","83","352436","0.0-7.0-3.0-0.69","3","2","2","1","1","3","2","2","3","4","4","-2","0","-1","1","-1","0","0","1","4","2","5","2","2","4","4","3","4","4","4","6","7","7","5","6","4","6","6","5","3","3","4","2","2","5","5","4","3","1","3","3","6","6","3","3","3","4","3","3","3","3","2","2","3","5","2","4","5","5","7","3","5","4","3","2","3","3","3","4","798586383785664514","李","599","Male","[""坏他"",""好他"",""坏我"",""好我""]","[""弱他"",""强他"",""弱我"",""强我""]","","","","","","","","yes","","","","","","","","","SRET","EW_formal","","key","j","6.060854092526815","853.3333333333334","529.3333333333334","自己","慈悲","Positive","morality","","","","","","","","","","",""
"552","","j","psychophysics","84","353989","0.0-7.0-3.0-0.70","3","2","2","1","1","3","2","2","3","4","4","-2","0","-1","1","-1","0","0","1","4","2","5","2","2","4","4","3","4","4","4","6","7","7","5","6","4","6","6","5","3","3","4","2","2","5","5","4","3","1","3","3","6","6","3","3","3","4","3","3","3","3","2","2","3","5","2","4","5","5","7","3","5","4","3","2","3","3","3","4","798586383785664514","李","599","Male","[""坏他"",""好他"",""坏我"",""好我""]","[""弱他"",""强他"",""弱我"",""强我""]","","","","","","","","yes","","","","","","","","","SRET","EW_formal","","key","j","6.0603921568626085","853.3333333333334","529.3333333333334","自己","义气","Positive","morality","","","","","","","","","","",""
"544","","f","psychophysics","85","355535","0.0-7.0-3.0-0.71","3","2","2","1","1","3","2","2","3","4","4","-2","0","-1","1","-1","0","0","1","4","2","5","2","2","4","4","3","4","4","4","6","7","7","5","6","4","6","6","5","3","3","4","2","2","5","5","4","3","1","3","3","6","6","3","3","3","4","3","3","3","3","2","2","3","5","2","4","5","5","7","3","5","4","3","2","3","3","3","4","798586383785664514","李","599","Male","[""坏他"",""好他"",""坏我"",""好我""]","[""弱他"",""强他"",""弱我"",""强我""]","","","","","","","","no","","","","","","","","","SRET","EW_formal","","key","f","6.061023622047244","853.3333333333334","529.3333333333334","自己","逞能","Negative","ability","","","","","","","","","","",""
"1085","","f","psychophysics","86","357621","0.0-7.0-3.0-0.72","3","2","2","1","1","3","2","2","3","4","4","-2","0","-1","1","-1","0","0","1","4","2","5","2","2","4","4","3","4","4","4","6","7","7","5","6","4","6","6","5","3","3","4","2","2","5","5","4","3","1","3","3","6","6","3","3","3","4","3","3","3","3","2","2","3","5","2","4","5","5","7","3","5","4","3","2","3","3","3","4","798586383785664514","李","599","Male","[""坏他"",""好他"",""坏我"",""好我""]","[""弱他"",""强他"",""弱我"",""强我""]","","","","","","","","no","","","","","","","","","SRET","EW_formal","","key","f","6.07807017543863","853.3333333333334","529.3333333333334","自己","逞强","Negative","ability","","","","","","","","","","",""
"1045","","f","psychophysics","87","359667","0.0-7.0-3.0-0.73","3","2","2","1","1","3","2","2","3","4","4","-2","0","-1","1","-1","0","0","1","4","2","5","2","2","4","4","3","4","4","4","6","7","7","5","6","4","6","6","5","3","3","4","2","2","5","5","4","3","1","3","3","6","6","3","3","3","4","3","3","3","3","2","2","3","5","2","4","5","5","7","3","5","4","3","2","3","3","3","4","798586383785664514","李","599","Male","[""坏他"",""好他"",""坏我"",""好我""]","[""弱他"",""强他"",""弱我"",""强我""]","","","","","","","","no","","","","","","","","","SRET","EW_formal","","key","f","6.059940652819026","853.3333333333334","529.3333333333334","自己","昏庸","Negative","ability","","","","","","","","","","",""
"987","","f","psychophysics","88","361655","0.0-7.0-3.0-0.74","3","2","2","1","1","3","2","2","3","4","4","-2","0","-1","1","-1","0","0","1","4","2","5","2","2","4","4","3","4","4","4","6","7","7","5","6","4","6","6","5","3","3","4","2","2","5","5","4","3","1","3","3","6","6","3","3","3","4","3","3","3","3","2","2","3","5","2","4","5","5","7","3","5","4","3","2","3","3","3","4","798586383785664514","李","599","Male","[""坏他"",""好他"",""坏我"",""好我""]","[""弱他"",""强他"",""弱我"",""强我""]","","","","","","","","no","","","","","","","","","SRET","EW_formal","","key","f","6.078834355828078","853.3333333333334","529.3333333333334","朋友","浅薄","Negative","ability","","","","","","","","","","",""
"608","","j","psychophysics","89","363264","0.0-7.0-3.0-0.75","3","2","2","1","1","3","2","2","3","4","4","-2","0","-1","1","-1","0","0","1","4","2","5","2","2","4","4","3","4","4","4","6","7","7","5","6","4","6","6","5","3","3","4","2","2","5","5","4","3","1","3","3","6","6","3","3","3","4","3","3","3","3","2","2","3","5","2","4","5","5","7","3","5","4","3","2","3","3","3","4","798586383785664514","李","599","Male","[""坏他"",""好他"",""坏我"",""好我""]","[""弱他"",""强他"",""弱我"",""强我""]","","","","","","","","yes","","","","","","","","","SRET","EW_formal","","key","j","6.0606060606060606","853.3333333333334","529.3333333333334","朋友","刚正","Positive","morality","","","","","","","","","","",""
"633","","j","psychophysics","90","364897","0.0-7.0-3.0-0.76","3","2","2","1","1","3","2","2","3","4","4","-2","0","-1","1","-1","0","0","1","4","2","5","2","2","4","4","3","4","4","4","6","7","7","5","6","4","6","6","5","3","3","4","2","2","5","5","4","3","1","3","3","6","6","3","3","3","4","3","3","3","3","2","2","3","5","2","4","5","5","7","3","5","4","3","2","3","3","3","4","798586383785664514","李","599","Male","[""坏他"",""好他"",""坏我"",""好我""]","[""弱他"",""强他"",""弱我"",""强我""]","","","","","","","","yes","","","","","","","","","SRET","EW_formal","","key","j","6.06059479553899","853.3333333333334","529.3333333333334","自己","利己","Negative","morality","","","","","","","","","","",""
"586","","j","psychophysics","91","366483","0.0-7.0-3.0-0.77","3","2","2","1","1","3","2","2","3","4","4","-2","0","-1","1","-1","0","0","1","4","2","5","2","2","4","4","3","4","4","4","6","7","7","5","6","4","6","6","5","3","3","4","2","2","5","5","4","3","1","3","3","6","6","3","3","3","4","3","3","3","3","2","2","3","5","2","4","5","5","7","3","5","4","3","2","3","3","3","4","798586383785664514","李","599","Male","[""坏他"",""好他"",""坏我"",""好我""]","[""弱他"",""强他"",""弱我"",""强我""]","","","","","","","","yes","","","","","","","","","SRET","EW_formal","","key","j","6.060536398467612","853.3333333333334","529.3333333333334","朋友","礼貌","Positive","morality","","","","","","","","","","",""
"802","","j","psychophysics","92","368287","0.0-7.0-3.0-0.78","3","2","2","1","1","3","2","2","3","4","4","-2","0","-1","1","-1","0","0","1","4","2","5","2","2","4","4","3","4","4","4","6","7","7","5","6","4","6","6","5","3","3","4","2","2","5","5","4","3","1","3","3","6","6","3","3","3","4","3","3","3","3","2","2","3","5","2","4","5","5","7","3","5","4","3","2","3","3","3","4","798586383785664514","李","599","Male","[""坏他"",""好他"",""坏我"",""好我""]","[""弱他"",""强他"",""弱我"",""强我""]","","","","","","","","yes","","","","","","","","","SRET","EW_formal","","key","j","6.060135135135096","853.3333333333334","529.3333333333334","朋友","沉着","Positive","ability","","","","","","","","","","",""
"781","","f","psychophysics","93","370069","0.0-7.0-3.0-0.79","3","2","2","1","1","3","2","2","3","4","4","-2","0","-1","1","-1","0","0","1","4","2","5","2","2","4","4","3","4","4","4","6","7","7","5","6","4","6","6","5","3","3","4","2","2","5","5","4","3","1","3","3","6","6","3","3","3","4","3","3","3","3","2","2","3","5","2","4","5","5","7","3","5","4","3","2","3","3","3","4","798586383785664514","李","599","Male","[""坏他"",""好他"",""坏我"",""好我""]","[""弱他"",""强他"",""弱我"",""强我""]","","","","","","","","no","","","","","","","","","SRET","EW_formal","","key","f","6.060750853242281","853.3333333333334","529.3333333333334","朋友","差生","Negative","ability","","","","","","","","","","",""
"621","","j","psychophysics","94","371691","0.0-7.0-3.0-0.80","3","2","2","1","1","3","2","2","3","4","4","-2","0","-1","1","-1","0","0","1","4","2","5","2","2","4","4","3","4","4","4","6","7","7","5","6","4","6","6","5","3","3","4","2","2","5","5","4","3","1","3","3","6","6","3","3","3","4","3","3","3","3","2","2","3","5","2","4","5","5","7","3","5","4","3","2","3","3","3","4","798586383785664514","李","599","Male","[""坏他"",""好他"",""坏我"",""好我""]","[""弱他"",""强他"",""弱我"",""强我""]","","","","","","","","yes","","","","","","","","","SRET","EW_formal","","key","j","6.060674157303414","853.3333333333334","529.3333333333334","自己","守时","Positive","morality","","","","","","","","","","",""
"555","","j","psychophysics","95","373247","0.0-7.0-3.0-0.81","3","2","2","1","1","3","2","2","3","4","4","-2","0","-1","1","-1","0","0","1","4","2","5","2","2","4","4","3","4","4","4","6","7","7","5","6","4","6","6","5","3","3","4","2","2","5","5","4","3","1","3","3","6","6","3","3","3","4","3","3","3","3","2","2","3","5","2","4","5","5","7","3","5","4","3","2","3","3","3","4","798586383785664514","李","599","Male","[""坏他"",""好他"",""坏我"",""好我""]","[""弱他"",""强他"",""弱我"",""强我""]","","","","","","","","yes","","","","","","","","","SRET","EW_formal","","key","j","6.060156249999864","853.3333333333334","529.3333333333334","自己","全才","Positive","ability","","","","","","","","","","",""
"978","","f","psychophysics","96","375226","0.0-7.0-3.0-0.82","3","2","2","1","1","3","2","2","3","4","4","-2","0","-1","1","-1","0","0","1","4","2","5","2","2","4","4","3","4","4","4","6","7","7","5","6","4","6","6","5","3","3","4","2","2","5","5","4","3","1","3","3","6","6","3","3","3","4","3","3","3","3","2","2","3","5","2","4","5","5","7","3","5","4","3","2","3","3","3","4","798586383785664514","李","599","Male","[""坏他"",""好他"",""坏我"",""好我""]","[""弱他"",""强他"",""弱我"",""强我""]","","","","","","","","no","","","","","","","","","SRET","EW_formal","","key","f","6.060615384615241","853.3333333333334","529.3333333333334","自己","无私","Positive","morality","","","","","","","","","","",""
"699","","j","psychophysics","97","376925","0.0-7.0-3.0-0.83","3","2","2","1","1","3","2","2","3","4","4","-2","0","-1","1","-1","0","0","1","4","2","5","2","2","4","4","3","4","4","4","6","7","7","5","6","4","6","6","5","3","3","4","2","2","5","5","4","3","1","3","3","6","6","3","3","3","4","3","3","3","3","2","2","3","5","2","4","5","5","7","3","5","4","3","2","3","3","3","4","798586383785664514","李","599","Male","[""坏他"",""好他"",""坏我"",""好我""]","[""弱他"",""强他"",""弱我"",""强我""]","","","","","","","","yes","","","","","","","","","SRET","EW_formal","","key","j","6.060573476702593","853.3333333333334","529.3333333333334","朋友","爱国","Positive","morality","","","","","","","","","","",""
"649","","f","psychophysics","98","378575","0.0-7.0-3.0-0.84","3","2","2","1","1","3","2","2","3","4","4","-2","0","-1","1","-1","0","0","1","4","2","5","2","2","4","4","3","4","4","4","6","7","7","5","6","4","6","6","5","3","3","4","2","2","5","5","4","3","1","3","3","6","6","3","3","3","4","3","3","3","3","2","2","3","5","2","4","5","5","7","3","5","4","3","2","3","3","3","4","798586383785664514","李","599","Male","[""坏他"",""好他"",""坏我"",""好我""]","[""弱他"",""强他"",""弱我"",""强我""]","","","","","","","","no","","","","","","","","","SRET","EW_formal","","key","f","6.060294117647144","853.3333333333334","529.3333333333334","自己","缓慢","Negative","ability","","","","","","","","","","",""
"1007","","f","psychophysics","99","380583","0.0-7.0-3.0-0.85","3","2","2","1","1","3","2","2","3","4","4","-2","0","-1","1","-1","0","0","1","4","2","5","2","2","4","4","3","4","4","4","6","7","7","5","6","4","6","6","5","3","3","4","2","2","5","5","4","3","1","3","3","6","6","3","3","3","4","3","3","3","3","2","2","3","5","2","4","5","5","7","3","5","4","3","2","3","3","3","4","798586383785664514","李","599","Male","[""坏他"",""好他"",""坏我"",""好我""]","[""弱他"",""强他"",""弱我"",""强我""]","","","","","","","","no","","","","","","","","","SRET","EW_formal","","key","f","6.060303030303101","853.3333333333334","529.3333333333334","朋友","低俗","Negative","morality","","","","","","","","","","",""
"686","","j","psychophysics","100","382270","0.0-7.0-3.0-0.86","3","2","2","1","1","3","2","2","3","4","4","-2","0","-1","1","-1","0","0","1","4","2","5","2","2","4","4","3","4","4","4","6","7","7","5","6","4","6","6","5","3","3","4","2","2","5","5","4","3","1","3","3","6","6","3","3","3","4","3","3","3","3","2","2","3","5","2","4","5","5","7","3","5","4","3","2","3","3","3","4","798586383785664514","李","599","Male","[""坏他"",""好他"",""坏我"",""好我""]","[""弱他"",""强他"",""弱我"",""强我""]","","","","","","","","yes","","","","","","","","","SRET","EW_formal","","key","j","6.059927797833851","853.3333333333334","529.3333333333334","朋友","素养","Positive","morality","","","","","","","","","","",""
"465","","j","psychophysics","101","383736","0.0-7.0-3.0-0.87","3","2","2","1","1","3","2","2","3","4","4","-2","0","-1","1","-1","0","0","1","4","2","5","2","2","4","4","3","4","4","4","6","7","7","5","6","4","6","6","5","3","3","4","2","2","5","5","4","3","1","3","3","6","6","3","3","3","4","3","3","3","3","2","2","3","5","2","4","5","5","7","3","5","4","3","2","3","3","3","4","798586383785664514","李","599","Male","[""坏他"",""好他"",""坏我"",""好我""]","[""弱他"",""强他"",""弱我"",""强我""]","","","","","","","","yes","","","","","","","","","SRET","EW_formal","","key","j","6.060165975103734","853.3333333333334","529.3333333333334","自己","主见","Positive","ability","","","","","","","","","","",""
"11311","
    <p><div style='color:white;font-size:35px; line-height:20px;'>计算任务</div></p><br>
    <p><div style='color:red;font-size:25px; line-height:20px;'>接下来，您将看到一些四则运算题，<b>请从键盘选择 0-9 进行反应。</b></div></p>
    <p><div style='color:red;font-size:25px; line-height:20px;'>请尽可能快地进行计算，计算的速度和正确率将影响报酬的发放。</div></p>
    <p><div class='footer' style='color:white;font-size:25px; line-height:20px;'>如果对本实验还有不清楚之处，请立即向实验员咨询。</p><p style='color:white;font-size:25px; line-height:20px;'>如果您明白了规则：</p><p style='color:white;font-size:22px; line-height:20px;'>请按 继续 进入练习</p>
    </div>
    ","0","html-button-response","102","395047","0.0-7.0-4.0","3","2","2","1","1","3","2","2","3","4","4","-2","0","-1","1","-1","0","0","1","4","2","5","2","2","4","4","3","4","4","4","6","7","7","5","6","4","6","6","5","3","3","4","2","2","5","5","4","3","1","3","3","6","6","3","3","3","4","3","3","3","3","2","2","3","5","2","4","5","5","7","3","5","4","3","2","3","3","3","4","798586383785664514","李","599","Male","[""坏他"",""好他"",""坏我"",""好我""]","[""弱他"",""强他"",""弱我"",""强我""]","","","","","","","","","","","","","","","","","SRET_math","math_instructions","Mon Jan 29 2024 15:23:50 GMT+0800 (中国标准时间)","","","","","","","","","","","","","","","","","","","",""
"1990","","2","psychophysics","103","397039","0.0-7.0-5.0-0.0","3","2","2","1","1","3","2","2","3","4","4","-2","0","-1","1","-1","0","0","1","4","2","5","2","2","4","4","3","4","4","4","6","7","7","5","6","4","6","6","5","3","3","4","2","2","5","5","4","3","1","3","3","6","6","3","3","3","4","3","3","3","3","2","2","3","5","2","4","5","5","7","3","5","4","3","2","3","3","3","4","798586383785664514","李","599","Male","[""坏他"",""好他"",""坏我"",""好我""]","[""弱他"",""强他"",""弱我"",""强我""]","","","","","","","","2","","","","","","","","","SRET","SRET_math_calculate","","key","2","6.06067073170721","853.3333333333334","529.3333333333334","","","","","1+1= ?","2","1","","","","","","","",""
"2034","","3","psychophysics","104","399079","0.0-7.0-5.0-0.1","3","2","2","1","1","3","2","2","3","4","4","-2","0","-1","1","-1","0","0","1","4","2","5","2","2","4","4","3","4","4","4","6","7","7","5","6","4","6","6","5","3","3","4","2","2","5","5","4","3","1","3","3","6","6","3","3","3","4","3","3","3","3","2","2","3","5","2","4","5","5","7","3","5","4","3","2","3","3","3","4","798586383785664514","李","599","Male","[""坏他"",""好他"",""坏我"",""好我""]","[""弱他"",""强他"",""弱我"",""强我""]","","","","","","","","3","","","","","","","","","SRET","SRET_math_calculate","","key","3","6.060416666666632","853.3333333333334","529.3333333333334","","","","","9-6= ?","3","1","","","","","","","",""
"2716","","1","psychophysics","105","401795","0.0-7.0-5.0-0.2","3","2","2","1","1","3","2","2","3","4","4","-2","0","-1","1","-1","0","0","1","4","2","5","2","2","4","4","3","4","4","4","6","7","7","5","6","4","6","6","5","3","3","4","2","2","5","5","4","3","1","3","3","6","6","3","3","3","4","3","3","3","3","2","2","3","5","2","4","5","5","7","3","5","4","3","2","3","3","3","4","798586383785664514","李","599","Male","[""坏他"",""好他"",""坏我"",""好我""]","[""弱他"",""强他"",""弱我"",""强我""]","","","","","","","","1","","","","","","","","","SRET","SRET_math_calculate","","key","1","6.060402684563758","853.3333333333334","529.3333333333334","","","","","32-23= ?","9","0","","","","","","","",""
"175","","1","psychophysics","106","401971","0.0-7.0-5.0-0.3","3","2","2","1","1","3","2","2","3","4","4","-2","0","-1","1","-1","0","0","1","4","2","5","2","2","4","4","3","4","4","4","6","7","7","5","6","4","6","6","5","3","3","4","2","2","5","5","4","3","1","3","3","6","6","3","3","3","4","3","3","3","3","2","2","3","5","2","4","5","5","7","3","5","4","3","2","3","3","3","4","798586383785664514","李","599","Male","[""坏他"",""好他"",""坏我"",""好我""]","[""弱他"",""强他"",""弱我"",""强我""]","","","","","","","","1","","","","","","","","","SRET","SRET_math_calculate","","key","1","6.060714285714702","853.3333333333334","529.3333333333334","","","","","3*3= ?","9","0","","","","","","","",""
"2368","","2","psychophysics","107","404345","0.0-7.0-5.0-0.4","3","2","2","1","1","3","2","2","3","4","4","-2","0","-1","1","-1","0","0","1","4","2","5","2","2","4","4","3","4","4","4","6","7","7","5","6","4","6","6","5","3","3","4","2","2","5","5","4","3","1","3","3","6","6","3","3","3","4","3","3","3","3","2","2","3","5","2","4","5","5","7","3","5","4","3","2","3","3","3","4","798586383785664514","李","599","Male","[""坏他"",""好他"",""坏我"",""好我""]","[""弱他"",""强他"",""弱我"",""强我""]","","","","","","","","2","","","","","","","","","SRET","SRET_math_calculate","","key","2","6.060358056266074","853.3333333333334","529.3333333333334","","","","","29-27= ?","2","1","","","","","","","",""
"2134","","6","psychophysics","108","406480","0.0-7.0-5.0-0.5","3","2","2","1","1","3","2","2","3","4","4","-2","0","-1","1","-1","0","0","1","4","2","5","2","2","4","4","3","4","4","4","6","7","7","5","6","4","6","6","5","3","3","4","2","2","5","5","4","3","1","3","3","6","6","3","3","3","4","3","3","3","3","2","2","3","5","2","4","5","5","7","3","5","4","3","2","3","3","3","4","798586383785664514","李","599","Male","[""坏他"",""好他"",""坏我"",""好我""]","[""弱他"",""强他"",""弱我"",""强我""]","","","","","","","","6","","","","","","","","","SRET","SRET_math_calculate","","key","6","6.060398860398894","853.3333333333334","529.3333333333334","","","","","2*3= ?","6","1","","","","","","","",""
"2765","","4","psychophysics","109","409246","0.0-7.0-5.0-0.6","3","2","2","1","1","3","2","2","3","4","4","-2","0","-1","1","-1","0","0","1","4","2","5","2","2","4","4","3","4","4","4","6","7","7","5","6","4","6","6","5","3","3","4","2","2","5","5","4","3","1","3","3","6","6","3","3","3","4","3","3","3","3","2","2","3","5","2","4","5","5","7","3","5","4","3","2","3","3","3","4","798586383785664514","李","599","Male","[""坏他"",""好他"",""坏我"",""好我""]","[""弱他"",""强他"",""弱我"",""强我""]","","","","","","","","4","","","","","","","","","SRET","SRET_math_calculate","","key","4","6.060219780219831","853.3333333333334","529.3333333333334","","","","","11-8= ?","3","0","","","","","","","",""
"1782","","5","psychophysics","110","411033","0.0-7.0-5.0-0.7","3","2","2","1","1","3","2","2","3","4","4","-2","0","-1","1","-1","0","0","1","4","2","5","2","2","4","4","3","4","4","4","6","7","7","5","6","4","6","6","5","3","3","4","2","2","5","5","4","3","1","3","3","6","6","3","3","3","4","3","3","3","3","2","2","3","5","2","4","5","5","7","3","5","4","3","2","3","3","3","4","798586383785664514","李","599","Male","[""坏他"",""好他"",""坏我"",""好我""]","[""弱他"",""强他"",""弱我"",""强我""]","","","","","","","","5","","","","","","","","","SRET","SRET_math_calculate","","key","5","6.062585034013685","853.3333333333334","529.3333333333334","","","","","3+2= ?","5","1","","","","","","","",""
"1891","","5","psychophysics","111","412926","0.0-7.0-5.0-0.8","3","2","2","1","1","3","2","2","3","4","4","-2","0","-1","1","-1","0","0","1","4","2","5","2","2","4","4","3","4","4","4","6","7","7","5","6","4","6","6","5","3","3","4","2","2","5","5","4","3","1","3","3","6","6","3","3","3","4","3","3","3","3","2","2","3","5","2","4","5","5","7","3","5","4","3","2","3","3","3","4","798586383785664514","李","599","Male","[""坏他"",""好他"",""坏我"",""好我""]","[""弱他"",""强他"",""弱我"",""强我""]","","","","","","","","5","","","","","","","","","SRET","SRET_math_calculate","","key","5","6.060576923076998","853.3333333333334","529.3333333333334","","","","","8-3= ? ","5","1","","","","","","","",""
"2551","","3","psychophysics","112","415477","0.0-7.0-5.0-0.9","3","2","2","1","1","3","2","2","3","4","4","-2","0","-1","1","-1","0","0","1","4","2","5","2","2","4","4","3","4","4","4","6","7","7","5","6","4","6","6","5","3","3","4","2","2","5","5","4","3","1","3","3","6","6","3","3","3","4","3","3","3","3","2","2","3","5","2","4","5","5","7","3","5","4","3","2","3","3","3","4","798586383785664514","李","599","Male","[""坏他"",""好他"",""坏我"",""好我""]","[""弱他"",""强他"",""弱我"",""强我""]","","","","","","","","3","","","","","","","","","SRET","SRET_math_calculate","","key","3","6.061428571428544","853.3333333333334","529.3333333333334","","","","","6/2= ?","3","1","","","","","","","",""
"2010","","8","psychophysics","113","417488","0.0-7.0-5.0-0.10","3","2","2","1","1","3","2","2","3","4","4","-2","0","-1","1","-1","0","0","1","4","2","5","2","2","4","4","3","4","4","4","6","7","7","5","6","4","6","6","5","3","3","4","2","2","5","5","4","3","1","3","3","6","6","3","3","3","4","3","3","3","3","2","2","3","5","2","4","5","5","7","3","5","4","3","2","3","3","3","4","798586383785664514","李","599","Male","[""坏他"",""好他"",""坏我"",""好我""]","[""弱他"",""强他"",""弱我"",""强我""]","","","","","","","","8","","","","","","","","","SRET","SRET_math_calculate","","key","8","6.060303030302925","853.3333333333334","529.3333333333334","","","","","5+3= ?","8","1","","","","","","","",""
"1902","","6","psychophysics","114","419396","0.0-7.0-5.0-0.11","3","2","2","1","1","3","2","2","3","4","4","-2","0","-1","1","-1","0","0","1","4","2","5","2","2","4","4","3","4","4","4","6","7","7","5","6","4","6","6","5","3","3","4","2","2","5","5","4","3","1","3","3","6","6","3","3","3","4","3","3","3","3","2","2","3","5","2","4","5","5","7","3","5","4","3","2","3","3","3","4","798586383785664514","李","599","Male","[""坏他"",""好他"",""坏我"",""好我""]","[""弱他"",""强他"",""弱我"",""强我""]","","","","","","","","6","","","","","","","","","SRET","SRET_math_calculate","","key","6","6.060509554140127","853.3333333333334","529.3333333333334","","","","","5+1= ?","6","1","","","","","","","",""
"2593","","9","psychophysics","115","421989","0.0-7.0-5.0-0.12","3","2","2","1","1","3","2","2","3","4","4","-2","0","-1","1","-1","0","0","1","4","2","5","2","2","4","4","3","4","4","4","6","7","7","5","6","4","6","6","5","3","3","4","2","2","5","5","4","3","1","3","3","6","6","3","3","3","4","3","3","3","3","2","2","3","5","2","4","5","5","7","3","5","4","3","2","3","3","3","4","798586383785664514","李","599","Male","[""坏他"",""好他"",""坏我"",""好我""]","[""弱他"",""强他"",""弱我"",""强我""]","","","","","","","","9","","","","","","","","","SRET","SRET_math_calculate","","key","9","6.0606557377048365","853.3333333333334","529.3333333333334","","","","","43-34= ?","9","1","","","","","","","",""
"2185","","3","psychophysics","116","424175","0.0-7.0-5.0-0.13","3","2","2","1","1","3","2","2","3","4","4","-2","0","-1","1","-1","0","0","1","4","2","5","2","2","4","4","3","4","4","4","6","7","7","5","6","4","6","6","5","3","3","4","2","2","5","5","4","3","1","3","3","6","6","3","3","3","4","3","3","3","3","2","2","3","5","2","4","5","5","7","3","5","4","3","2","3","3","3","4","798586383785664514","李","599","Male","[""坏他"",""好他"",""坏我"",""好我""]","[""弱他"",""强他"",""弱我"",""强我""]","","","","","","","","3","","","","","","","","","SRET","SRET_math_calculate","","key","3","6.060555555555523","853.3333333333334","529.3333333333334","","","","","3+0= ?","3","1","","","","","","","",""
"1922","","4","psychophysics","117","426103","0.0-7.0-5.0-0.14","3","2","2","1","1","3","2","2","3","4","4","-2","0","-1","1","-1","0","0","1","4","2","5","2","2","4","4","3","4","4","4","6","7","7","5","6","4","6","6","5","3","3","4","2","2","5","5","4","3","1","3","3","6","6","3","3","3","4","3","3","3","3","2","2","3","5","2","4","5","5","7","3","5","4","3","2","3","3","3","4","798586383785664514","李","599","Male","[""坏他"",""好他"",""坏我"",""好我""]","[""弱他"",""强他"",""弱我"",""强我""]","","","","","","","","4","","","","","","","","","SRET","SRET_math_calculate","","key","4","6.060252365930526","853.3333333333334","529.3333333333334","","","","","3+1= ?","4","1","","","","","","","",""
"1935","","7","psychophysics","118","428038","0.0-7.0-5.0-0.15","3","2","2","1","1","3","2","2","3","4","4","-2","0","-1","1","-1","0","0","1","4","2","5","2","2","4","4","3","4","4","4","6","7","7","5","6","4","6","6","5","3","3","4","2","2","5","5","4","3","1","3","3","6","6","3","3","3","4","3","3","3","3","2","2","3","5","2","4","5","5","7","3","5","4","3","2","3","3","3","4","798586383785664514","李","599","Male","[""坏他"",""好他"",""坏我"",""好我""]","[""弱他"",""强他"",""弱我"",""强我""]","","","","","","","","7","","","","","","","","","SRET","SRET_math_calculate","","key","7","6.060691823899335","853.3333333333334","529.3333333333334","","","","","6+1= ?","7","1","","","","","","","",""
"1881","","9","psychophysics","119","429925","0.0-7.0-5.0-0.16","3","2","2","1","1","3","2","2","3","4","4","-2","0","-1","1","-1","0","0","1","4","2","5","2","2","4","4","3","4","4","4","6","7","7","5","6","4","6","6","5","3","3","4","2","2","5","5","4","3","1","3","3","6","6","3","3","3","4","3","3","3","3","2","2","3","5","2","4","5","5","7","3","5","4","3","2","3","3","3","4","798586383785664514","李","599","Male","[""坏他"",""好他"",""坏我"",""好我""]","[""弱他"",""强他"",""弱我"",""强我""]","","","","","","","","9","","","","","","","","","SRET","SRET_math_calculate","","key","9","6.0604501607716665","853.3333333333334","529.3333333333334","","","","","4+5= ?","9","1","","","","","","","",""
"1841","","4","psychophysics","120","431767","0.0-7.0-5.0-0.17","3","2","2","1","1","3","2","2","3","4","4","-2","0","-1","1","-1","0","0","1","4","2","5","2","2","4","4","3","4","4","4","6","7","7","5","6","4","6","6","5","3","3","4","2","2","5","5","4","3","1","3","3","6","6","3","3","3","4","3","3","3","3","2","2","3","5","2","4","5","5","7","3","5","4","3","2","3","3","3","4","798586383785664514","李","599","Male","[""坏他"",""好他"",""坏我"",""好我""]","[""弱他"",""强他"",""弱我"",""强我""]","","","","","","","","4","","","","","","","","","SRET","SRET_math_calculate","","key","4","6.060066006600699","853.3333333333334","529.3333333333334","","","","","3+4= ?","7","0","","","","","","","",""
"1957","","8","psychophysics","121","433725","0.0-7.0-5.0-0.18","3","2","2","1","1","3","2","2","3","4","4","-2","0","-1","1","-1","0","0","1","4","2","5","2","2","4","4","3","4","4","4","6","7","7","5","6","4","6","6","5","3","3","4","2","2","5","5","4","3","1","3","3","6","6","3","3","3","4","3","3","3","3","2","2","3","5","2","4","5","5","7","3","5","4","3","2","3","3","3","4","798586383785664514","李","599","Male","[""坏他"",""好他"",""坏我"",""好我""]","[""弱他"",""强他"",""弱我"",""强我""]","","","","","","","","8","","","","","","","","","SRET","SRET_math_calculate","","key","8","6.0605590062111805","853.3333333333334","529.3333333333334","","","","","3+5= ?","8","1","","","","","","","",""
"2316","","3","psychophysics","122","436047","0.0-7.0-5.0-0.19","3","2","2","1","1","3","2","2","3","4","4","-2","0","-1","1","-1","0","0","1","4","2","5","2","2","4","4","3","4","4","4","6","7","7","5","6","4","6","6","5","3","3","4","2","2","5","5","4","3","1","3","3","6","6","3","3","3","4","3","3","3","3","2","2","3","5","2","4","5","5","7","3","5","4","3","2","3","3","3","4","798586383785664514","李","599","Male","[""坏他"",""好他"",""坏我"",""好我""]","[""弱他"",""强他"",""弱我"",""强我""]","","","","","","","","3","","","","","","","","","SRET","SRET_math_calculate","","key","3","6.0607329842932245","853.3333333333334","529.3333333333334","","","","","12/4= ?","3","1","","","","","","","",""
"2026","","7","psychophysics","123","438074","0.0-7.0-5.0-0.20","3","2","2","1","1","3","2","2","3","4","4","-2","0","-1","1","-1","0","0","1","4","2","5","2","2","4","4","3","4","4","4","6","7","7","5","6","4","6","6","5","3","3","4","2","2","5","5","4","3","1","3","3","6","6","3","3","3","4","3","3","3","3","2","2","3","5","2","4","5","5","7","3","5","4","3","2","3","3","3","4","798586383785664514","李","599","Male","[""坏他"",""好他"",""坏我"",""好我""]","[""弱他"",""强他"",""弱我"",""强我""]","","","","","","","","7","","","","","","","","","SRET","SRET_math_calculate","","key","7","6.06036036036029","853.3333333333334","529.3333333333334","","","","","2+5= ?","7","1","","","","","","","",""
"2201","","0","psychophysics","124","440275","0.0-7.0-5.0-0.21","3","2","2","1","1","3","2","2","3","4","4","-2","0","-1","1","-1","0","0","1","4","2","5","2","2","4","4","3","4","4","4","6","7","7","5","6","4","6","6","5","3","3","4","2","2","5","5","4","3","1","3","3","6","6","3","3","3","4","3","3","3","3","2","2","3","5","2","4","5","5","7","3","5","4","3","2","3","3","3","4","798586383785664514","李","599","Male","[""坏他"",""好他"",""坏我"",""好我""]","[""弱他"",""强他"",""弱我"",""强我""]","","","","","","","","0","","","","","","","","","SRET","SRET_math_calculate","","key","0","6.060220994475106","853.3333333333334","529.3333333333334","","","","","22-22= ?","0","1","","","","","","","",""
"4417","","8","psychophysics","125","444697","0.0-7.0-5.0-0.22","3","2","2","1","1","3","2","2","3","4","4","-2","0","-1","1","-1","0","0","1","4","2","5","2","2","4","4","3","4","4","4","6","7","7","5","6","4","6","6","5","3","3","4","2","2","5","5","4","3","1","3","3","6","6","3","3","3","4","3","3","3","3","2","2","3","5","2","4","5","5","7","3","5","4","3","2","3","3","3","4","798586383785664514","李","599","Male","[""坏他"",""好他"",""坏我"",""好我""]","[""弱他"",""强他"",""弱我"",""强我""]","","","","","","","","8","","","","","","","","","SRET","SRET_math_calculate","","key","8","6.060631001371758","853.3333333333334","529.3333333333334","","","","","13-5= ?","8","1","","","","","","","",""
"1795","","4","psychophysics","126","446493","0.0-7.0-5.0-0.23","3","2","2","1","1","3","2","2","3","4","4","-2","0","-1","1","-1","0","0","1","4","2","5","2","2","4","4","3","4","4","4","6","7","7","5","6","4","6","6","5","3","3","4","2","2","5","5","4","3","1","3","3","6","6","3","3","3","4","3","3","3","3","2","2","3","5","2","4","5","5","7","3","5","4","3","2","3","3","3","4","798586383785664514","李","599","Male","[""坏他"",""好他"",""坏我"",""好我""]","[""弱他"",""强他"",""弱我"",""强我""]","","","","","","","","4","","","","","","","","","SRET","SRET_math_calculate","","key","4","6.060677966101774","853.3333333333334","529.3333333333334","","","","","2+2= ?","4","1","","","","","","","",""
"3019","","2","psychophysics","127","449514","0.0-7.0-5.0-0.24","3","2","2","1","1","3","2","2","3","4","4","-2","0","-1","1","-1","0","0","1","4","2","5","2","2","4","4","3","4","4","4","6","7","7","5","6","4","6","6","5","3","3","4","2","2","5","5","4","3","1","3","3","6","6","3","3","3","4","3","3","3","3","2","2","3","5","2","4","5","5","7","3","5","4","3","2","3","3","3","4","798586383785664514","李","599","Male","[""坏他"",""好他"",""坏我"",""好我""]","[""弱他"",""强他"",""弱我"",""强我""]","","","","","","","","2","","","","","","","","","SRET","SRET_math_calculate","","key","2","6.060441767068227","853.3333333333334","529.3333333333334","","","","","22/11= ?","2","1","","","","","","","",""
"2544","","9","psychophysics","128","452063","0.0-7.0-5.0-0.25","3","2","2","1","1","3","2","2","3","4","4","-2","0","-1","1","-1","0","0","1","4","2","5","2","2","4","4","3","4","4","4","6","7","7","5","6","4","6","6","5","3","3","4","2","2","5","5","4","3","1","3","3","6","6","3","3","3","4","3","3","3","3","2","2","3","5","2","4","5","5","7","3","5","4","3","2","3","3","3","4","798586383785664514","李","599","Male","[""坏他"",""好他"",""坏我"",""好我""]","[""弱他"",""强他"",""弱我"",""强我""]","","","","","","","","9","","","","","","","","","SRET","SRET_math_calculate","","key","9","6.06038186157529","853.3333333333334","529.3333333333334","","","","","1*9= ?","9","1","","","","","","","",""
"2156","","3","psychophysics","129","454225","0.0-7.0-5.0-0.26","3","2","2","1","1","3","2","2","3","4","4","-2","0","-1","1","-1","0","0","1","4","2","5","2","2","4","4","3","4","4","4","6","7","7","5","6","4","6","6","5","3","3","4","2","2","5","5","4","3","1","3","3","6","6","3","3","3","4","3","3","3","3","2","2","3","5","2","4","5","5","7","3","5","4","3","2","3","3","3","4","798586383785664514","李","599","Male","[""坏他"",""好他"",""坏我"",""好我""]","[""弱他"",""强他"",""弱我"",""强我""]","","","","","","","","3","","","","","","","","","SRET","SRET_math_calculate","","key","3","6.060393258426966","853.3333333333334","529.3333333333334","","","","","8-5= ?","3","1","","","","","","","",""
"2175","","0","psychophysics","130","456401","0.0-7.0-5.0-0.27","3","2","2","1","1","3","2","2","3","4","4","-2","0","-1","1","-1","0","0","1","4","2","5","2","2","4","4","3","4","4","4","6","7","7","5","6","4","6","6","5","3","3","4","2","2","5","5","4","3","1","3","3","6","6","3","3","3","4","3","3","3","3","2","2","3","5","2","4","5","5","7","3","5","4","3","2","3","3","3","4","798586383785664514","李","599","Male","[""坏他"",""好他"",""坏我"",""好我""]","[""弱他"",""强他"",""弱我"",""强我""]","","","","","","","","0","","","","","","","","","SRET","SRET_math_calculate","","key","0","6.060335195530824","853.3333333333334","529.3333333333334","","","","","6*0= ?","0","1","","","","","","","",""
"2893","","7","psychophysics","131","459295","0.0-7.0-5.0-0.28","3","2","2","1","1","3","2","2","3","4","4","-2","0","-1","1","-1","0","0","1","4","2","5","2","2","4","4","3","4","4","4","6","7","7","5","6","4","6","6","5","3","3","4","2","2","5","5","4","3","1","3","3","6","6","3","3","3","4","3","3","3","3","2","2","3","5","2","4","5","5","7","3","5","4","3","2","3","3","3","4","798586383785664514","李","599","Male","[""坏他"",""好他"",""坏我"",""好我""]","[""弱他"",""强他"",""弱我"",""强我""]","","","","","","","","7","","","","","","","","","SRET","SRET_math_calculate","","key","7","6.060377358490542","853.3333333333334","529.3333333333334","","","","","11-4= ?","7","1","","","","","","","",""
"1878","","7","psychophysics","132","461174","0.0-7.0-5.0-0.29","3","2","2","1","1","3","2","2","3","4","4","-2","0","-1","1","-1","0","0","1","4","2","5","2","2","4","4","3","4","4","4","6","7","7","5","6","4","6","6","5","3","3","4","2","2","5","5","4","3","1","3","3","6","6","3","3","3","4","3","3","3","3","2","2","3","5","2","4","5","5","7","3","5","4","3","2","3","3","3","4","798586383785664514","李","599","Male","[""坏他"",""好他"",""坏我"",""好我""]","[""弱他"",""强他"",""弱我"",""强我""]","","","","","","","","7","","","","","","","","","SRET","SRET_math_calculate","","key","7","6.060517799352788","853.3333333333334","529.3333333333334","","","","","8-1= ?","7","1","","","","","","","",""
"1911","","0","psychophysics","133","463085","0.0-7.0-5.0-0.30","3","2","2","1","1","3","2","2","3","4","4","-2","0","-1","1","-1","0","0","1","4","2","5","2","2","4","4","3","4","4","4","6","7","7","5","6","4","6","6","5","3","3","4","2","2","5","5","4","3","1","3","3","6","6","3","3","3","4","3","3","3","3","2","2","3","5","2","4","5","5","7","3","5","4","3","2","3","3","3","4","798586383785664514","李","599","Male","[""坏他"",""好他"",""坏我"",""好我""]","[""弱他"",""强他"",""弱我"",""强我""]","","","","","","","","0","","","","","","","","","SRET","SRET_math_calculate","","key","0","6.060509554140127","853.3333333333334","529.3333333333334","","","","","7*0= ?","0","1","","","","","","","",""
"1859","","9","psychophysics","134","464945","0.0-7.0-5.0-0.31","3","2","2","1","1","3","2","2","3","4","4","-2","0","-1","1","-1","0","0","1","4","2","5","2","2","4","4","3","4","4","4","6","7","7","5","6","4","6","6","5","3","3","4","2","2","5","5","4","3","1","3","3","6","6","3","3","3","4","3","3","3","3","2","2","3","5","2","4","5","5","7","3","5","4","3","2","3","3","3","4","798586383785664514","李","599","Male","[""坏他"",""好他"",""坏我"",""好我""]","[""弱他"",""强他"",""弱我"",""强我""]","","","","","","","","9","","","","","","","","","SRET","SRET_math_calculate","","key","9","6.0601307189543245","853.3333333333334","529.3333333333334","","","","","8+1= ?","9","1","","","","","","","",""
"1797","","0","psychophysics","135","466743","0.0-7.0-5.0-0.32","3","2","2","1","1","3","2","2","3","4","4","-2","0","-1","1","-1","0","0","1","4","2","5","2","2","4","4","3","4","4","4","6","7","7","5","6","4","6","6","5","3","3","4","2","2","5","5","4","3","1","3","3","6","6","3","3","3","4","3","3","3","3","2","2","3","5","2","4","5","5","7","3","5","4","3","2","3","3","3","4","798586383785664514","李","599","Male","[""坏他"",""好他"",""坏我"",""好我""]","[""弱他"",""强他"",""弱我"",""强我""]","","","","","","","","0","","","","","","","","","SRET","SRET_math_calculate","","key","0","6.060472972973051","853.3333333333334","529.3333333333334","","","","","9-9= ?","0","1","","","","","","","",""
"1895","","8","psychophysics","136","468643","0.0-7.0-5.0-0.33","3","2","2","1","1","3","2","2","3","4","4","-2","0","-1","1","-1","0","0","1","4","2","5","2","2","4","4","3","4","4","4","6","7","7","5","6","4","6","6","5","3","3","4","2","2","5","5","4","3","1","3","3","6","6","3","3","3","4","3","3","3","3","2","2","3","5","2","4","5","5","7","3","5","4","3","2","3","3","3","4","798586383785664514","李","599","Male","[""坏他"",""好他"",""坏我"",""好我""]","[""弱他"",""强他"",""弱我"",""强我""]","","","","","","","","8","","","","","","","","","SRET","SRET_math_calculate","","key","8","6.060576923076998","853.3333333333334","529.3333333333334","","","","","1*8= ?","8","1","","","","","","","",""
"1872","","7","psychophysics","137","470515","0.0-7.0-5.0-0.34","3","2","2","1","1","3","2","2","3","4","4","-2","0","-1","1","-1","0","0","1","4","2","5","2","2","4","4","3","4","4","4","6","7","7","5","6","4","6","6","5","3","3","4","2","2","5","5","4","3","1","3","3","6","6","3","3","3","4","3","3","3","3","2","2","3","5","2","4","5","5","7","3","5","4","3","2","3","3","3","4","798586383785664514","李","599","Male","[""坏他"",""好他"",""坏我"",""好我""]","[""弱他"",""强他"",""弱我"",""强我""]","","","","","","","","7","","","","","","","","","SRET","SRET_math_calculate","","key","7","6.060389610389535","853.3333333333334","529.3333333333334","","","","","7*1=  ?","7","1","","","","","","","",""
