"rt","stimulus","response","trial_type","trial_index","time_elapsed","internal_node_id","swb_1","swb_2","swb_3","swb_4","swb_5","LOT_1","LOT_2","LOT_3","LOT_4","LOT_5","LOT_6","IPC_1","IPC_2","IPC_3","IPC_4","IPC_5","IPC_6","IPC_7","IPC_8","MorIden_1","MorIden_2","MorIden_3","MorIden_4","MorIden_5","MorIden_6","MorIden_7","MorIden_8","MorIden_9","MorIden_10","moralSeImag_1","moralSeImag_2","moralSeImag_3","moralSeImag_4","moralSeImag_5","moralSeImag_6","moralSeImag_7","moralSeImag_8","moralSeImag_9","sde_1","sde_2","sde_3","sde_4","sde_5","sde_6","sde_7","sde_8","sde_9","sde_10","trap2","sde_11","sde_12","sde_13","sde_14","sde_15","sde_16","sde_17","sde_18","sde_19","sde_20","IM_1","IM_2","IM_3","IM_4","IM_5","IM_6","IM_7","IM_8","IM_9","IM_10","IM_11","IM_12","IM_13","IM_14","IM_15","IM_16","IM_17","IM_18","IM_19","IM_20","subj_idx","friend_name","ParticipantID","Sex","Word","Word2","value","success","timeout","failed_images","failed_audio","failed_video","user_agent","responses","item_order","radio_event_ids","radio_event_times","key_event_times","mouse_event_times","straightlining","zigzagging","honeypot","task_id","screen_id","time_stamp","response_type","key_press","avg_frame_time","center_x","center_y","person","word","valence","domain","math","correct_response","correct","status","view_history","identity","duration","Image","condition","question_order","trap2_item"
"10992","
   <p><div style='color:white; font-size: 25px'>您好，欢迎参加本次实验。</div></p>
   <p><div style='color:white; font-size: 25px'>为充分保障您的权利，请确保您已经知晓并同意《参与实验同意书》以及《数据公开知情同意书》。</div></p>
   <p><div style='color:white; font-size: 25px'>如果您未见过上述内容，请咨询实验员。</div></p>
   <p style='color:white; font-size: 25px'>如果您选择继续实验，则表示您已经清楚两份知情同意书的内容并同意。</p>
   <p><div style = ""color: pink;font-size:30px;"">请确保您记得day0的实验编号，您将在本次实验输入该编号，若您忘记，请咨询实验员后作答。</div></p>
   <p><div style = ""color:lightblue;font-size:25px;"">请您尽可能认真地作答，我们将依据您在各问卷和按键任务中的作答质量发放报酬。</div></p>
   <p> <div style = ""color: green""><按空格键至下页></div> </p>
   "," ","html-keyboard-response","0","10994","0.0-0.0","3","3","4","3","2","3","2","2","2","1","4","-1","-1","-2","0","-2","-2","-2","-2","5","4","5","4","4","4","5","4","5","4","4","5","4","6","4","3","6","5","6","4","2","2","3","2","3","2","4","1","2","1","1","2","5","4","1","3","3","3","3","2","3","3","3","1","3","3","3","7","2","6","5","3","6","5","2","5","5","6","3","4","673239924056522752","刘","624","Female","[""好我"",""坏我"",""好她"",""坏她""]","[""强我"",""弱我"",""强她"",""弱她""]","","","","","","","","","","","","","","","","","","","","","","","","","","","","","","","","","","","","","","",""
"","","","call-function","1","10994","0.0-1.0-0.0","3","3","4","3","2","3","2","2","2","1","4","-1","-1","-2","0","-2","-2","-2","-2","5","4","5","4","4","4","5","4","5","4","4","5","4","6","4","3","6","5","6","4","2","2","3","2","3","2","4","1","2","1","1","2","5","4","1","3","3","3","3","2","3","3","3","1","3","3","3","7","2","6","5","3","6","5","2","5","5","6","3","4","673239924056522752","刘","624","Female","[""好我"",""坏我"",""好她"",""坏她""]","[""强我"",""弱我"",""强她"",""弱她""]","","","","","","","","","","","","","","","","","","","","","","","","","","","","","","","","","","","","","","",""
"18009","","[{""name"":""Sex"",""value"":""1""},{""name"":""friend_name"",""value"":""刘""},{""name"":""ParticipantID"",""value"":""624""}]","survey-html-form","2","29005","0.0-1.0-1.0","3","3","4","3","2","3","2","2","2","1","4","-1","-1","-2","0","-2","-2","-2","-2","5","4","5","4","4","4","5","4","5","4","4","5","4","6","4","3","6","5","6","4","2","2","3","2","3","2","4","1","2","1","1","2","5","4","1","3","3","3","3","2","3","3","3","1","3","3","3","7","2","6","5","3","6","5","2","5","5","6","3","4","673239924056522752","刘","624","Female","[""好我"",""坏我"",""好她"",""坏她""]","[""强我"",""弱我"",""强她"",""弱她""]","","","","","","","","","","","","","","","","","","","","","","","","","","","","","","","","","","","","","","",""
"","","","preload","3","29479","0.0-2.0","3","3","4","3","2","3","2","2","2","1","4","-1","-1","-2","0","-2","-2","-2","-2","5","4","5","4","4","4","5","4","5","4","4","5","4","6","4","3","6","5","6","4","2","2","3","2","3","2","4","1","2","1","1","2","5","4","1","3","3","3","3","2","3","3","3","1","3","3","3","7","2","6","5","3","6","5","2","5","5","6","3","4","673239924056522752","刘","624","Female","[""好我"",""坏我"",""好她"",""坏她""]","[""强我"",""弱我"",""强她"",""弱她""]","","true","false","[]","[]","[]","","","","","","","","","","","","","","","","","","","","","","","","","","","","","","","","",""
"","","","fullscreen","4","45074","0.0-3.0","3","3","4","3","2","3","2","2","2","1","4","-1","-1","-2","0","-2","-2","-2","-2","5","4","5","4","4","4","5","4","5","4","4","5","4","6","4","3","6","5","6","4","2","2","3","2","3","2","4","1","2","1","1","2","5","4","1","3","3","3","3","2","3","3","3","1","3","3","3","7","2","6","5","3","6","5","2","5","5","6","3","4","673239924056522752","刘","624","Female","[""好我"",""坏我"",""好她"",""坏她""]","[""强我"",""弱我"",""强她"",""弱她""]","","true","","","","","{}","","","","","","","","","","","","","","","","","","","","","","","","","","","","","","","",""
"13281.699999809265","","{""Q01"":""3"",""Q02"":""3"",""Q03"":""4"",""Q04"":""3"",""Q05"":""2""}","survey-template","5","58359","0.0-4.0","3","3","4","3","2","3","2","2","2","1","4","-1","-1","-2","0","-2","-2","-2","-2","5","4","5","4","4","4","5","4","5","4","4","5","4","6","4","3","6","5","6","4","2","2","3","2","3","2","4","1","2","1","1","2","5","4","1","3","3","3","3","2","3","3","3","1","3","3","3","7","2","6","5","3","6","5","2","5","5","6","3","4","673239924056522752","刘","624","Female","[""好我"",""坏我"",""好她"",""坏她""]","[""强我"",""弱我"",""强她"",""弱她""]","","","","","","","","{""Q01"":""3"",""Q02"":""3"",""Q03"":""4"",""Q04"":""3"",""Q05"":""2""}","[0,1,2,3,4]","[""Q01"",""Q02"",""Q03"",""Q04"",""Q05""]","[3360.0999999046326,4945.300000190735,6664,9256.199999809265,11720.300000190735]","[]","[3360.0999999046326,4945.300000190735,6664,9256.199999809265,11095.900000095367,11720.300000190735,13280.599999904633]","0.6","0.75","0","","","","","","","","","","","","","","","","","","","","","","",""
"30922","","{""Q01"":""3"",""Q02"":""2"",""Q03"":""2"",""Q04"":""2"",""Q05"":""1"",""Q06"":""4""}","survey-template","6","89285","0.0-5.0","3","3","4","3","2","3","2","2","2","1","4","-1","-1","-2","0","-2","-2","-2","-2","5","4","5","4","4","4","5","4","5","4","4","5","4","6","4","3","6","5","6","4","2","2","3","2","3","2","4","1","2","1","1","2","5","4","1","3","3","3","3","2","3","3","3","1","3","3","3","7","2","6","5","3","6","5","2","5","5","6","3","4","673239924056522752","刘","624","Female","[""好我"",""坏我"",""好她"",""坏她""]","[""强我"",""弱我"",""强她"",""弱她""]","","","","","","","","{""Q01"":""3"",""Q02"":""2"",""Q03"":""2"",""Q04"":""2"",""Q05"":""1"",""Q06"":""4""}","[0,1,2,3,4,5]","[""Q01"",""Q02"",""Q03"",""Q04"",""Q05"",""Q06"",""Q05""]","[7507,8594.099999904633,10042,12905.599999904633,14418.099999904633,26905.099999904633,29995.300000190735]","[]","[4066.0999999046326,7507,8594.099999904633,10042,12905.599999904633,14418.099999904633,26905.099999904633,29995.300000190735,30921.200000286102]","0.5","0.6","0","","","","","","","","","","","","","","","","","","","","","","",""
"21717.200000286102","","{""Q01"":""-1"",""Q02"":""-1"",""Q03"":""-2"",""Q04"":""0"",""Q05"":""-2"",""Q06"":""-2"",""Q07"":""-2"",""Q08"":""-2""}","survey-template","7","111006","0.0-6.0","3","3","4","3","2","3","2","2","2","1","4","-1","-1","-2","0","-2","-2","-2","-2","5","4","5","4","4","4","5","4","5","4","4","5","4","6","4","3","6","5","6","4","2","2","3","2","3","2","4","1","2","1","1","2","5","4","1","3","3","3","3","2","3","3","3","1","3","3","3","7","2","6","5","3","6","5","2","5","5","6","3","4","673239924056522752","刘","624","Female","[""好我"",""坏我"",""好她"",""坏她""]","[""强我"",""弱我"",""强她"",""弱她""]","","","","","","","","{""Q01"":""-1"",""Q02"":""-1"",""Q03"":""-2"",""Q04"":""0"",""Q05"":""-2"",""Q06"":""-2"",""Q07"":""-2"",""Q08"":""-2""}","[0,1,2,3,4,5,6,7]","[""Q01"",""Q02"",""Q03"",""Q04"",""Q05"",""Q06"",""Q07"",""Q08""]","[4419.800000190735,6820.900000095367,11396.10000038147,12644.200000286102,14716.5,16388.200000286102,17988.200000286102,19851.5]","[]","[4419.800000190735,6820.900000095367,8532.300000190735,11396.10000038147,12644.200000286102,14716.5,16388.200000286102,17988.200000286102,19851.5,21716.10000038147]","0.625","0.14285714285714285","0","","","","","","","","","","","","","","","","","","","","","","",""
"15642","
    <p><div style='color:white;font-size:35px; line-height:20px;'>词汇评估任务</div></p><br>
    <p><div style='color:white;font-size:25px; line-height:20px;'>请再次回忆该亲密的朋友，你们至少2年前就认识了，并且最近2年经常见面。</div></p>
    <p><div style='color:white;font-size:25px; line-height:20px;'>在本实验中，您将会看到一些形容词。</div></p>
    <p><div style='color:yellow;font-size:25px; line-height:20px;'>您的任务是判断这些形容词是否符合对您自己或您的朋友的描述。</div></p><p style='font-size:35px'>符合按<span style=""color:lightgreen""> f 键</span>，不符合按<span style=""color:red""> j 键</span></p>","0","html-button-response","8","126652","0.0-7.0-0.0","3","3","4","3","2","3","2","2","2","1","4","-1","-1","-2","0","-2","-2","-2","-2","5","4","5","4","4","4","5","4","5","4","4","5","4","6","4","3","6","5","6","4","2","2","3","2","3","2","4","1","2","1","1","2","5","4","1","3","3","3","3","2","3","3","3","1","3","3","3","7","2","6","5","3","6","5","2","5","5","6","3","4","673239924056522752","刘","624","Female","[""好我"",""坏我"",""好她"",""坏她""]","[""强我"",""弱我"",""强她"",""弱她""]","","","","","","","","","","","","","","","","","SRET_EW","EW_instructions","Mon Jan 29 2024 13:59:08 GMT+0800 (中国标准时间)","","","","","","","","","","","","","","","","","","","",""
"703","","j","psychophysics","9","128359","0.0-7.0-1.0-0.0","3","3","4","3","2","3","2","2","2","1","4","-1","-1","-2","0","-2","-2","-2","-2","5","4","5","4","4","4","5","4","5","4","4","5","4","6","4","3","6","5","6","4","2","2","3","2","3","2","4","1","2","1","1","2","5","4","1","3","3","3","3","2","3","3","3","1","3","3","3","7","2","6","5","3","6","5","2","5","5","6","3","4","673239924056522752","刘","624","Female","[""好我"",""坏我"",""好她"",""坏她""]","[""强我"",""弱我"",""强她"",""弱她""]","","","","","","","","no","","","","","","","","","SRET_EW","EW_practice","","key","j","6.944175510204098","768","428","自己","刻板","Negative","ability","","","","","","","","","","",""
"989","","j","psychophysics","10","130350","0.0-7.0-1.0-0.1","3","3","4","3","2","3","2","2","2","1","4","-1","-1","-2","0","-2","-2","-2","-2","5","4","5","4","4","4","5","4","5","4","4","5","4","6","4","3","6","5","6","4","2","2","3","2","3","2","4","1","2","1","1","2","5","4","1","3","3","3","3","2","3","3","3","1","3","3","3","7","2","6","5","3","6","5","2","5","5","6","3","4","673239924056522752","刘","624","Female","[""好我"",""坏我"",""好她"",""坏她""]","[""强我"",""弱我"",""强她"",""弱她""]","","","","","","","","no","","","","","","","","","SRET_EW","EW_practice","","key","j","6.944304195804132","768","428","朋友","徇私","Negative","morality","","","","","","","","","","",""
"640","","f","psychophysics","11","131991","0.0-7.0-1.0-0.2","3","3","4","3","2","3","2","2","2","1","4","-1","-1","-2","0","-2","-2","-2","-2","5","4","5","4","4","4","5","4","5","4","4","5","4","6","4","3","6","5","6","4","2","2","3","2","3","2","4","1","2","1","1","2","5","4","1","3","3","3","3","2","3","3","3","1","3","3","3","7","2","6","5","3","6","5","2","5","5","6","3","4","673239924056522752","刘","624","Female","[""好我"",""坏我"",""好她"",""坏她""]","[""强我"",""弱我"",""强她"",""弱她""]","","","","","","","","yes","","","","","","","","","SRET_EW","EW_practice","","key","f","6.944550847457707","768","428","自己","严谨","Positive","ability","","","","","","","","","","",""
"683","","f","psychophysics","12","133676","0.0-7.0-1.0-0.3","3","3","4","3","2","3","2","2","2","1","4","-1","-1","-2","0","-2","-2","-2","-2","5","4","5","4","4","4","5","4","5","4","4","5","4","6","4","3","6","5","6","4","2","2","3","2","3","2","4","1","2","1","1","2","5","4","1","3","3","3","3","2","3","3","3","1","3","3","3","7","2","6","5","3","6","5","2","5","5","6","3","4","673239924056522752","刘","624","Female","[""好我"",""坏我"",""好她"",""坏她""]","[""强我"",""弱我"",""强她"",""弱她""]","","","","","","","","yes","","","","","","","","","SRET_EW","EW_practice","","key","f","6.945062240663939","768","428","朋友","忠实","Positive","morality","","","","","","","","","","",""
"8631","
    <p><div style='color:white;font-size:35px; line-height:20px;'>请您再次阅读实验要求</div></p><br>
    <p><div style='color:white;font-size:25px; line-height:20px;'>请回忆某一个亲密的朋友，你们至少2年前就认识了，并且最近2年经常见面。</div></p>
    <p><div style='color:white;font-size:25px; line-height:20px;'>在本实验中，您将会看到一些形容词。</div></p>
    <p><div style='color:yellow;font-size:25px; line-height:20px;'>您的任务是判断这些形容词是否符合对您自己或您的朋友的描述。</div></p>
    <p><div class='footer' style='font-size:25px; line-height:20px;'>如果对本实验还有不清楚之处，请立即向实验员咨询。</p><p style='font-size:25px; line-height:20px;'>如果您明白了规则：</p><p style='font-size:22px; line-height:20px;'>请按 继续 进入正式实验</p>
    </div>
    <p style='font-size:35px'>符合按<span style=""color:lightgreen""> f 键</span>，不符合按<span style=""color:red""> j 键</span></p>","0","html-button-response","13","142309","0.0-7.0-2.0","3","3","4","3","2","3","2","2","2","1","4","-1","-1","-2","0","-2","-2","-2","-2","5","4","5","4","4","4","5","4","5","4","4","5","4","6","4","3","6","5","6","4","2","2","3","2","3","2","4","1","2","1","1","2","5","4","1","3","3","3","3","2","3","3","3","1","3","3","3","7","2","6","5","3","6","5","2","5","5","6","3","4","673239924056522752","刘","624","Female","[""好我"",""坏我"",""好她"",""坏她""]","[""强我"",""弱我"",""强她"",""弱她""]","","","","","","","","","","","","","","","","","SRET_EW","prac_instructions","Mon Jan 29 2024 13:59:08 GMT+0800 (中国标准时间)","","","","","","","","","","","","","","","","","","","",""
"912","","j","psychophysics","14","144225","0.0-7.0-3.0-0.0","3","3","4","3","2","3","2","2","2","1","4","-1","-1","-2","0","-2","-2","-2","-2","5","4","5","4","4","4","5","4","5","4","4","5","4","6","4","3","6","5","6","4","2","2","3","2","3","2","4","1","2","1","1","2","5","4","1","3","3","3","3","2","3","3","3","1","3","3","3","7","2","6","5","3","6","5","2","5","5","6","3","4","673239924056522752","刘","624","Female","[""好我"",""坏我"",""好她"",""坏她""]","[""强我"",""弱我"",""强她"",""弱她""]","","","","","","","","no","","","","","","","","","SRET","EW_formal","","key","j","6.945275362318764","768","428","朋友","迷糊","Negative","ability","","","","","","","","","","",""
"805","","j","psychophysics","15","146031","0.0-7.0-3.0-0.1","3","3","4","3","2","3","2","2","2","1","4","-1","-1","-2","0","-2","-2","-2","-2","5","4","5","4","4","4","5","4","5","4","4","5","4","6","4","3","6","5","6","4","2","2","3","2","3","2","4","1","2","1","1","2","5","4","1","3","3","3","3","2","3","3","3","1","3","3","3","7","2","6","5","3","6","5","2","5","5","6","3","4","673239924056522752","刘","624","Female","[""好我"",""坏我"",""好她"",""坏她""]","[""强我"",""弱我"",""强她"",""弱她""]","","","","","","","","no","","","","","","","","","SRET","EW_formal","","key","j","6.94456370656379","768","428","自己","说谎","Negative","morality","","","","","","","","","","",""
"698","","f","psychophysics","16","147730","0.0-7.0-3.0-0.2","3","3","4","3","2","3","2","2","2","1","4","-1","-1","-2","0","-2","-2","-2","-2","5","4","5","4","4","4","5","4","5","4","4","5","4","6","4","3","6","5","6","4","2","2","3","2","3","2","4","1","2","1","1","2","5","4","1","3","3","3","3","2","3","3","3","1","3","3","3","7","2","6","5","3","6","5","2","5","5","6","3","4","673239924056522752","刘","624","Female","[""好我"",""坏我"",""好她"",""坏她""]","[""强我"",""弱我"",""强她"",""弱她""]","","","","","","","","yes","","","","","","","","","SRET","EW_formal","","key","f","6.945319672131131","768","428","朋友","务实","Positive","ability","","","","","","","","","","",""
"1087","","f","psychophysics","17","149818","0.0-7.0-3.0-0.3","3","3","4","3","2","3","2","2","2","1","4","-1","-1","-2","0","-2","-2","-2","-2","5","4","5","4","4","4","5","4","5","4","4","5","4","6","4","3","6","5","6","4","2","2","3","2","3","2","4","1","2","1","1","2","5","4","1","3","3","3","3","2","3","3","3","1","3","3","3","7","2","6","5","3","6","5","2","5","5","6","3","4","673239924056522752","刘","624","Female","[""好我"",""坏我"",""好她"",""坏她""]","[""强我"",""弱我"",""强她"",""弱她""]","","","","","","","","yes","","","","","","","","","SRET","EW_formal","","key","f","6.94514333333335","768","428","自己","坚贞","Positive","morality","","","","","","","","","","",""
"1309","","j","psychophysics","18","152128","0.0-7.0-3.0-0.4","3","3","4","3","2","3","2","2","2","1","4","-1","-1","-2","0","-2","-2","-2","-2","5","4","5","4","4","4","5","4","5","4","4","5","4","6","4","3","6","5","6","4","2","2","3","2","3","2","4","1","2","1","1","2","5","4","1","3","3","3","3","2","3","3","3","1","3","3","3","7","2","6","5","3","6","5","2","5","5","6","3","4","673239924056522752","刘","624","Female","[""好我"",""坏我"",""好她"",""坏她""]","[""强我"",""弱我"",""强她"",""弱她""]","","","","","","","","no","","","","","","","","","SRET","EW_formal","","key","j","6.944051359516616","768","428","自己","淡泊","Positive","morality","","","","","","","","","","",""
"835","","j","psychophysics","19","153964","0.0-7.0-3.0-0.5","3","3","4","3","2","3","2","2","2","1","4","-1","-1","-2","0","-2","-2","-2","-2","5","4","5","4","4","4","5","4","5","4","4","5","4","6","4","3","6","5","6","4","2","2","3","2","3","2","4","1","2","1","1","2","5","4","1","3","3","3","3","2","3","3","3","1","3","3","3","7","2","6","5","3","6","5","2","5","5","6","3","4","673239924056522752","刘","624","Female","[""好我"",""坏我"",""好她"",""坏她""]","[""强我"",""弱我"",""强她"",""弱她""]","","","","","","","","no","","","","","","","","","SRET","EW_formal","","key","j","6.944488636363641","768","428","朋友","蛇蝎","Negative","morality","","","","","","","","","","",""
"715","","j","psychophysics","20","155680","0.0-7.0-3.0-0.6","3","3","4","3","2","3","2","2","2","1","4","-1","-1","-2","0","-2","-2","-2","-2","5","4","5","4","4","4","5","4","5","4","4","5","4","6","4","3","6","5","6","4","2","2","3","2","3","2","4","1","2","1","1","2","5","4","1","3","3","3","3","2","3","3","3","1","3","3","3","7","2","6","5","3","6","5","2","5","5","6","3","4","673239924056522752","刘","624","Female","[""好我"",""坏我"",""好她"",""坏她""]","[""强我"",""弱我"",""强她"",""弱她""]","","","","","","","","no","","","","","","","","","SRET","EW_formal","","key","j","6.945593495934996","768","428","自己","毛糙","Negative","ability","","","","","","","","","","",""
"749","","f","psychophysics","21","157430","0.0-7.0-3.0-0.7","3","3","4","3","2","3","2","2","2","1","4","-1","-1","-2","0","-2","-2","-2","-2","5","4","5","4","4","4","5","4","5","4","4","5","4","6","4","3","6","5","6","4","2","2","3","2","3","2","4","1","2","1","1","2","5","4","1","3","3","3","3","2","3","3","3","1","3","3","3","7","2","6","5","3","6","5","2","5","5","6","3","4","673239924056522752","刘","624","Female","[""好我"",""坏我"",""好她"",""坏她""]","[""强我"",""弱我"",""强她"",""弱她""]","","","","","","","","yes","","","","","","","","","SRET","EW_formal","","key","f","6.94286454183261","768","428","朋友","聪明","Positive","ability","","","","","","","","","","",""
"893","","j","psychophysics","22","159325","0.0-7.0-3.0-0.8","3","3","4","3","2","3","2","2","2","1","4","-1","-1","-2","0","-2","-2","-2","-2","5","4","5","4","4","4","5","4","5","4","4","5","4","6","4","3","6","5","6","4","2","2","3","2","3","2","4","1","2","1","1","2","5","4","1","3","3","3","3","2","3","3","3","1","3","3","3","7","2","6","5","3","6","5","2","5","5","6","3","4","673239924056522752","刘","624","Female","[""好我"",""坏我"",""好她"",""坏她""]","[""强我"",""弱我"",""强她"",""弱她""]","","","","","","","","no","","","","","","","","","SRET","EW_formal","","key","j","6.94422794117653","768","428","朋友","龌龊","Negative","morality","","","","","","","","","","",""
"1235","","f","psychophysics","23","161562","0.0-7.0-3.0-0.9","3","3","4","3","2","3","2","2","2","1","4","-1","-1","-2","0","-2","-2","-2","-2","5","4","5","4","4","4","5","4","5","4","4","5","4","6","4","3","6","5","6","4","2","2","3","2","3","2","4","1","2","1","1","2","5","4","1","3","3","3","3","2","3","3","3","1","3","3","3","7","2","6","5","3","6","5","2","5","5","6","3","4","673239924056522752","刘","624","Female","[""好我"",""坏我"",""好她"",""坏她""]","[""强我"",""弱我"",""强她"",""弱她""]","","","","","","","","yes","","","","","","","","","SRET","EW_formal","","key","f","6.944922118380084","768","428","朋友","刚正","Positive","morality","","","","","","","","","","",""
"582","","f","psychophysics","24","163146","0.0-7.0-3.0-0.10","3","3","4","3","2","3","2","2","2","1","4","-1","-1","-2","0","-2","-2","-2","-2","5","4","5","4","4","4","5","4","5","4","4","5","4","6","4","3","6","5","6","4","2","2","3","2","3","2","4","1","2","1","1","2","5","4","1","3","3","3","3","2","3","3","3","1","3","3","3","7","2","6","5","3","6","5","2","5","5","6","3","4","673239924056522752","刘","624","Female","[""好我"",""坏我"",""好她"",""坏她""]","[""强我"",""弱我"",""强她"",""弱她""]","","","","","","","","yes","","","","","","","","","SRET","EW_formal","","key","f","6.94578414096916","768","428","朋友","善良","Positive","morality","","","","","","","","","","",""
"1499","","j","psychophysics","25","165646","0.0-7.0-3.0-0.11","3","3","4","3","2","3","2","2","2","1","4","-1","-1","-2","0","-2","-2","-2","-2","5","4","5","4","4","4","5","4","5","4","4","5","4","6","4","3","6","5","6","4","2","2","3","2","3","2","4","1","2","1","1","2","5","4","1","3","3","3","3","2","3","3","3","1","3","3","3","7","2","6","5","3","6","5","2","5","5","6","3","4","673239924056522752","刘","624","Female","[""好我"",""坏我"",""好她"",""坏她""]","[""强我"",""弱我"",""强她"",""弱她""]","","","","","","","","no","","","","","","","","","SRET","EW_formal","","key","j","6.944389972144827","768","428","自己","君子","Positive","morality","","","","","","","","","","",""
"706","","f","psychophysics","26","167354","0.0-7.0-3.0-0.12","3","3","4","3","2","3","2","2","2","1","4","-1","-1","-2","0","-2","-2","-2","-2","5","4","5","4","4","4","5","4","5","4","4","5","4","6","4","3","6","5","6","4","2","2","3","2","3","2","4","1","2","1","1","2","5","4","1","3","3","3","3","2","3","3","3","1","3","3","3","7","2","6","5","3","6","5","2","5","5","6","3","4","673239924056522752","刘","624","Female","[""好我"",""坏我"",""好她"",""坏她""]","[""强我"",""弱我"",""强她"",""弱她""]","","","","","","","","yes","","","","","","","","","SRET","EW_formal","","key","f","6.943840816326449","768","428","朋友","奉献","Positive","morality","","","","","","","","","","",""
"1166","","f","psychophysics","27","169522","0.0-7.0-3.0-0.13","3","3","4","3","2","3","2","2","2","1","4","-1","-1","-2","0","-2","-2","-2","-2","5","4","5","4","4","4","5","4","5","4","4","5","4","6","4","3","6","5","6","4","2","2","3","2","3","2","4","1","2","1","1","2","5","4","1","3","3","3","3","2","3","3","3","1","3","3","3","7","2","6","5","3","6","5","2","5","5","6","3","4","673239924056522752","刘","624","Female","[""好我"",""坏我"",""好她"",""坏她""]","[""强我"",""弱我"",""强她"",""弱她""]","","","","","","","","yes","","","","","","","","","SRET","EW_formal","","key","f","6.943479099678522","768","428","自己","仁爱","Positive","morality","","","","","","","","","","",""
"733","","j","psychophysics","28","171256","0.0-7.0-3.0-0.14","3","3","4","3","2","3","2","2","2","1","4","-1","-1","-2","0","-2","-2","-2","-2","5","4","5","4","4","4","5","4","5","4","4","5","4","6","4","3","6","5","6","4","2","2","3","2","3","2","4","1","2","1","1","2","5","4","1","3","3","3","3","2","3","3","3","1","3","3","3","7","2","6","5","3","6","5","2","5","5","6","3","4","673239924056522752","刘","624","Female","[""好我"",""坏我"",""好她"",""坏她""]","[""强我"",""弱我"",""强她"",""弱她""]","","","","","","","","no","","","","","","","","","SRET","EW_formal","","key","j","6.944771084337319","768","428","朋友","怠惰","Negative","ability","","","","","","","","","","",""
"615","","j","psychophysics","29","172873","0.0-7.0-3.0-0.15","3","3","4","3","2","3","2","2","2","1","4","-1","-1","-2","0","-2","-2","-2","-2","5","4","5","4","4","4","5","4","5","4","4","5","4","6","4","3","6","5","6","4","2","2","3","2","3","2","4","1","2","1","1","2","5","4","1","3","3","3","3","2","3","3","3","1","3","3","3","7","2","6","5","3","6","5","2","5","5","6","3","4","673239924056522752","刘","624","Female","[""好我"",""坏我"",""好她"",""坏她""]","[""强我"",""弱我"",""强她"",""弱她""]","","","","","","","","no","","","","","","","","","SRET","EW_formal","","key","j","6.944064935064926","768","428","朋友","贪腐","Negative","morality","","","","","","","","","","",""
"642","","f","psychophysics","30","174517","0.0-7.0-3.0-0.16","3","3","4","3","2","3","2","2","2","1","4","-1","-1","-2","0","-2","-2","-2","-2","5","4","5","4","4","4","5","4","5","4","4","5","4","6","4","3","6","5","6","4","2","2","3","2","3","2","4","1","2","1","1","2","5","4","1","3","3","3","3","2","3","3","3","1","3","3","3","7","2","6","5","3","6","5","2","5","5","6","3","4","673239924056522752","刘","624","Female","[""好我"",""坏我"",""好她"",""坏她""]","[""强我"",""弱我"",""强她"",""弱她""]","","","","","","","","yes","","","","","","","","","SRET","EW_formal","","key","f","6.945326271186355","768","428","自己","坦荡","Positive","morality","","","","","","","","","","",""
"582","","j","psychophysics","31","176101","0.0-7.0-3.0-0.17","3","3","4","3","2","3","2","2","2","1","4","-1","-1","-2","0","-2","-2","-2","-2","5","4","5","4","4","4","5","4","5","4","4","5","4","6","4","3","6","5","6","4","2","2","3","2","3","2","4","1","2","1","1","2","5","4","1","3","3","3","3","2","3","3","3","1","3","3","3","7","2","6","5","3","6","5","2","5","5","6","3","4","673239924056522752","刘","624","Female","[""好我"",""坏我"",""好她"",""坏她""]","[""强我"",""弱我"",""强她"",""弱她""]","","","","","","","","no","","","","","","","","","SRET","EW_formal","","key","j","6.945405286343564","768","428","朋友","奸险","Negative","morality","","","","","","","","","","",""
"650","","j","psychophysics","32","177752","0.0-7.0-3.0-0.18","3","3","4","3","2","3","2","2","2","1","4","-1","-1","-2","0","-2","-2","-2","-2","5","4","5","4","4","4","5","4","5","4","4","5","4","6","4","3","6","5","6","4","2","2","3","2","3","2","4","1","2","1","1","2","5","4","1","3","3","3","3","2","3","3","3","1","3","3","3","7","2","6","5","3","6","5","2","5","5","6","3","4","673239924056522752","刘","624","Female","[""好我"",""坏我"",""好她"",""坏她""]","[""强我"",""弱我"",""强她"",""弱她""]","","","","","","","","no","","","","","","","","","SRET","EW_formal","","key","j","6.944434599156142","768","428","自己","虚伪","Negative","morality","","","","","","","","","","",""
"1318","","j","psychophysics","33","180073","0.0-7.0-3.0-0.19","3","3","4","3","2","3","2","2","2","1","4","-1","-1","-2","0","-2","-2","-2","-2","5","4","5","4","4","4","5","4","5","4","4","5","4","6","4","3","6","5","6","4","2","2","3","2","3","2","4","1","2","1","1","2","5","4","1","3","3","3","3","2","3","3","3","1","3","3","3","7","2","6","5","3","6","5","2","5","5","6","3","4","673239924056522752","刘","624","Female","[""好我"",""坏我"",""好她"",""坏她""]","[""强我"",""弱我"",""强她"",""弱她""]","","","","","","","","no","","","","","","","","","SRET","EW_formal","","key","j","6.944900900900906","768","428","自己","上进","Positive","ability","","","","","","","","","","",""
"668","","j","psychophysics","34","181742","0.0-7.0-3.0-0.20","3","3","4","3","2","3","2","2","2","1","4","-1","-1","-2","0","-2","-2","-2","-2","5","4","5","4","4","4","5","4","5","4","4","5","4","6","4","3","6","5","6","4","2","2","3","2","3","2","4","1","2","1","1","2","5","4","1","3","3","3","3","2","3","3","3","1","3","3","3","7","2","6","5","3","6","5","2","5","5","6","3","4","673239924056522752","刘","624","Female","[""好我"",""坏我"",""好她"",""坏她""]","[""强我"",""弱我"",""强她"",""弱她""]","","","","","","","","no","","","","","","","","","SRET","EW_formal","","key","j","6.9449916666667075","768","428","自己","狡狯","Negative","morality","","","","","","","","","","",""
"1245","","j","psychophysics","35","183988","0.0-7.0-3.0-0.21","3","3","4","3","2","3","2","2","2","1","4","-1","-1","-2","0","-2","-2","-2","-2","5","4","5","4","4","4","5","4","5","4","4","5","4","6","4","3","6","5","6","4","2","2","3","2","3","2","4","1","2","1","1","2","5","4","1","3","3","3","3","2","3","3","3","1","3","3","3","7","2","6","5","3","6","5","2","5","5","6","3","4","673239924056522752","刘","624","Female","[""好我"",""坏我"",""好她"",""坏她""]","[""强我"",""弱我"",""强她"",""弱她""]","","","","","","","","no","","","","","","","","","SRET","EW_formal","","key","j","6.944385093167715","768","428","朋友","缺德","Negative","morality","","","","","","","","","","",""
"981","","j","psychophysics","36","185972","0.0-7.0-3.0-0.22","3","3","4","3","2","3","2","2","2","1","4","-1","-1","-2","0","-2","-2","-2","-2","5","4","5","4","4","4","5","4","5","4","4","5","4","6","4","3","6","5","6","4","2","2","3","2","3","2","4","1","2","1","1","2","5","4","1","3","3","3","3","2","3","3","3","1","3","3","3","7","2","6","5","3","6","5","2","5","5","6","3","4","673239924056522752","刘","624","Female","[""好我"",""坏我"",""好她"",""坏她""]","[""强我"",""弱我"",""强她"",""弱她""]","","","","","","","","no","","","","","","","","","SRET","EW_formal","","key","j","6.944526315789481","768","428","朋友","拜金","Negative","morality","","","","","","","","","","",""
"898","","f","psychophysics","37","187871","0.0-7.0-3.0-0.23","3","3","4","3","2","3","2","2","2","1","4","-1","-1","-2","0","-2","-2","-2","-2","5","4","5","4","4","4","5","4","5","4","4","5","4","6","4","3","6","5","6","4","2","2","3","2","3","2","4","1","2","1","1","2","5","4","1","3","3","3","3","2","3","3","3","1","3","3","3","7","2","6","5","3","6","5","2","5","5","6","3","4","673239924056522752","刘","624","Female","[""好我"",""坏我"",""好她"",""坏她""]","[""强我"",""弱我"",""强她"",""弱她""]","","","","","","","","yes","","","","","","","","","SRET","EW_formal","","key","f","6.945117647058877","768","428","朋友","扎实","Positive","ability","","","","","","","","","","",""
"1782","","f","psychophysics","38","190654","0.0-7.0-3.0-0.24","3","3","4","3","2","3","2","2","2","1","4","-1","-1","-2","0","-2","-2","-2","-2","5","4","5","4","4","4","5","4","5","4","4","5","4","6","4","3","6","5","6","4","2","2","3","2","3","2","4","1","2","1","1","2","5","4","1","3","3","3","3","2","3","3","3","1","3","3","3","7","2","6","5","3","6","5","2","5","5","6","3","4","673239924056522752","刘","624","Female","[""好我"",""坏我"",""好她"",""坏她""]","[""强我"",""弱我"",""强她"",""弱她""]","","","","","","","","yes","","","","","","","","","SRET","EW_formal","","key","f","6.944449999999997","768","428","朋友","利己","Negative","morality","","","","","","","","","","",""
"635","","f","psychophysics","39","192291","0.0-7.0-3.0-0.25","3","3","4","3","2","3","2","2","2","1","4","-1","-1","-2","0","-2","-2","-2","-2","5","4","5","4","4","4","5","4","5","4","4","5","4","6","4","3","6","5","6","4","2","2","3","2","3","2","4","1","2","1","1","2","5","4","1","3","3","3","3","2","3","3","3","1","3","3","3","7","2","6","5","3","6","5","2","5","5","6","3","4","673239924056522752","刘","624","Female","[""好我"",""坏我"",""好她"",""坏她""]","[""强我"",""弱我"",""强她"",""弱她""]","","","","","","","","yes","","","","","","","","","SRET","EW_formal","","key","f","6.94605106382985","768","428","自己","忠勇","Positive","morality","","","","","","","","","","",""
"910","","j","psychophysics","40","194202","0.0-7.0-3.0-0.26","3","3","4","3","2","3","2","2","2","1","4","-1","-1","-2","0","-2","-2","-2","-2","5","4","5","4","4","4","5","4","5","4","4","5","4","6","4","3","6","5","6","4","2","2","3","2","3","2","4","1","2","1","1","2","5","4","1","3","3","3","3","2","3","3","3","1","3","3","3","7","2","6","5","3","6","5","2","5","5","6","3","4","673239924056522752","刘","624","Female","[""好我"",""坏我"",""好她"",""坏她""]","[""强我"",""弱我"",""强她"",""弱她""]","","","","","","","","no","","","","","","","","","SRET","EW_formal","","key","j","6.944638686131407","768","428","自己","庸碌","Negative","ability","","","","","","","","","","",""
"797","","f","psychophysics","41","196000","0.0-7.0-3.0-0.27","3","3","4","3","2","3","2","2","2","1","4","-1","-1","-2","0","-2","-2","-2","-2","5","4","5","4","4","4","5","4","5","4","4","5","4","6","4","3","6","5","6","4","2","2","3","2","3","2","4","1","2","1","1","2","5","4","1","3","3","3","3","2","3","3","3","1","3","3","3","7","2","6","5","3","6","5","2","5","5","6","3","4","673239924056522752","刘","624","Female","[""好我"",""坏我"",""好她"",""坏她""]","[""强我"",""弱我"",""强她"",""弱她""]","","","","","","","","yes","","","","","","","","","SRET","EW_formal","","key","f","6.944500000000044","768","428","自己","稳健","Positive","ability","","","","","","","","","","",""
"896","","f","psychophysics","42","197899","0.0-7.0-3.0-0.28","3","3","4","3","2","3","2","2","2","1","4","-1","-1","-2","0","-2","-2","-2","-2","5","4","5","4","4","4","5","4","5","4","4","5","4","6","4","3","6","5","6","4","2","2","3","2","3","2","4","1","2","1","1","2","5","4","1","3","3","3","3","2","3","3","3","1","3","3","3","7","2","6","5","3","6","5","2","5","5","6","3","4","673239924056522752","刘","624","Female","[""好我"",""坏我"",""好她"",""坏她""]","[""强我"",""弱我"",""强她"",""弱她""]","","","","","","","","yes","","","","","","","","","SRET","EW_formal","","key","f","6.944286764705847","768","428","朋友","果决","Positive","ability","","","","","","","","","","",""
"695","","f","psychophysics","43","199595","0.0-7.0-3.0-0.29","3","3","4","3","2","3","2","2","2","1","4","-1","-1","-2","0","-2","-2","-2","-2","5","4","5","4","4","4","5","4","5","4","4","5","4","6","4","3","6","5","6","4","2","2","3","2","3","2","4","1","2","1","1","2","5","4","1","3","3","3","3","2","3","3","3","1","3","3","3","7","2","6","5","3","6","5","2","5","5","6","3","4","673239924056522752","刘","624","Female","[""好我"",""坏我"",""好她"",""坏她""]","[""强我"",""弱我"",""强她"",""弱她""]","","","","","","","","yes","","","","","","","","","SRET","EW_formal","","key","f","6.945781893004163","768","428","朋友","宽容","Positive","morality","","","","","","","","","","",""
"1015","","j","psychophysics","44","201612","0.0-7.0-3.0-0.30","3","3","4","3","2","3","2","2","2","1","4","-1","-1","-2","0","-2","-2","-2","-2","5","4","5","4","4","4","5","4","5","4","4","5","4","6","4","3","6","5","6","4","2","2","3","2","3","2","4","1","2","1","1","2","5","4","1","3","3","3","3","2","3","3","3","1","3","3","3","7","2","6","5","3","6","5","2","5","5","6","3","4","673239924056522752","刘","624","Female","[""好我"",""坏我"",""好她"",""坏她""]","[""强我"",""弱我"",""强她"",""弱她""]","","","","","","","","no","","","","","","","","","SRET","EW_formal","","key","j","6.944475862068919","768","428","自己","能干","Positive","ability","","","","","","","","","","",""
"731","","j","psychophysics","45","203345","0.0-7.0-3.0-0.31","3","3","4","3","2","3","2","2","2","1","4","-1","-1","-2","0","-2","-2","-2","-2","5","4","5","4","4","4","5","4","5","4","4","5","4","6","4","3","6","5","6","4","2","2","3","2","3","2","4","1","2","1","1","2","5","4","1","3","3","3","3","2","3","3","3","1","3","3","3","7","2","6","5","3","6","5","2","5","5","6","3","4","673239924056522752","刘","624","Female","[""好我"",""坏我"",""好她"",""坏她""]","[""强我"",""弱我"",""强她"",""弱她""]","","","","","","","","no","","","","","","","","","SRET","EW_formal","","key","j","6.945294354838669","768","428","朋友","迟钝","Negative","ability","","","","","","","","","","",""
"721","","f","psychophysics","46","205067","0.0-7.0-3.0-0.32","3","3","4","3","2","3","2","2","2","1","4","-1","-1","-2","0","-2","-2","-2","-2","5","4","5","4","4","4","5","4","5","4","4","5","4","6","4","3","6","5","6","4","2","2","3","2","3","2","4","1","2","1","1","2","5","4","1","3","3","3","3","2","3","3","3","1","3","3","3","7","2","6","5","3","6","5","2","5","5","6","3","4","673239924056522752","刘","624","Female","[""好我"",""坏我"",""好她"",""坏她""]","[""强我"",""弱我"",""强她"",""弱她""]","","","","","","","","yes","","","","","","","","","SRET","EW_formal","","key","f","6.944441295546566","768","428","自己","中用","Positive","ability","","","","","","","","","","",""
"669","","j","psychophysics","47","206739","0.0-7.0-3.0-0.33","3","3","4","3","2","3","2","2","2","1","4","-1","-1","-2","0","-2","-2","-2","-2","5","4","5","4","4","4","5","4","5","4","4","5","4","6","4","3","6","5","6","4","2","2","3","2","3","2","4","1","2","1","1","2","5","4","1","3","3","3","3","2","3","3","3","1","3","3","3","7","2","6","5","3","6","5","2","5","5","6","3","4","673239924056522752","刘","624","Female","[""好我"",""坏我"",""好她"",""坏她""]","[""强我"",""弱我"",""强她"",""弱她""]","","","","","","","","no","","","","","","","","","SRET","EW_formal","","key","j","6.945066666666632","768","428","朋友","短视","Negative","ability","","","","","","","","","","",""
"830","","j","psychophysics","48","208570","0.0-7.0-3.0-0.34","3","3","4","3","2","3","2","2","2","1","4","-1","-1","-2","0","-2","-2","-2","-2","5","4","5","4","4","4","5","4","5","4","4","5","4","6","4","3","6","5","6","4","2","2","3","2","3","2","4","1","2","1","1","2","5","4","1","3","3","3","3","2","3","3","3","1","3","3","3","7","2","6","5","3","6","5","2","5","5","6","3","4","673239924056522752","刘","624","Female","[""好我"",""坏我"",""好她"",""坏她""]","[""强我"",""弱我"",""强她"",""弱她""]","","","","","","","","no","","","","","","","","","SRET","EW_formal","","key","j","6.944501901140721","768","428","朋友","昏庸","Negative","ability","","","","","","","","","","",""
"649","","f","psychophysics","49","210221","0.0-7.0-3.0-0.35","3","3","4","3","2","3","2","2","2","1","4","-1","-1","-2","0","-2","-2","-2","-2","5","4","5","4","4","4","5","4","5","4","4","5","4","6","4","3","6","5","6","4","2","2","3","2","3","2","4","1","2","1","1","2","5","4","1","3","3","3","3","2","3","3","3","1","3","3","3","7","2","6","5","3","6","5","2","5","5","6","3","4","673239924056522752","刘","624","Female","[""好我"",""坏我"",""好她"",""坏她""]","[""强我"",""弱我"",""强她"",""弱她""]","","","","","","","","yes","","","","","","","","","SRET","EW_formal","","key","f","6.9448354430378805","768","428","朋友","守信","Positive","morality","","","","","","","","","","",""
"623","","j","psychophysics","50","211845","0.0-7.0-3.0-0.36","3","3","4","3","2","3","2","2","2","1","4","-1","-1","-2","0","-2","-2","-2","-2","5","4","5","4","4","4","5","4","5","4","4","5","4","6","4","3","6","5","6","4","2","2","3","2","3","2","4","1","2","1","1","2","5","4","1","3","3","3","3","2","3","3","3","1","3","3","3","7","2","6","5","3","6","5","2","5","5","6","3","4","673239924056522752","刘","624","Female","[""好我"",""坏我"",""好她"",""坏她""]","[""强我"",""弱我"",""强她"",""弱她""]","","","","","","","","no","","","","","","","","","SRET","EW_formal","","key","j","6.943948275862002","768","428","朋友","贪污","Negative","morality","","","","","","","","","","",""
"611","","j","psychophysics","51","213458","0.0-7.0-3.0-0.37","3","3","4","3","2","3","2","2","2","1","4","-1","-1","-2","0","-2","-2","-2","-2","5","4","5","4","4","4","5","4","5","4","4","5","4","6","4","3","6","5","6","4","2","2","3","2","3","2","4","1","2","1","1","2","5","4","1","3","3","3","3","2","3","3","3","1","3","3","3","7","2","6","5","3","6","5","2","5","5","6","3","4","673239924056522752","刘","624","Female","[""好我"",""坏我"",""好她"",""坏她""]","[""强我"",""弱我"",""强她"",""弱她""]","","","","","","","","no","","","","","","","","","SRET","EW_formal","","key","j","6.944969827586239","768","428","自己","黑心","Negative","morality","","","","","","","","","","",""
"922","","j","psychophysics","52","215381","0.0-7.0-3.0-0.38","3","3","4","3","2","3","2","2","2","1","4","-1","-1","-2","0","-2","-2","-2","-2","5","4","5","4","4","4","5","4","5","4","4","5","4","6","4","3","6","5","6","4","2","2","3","2","3","2","4","1","2","1","1","2","5","4","1","3","3","3","3","2","3","3","3","1","3","3","3","7","2","6","5","3","6","5","2","5","5","6","3","4","673239924056522752","刘","624","Female","[""好我"",""坏我"",""好她"",""坏她""]","[""强我"",""弱我"",""强她"",""弱她""]","","","","","","","","no","","","","","","","","","SRET","EW_formal","","key","j","6.9448659420289705","768","428","自己","独断","Negative","ability","","","","","","","","","","",""
"941","","f","psychophysics","53","217323","0.0-7.0-3.0-0.39","3","3","4","3","2","3","2","2","2","1","4","-1","-1","-2","0","-2","-2","-2","-2","5","4","5","4","4","4","5","4","5","4","4","5","4","6","4","3","6","5","6","4","2","2","3","2","3","2","4","1","2","1","1","2","5","4","1","3","3","3","3","2","3","3","3","1","3","3","3","7","2","6","5","3","6","5","2","5","5","6","3","4","673239924056522752","刘","624","Female","[""好我"",""坏我"",""好她"",""坏她""]","[""强我"",""弱我"",""强她"",""弱她""]","","","","","","","","yes","","","","","","","","","SRET","EW_formal","","key","f","6.94489208633091","768","428","自己","廉明","Positive","morality","","","","","","","","","","",""
"633","","j","psychophysics","54","218957","0.0-7.0-3.0-0.40","3","3","4","3","2","3","2","2","2","1","4","-1","-1","-2","0","-2","-2","-2","-2","5","4","5","4","4","4","5","4","5","4","4","5","4","6","4","3","6","5","6","4","2","2","3","2","3","2","4","1","2","1","1","2","5","4","1","3","3","3","3","2","3","3","3","1","3","3","3","7","2","6","5","3","6","5","2","5","5","6","3","4","673239924056522752","刘","624","Female","[""好我"",""坏我"",""好她"",""坏她""]","[""强我"",""弱我"",""强她"",""弱她""]","","","","","","","","no","","","","","","","","","SRET","EW_formal","","key","j","6.945187234042455","768","428","自己","小人","Negative","morality","","","","","","","","","","",""
"805","","f","psychophysics","55","220764","0.0-7.0-3.0-0.41","3","3","4","3","2","3","2","2","2","1","4","-1","-1","-2","0","-2","-2","-2","-2","5","4","5","4","4","4","5","4","5","4","4","5","4","6","4","3","6","5","6","4","2","2","3","2","3","2","4","1","2","1","1","2","5","4","1","3","3","3","3","2","3","3","3","1","3","3","3","7","2","6","5","3","6","5","2","5","5","6","3","4","673239924056522752","刘","624","Female","[""好我"",""坏我"",""好她"",""坏她""]","[""强我"",""弱我"",""强她"",""弱她""]","","","","","","","","yes","","","","","","","","","SRET","EW_formal","","key","f","6.944552123552106","768","428","自己","自律","Positive","ability","","","","","","","","","","",""
"971","","j","psychophysics","56","222736","0.0-7.0-3.0-0.42","3","3","4","3","2","3","2","2","2","1","4","-1","-1","-2","0","-2","-2","-2","-2","5","4","5","4","4","4","5","4","5","4","4","5","4","6","4","3","6","5","6","4","2","2","3","2","3","2","4","1","2","1","1","2","5","4","1","3","3","3","3","2","3","3","3","1","3","3","3","7","2","6","5","3","6","5","2","5","5","6","3","4","673239924056522752","刘","624","Female","[""好我"",""坏我"",""好她"",""坏她""]","[""强我"",""弱我"",""强她"",""弱她""]","","","","","","","","no","","","","","","","","","SRET","EW_formal","","key","j","6.944208480565305","768","428","自己","高洁","Positive","morality","","","","","","","","","","",""
"888","","f","psychophysics","57","224626","0.0-7.0-3.0-0.43","3","3","4","3","2","3","2","2","2","1","4","-1","-1","-2","0","-2","-2","-2","-2","5","4","5","4","4","4","5","4","5","4","4","5","4","6","4","3","6","5","6","4","2","2","3","2","3","2","4","1","2","1","1","2","5","4","1","3","3","3","3","2","3","3","3","1","3","3","3","7","2","6","5","3","6","5","2","5","5","6","3","4","673239924056522752","刘","624","Female","[""好我"",""坏我"",""好她"",""坏她""]","[""强我"",""弱我"",""强她"",""弱她""]","","","","","","","","yes","","","","","","","","","SRET","EW_formal","","key","f","6.944948339483416","768","428","自己","拖拉","Negative","ability","","","","","","","","","","",""
"809","","f","psychophysics","58","226436","0.0-7.0-3.0-0.44","3","3","4","3","2","3","2","2","2","1","4","-1","-1","-2","0","-2","-2","-2","-2","5","4","5","4","4","4","5","4","5","4","4","5","4","6","4","3","6","5","6","4","2","2","3","2","3","2","4","1","2","1","1","2","5","4","1","3","3","3","3","2","3","3","3","1","3","3","3","7","2","6","5","3","6","5","2","5","5","6","3","4","673239924056522752","刘","624","Female","[""好我"",""坏我"",""好她"",""坏她""]","[""强我"",""弱我"",""强她"",""弱她""]","","","","","","","","yes","","","","","","","","","SRET","EW_formal","","key","f","6.944376923076925","768","428","朋友","礼貌","Positive","morality","","","","","","","","","","",""
"1168","","j","psychophysics","59","228607","0.0-7.0-3.0-0.45","3","3","4","3","2","3","2","2","2","1","4","-1","-1","-2","0","-2","-2","-2","-2","5","4","5","4","4","4","5","4","5","4","4","5","4","6","4","3","6","5","6","4","2","2","3","2","3","2","4","1","2","1","1","2","5","4","1","3","3","3","3","2","3","3","3","1","3","3","3","7","2","6","5","3","6","5","2","5","5","6","3","4","673239924056522752","刘","624","Female","[""好我"",""坏我"",""好她"",""坏她""]","[""强我"",""弱我"",""强她"",""弱她""]","","","","","","","","no","","","","","","","","","SRET","EW_formal","","key","j","6.944411575562699","768","428","自己","迂拙","Negative","ability","","","","","","","","","","",""
"628","","j","psychophysics","60","230236","0.0-7.0-3.0-0.46","3","3","4","3","2","3","2","2","2","1","4","-1","-1","-2","0","-2","-2","-2","-2","5","4","5","4","4","4","5","4","5","4","4","5","4","6","4","3","6","5","6","4","2","2","3","2","3","2","4","1","2","1","1","2","5","4","1","3","3","3","3","2","3","3","3","1","3","3","3","7","2","6","5","3","6","5","2","5","5","6","3","4","673239924056522752","刘","624","Female","[""好我"",""坏我"",""好她"",""坏她""]","[""强我"",""弱我"",""强她"",""弱她""]","","","","","","","","no","","","","","","","","","SRET","EW_formal","","key","j","6.945034188034215","768","428","自己","淫乱","Negative","morality","","","","","","","","","","",""
"721","","j","psychophysics","61","231958","0.0-7.0-3.0-0.47","3","3","4","3","2","3","2","2","2","1","4","-1","-1","-2","0","-2","-2","-2","-2","5","4","5","4","4","4","5","4","5","4","4","5","4","6","4","3","6","5","6","4","2","2","3","2","3","2","4","1","2","1","1","2","5","4","1","3","3","3","3","2","3","3","3","1","3","3","3","7","2","6","5","3","6","5","2","5","5","6","3","4","673239924056522752","刘","624","Female","[""好我"",""坏我"",""好她"",""坏她""]","[""强我"",""弱我"",""强她"",""弱她""]","","","","","","","","no","","","","","","","","","SRET","EW_formal","","key","j","6.943526315789501","768","428","自己","无赖","Negative","morality","","","","","","","","","","",""
"886","","j","psychophysics","62","233846","0.0-7.0-3.0-0.48","3","3","4","3","2","3","2","2","2","1","4","-1","-1","-2","0","-2","-2","-2","-2","5","4","5","4","4","4","5","4","5","4","4","5","4","6","4","3","6","5","6","4","2","2","3","2","3","2","4","1","2","1","1","2","5","4","1","3","3","3","3","2","3","3","3","1","3","3","3","7","2","6","5","3","6","5","2","5","5","6","3","4","673239924056522752","刘","624","Female","[""好我"",""坏我"",""好她"",""坏她""]","[""强我"",""弱我"",""强她"",""弱她""]","","","","","","","","no","","","","","","","","","SRET","EW_formal","","key","j","6.944372693727002","768","428","朋友","诡诈","Negative","morality","","","","","","","","","","",""
"702","","j","psychophysics","63","235551","0.0-7.0-3.0-0.49","3","3","4","3","2","3","2","2","2","1","4","-1","-1","-2","0","-2","-2","-2","-2","5","4","5","4","4","4","5","4","5","4","4","5","4","6","4","3","6","5","6","4","2","2","3","2","3","2","4","1","2","1","1","2","5","4","1","3","3","3","3","2","3","3","3","1","3","3","3","7","2","6","5","3","6","5","2","5","5","6","3","4","673239924056522752","刘","624","Female","[""好我"",""坏我"",""好她"",""坏她""]","[""强我"",""弱我"",""强她"",""弱她""]","","","","","","","","no","","","","","","","","","SRET","EW_formal","","key","j","6.945016393442634","768","428","自己","无敌","Positive","ability","","","","","","","","","","",""
"825","","j","psychophysics","64","237376","0.0-7.0-3.0-0.50","3","3","4","3","2","3","2","2","2","1","4","-1","-1","-2","0","-2","-2","-2","-2","5","4","5","4","4","4","5","4","5","4","4","5","4","6","4","3","6","5","6","4","2","2","3","2","3","2","4","1","2","1","1","2","5","4","1","3","3","3","3","2","3","3","3","1","3","3","3","7","2","6","5","3","6","5","2","5","5","6","3","4","673239924056522752","刘","624","Female","[""好我"",""坏我"",""好她"",""坏她""]","[""强我"",""弱我"",""强她"",""弱她""]","","","","","","","","no","","","","","","","","","SRET","EW_formal","","key","j","6.944358778625921","768","428","朋友","屈才","Negative","ability","","","","","","","","","","",""
"798","","f","psychophysics","65","239177","0.0-7.0-3.0-0.51","3","3","4","3","2","3","2","2","2","1","4","-1","-1","-2","0","-2","-2","-2","-2","5","4","5","4","4","4","5","4","5","4","4","5","4","6","4","3","6","5","6","4","2","2","3","2","3","2","4","1","2","1","1","2","5","4","1","3","3","3","3","2","3","3","3","1","3","3","3","7","2","6","5","3","6","5","2","5","5","6","3","4","673239924056522752","刘","624","Female","[""好我"",""坏我"",""好她"",""坏她""]","[""强我"",""弱我"",""强她"",""弱她""]","","","","","","","","yes","","","","","","","","","SRET","EW_formal","","key","f","6.947829457364373","768","428","自己","博学","Positive","ability","","","","","","","","","","",""
"991","","f","psychophysics","66","241172","0.0-7.0-3.0-0.52","3","3","4","3","2","3","2","2","2","1","4","-1","-1","-2","0","-2","-2","-2","-2","5","4","5","4","4","4","5","4","5","4","4","5","4","6","4","3","6","5","6","4","2","2","3","2","3","2","4","1","2","1","1","2","5","4","1","3","3","3","3","2","3","3","3","1","3","3","3","7","2","6","5","3","6","5","2","5","5","6","3","4","673239924056522752","刘","624","Female","[""好我"",""坏我"",""好她"",""坏她""]","[""强我"",""弱我"",""强她"",""弱她""]","","","","","","","","yes","","","","","","","","","SRET","EW_formal","","key","f","6.944763066202081","768","428","自己","勤恳","Positive","morality","","","","","","","","","","",""
"745","","j","psychophysics","67","242918","0.0-7.0-3.0-0.53","3","3","4","3","2","3","2","2","2","1","4","-1","-1","-2","0","-2","-2","-2","-2","5","4","5","4","4","4","5","4","5","4","4","5","4","6","4","3","6","5","6","4","2","2","3","2","3","2","4","1","2","1","1","2","5","4","1","3","3","3","3","2","3","3","3","1","3","3","3","7","2","6","5","3","6","5","2","5","5","6","3","4","673239924056522752","刘","624","Female","[""好我"",""坏我"",""好她"",""坏她""]","[""强我"",""弱我"",""强她"",""弱她""]","","","","","","","","no","","","","","","","","","SRET","EW_formal","","key","j","6.944295999999973","768","428","朋友","无能","Negative","ability","","","","","","","","","","",""
"811","","f","psychophysics","68","244731","0.0-7.0-3.0-0.54","3","3","4","3","2","3","2","2","2","1","4","-1","-1","-2","0","-2","-2","-2","-2","5","4","5","4","4","4","5","4","5","4","4","5","4","6","4","3","6","5","6","4","2","2","3","2","3","2","4","1","2","1","1","2","5","4","1","3","3","3","3","2","3","3","3","1","3","3","3","7","2","6","5","3","6","5","2","5","5","6","3","4","673239924056522752","刘","624","Female","[""好我"",""坏我"",""好她"",""坏她""]","[""强我"",""弱我"",""强她"",""弱她""]","","","","","","","","yes","","","","","","","","","SRET","EW_formal","","key","f","6.944388461538452","768","428","朋友","远见","Positive","ability","","","","","","","","","","",""
"664","","j","psychophysics","69","246396","0.0-7.0-3.0-0.55","3","3","4","3","2","3","2","2","2","1","4","-1","-1","-2","0","-2","-2","-2","-2","5","4","5","4","4","4","5","4","5","4","4","5","4","6","4","3","6","5","6","4","2","2","3","2","3","2","4","1","2","1","1","2","5","4","1","3","3","3","3","2","3","3","3","1","3","3","3","7","2","6","5","3","6","5","2","5","5","6","3","4","673239924056522752","刘","624","Female","[""好我"",""坏我"",""好她"",""坏她""]","[""强我"",""弱我"",""强她"",""弱她""]","","","","","","","","no","","","","","","","","","SRET","EW_formal","","key","j","6.94527196652725","768","428","朋友","逞能","Negative","ability","","","","","","","","","","",""
"763","","j","psychophysics","70","248160","0.0-7.0-3.0-0.56","3","3","4","3","2","3","2","2","2","1","4","-1","-1","-2","0","-2","-2","-2","-2","5","4","5","4","4","4","5","4","5","4","4","5","4","6","4","3","6","5","6","4","2","2","3","2","3","2","4","1","2","1","1","2","5","4","1","3","3","3","3","2","3","3","3","1","3","3","3","7","2","6","5","3","6","5","2","5","5","6","3","4","673239924056522752","刘","624","Female","[""好我"",""坏我"",""好她"",""坏她""]","[""强我"",""弱我"",""强她"",""弱她""]","","","","","","","","no","","","","","","","","","SRET","EW_formal","","key","j","6.944992094861712","768","428","自己","无知","Negative","ability","","","","","","","","","","",""
"658","","f","psychophysics","71","249820","0.0-7.0-3.0-0.57","3","3","4","3","2","3","2","2","2","1","4","-1","-1","-2","0","-2","-2","-2","-2","5","4","5","4","4","4","5","4","5","4","4","5","4","6","4","3","6","5","6","4","2","2","3","2","3","2","4","1","2","1","1","2","5","4","1","3","3","3","3","2","3","3","3","1","3","3","3","7","2","6","5","3","6","5","2","5","5","6","3","4","673239924056522752","刘","624","Female","[""好我"",""坏我"",""好她"",""坏她""]","[""强我"",""弱我"",""强她"",""弱她""]","","","","","","","","yes","","","","","","","","","SRET","EW_formal","","key","f","6.945079831932789","768","428","朋友","文明","Positive","morality","","","","","","","","","","",""
"532","","j","psychophysics","72","251354","0.0-7.0-3.0-0.58","3","3","4","3","2","3","2","2","2","1","4","-1","-1","-2","0","-2","-2","-2","-2","5","4","5","4","4","4","5","4","5","4","4","5","4","6","4","3","6","5","6","4","2","2","3","2","3","2","4","1","2","1","1","2","5","4","1","3","3","3","3","2","3","3","3","1","3","3","3","7","2","6","5","3","6","5","2","5","5","6","3","4","673239924056522752","刘","624","Female","[""好我"",""坏我"",""好她"",""坏她""]","[""强我"",""弱我"",""强她"",""弱她""]","","","","","","","","no","","","","","","","","","SRET","EW_formal","","key","j","6.945795454545507","768","428","自己","低劣","Negative","morality","","","","","","","","","","",""
"622","","f","psychophysics","73","252978","0.0-7.0-3.0-0.59","3","3","4","3","2","3","2","2","2","1","4","-1","-1","-2","0","-2","-2","-2","-2","5","4","5","4","4","4","5","4","5","4","4","5","4","6","4","3","6","5","6","4","2","2","3","2","3","2","4","1","2","1","1","2","5","4","1","3","3","3","3","2","3","3","3","1","3","3","3","7","2","6","5","3","6","5","2","5","5","6","3","4","673239924056522752","刘","624","Female","[""好我"",""坏我"",""好她"",""坏她""]","[""强我"",""弱我"",""强她"",""弱她""]","","","","","","","","yes","","","","","","","","","SRET","EW_formal","","key","f","6.944360515021553","768","428","朋友","干练","Positive","ability","","","","","","","","","","",""
"727","","j","psychophysics","74","254707","0.0-7.0-3.0-0.60","3","3","4","3","2","3","2","2","2","1","4","-1","-1","-2","0","-2","-2","-2","-2","5","4","5","4","4","4","5","4","5","4","4","5","4","6","4","3","6","5","6","4","2","2","3","2","3","2","4","1","2","1","1","2","5","4","1","3","3","3","3","2","3","3","3","1","3","3","3","7","2","6","5","3","6","5","2","5","5","6","3","4","673239924056522752","刘","624","Female","[""好我"",""坏我"",""好她"",""坏她""]","[""强我"",""弱我"",""强她"",""弱她""]","","","","","","","","no","","","","","","","","","SRET","EW_formal","","key","j","6.944455645161314","768","428","朋友","才尽","Negative","ability","","","","","","","","","","",""
"642","","j","psychophysics","75","256351","0.0-7.0-3.0-0.61","3","3","4","3","2","3","2","2","2","1","4","-1","-1","-2","0","-2","-2","-2","-2","5","4","5","4","4","4","5","4","5","4","4","5","4","6","4","3","6","5","6","4","2","2","3","2","3","2","4","1","2","1","1","2","5","4","1","3","3","3","3","2","3","3","3","1","3","3","3","7","2","6","5","3","6","5","2","5","5","6","3","4","673239924056522752","刘","624","Female","[""好我"",""坏我"",""好她"",""坏她""]","[""强我"",""弱我"",""强她"",""弱她""]","","","","","","","","no","","","","","","","","","SRET","EW_formal","","key","j","6.945302127659485","768","428","朋友","弱智","Negative","ability","","","","","","","","","","",""
"668","","j","psychophysics","76","258023","0.0-7.0-3.0-0.62","3","3","4","3","2","3","2","2","2","1","4","-1","-1","-2","0","-2","-2","-2","-2","5","4","5","4","4","4","5","4","5","4","4","5","4","6","4","3","6","5","6","4","2","2","3","2","3","2","4","1","2","1","1","2","5","4","1","3","3","3","3","2","3","3","3","1","3","3","3","7","2","6","5","3","6","5","2","5","5","6","3","4","673239924056522752","刘","624","Female","[""好我"",""坏我"",""好她"",""坏她""]","[""强我"",""弱我"",""强她"",""弱她""]","","","","","","","","no","","","","","","","","","SRET","EW_formal","","key","j","6.946270833333256","768","428","朋友","拙笨","Negative","ability","","","","","","","","","","",""
"534","","f","psychophysics","77","259559","0.0-7.0-3.0-0.63","3","3","4","3","2","3","2","2","2","1","4","-1","-1","-2","0","-2","-2","-2","-2","5","4","5","4","4","4","5","4","5","4","4","5","4","6","4","3","6","5","6","4","2","2","3","2","3","2","4","1","2","1","1","2","5","4","1","3","3","3","3","2","3","3","3","1","3","3","3","7","2","6","5","3","6","5","2","5","5","6","3","4","673239924056522752","刘","624","Female","[""好我"",""坏我"",""好她"",""坏她""]","[""强我"",""弱我"",""强她"",""弱她""]","","","","","","","","yes","","","","","","","","","SRET","EW_formal","","key","f","6.9445181818181565","768","428","朋友","善心","Positive","morality","","","","","","","","","","",""
"728","","f","psychophysics","78","261289","0.0-7.0-3.0-0.64","3","3","4","3","2","3","2","2","2","1","4","-1","-1","-2","0","-2","-2","-2","-2","5","4","5","4","4","4","5","4","5","4","4","5","4","6","4","3","6","5","6","4","2","2","3","2","3","2","4","1","2","1","1","2","5","4","1","3","3","3","3","2","3","3","3","1","3","3","3","7","2","6","5","3","6","5","2","5","5","6","3","4","673239924056522752","刘","624","Female","[""好我"",""坏我"",""好她"",""坏她""]","[""强我"",""弱我"",""强她"",""弱她""]","","","","","","","","yes","","","","","","","","","SRET","EW_formal","","key","f","6.945241935483805","768","428","朋友","刻苦","Positive","ability","","","","","","","","","","",""
"574","","j","psychophysics","79","262867","0.0-7.0-3.0-0.65","3","3","4","3","2","3","2","2","2","1","4","-1","-1","-2","0","-2","-2","-2","-2","5","4","5","4","4","4","5","4","5","4","4","5","4","6","4","3","6","5","6","4","2","2","3","2","3","2","4","1","2","1","1","2","5","4","1","3","3","3","3","2","3","3","3","1","3","3","3","7","2","6","5","3","6","5","2","5","5","6","3","4","673239924056522752","刘","624","Female","[""好我"",""坏我"",""好她"",""坏她""]","[""强我"",""弱我"",""强她"",""弱她""]","","","","","","","","no","","","","","","","","","SRET","EW_formal","","key","j","6.945251101321778","768","428","朋友","阴毒","Negative","morality","","","","","","","","","","",""
"600","","f","psychophysics","80","264469","0.0-7.0-3.0-0.66","3","3","4","3","2","3","2","2","2","1","4","-1","-1","-2","0","-2","-2","-2","-2","5","4","5","4","4","4","5","4","5","4","4","5","4","6","4","3","6","5","6","4","2","2","3","2","3","2","4","1","2","1","1","2","5","4","1","3","3","3","3","2","3","3","3","1","3","3","3","7","2","6","5","3","6","5","2","5","5","6","3","4","673239924056522752","刘","624","Female","[""好我"",""坏我"",""好她"",""坏她""]","[""强我"",""弱我"",""强她"",""弱她""]","","","","","","","","yes","","","","","","","","","SRET","EW_formal","","key","f","6.944829694323056","768","428","朋友","利落","Positive","ability","","","","","","","","","","",""
"695","","j","psychophysics","81","266165","0.0-7.0-3.0-0.67","3","3","4","3","2","3","2","2","2","1","4","-1","-1","-2","0","-2","-2","-2","-2","5","4","5","4","4","4","5","4","5","4","4","5","4","6","4","3","6","5","6","4","2","2","3","2","3","2","4","1","2","1","1","2","5","4","1","3","3","3","3","2","3","3","3","1","3","3","3","7","2","6","5","3","6","5","2","5","5","6","3","4","673239924056522752","刘","624","Female","[""好我"",""坏我"",""好她"",""坏她""]","[""强我"",""弱我"",""强她"",""弱她""]","","","","","","","","no","","","","","","","","","SRET","EW_formal","","key","j","6.944413934426371","768","428","自己","畏难","Negative","ability","","","","","","","","","","",""
"654","","f","psychophysics","82","267820","0.0-7.0-3.0-0.68","3","3","4","3","2","3","2","2","2","1","4","-1","-1","-2","0","-2","-2","-2","-2","5","4","5","4","4","4","5","4","5","4","4","5","4","6","4","3","6","5","6","4","2","2","3","2","3","2","4","1","2","1","1","2","5","4","1","3","3","3","3","2","3","3","3","1","3","3","3","7","2","6","5","3","6","5","2","5","5","6","3","4","673239924056522752","刘","624","Female","[""好我"",""坏我"",""好她"",""坏她""]","[""强我"",""弱我"",""强她"",""弱她""]","","","","","","","","yes","","","","","","","","","SRET","EW_formal","","key","f","6.9444472573841","768","428","朋友","沉着","Positive","ability","","","","","","","","","","",""
"865","","f","psychophysics","83","269686","0.0-7.0-3.0-0.69","3","3","4","3","2","3","2","2","2","1","4","-1","-1","-2","0","-2","-2","-2","-2","5","4","5","4","4","4","5","4","5","4","4","5","4","6","4","3","6","5","6","4","2","2","3","2","3","2","4","1","2","1","1","2","5","4","1","3","3","3","3","2","3","3","3","1","3","3","3","7","2","6","5","3","6","5","2","5","5","6","3","4","673239924056522752","刘","624","Female","[""好我"",""坏我"",""好她"",""坏她""]","[""强我"",""弱我"",""强她"",""弱她""]","","","","","","","","yes","","","","","","","","","SRET","EW_formal","","key","f","6.944414179104488","768","428","自己","精干","Positive","ability","","","","","","","","","","",""
"775","","f","psychophysics","84","271463","0.0-7.0-3.0-0.70","3","3","4","3","2","3","2","2","2","1","4","-1","-1","-2","0","-2","-2","-2","-2","5","4","5","4","4","4","5","4","5","4","4","5","4","6","4","3","6","5","6","4","2","2","3","2","3","2","4","1","2","1","1","2","5","4","1","3","3","3","3","2","3","3","3","1","3","3","3","7","2","6","5","3","6","5","2","5","5","6","3","4","673239924056522752","刘","624","Female","[""好我"",""坏我"",""好她"",""坏她""]","[""强我"",""弱我"",""强她"",""弱她""]","","","","","","","","yes","","","","","","","","","SRET","EW_formal","","key","f","6.943803149606166","768","428","朋友","周到","Positive","ability","","","","","","","","","","",""
"782","","j","psychophysics","85","273247","0.0-7.0-3.0-0.71","3","3","4","3","2","3","2","2","2","1","4","-1","-1","-2","0","-2","-2","-2","-2","5","4","5","4","4","4","5","4","5","4","4","5","4","6","4","3","6","5","6","4","2","2","3","2","3","2","4","1","2","1","1","2","5","4","1","3","3","3","3","2","3","3","3","1","3","3","3","7","2","6","5","3","6","5","2","5","5","6","3","4","673239924056522752","刘","624","Female","[""好我"",""坏我"",""好她"",""坏她""]","[""强我"",""弱我"",""强她"",""弱她""]","","","","","","","","no","","","","","","","","","SRET","EW_formal","","key","j","6.945363281250138","768","428","自己","愚痴","Negative","ability","","","","","","","","","","",""
"877","","f","psychophysics","86","275127","0.0-7.0-3.0-0.72","3","3","4","3","2","3","2","2","2","1","4","-1","-1","-2","0","-2","-2","-2","-2","5","4","5","4","4","4","5","4","5","4","4","5","4","6","4","3","6","5","6","4","2","2","3","2","3","2","4","1","2","1","1","2","5","4","1","3","3","3","3","2","3","3","3","1","3","3","3","7","2","6","5","3","6","5","2","5","5","6","3","4","673239924056522752","刘","624","Female","[""好我"",""坏我"",""好她"",""坏她""]","[""强我"",""弱我"",""强她"",""弱她""]","","","","","","","","yes","","","","","","","","","SRET","EW_formal","","key","f","6.945211111111092","768","428","自己","仗义","Positive","morality","","","","","","","","","","",""
"596","","j","psychophysics","87","276725","0.0-7.0-3.0-0.73","3","3","4","3","2","3","2","2","2","1","4","-1","-1","-2","0","-2","-2","-2","-2","5","4","5","4","4","4","5","4","5","4","4","5","4","6","4","3","6","5","6","4","2","2","3","2","3","2","4","1","2","1","1","2","5","4","1","3","3","3","3","2","3","3","3","1","3","3","3","7","2","6","5","3","6","5","2","5","5","6","3","4","673239924056522752","刘","624","Female","[""好我"",""坏我"",""好她"",""坏她""]","[""强我"",""弱我"",""强她"",""弱她""]","","","","","","","","no","","","","","","","","","SRET","EW_formal","","key","j","6.945192139738089","768","428","自己","背叛","Negative","morality","","","","","","","","","","",""
"879","","j","psychophysics","88","278604","0.0-7.0-3.0-0.74","3","3","4","3","2","3","2","2","2","1","4","-1","-1","-2","0","-2","-2","-2","-2","5","4","5","4","4","4","5","4","5","4","4","5","4","6","4","3","6","5","6","4","2","2","3","2","3","2","4","1","2","1","1","2","5","4","1","3","3","3","3","2","3","3","3","1","3","3","3","7","2","6","5","3","6","5","2","5","5","6","3","4","673239924056522752","刘","624","Female","[""好我"",""坏我"",""好她"",""坏她""]","[""强我"",""弱我"",""强她"",""弱她""]","","","","","","","","no","","","","","","","","","SRET","EW_formal","","key","j","6.944318518518574","768","428","自己","偏私","Negative","morality","","","","","","","","","","",""
"636","","f","psychophysics","89","280243","0.0-7.0-3.0-0.75","3","3","4","3","2","3","2","2","2","1","4","-1","-1","-2","0","-2","-2","-2","-2","5","4","5","4","4","4","5","4","5","4","4","5","4","6","4","3","6","5","6","4","2","2","3","2","3","2","4","1","2","1","1","2","5","4","1","3","3","3","3","2","3","3","3","1","3","3","3","7","2","6","5","3","6","5","2","5","5","6","3","4","673239924056522752","刘","624","Female","[""好我"",""坏我"",""好她"",""坏她""]","[""强我"",""弱我"",""强她"",""弱她""]","","","","","","","","yes","","","","","","","","","SRET","EW_formal","","key","f","6.943604255319285","768","428","自己","守时","Positive","morality","","","","","","","","","","",""
"715","","j","psychophysics","90","281959","0.0-7.0-3.0-0.76","3","3","4","3","2","3","2","2","2","1","4","-1","-1","-2","0","-2","-2","-2","-2","5","4","5","4","4","4","5","4","5","4","4","5","4","6","4","3","6","5","6","4","2","2","3","2","3","2","4","1","2","1","1","2","5","4","1","3","3","3","3","2","3","3","3","1","3","3","3","7","2","6","5","3","6","5","2","5","5","6","3","4","673239924056522752","刘","624","Female","[""好我"",""坏我"",""好她"",""坏她""]","[""强我"",""弱我"",""强她"",""弱她""]","","","","","","","","no","","","","","","","","","SRET","EW_formal","","key","j","6.945243902438901","768","428","自己","腐败","Negative","morality","","","","","","","","","","",""
"762","","f","psychophysics","91","283723","0.0-7.0-3.0-0.77","3","3","4","3","2","3","2","2","2","1","4","-1","-1","-2","0","-2","-2","-2","-2","5","4","5","4","4","4","5","4","5","4","4","5","4","6","4","3","6","5","6","4","2","2","3","2","3","2","4","1","2","1","1","2","5","4","1","3","3","3","3","2","3","3","3","1","3","3","3","7","2","6","5","3","6","5","2","5","5","6","3","4","673239924056522752","刘","624","Female","[""好我"",""坏我"",""好她"",""坏她""]","[""强我"",""弱我"",""强她"",""弱她""]","","","","","","","","yes","","","","","","","","","SRET","EW_formal","","key","f","6.945426877470238","768","428","自己","独立","Positive","ability","","","","","","","","","","",""
"732","","f","psychophysics","92","285457","0.0-7.0-3.0-0.78","3","3","4","3","2","3","2","2","2","1","4","-1","-1","-2","0","-2","-2","-2","-2","5","4","5","4","4","4","5","4","5","4","4","5","4","6","4","3","6","5","6","4","2","2","3","2","3","2","4","1","2","1","1","2","5","4","1","3","3","3","3","2","3","3","3","1","3","3","3","7","2","6","5","3","6","5","2","5","5","6","3","4","673239924056522752","刘","624","Female","[""好我"",""坏我"",""好她"",""坏她""]","[""强我"",""弱我"",""强她"",""弱她""]","","","","","","","","yes","","","","","","","","","SRET","EW_formal","","key","f","6.943662650602211","768","428","朋友","仁厚","Positive","morality","","","","","","","","","","",""
"1048","","j","psychophysics","93","287507","0.0-7.0-3.0-0.79","3","3","4","3","2","3","2","2","2","1","4","-1","-1","-2","0","-2","-2","-2","-2","5","4","5","4","4","4","5","4","5","4","4","5","4","6","4","3","6","5","6","4","2","2","3","2","3","2","4","1","2","1","1","2","5","4","1","3","3","3","3","2","3","3","3","1","3","3","3","7","2","6","5","3","6","5","2","5","5","6","3","4","673239924056522752","刘","624","Female","[""好我"",""坏我"",""好她"",""坏她""]","[""强我"",""弱我"",""强她"",""弱她""]","","","","","","","","no","","","","","","","","","SRET","EW_formal","","key","j","6.944561224489799","768","428","自己","愚钝","Negative","ability","","","","","","","","","","",""
"895","","f","psychophysics","94","289402","0.0-7.0-3.0-0.80","3","3","4","3","2","3","2","2","2","1","4","-1","-1","-2","0","-2","-2","-2","-2","5","4","5","4","4","4","5","4","5","4","4","5","4","6","4","3","6","5","6","4","2","2","3","2","3","2","4","1","2","1","1","2","5","4","1","3","3","3","3","2","3","3","3","1","3","3","3","7","2","6","5","3","6","5","2","5","5","6","3","4","673239924056522752","刘","624","Female","[""好我"",""坏我"",""好她"",""坏她""]","[""强我"",""弱我"",""强她"",""弱她""]","","","","","","","","yes","","","","","","","","","SRET","EW_formal","","key","f","6.943569852941009","768","428","朋友","懂行","Positive","ability","","","","","","","","","","",""
"633","","j","psychophysics","95","291037","0.0-7.0-3.0-0.81","3","3","4","3","2","3","2","2","2","1","4","-1","-1","-2","0","-2","-2","-2","-2","5","4","5","4","4","4","5","4","5","4","4","5","4","6","4","3","6","5","6","4","2","2","3","2","3","2","4","1","2","1","1","2","5","4","1","3","3","3","3","2","3","3","3","1","3","3","3","7","2","6","5","3","6","5","2","5","5","6","3","4","673239924056522752","刘","624","Female","[""好我"",""坏我"",""好她"",""坏她""]","[""强我"",""弱我"",""强她"",""弱她""]","","","","","","","","no","","","","","","","","","SRET","EW_formal","","key","j","6.944333333333528","768","428","自己","无助","Negative","ability","","","","","","","","","","",""
"780","","f","psychophysics","96","292819","0.0-7.0-3.0-0.82","3","3","4","3","2","3","2","2","2","1","4","-1","-1","-2","0","-2","-2","-2","-2","5","4","5","4","4","4","5","4","5","4","4","5","4","6","4","3","6","5","6","4","2","2","3","2","3","2","4","1","2","1","1","2","5","4","1","3","3","3","3","2","3","3","3","1","3","3","3","7","2","6","5","3","6","5","2","5","5","6","3","4","673239924056522752","刘","624","Female","[""好我"",""坏我"",""好她"",""坏她""]","[""强我"",""弱我"",""强她"",""弱她""]","","","","","","","","yes","","","","","","","","","SRET","EW_formal","","key","f","6.944449218749924","768","428","自己","变通","Positive","ability","","","","","","","","","","",""
"867","","f","psychophysics","97","294687","0.0-7.0-3.0-0.83","3","3","4","3","2","3","2","2","2","1","4","-1","-1","-2","0","-2","-2","-2","-2","5","4","5","4","4","4","5","4","5","4","4","5","4","6","4","3","6","5","6","4","2","2","3","2","3","2","4","1","2","1","1","2","5","4","1","3","3","3","3","2","3","3","3","1","3","3","3","7","2","6","5","3","6","5","2","5","5","6","3","4","673239924056522752","刘","624","Female","[""好我"",""坏我"",""好她"",""坏她""]","[""强我"",""弱我"",""强她"",""弱她""]","","","","","","","","yes","","","","","","","","","SRET","EW_formal","","key","f","6.944324626865555","768","428","朋友","孝顺","Positive","morality","","","","","","","","","","",""
"671","","f","psychophysics","98","296359","0.0-7.0-3.0-0.84","3","3","4","3","2","3","2","2","2","1","4","-1","-1","-2","0","-2","-2","-2","-2","5","4","5","4","4","4","5","4","5","4","4","5","4","6","4","3","6","5","6","4","2","2","3","2","3","2","4","1","2","1","1","2","5","4","1","3","3","3","3","2","3","3","3","1","3","3","3","7","2","6","5","3","6","5","2","5","5","6","3","4","673239924056522752","刘","624","Female","[""好我"",""坏我"",""好她"",""坏她""]","[""强我"",""弱我"",""强她"",""弱她""]","","","","","","","","yes","","","","","","","","","SRET","EW_formal","","key","f","6.9443723849373065","768","428","自己","缓慢","Negative","ability","","","","","","","","","","",""
"918","","f","psychophysics","99","298278","0.0-7.0-3.0-0.85","3","3","4","3","2","3","2","2","2","1","4","-1","-1","-2","0","-2","-2","-2","-2","5","4","5","4","4","4","5","4","5","4","4","5","4","6","4","3","6","5","6","4","2","2","3","2","3","2","4","1","2","1","1","2","5","4","1","3","3","3","3","2","3","3","3","1","3","3","3","7","2","6","5","3","6","5","2","5","5","6","3","4","673239924056522752","刘","624","Female","[""好我"",""坏我"",""好她"",""坏她""]","[""强我"",""弱我"",""强她"",""弱她""]","","","","","","","","yes","","","","","","","","","SRET","EW_formal","","key","f","6.944365942028842","768","428","自己","主见","Positive","ability","","","","","","","","","","",""
"794","","f","psychophysics","100","300074","0.0-7.0-3.0-0.86","3","3","4","3","2","3","2","2","2","1","4","-1","-1","-2","0","-2","-2","-2","-2","5","4","5","4","4","4","5","4","5","4","4","5","4","6","4","3","6","5","6","4","2","2","3","2","3","2","4","1","2","1","1","2","5","4","1","3","3","3","3","2","3","3","3","1","3","3","3","7","2","6","5","3","6","5","2","5","5","6","3","4","673239924056522752","刘","624","Female","[""好我"",""坏我"",""好她"",""坏她""]","[""强我"",""弱我"",""强她"",""弱她""]","","","","","","","","yes","","","","","","","","","SRET","EW_formal","","key","f","6.944302325581414","768","428","朋友","素养","Positive","morality","","","","","","","","","","",""
"672","","j","psychophysics","101","301748","0.0-7.0-3.0-0.87","3","3","4","3","2","3","2","2","2","1","4","-1","-1","-2","0","-2","-2","-2","-2","5","4","5","4","4","4","5","4","5","4","4","5","4","6","4","3","6","5","6","4","2","2","3","2","3","2","4","1","2","1","1","2","5","4","1","3","3","3","3","2","3","3","3","1","3","3","3","7","2","6","5","3","6","5","2","5","5","6","3","4","673239924056522752","刘","624","Female","[""好我"",""坏我"",""好她"",""坏她""]","[""强我"",""弱我"",""强她"",""弱她""]","","","","","","","","no","","","","","","","","","SRET","EW_formal","","key","j","6.944979079498054","768","428","朋友","低俗","Negative","morality","","","","","","","","","","",""
"17866","
    <p><div style='color:white;font-size:35px; line-height:20px;'>计算任务</div></p><br>
    <p><div style='color:red;font-size:25px; line-height:20px;'>接下来，您将看到一些四则运算题，<b>请从键盘选择 0-9 进行反应。</b></div></p>
    <p><div style='color:red;font-size:25px; line-height:20px;'>请尽可能快地进行计算，计算的速度和正确率将影响报酬的发放。</div></p>
    <p><div class='footer' style='color:white;font-size:25px; line-height:20px;'>如果对本实验还有不清楚之处，请立即向实验员咨询。</p><p style='color:white;font-size:25px; line-height:20px;'>如果您明白了规则：</p><p style='color:white;font-size:22px; line-height:20px;'>请按 继续 进入练习</p>
    </div>
    ","0","html-button-response","102","319614","0.0-7.0-4.0","3","3","4","3","2","3","2","2","2","1","4","-1","-1","-2","0","-2","-2","-2","-2","5","4","5","4","4","4","5","4","5","4","4","5","4","6","4","3","6","5","6","4","2","2","3","2","3","2","4","1","2","1","1","2","5","4","1","3","3","3","3","2","3","3","3","1","3","3","3","7","2","6","5","3","6","5","2","5","5","6","3","4","673239924056522752","刘","624","Female","[""好我"",""坏我"",""好她"",""坏她""]","[""强我"",""弱我"",""强她"",""弱她""]","","","","","","","","","","","","","","","","","SRET_math","math_instructions","Mon Jan 29 2024 13:59:08 GMT+0800 (中国标准时间)","","","","","","","","","","","","","","","","","","","",""
"2528","","0","psychophysics","103","322145","0.0-7.0-5.0-0.0","3","3","4","3","2","3","2","2","2","1","4","-1","-1","-2","0","-2","-2","-2","-2","5","4","5","4","4","4","5","4","5","4","4","5","4","6","4","3","6","5","6","4","2","2","3","2","3","2","4","1","2","1","1","2","5","4","1","3","3","3","3","2","3","3","3","1","3","3","3","7","2","6","5","3","6","5","2","5","5","6","3","4","673239924056522752","刘","624","Female","[""好我"",""坏我"",""好她"",""坏她""]","[""强我"",""弱我"",""强她"",""弱她""]","","","","","","","","0","","","","","","","","","SRET","SRET_math_calculate","","key","0","6.945323287671247","768","428","","","","","7*0= ?","0","1","","","","","","","",""
"2538","","9","psychophysics","104","324686","0.0-7.0-5.0-0.1","3","3","4","3","2","3","2","2","2","1","4","-1","-1","-2","0","-2","-2","-2","-2","5","4","5","4","4","4","5","4","5","4","4","5","4","6","4","3","6","5","6","4","2","2","3","2","3","2","4","1","2","1","1","2","5","4","1","3","3","3","3","2","3","3","3","1","3","3","3","7","2","6","5","3","6","5","2","5","5","6","3","4","673239924056522752","刘","624","Female","[""好我"",""坏我"",""好她"",""坏她""]","[""强我"",""弱我"",""强她"",""弱她""]","","","","","","","","9","","","","","","","","","SRET","SRET_math_calculate","","key","9","6.9437917808219085","768","428","","","","","1+8= ?","9","1","","","","","","","",""
"2585","","9","psychophysics","105","327273","0.0-7.0-5.0-0.2","3","3","4","3","2","3","2","2","2","1","4","-1","-1","-2","0","-2","-2","-2","-2","5","4","5","4","4","4","5","4","5","4","4","5","4","6","4","3","6","5","6","4","2","2","3","2","3","2","4","1","2","1","1","2","5","4","1","3","3","3","3","2","3","3","3","1","3","3","3","7","2","6","5","3","6","5","2","5","5","6","3","4","673239924056522752","刘","624","Female","[""好我"",""坏我"",""好她"",""坏她""]","[""强我"",""弱我"",""强她"",""弱她""]","","","","","","","","9","","","","","","","","","SRET","SRET_math_calculate","","key","9","6.944948787061997","768","428","","","","","81/9= ?","9","1","","","","","","","",""
"2162","","9","psychophysics","106","329437","0.0-7.0-5.0-0.3","3","3","4","3","2","3","2","2","2","1","4","-1","-1","-2","0","-2","-2","-2","-2","5","4","5","4","4","4","5","4","5","4","4","5","4","6","4","3","6","5","6","4","2","2","3","2","3","2","4","1","2","1","1","2","5","4","1","3","3","3","3","2","3","3","3","1","3","3","3","7","2","6","5","3","6","5","2","5","5","6","3","4","673239924056522752","刘","624","Female","[""好我"",""坏我"",""好她"",""坏她""]","[""强我"",""弱我"",""强她"",""弱她""]","","","","","","","","9","","","","","","","","","SRET","SRET_math_calculate","","key","9","6.9445273311897795","768","428","","","","","1+8= ?","9","1","","","","","","","",""
"2729","","6","psychophysics","107","332169","0.0-7.0-5.0-0.4","3","3","4","3","2","3","2","2","2","1","4","-1","-1","-2","0","-2","-2","-2","-2","5","4","5","4","4","4","5","4","5","4","4","5","4","6","4","3","6","5","6","4","2","2","3","2","3","2","4","1","2","1","1","2","5","4","1","3","3","3","3","2","3","3","3","1","3","3","3","7","2","6","5","3","6","5","2","5","5","6","3","4","673239924056522752","刘","624","Female","[""好我"",""坏我"",""好她"",""坏她""]","[""强我"",""弱我"",""强她"",""弱她""]","","","","","","","","6","","","","","","","","","SRET","SRET_math_calculate","","key","6","6.944492346938724","768","428","","","","","3+3= ?","6","1","","","","","","","",""
"2228","","1","psychophysics","108","334399","0.0-7.0-5.0-0.5","3","3","4","3","2","3","2","2","2","1","4","-1","-1","-2","0","-2","-2","-2","-2","5","4","5","4","4","4","5","4","5","4","4","5","4","6","4","3","6","5","6","4","2","2","3","2","3","2","4","1","2","1","1","2","5","4","1","3","3","3","3","2","3","3","3","1","3","3","3","7","2","6","5","3","6","5","2","5","5","6","3","4","673239924056522752","刘","624","Female","[""好我"",""坏我"",""好她"",""坏她""]","[""强我"",""弱我"",""强她"",""弱她""]","","","","","","","","1","","","","","","","","","SRET","SRET_math_calculate","","key","1","6.9451375000000555","768","428","","","","","9-8= ?","1","1","","","","","","","",""
"2225","","9","psychophysics","109","336626","0.0-7.0-5.0-0.6","3","3","4","3","2","3","2","2","2","1","4","-1","-1","-2","0","-2","-2","-2","-2","5","4","5","4","4","4","5","4","5","4","4","5","4","6","4","3","6","5","6","4","2","2","3","2","3","2","4","1","2","1","1","2","5","4","1","3","3","3","3","2","3","3","3","1","3","3","3","7","2","6","5","3","6","5","2","5","5","6","3","4","673239924056522752","刘","624","Female","[""好我"",""坏我"",""好她"",""坏她""]","[""强我"",""弱我"",""强她"",""弱她""]","","","","","","","","9","","","","","","","","","SRET","SRET_math_calculate","","key","9","6.9444843749999565","768","428","","","","","7+2= ?","9","1","","","","","","","",""
"2648","","8","psychophysics","110","339276","0.0-7.0-5.0-0.7","3","3","4","3","2","3","2","2","2","1","4","-1","-1","-2","0","-2","-2","-2","-2","5","4","5","4","4","4","5","4","5","4","4","5","4","6","4","3","6","5","6","4","2","2","3","2","3","2","4","1","2","1","1","2","5","4","1","3","3","3","3","2","3","3","3","1","3","3","3","7","2","6","5","3","6","5","2","5","5","6","3","4","673239924056522752","刘","624","Female","[""好我"",""坏我"",""好她"",""坏她""]","[""强我"",""弱我"",""强她"",""弱她""]","","","","","","","","8","","","","","","","","","SRET","SRET_math_calculate","","key","8","6.945288713910681","768","428","","","","","1*8= ?","8","1","","","","","","","",""
"2956","","5","psychophysics","111","342235","0.0-7.0-5.0-0.8","3","3","4","3","2","3","2","2","2","1","4","-1","-1","-2","0","-2","-2","-2","-2","5","4","5","4","4","4","5","4","5","4","4","5","4","6","4","3","6","5","6","4","2","2","3","2","3","2","4","1","2","1","1","2","5","4","1","3","3","3","3","2","3","3","3","1","3","3","3","7","2","6","5","3","6","5","2","5","5","6","3","4","673239924056522752","刘","624","Female","[""好我"",""坏我"",""好她"",""坏她""]","[""强我"",""弱我"",""强她"",""弱她""]","","","","","","","","5","","","","","","","","","SRET","SRET_math_calculate","","key","5","6.944908235294005","768","428","","","","","16-11= ?","5","1","","","","","","","",""
"2321","","6","psychophysics","112","344558","0.0-7.0-5.0-0.9","3","3","4","3","2","3","2","2","2","1","4","-1","-1","-2","0","-2","-2","-2","-2","5","4","5","4","4","4","5","4","5","4","4","5","4","6","4","3","6","5","6","4","2","2","3","2","3","2","4","1","2","1","1","2","5","4","1","3","3","3","3","2","3","3","3","1","3","3","3","7","2","6","5","3","6","5","2","5","5","6","3","4","673239924056522752","刘","624","Female","[""好我"",""坏我"",""好她"",""坏她""]","[""强我"",""弱我"",""强她"",""弱她""]","","","","","","","","6","","","","","","","","","SRET","SRET_math_calculate","","key","6","6.9440360360360405","768","428","","","","","8-2= ?","6","1","","","","","","","",""
"2502","","8","psychophysics","113","347062","0.0-7.0-5.0-0.10","3","3","4","3","2","3","2","2","2","1","4","-1","-1","-2","0","-2","-2","-2","-2","5","4","5","4","4","4","5","4","5","4","4","5","4","6","4","3","6","5","6","4","2","2","3","2","3","2","4","1","2","1","1","2","5","4","1","3","3","3","3","2","3","3","3","1","3","3","3","7","2","6","5","3","6","5","2","5","5","6","3","4","673239924056522752","刘","624","Female","[""好我"",""坏我"",""好她"",""坏她""]","[""强我"",""弱我"",""强她"",""弱她""]","","","","","","","","8","","","","","","","","","SRET","SRET_math_calculate","","key","8","6.944677777777866","768","428","","","","","5+3= ?","8","1","","","","","","","",""
"2893","","0","psychophysics","114","349958","0.0-7.0-5.0-0.11","3","3","4","3","2","3","2","2","2","1","4","-1","-1","-2","0","-2","-2","-2","-2","5","4","5","4","4","4","5","4","5","4","4","5","4","6","4","3","6","5","6","4","2","2","3","2","3","2","4","1","2","1","1","2","5","4","1","3","3","3","3","2","3","3","3","1","3","3","3","7","2","6","5","3","6","5","2","5","5","6","3","4","673239924056522752","刘","624","Female","[""好我"",""坏我"",""好她"",""坏她""]","[""强我"",""弱我"",""强她"",""弱她""]","","","","","","","","0","","","","","","","","","SRET","SRET_math_calculate","","key","0","6.944387019230747","768","428","","","","","6*0= ?","0","1","","","","","","","",""
"2128","","5","psychophysics","115","352088","0.0-7.0-5.0-0.12","3","3","4","3","2","3","2","2","2","1","4","-1","-1","-2","0","-2","-2","-2","-2","5","4","5","4","4","4","5","4","5","4","4","5","4","6","4","3","6","5","6","4","2","2","3","2","3","2","4","1","2","1","1","2","5","4","1","3","3","3","3","2","3","3","3","1","3","3","3","7","2","6","5","3","6","5","2","5","5","6","3","4","673239924056522752","刘","624","Female","[""好我"",""坏我"",""好她"",""坏她""]","[""强我"",""弱我"",""强她"",""弱她""]","","","","","","","","5","","","","","","","","","SRET","SRET_math_calculate","","key","5","6.944477124183037","768","428","","","","","10-5= ?","5","1","","","","","","","",""
"4464","","3","psychophysics","116","356555","0.0-7.0-5.0-0.13","3","3","4","3","2","3","2","2","2","1","4","-1","-1","-2","0","-2","-2","-2","-2","5","4","5","4","4","4","5","4","5","4","4","5","4","6","4","3","6","5","6","4","2","2","3","2","3","2","4","1","2","1","1","2","5","4","1","3","3","3","3","2","3","3","3","1","3","3","3","7","2","6","5","3","6","5","2","5","5","6","3","4","673239924056522752","刘","624","Female","[""好我"",""坏我"",""好她"",""坏她""]","[""强我"",""弱我"",""强她"",""弱她""]","","","","","","","","3","","","","","","","","","SRET","SRET_math_calculate","","key","3","6.94442211838009","768","428","","","","","11-8= ?","3","1","","","","","","","",""
"2804","","3","psychophysics","117","359362","0.0-7.0-5.0-0.14","3","3","4","3","2","3","2","2","2","1","4","-1","-1","-2","0","-2","-2","-2","-2","5","4","5","4","4","4","5","4","5","4","4","5","4","6","4","3","6","5","6","4","2","2","3","2","3","2","4","1","2","1","1","2","5","4","1","3","3","3","3","2","3","3","3","1","3","3","3","7","2","6","5","3","6","5","2","5","5","6","3","4","673239924056522752","刘","624","Female","[""好我"",""坏我"",""好她"",""坏她""]","[""强我"",""弱我"",""强她"",""弱她""]","","","","","","","","3","","","","","","","","","SRET","SRET_math_calculate","","key","3","6.944516129032149","768","428","","","","","6/2= ?","3","1","","","","","","","",""
"2446","","5","psychophysics","118","361811","0.0-7.0-5.0-0.15","3","3","4","3","2","3","2","2","2","1","4","-1","-1","-2","0","-2","-2","-2","-2","5","4","5","4","4","4","5","4","5","4","4","5","4","6","4","3","6","5","6","4","2","2","3","2","3","2","4","1","2","1","1","2","5","4","1","3","3","3","3","2","3","3","3","1","3","3","3","7","2","6","5","3","6","5","2","5","5","6","3","4","673239924056522752","刘","624","Female","[""好我"",""坏我"",""好她"",""坏她""]","[""强我"",""弱我"",""强她"",""弱她""]","","","","","","","","5","","","","","","","","","SRET","SRET_math_calculate","","key","5","6.944514204545405","768","428","","","","","3+2= ?","5","1","","","","","","","",""
"3883","","9","psychophysics","119","365696","0.0-7.0-5.0-0.16","3","3","4","3","2","3","2","2","2","1","4","-1","-1","-2","0","-2","-2","-2","-2","5","4","5","4","4","4","5","4","5","4","4","5","4","6","4","3","6","5","6","4","2","2","3","2","3","2","4","1","2","1","1","2","5","4","1","3","3","3","3","2","3","3","3","1","3","3","3","7","2","6","5","3","6","5","2","5","5","6","3","4","673239924056522752","刘","624","Female","[""好我"",""坏我"",""好她"",""坏她""]","[""强我"",""弱我"",""强她"",""弱她""]","","","","","","","","9","","","","","","","","","SRET","SRET_math_calculate","","key","9","6.944342293906861","768","428","","","","","43-34= ?","9","1","","","","","","","",""
"2403","","7","psychophysics","120","368101","0.0-7.0-5.0-0.17","3","3","4","3","2","3","2","2","2","1","4","-1","-1","-2","0","-2","-2","-2","-2","5","4","5","4","4","4","5","4","5","4","4","5","4","6","4","3","6","5","6","4","2","2","3","2","3","2","4","1","2","1","1","2","5","4","1","3","3","3","3","2","3","3","3","1","3","3","3","7","2","6","5","3","6","5","2","5","5","6","3","4","673239924056522752","刘","624","Female","[""好我"",""坏我"",""好她"",""坏她""]","[""强我"",""弱我"",""强她"",""弱她""]","","","","","","","","7","","","","","","","","","SRET","SRET_math_calculate","","key","7","6.9445188405797005","768","428","","","","","21/3= ? ","7","1","","","","","","","",""
"2377","","8","psychophysics","121","370480","0.0-7.0-5.0-0.18","3","3","4","3","2","3","2","2","2","1","4","-1","-1","-2","0","-2","-2","-2","-2","5","4","5","4","4","4","5","4","5","4","4","5","4","6","4","3","6","5","6","4","2","2","3","2","3","2","4","1","2","1","1","2","5","4","1","3","3","3","3","2","3","3","3","1","3","3","3","7","2","6","5","3","6","5","2","5","5","6","3","4","673239924056522752","刘","624","Female","[""好我"",""坏我"",""好她"",""坏她""]","[""强我"",""弱我"",""强她"",""弱她""]","","","","","","","","8","","","","","","","","","SRET","SRET_math_calculate","","key","8","6.945055555555649","768","428","","","","","2*4= ?","8","1","","","","","","","",""
"3020","","5","psychophysics","122","373503","0.0-7.0-5.0-0.19","3","3","4","3","2","3","2","2","2","1","4","-1","-1","-2","0","-2","-2","-2","-2","5","4","5","4","4","4","5","4","5","4","4","5","4","6","4","3","6","5","6","4","2","2","3","2","3","2","4","1","2","1","1","2","5","4","1","3","3","3","3","2","3","3","3","1","3","3","3","7","2","6","5","3","6","5","2","5","5","6","3","4","673239924056522752","刘","624","Female","[""好我"",""坏我"",""好她"",""坏她""]","[""强我"",""弱我"",""强她"",""弱她""]","","","","","","","","5","","","","","","","","","SRET","SRET_math_calculate","","key","5","6.944343317972286","768","428","","","","","12-7= ?","5","1","","","","","","","",""
"2348","","8","psychophysics","123","375854","0.0-7.0-5.0-0.20","3","3","4","3","2","3","2","2","2","1","4","-1","-1","-2","0","-2","-2","-2","-2","5","4","5","4","4","4","5","4","5","4","4","5","4","6","4","3","6","5","6","4","2","2","3","2","3","2","4","1","2","1","1","2","5","4","1","3","3","3","3","2","3","3","3","1","3","3","3","7","2","6","5","3","6","5","2","5","5","6","3","4","673239924056522752","刘","624","Female","[""好我"",""坏我"",""好她"",""坏她""]","[""强我"",""弱我"",""强她"",""弱她""]","","","","","","","","8","","","","","","","","","SRET","SRET_math_calculate","","key","8","6.944449704142147","768","428","","","","","8*1= ?","8","1","","","","","","","",""
"2151","","4","psychophysics","124","378009","0.0-7.0-5.0-0.21","3","3","4","3","2","3","2","2","2","1","4","-1","-1","-2","0","-2","-2","-2","-2","5","4","5","4","4","4","5","4","5","4","4","5","4","6","4","3","6","5","6","4","2","2","3","2","3","2","4","1","2","1","1","2","5","4","1","3","3","3","3","2","3","3","3","1","3","3","3","7","2","6","5","3","6","5","2","5","5","6","3","4","673239924056522752","刘","624","Female","[""好我"",""坏我"",""好她"",""坏她""]","[""强我"",""弱我"",""强她"",""弱她""]","","","","","","","","4","","","","","","","","","SRET","SRET_math_calculate","","key","4","6.944181229773394","768","428","","","","","4*1= ?","4","1","","","","","","","",""
"2321","","8","psychophysics","125","380331","0.0-7.0-5.0-0.22","3","3","4","3","2","3","2","2","2","1","4","-1","-1","-2","0","-2","-2","-2","-2","5","4","5","4","4","4","5","4","5","4","4","5","4","6","4","3","6","5","6","4","2","2","3","2","3","2","4","1","2","1","1","2","5","4","1","3","3","3","3","2","3","3","3","1","3","3","3","7","2","6","5","3","6","5","2","5","5","6","3","4","673239924056522752","刘","624","Female","[""好我"",""坏我"",""好她"",""坏她""]","[""强我"",""弱我"",""强她"",""弱她""]","","","","","","","","8","","","","","","","","","SRET","SRET_math_calculate","","key","8","6.944556886227425","768","428","","","","","13-5= ?","8","1","","","","","","","",""
"2324","","3","psychophysics","126","382659","0.0-7.0-5.0-0.23","3","3","4","3","2","3","2","2","2","1","4","-1","-1","-2","0","-2","-2","-2","-2","5","4","5","4","4","4","5","4","5","4","4","5","4","6","4","3","6","5","6","4","2","2","3","2","3","2","4","1","2","1","1","2","5","4","1","3","3","3","3","2","3","3","3","1","3","3","3","7","2","6","5","3","6","5","2","5","5","6","3","4","673239924056522752","刘","624","Female","[""好我"",""坏我"",""好她"",""坏她""]","[""强我"",""弱我"",""强她"",""弱她""]","","","","","","","","3","","","","","","","","","SRET","SRET_math_calculate","","key","3","6.944320359281585","768","428","","","","","9-6= ?","3","1","","","","","","","",""
"2601","","8","psychophysics","127","385261","0.0-7.0-5.0-0.24","3","3","4","3","2","3","2","2","2","1","4","-1","-1","-2","0","-2","-2","-2","-2","5","4","5","4","4","4","5","4","5","4","4","5","4","6","4","3","6","5","6","4","2","2","3","2","3","2","4","1","2","1","1","2","5","4","1","3","3","3","3","2","3","3","3","1","3","3","3","7","2","6","5","3","6","5","2","5","5","6","3","4","673239924056522752","刘","624","Female","[""好我"",""坏我"",""好她"",""坏她""]","[""强我"",""弱我"",""强她"",""弱她""]","","","","","","","","8","","","","","","","","","SRET","SRET_math_calculate","","key","8","6.944117647058917","768","428","","","","","6+2= ?","8","1","","","","","","","",""
"2477","","1","psychophysics","128","387740","0.0-7.0-5.0-0.25","3","3","4","3","2","3","2","2","2","1","4","-1","-1","-2","0","-2","-2","-2","-2","5","4","5","4","4","4","5","4","5","4","4","5","4","6","4","3","6","5","6","4","2","2","3","2","3","2","4","1","2","1","1","2","5","4","1","3","3","3","3","2","3","3","3","1","3","3","3","7","2","6","5","3","6","5","2","5","5","6","3","4","673239924056522752","刘","624","Female","[""好我"",""坏我"",""好她"",""坏她""]","[""强我"",""弱我"",""强她"",""弱她""]","","","","","","","","1","","","","","","","","","SRET","SRET_math_calculate","","key","1","6.944449438202212","768","428","","","","","4/4= ?","1","1","","","","","","","",""
"2498","","5","psychophysics","129","390241","0.0-7.0-5.0-0.26","3","3","4","3","2","3","2","2","2","1","4","-1","-1","-2","0","-2","-2","-2","-2","5","4","5","4","4","4","5","4","5","4","4","5","4","6","4","3","6","5","6","4","2","2","3","2","3","2","4","1","2","1","1","2","5","4","1","3","3","3","3","2","3","3","3","1","3","3","3","7","2","6","5","3","6","5","2","5","5","6","3","4","673239924056522752","刘","624","Female","[""好我"",""坏我"",""好她"",""坏她""]","[""强我"",""弱我"",""强她"",""弱她""]","","","","","","","","5","","","","","","","","","SRET","SRET_math_calculate","","key","5","6.944412256267394","768","428","","","","","14-9= ?","5","1","","","","","","","",""
"2165","","6","psychophysics","130","392409","0.0-7.0-5.0-0.27","3","3","4","3","2","3","2","2","2","1","4","-1","-1","-2","0","-2","-2","-2","-2","5","4","5","4","4","4","5","4","5","4","4","5","4","6","4","3","6","5","6","4","2","2","3","2","3","2","4","1","2","1","1","2","5","4","1","3","3","3","3","2","3","3","3","1","3","3","3","7","2","6","5","3","6","5","2","5","5","6","3","4","673239924056522752","刘","624","Female","[""好我"",""坏我"",""好她"",""坏她""]","[""强我"",""弱我"",""强她"",""弱她""]","","","","","","","","6","","","","","","","","","SRET","SRET_math_calculate","","key","6","6.944096463022513","768","428","","","","","11-5= ?","6","1","","","","","","","",""
"3287","","8","psychophysics","131","395699","0.0-7.0-5.0-0.28","3","3","4","3","2","3","2","2","2","1","4","-1","-1","-2","0","-2","-2","-2","-2","5","4","5","4","4","4","5","4","5","4","4","5","4","6","4","3","6","5","6","4","2","2","3","2","3","2","4","1","2","1","1","2","5","4","1","3","3","3","3","2","3","3","3","1","3","3","3","7","2","6","5","3","6","5","2","5","5","6","3","4","673239924056522752","刘","624","Female","[""好我"",""坏我"",""好她"",""坏她""]","[""强我"",""弱我"",""强她"",""弱她""]","","","","","","","","8","","","","","","","","","SRET","SRET_math_calculate","","key","8","6.944424947145854","768","428","","","","","9-2= ?","7","0","","","","","","","",""
"3144","","2","psychophysics","132","398845","0.0-7.0-5.0-0.29","3","3","4","3","2","3","2","2","2","1","4","-1","-1","-2","0","-2","-2","-2","-2","5","4","5","4","4","4","5","4","5","4","4","5","4","6","4","3","6","5","6","4","2","2","3","2","3","2","4","1","2","1","1","2","5","4","1","3","3","3","3","2","3","3","3","1","3","3","3","7","2","6","5","3","6","5","2","5","5","6","3","4","673239924056522752","刘","624","Female","[""好我"",""坏我"",""好她"",""坏她""]","[""强我"",""弱我"",""强她"",""弱她""]","","","","","","","","2","","","","","","","","","SRET","SRET_math_calculate","","key","2","6.9447853982301","768","428","","","","","90/45= ?","2","1","","","","","","","",""
"2398","","5","psychophysics","133","401245","0.0-7.0-5.0-0.30","3","3","4","3","2","3","2","2","2","1","4","-1","-1","-2","0","-2","-2","-2","-2","5","4","5","4","4","4","5","4","5","4","4","5","4","6","4","3","6","5","6","4","2","2","3","2","3","2","4","1","2","1","1","2","5","4","1","3","3","3","3","2","3","3","3","1","3","3","3","7","2","6","5","3","6","5","2","5","5","6","3","4","673239924056522752","刘","624","Female","[""好我"",""坏我"",""好她"",""坏她""]","[""强我"",""弱我"",""强她"",""弱她""]","","","","","","","","5","","","","","","","","","SRET","SRET_math_calculate","","key","5","6.943889534883648","768","428","","","","","2+3= ?","5","1","","","","","","","",""
"2051","","6","psychophysics","134","403298","0.0-7.0-5.0-0.31","3","3","4","3","2","3","2","2","2","1","4","-1","-1","-2","0","-2","-2","-2","-2","5","4","5","4","4","4","5","4","5","4","4","5","4","6","4","3","6","5","6","4","2","2","3","2","3","2","4","1","2","1","1","2","5","4","1","3","3","3","3","2","3","3","3","1","3","3","3","7","2","6","5","3","6","5","2","5","5","6","3","4","673239924056522752","刘","624","Female","[""好我"",""坏我"",""好她"",""坏她""]","[""强我"",""弱我"",""强她"",""弱她""]","","","","","","","","6","","","","","","","","","SRET","SRET_math_calculate","","key","6","6.945389830508325","768","428","","","","","5+1= ?","6","1","","","","","","","",""
"2814","","8","psychophysics","135","406115","0.0-7.0-5.0-0.32","3","3","4","3","2","3","2","2","2","1","4","-1","-1","-2","0","-2","-2","-2","-2","5","4","5","4","4","4","5","4","5","4","4","5","4","6","4","3","6","5","6","4","2","2","3","2","3","2","4","1","2","1","1","2","5","4","1","3","3","3","3","2","3","3","3","1","3","3","3","7","2","6","5","3","6","5","2","5","5","6","3","4","673239924056522752","刘","624","Female","[""好我"",""坏我"",""好她"",""坏她""]","[""强我"",""弱我"",""强她"",""弱她""]","","","","","","","","8","","","","","","","","","SRET","SRET_math_calculate","","key","8","6.944888613861352","768","428","","","","","50-42= ?","8","1","","","","","","","",""
"2471","","9","psychophysics","136","408589","0.0-7.0-5.0-0.33","3","3","4","3","2","3","2","2","2","1","4","-1","-1","-2","0","-2","-2","-2","-2","5","4","5","4","4","4","5","4","5","4","4","5","4","6","4","3","6","5","6","4","2","2","3","2","3","2","4","1","2","1","1","2","5","4","1","3","3","3","3","2","3","3","3","1","3","3","3","7","2","6","5","3","6","5","2","5","5","6","3","4","673239924056522752","刘","624","Female","[""好我"",""坏我"",""好她"",""坏她""]","[""强我"",""弱我"",""强她"",""弱她""]","","","","","","","","9","","","","","","","","","SRET","SRET_math_calculate","","key","9","6.944943820224784","768","428","","","","","3*3= ?","9","1","","","","","","","",""
"2380","","5","psychophysics","137","410971","0.0-7.0-5.0-0.34","3","3","4","3","2","3","2","2","2","1","4","-1","-1","-2","0","-2","-2","-2","-2","5","4","5","4","4","4","5","4","5","4","4","5","4","6","4","3","6","5","6","4","2","2","3","2","3","2","4","1","2","1","1","2","5","4","1","3","3","3","3","2","3","3","3","1","3","3","3","7","2","6","5","3","6","5","2","5","5","6","3","4","673239924056522752","刘","624","Female","[""好我"",""坏我"",""好她"",""坏她""]","[""强我"",""弱我"",""强她"",""弱她""]","","","","","","","","5","","","","","","","","","SRET","SRET_math_calculate","","key","5","6.9456081871344635","768","428","","","","","4+1= ?","5","1","","","","","","","",""
"2350","","9","psychophysics","138","413323","0.0-7.0-5.0-0.35","3","3","4","3","2","3","2","2","2","1","4","-1","-1","-2","0","-2","-2","-2","-2","5","4","5","4","4","4","5","4","5","4","4","5","4","6","4","3","6","5","6","4","2","2","3","2","3","2","4","1","2","1","1","2","5","4","1","3","3","3","3","2","3","3","3","1","3","3","3","7","2","6","5","3","6","5","2","5","5","6","3","4","673239924056522752","刘","624","Female","[""好我"",""坏我"",""好她"",""坏她""]","[""强我"",""弱我"",""强她"",""弱她""]","","","","","","","","9","","","","","","","","","SRET","SRET_math_calculate","","key","9","6.943658753709131","768","428","","","","","6+3= ?","9","1","","","","","","","",""
"2432","","4","psychophysics","139","415759","0.0-7.0-5.0-0.36","3","3","4","3","2","3","2","2","2","1","4","-1","-1","-2","0","-2","-2","-2","-2","5","4","5","4","4","4","5","4","5","4","4","5","4","6","4","3","6","5","6","4","2","2","3","2","3","2","4","1","2","1","1","2","5","4","1","3","3","3","3","2","3","3","3","1","3","3","3","7","2","6","5","3","6","5","2","5","5","6","3","4","673239924056522752","刘","624","Female","[""好我"",""坏我"",""好她"",""坏她""]","[""强我"",""弱我"",""强她"",""弱她""]","","","","","","","","4","","","","","","","","","SRET","SRET_math_calculate","","key","4","6.944605714285613","768","428","","","","","3+1= ?","4","1","","","","","","","",""
"2532","","3","psychophysics","140","418292","0.0-7.0-5.0-0.37","3","3","4","3","2","3","2","2","2","1","4","-1","-1","-2","0","-2","-2","-2","-2","5","4","5","4","4","4","5","4","5","4","4","5","4","6","4","3","6","5","6","4","2","2","3","2","3","2","4","1","2","1","1","2","5","4","1","3","3","3","3","2","3","3","3","1","3","3","3","7","2","6","5","3","6","5","2","5","5","6","3","4","673239924056522752","刘","624","Female","[""好我"",""坏我"",""好她"",""坏她""]","[""强我"",""弱我"",""强她"",""弱她""]","","","","","","","","3","","","","","","","","","SRET","SRET_math_calculate","","key","3","6.9451043956043454","768","428","","","","","1+2= ?","3","1","","","","","","","",""
"2856","","2","psychophysics","141","421151","0.0-7.0-5.0-0.38","3","3","4","3","2","3","2","2","2","1","4","-1","-1","-2","0","-2","-2","-2","-2","5","4","5","4","4","4","5","4","5","4","4","5","4","6","4","3","6","5","6","4","2","2","3","2","3","2","4","1","2","1","1","2","5","4","1","3","3","3","3","2","3","3","3","1","3","3","3","7","2","6","5","3","6","5","2","5","5","6","3","4","673239924056522752","刘","624","Female","[""好我"",""坏我"",""好她"",""坏她""]","[""强我"",""弱我"",""强她"",""弱她""]","","","","","","","","2","","","","","","","","","SRET","SRET_math_calculate","","key","2","6.945063260340567","768","428","","","","","22/11= ?","2","1","","","","","","","",""
