"rt","stimulus","response","trial_type","trial_index","time_elapsed","internal_node_id","swb_1","swb_2","swb_3","swb_4","swb_5","LOT_1","LOT_2","LOT_3","LOT_4","LOT_5","LOT_6","IPC_1","IPC_2","IPC_3","IPC_4","IPC_5","IPC_6","IPC_7","IPC_8","MorIden_1","MorIden_2","MorIden_3","MorIden_4","MorIden_5","MorIden_6","MorIden_7","MorIden_8","MorIden_9","MorIden_10","moralSeImag_1","moralSeImag_2","moralSeImag_3","moralSeImag_4","moralSeImag_5","moralSeImag_6","moralSeImag_7","moralSeImag_8","moralSeImag_9","sde_1","sde_2","sde_3","sde_4","sde_5","sde_6","sde_7","sde_8","sde_9","sde_10","trap2","sde_11","sde_12","sde_13","sde_14","sde_15","sde_16","sde_17","sde_18","sde_19","sde_20","IM_1","IM_2","IM_3","IM_4","IM_5","IM_6","IM_7","IM_8","IM_9","IM_10","IM_11","IM_12","IM_13","IM_14","IM_15","IM_16","IM_17","IM_18","IM_19","IM_20","subj_idx","friend_name","ParticipantID","Sex","Word","Word2","value","success","timeout","failed_images","failed_audio","failed_video","user_agent","responses","item_order","radio_event_ids","radio_event_times","key_event_times","mouse_event_times","straightlining","zigzagging","honeypot","task_id","screen_id","time_stamp","response_type","key_press","avg_frame_time","center_x","center_y","person","word","valence","domain","math","correct_response","correct","status","view_history","identity","duration","Image","condition","question_order","trap2_item"
"1531","
   <p><div style='color:white; font-size: 25px'>您好，欢迎参加本次实验。</div></p>
   <p><div style='color:white; font-size: 25px'>为充分保障您的权利，请确保您已经知晓并同意《参与实验同意书》以及《数据公开知情同意书》。</div></p>
   <p><div style='color:white; font-size: 25px'>如果您未见过上述内容，请咨询实验员。</div></p>
   <p style='color:white; font-size: 25px'>如果您选择继续实验，则表示您已经清楚两份知情同意书的内容并同意。</p>
   <p><div style = ""color: pink;font-size:30px;"">请确保您记得day0的实验编号，您将在本次实验输入该编号，若您忘记，请咨询实验员后作答。</div></p>
   <p><div style = ""color:lightblue;font-size:25px;"">请您尽可能认真地作答，我们将依据您在各问卷和按键任务中的作答质量发放报酬。</div></p>
   <p> <div style = ""color: green""><按空格键至下页></div> </p>
   "," ","html-keyboard-response","0","1539","0.0-0.0","5","5","6","4","3","4","3","4","4","4","5","1","-1","1","0","1","0","2","1","5","4","5","4","4","3","4","3","4","4","6","8","7","7","6","7","7","6","8","4","5","4","6","5","3","6","5","6","5","1","5","4","5","4","6","4","5","5","5","6","3","6","4","5","5","6","5","7","6","5","3","4","5","3","3","4","3","6","3","6","792736654921179138","肖","76","Female","[""好我"",""坏她"",""坏我"",""好她""]","[""强我"",""弱她"",""弱我"",""强她""]","","","","","","","","","","","","","","","","","","","","","","","","","","","","","","","","","","","","","","",""
"","","","call-function","1","1541","0.0-1.0-0.0","5","5","6","4","3","4","3","4","4","4","5","1","-1","1","0","1","0","2","1","5","4","5","4","4","3","4","3","4","4","6","8","7","7","6","7","7","6","8","4","5","4","6","5","3","6","5","6","5","1","5","4","5","4","6","4","5","5","5","6","3","6","4","5","5","6","5","7","6","5","3","4","5","3","3","4","3","6","3","6","792736654921179138","肖","76","Female","[""好我"",""坏她"",""坏我"",""好她""]","[""强我"",""弱她"",""弱我"",""强她""]","","","","","","","","","","","","","","","","","","","","","","","","","","","","","","","","","","","","","","",""
"18047","","[{""name"":""Sex"",""value"":""1""},{""name"":""friend_name"",""value"":""肖""},{""name"":""ParticipantID"",""value"":""76""}]","survey-html-form","2","19590","0.0-1.0-1.0","5","5","6","4","3","4","3","4","4","4","5","1","-1","1","0","1","0","2","1","5","4","5","4","4","3","4","3","4","4","6","8","7","7","6","7","7","6","8","4","5","4","6","5","3","6","5","6","5","1","5","4","5","4","6","4","5","5","5","6","3","6","4","5","5","6","5","7","6","5","3","4","5","3","3","4","3","6","3","6","792736654921179138","肖","76","Female","[""好我"",""坏她"",""坏我"",""好她""]","[""强我"",""弱她"",""弱我"",""强她""]","","","","","","","","","","","","","","","","","","","","","","","","","","","","","","","","","","","","","","",""
"","","","preload","3","19885","0.0-2.0","5","5","6","4","3","4","3","4","4","4","5","1","-1","1","0","1","0","2","1","5","4","5","4","4","3","4","3","4","4","6","8","7","7","6","7","7","6","8","4","5","4","6","5","3","6","5","6","5","1","5","4","5","4","6","4","5","5","5","6","3","6","4","5","5","6","5","7","6","5","3","4","5","3","3","4","3","6","3","6","792736654921179138","肖","76","Female","[""好我"",""坏她"",""坏我"",""好她""]","[""强我"",""弱她"",""弱我"",""强她""]","","true","false","[]","[]","[]","","","","","","","","","","","","","","","","","","","","","","","","","","","","","","","","",""
"","","","fullscreen","4","21460","0.0-3.0","5","5","6","4","3","4","3","4","4","4","5","1","-1","1","0","1","0","2","1","5","4","5","4","4","3","4","3","4","4","6","8","7","7","6","7","7","6","8","4","5","4","6","5","3","6","5","6","5","1","5","4","5","4","6","4","5","5","5","6","3","6","4","5","5","6","5","7","6","5","3","4","5","3","3","4","3","6","3","6","792736654921179138","肖","76","Female","[""好我"",""坏她"",""坏我"",""好她""]","[""强我"",""弱她"",""弱我"",""强她""]","","true","","","","","","","","","","","","","","","","","","","","","","","","","","","","","","","","","","","","",""
"14047.340000000018","","{""Q01"":""5"",""Q02"":""5"",""Q03"":""6"",""Q04"":""4"",""Q05"":""3""}","survey-template","5","35374","0.0-4.0","5","5","6","4","3","4","3","4","4","4","5","1","-1","1","0","1","0","2","1","5","4","5","4","4","3","4","3","4","4","6","8","7","7","6","7","7","6","8","4","5","4","6","5","3","6","5","6","5","1","5","4","5","4","6","4","5","5","5","6","3","6","4","5","5","6","5","7","6","5","3","4","5","3","3","4","3","6","3","6","792736654921179138","肖","76","Female","[""好我"",""坏她"",""坏我"",""好她""]","[""强我"",""弱她"",""弱我"",""强她""]","","","","","","","","{""Q01"":""5"",""Q02"":""5"",""Q03"":""6"",""Q04"":""4"",""Q05"":""3""}","[0,1,2,3,4]","[""Q01"",""Q02"",""Q03"",""Q05"",""Q04""]","[4797.680000000015,5549.510000000057,6941.295000000027,9868.825000000015,11150.070000000029]","[]","[2597.0800000000054,3653.2750000000087,4797.680000000015,5549.510000000057,6941.295000000027,9868.825000000015,11150.070000000029,14041.48000000004]","0.4","0.5","0","","","","","","","","","","","","","","","","","","","","","","",""
"14712.74499999998","","{""Q01"":""4"",""Q02"":""3"",""Q03"":""4"",""Q04"":""4"",""Q05"":""4"",""Q06"":""5""}","survey-template","6","50098","0.0-5.0","5","5","6","4","3","4","3","4","4","4","5","1","-1","1","0","1","0","2","1","5","4","5","4","4","3","4","3","4","4","6","8","7","7","6","7","7","6","8","4","5","4","6","5","3","6","5","6","5","1","5","4","5","4","6","4","5","5","5","6","3","6","4","5","5","6","5","7","6","5","3","4","5","3","3","4","3","6","3","6","792736654921179138","肖","76","Female","[""好我"",""坏她"",""坏我"",""好她""]","[""强我"",""弱她"",""弱我"",""强她""]","","","","","","","","{""Q01"":""4"",""Q02"":""3"",""Q03"":""4"",""Q04"":""4"",""Q05"":""4"",""Q06"":""5""}","[0,1,2,3,4,5]","[""Q01"",""Q02"",""Q03"",""Q04"",""Q05"",""Q06""]","[1732.154999999977,4355.944999999963,5898.859999999957,7155.599999999991,8116.684999999961,12147.97499999997]","[]","[1732.154999999977,4355.944999999963,5898.859999999957,7155.599999999991,8116.684999999961,12147.97499999997,14707.899999999994]","0.3333333333333333","0.4","0","","","","","","","","","","","","","","","","","","","","","","",""
"14551.61000000003","","{""Q01"":""1"",""Q02"":""-1"",""Q03"":""1"",""Q04"":""0"",""Q05"":""1"",""Q06"":""0"",""Q07"":""2"",""Q08"":""1""}","survey-template","7","64663","0.0-6.0","5","5","6","4","3","4","3","4","4","4","5","1","-1","1","0","1","0","2","1","5","4","5","4","4","3","4","3","4","4","6","8","7","7","6","7","7","6","8","4","5","4","6","5","3","6","5","6","5","1","5","4","5","4","6","4","5","5","5","6","3","6","4","5","5","6","5","7","6","5","3","4","5","3","3","4","3","6","3","6","792736654921179138","肖","76","Female","[""好我"",""坏她"",""坏我"",""好她""]","[""强我"",""弱她"",""弱我"",""强她""]","","","","","","","","{""Q01"":""1"",""Q02"":""-1"",""Q03"":""1"",""Q04"":""0"",""Q05"":""1"",""Q06"":""0"",""Q07"":""2"",""Q08"":""1""}","[0,1,2,3,4,5,6,7]","[""Q01"",""Q02"",""Q03"",""Q04"",""Q05"",""Q06"",""Q07"",""Q08""]","[2207.060000000012,3845.400000000038,5245.370000000032,7117.295000000013,9068.239999999998,10588.370000000054,12052.960000000036,13220.930000000008]","[]","[2207.060000000012,3845.400000000038,5245.370000000032,7117.295000000013,9068.239999999998,10588.370000000054,12052.960000000036,13220.930000000008,14548.750000000044]","0.5","0.5714285714285714","0","","","","","","","","","","","","","","","","","","","","","","",""
"26050","
    <p><div style='color:white;font-size:35px; line-height:20px;'>词汇评估任务</div></p><br>
    <p><div style='color:white;font-size:25px; line-height:20px;'>请再次回忆该亲密的朋友，你们至少2年前就认识了，并且最近2年经常见面。</div></p>
    <p><div style='color:white;font-size:25px; line-height:20px;'>在本实验中，您将会看到一些形容词。</div></p>
    <p><div style='color:yellow;font-size:25px; line-height:20px;'>您的任务是判断这些形容词是否符合对您自己或您的朋友的描述。</div></p><p style='font-size:35px'>符合按<span style=""color:lightgreen""> f 键</span>，不符合按<span style=""color:red""> j 键</span></p>","0","html-button-response","8","90113","0.0-7.0-0.0","5","5","6","4","3","4","3","4","4","4","5","1","-1","1","0","1","0","2","1","5","4","5","4","4","3","4","3","4","4","6","8","7","7","6","7","7","6","8","4","5","4","6","5","3","6","5","6","5","1","5","4","5","4","6","4","5","5","5","6","3","6","4","5","5","6","5","7","6","5","3","4","5","3","3","4","3","6","3","6","792736654921179138","肖","76","Female","[""好我"",""坏她"",""坏我"",""好她""]","[""强我"",""弱她"",""弱我"",""强她""]","","","","","","","","","","","","","","","","","SRET_EW","EW_instructions","Wed Jan 31 2024 14:21:43 GMT+0800 (中国标准时间)","","","","","","","","","","","","","","","","","","","",""
"null","","null","psychophysics","9","93142","0.0-7.0-1.0-0.0","5","5","6","4","3","4","3","4","4","4","5","1","-1","1","0","1","0","2","1","5","4","5","4","4","3","4","3","4","4","6","8","7","7","6","7","7","6","8","4","5","4","6","5","3","6","5","6","5","1","5","4","5","4","6","4","5","5","5","6","3","6","4","5","5","6","5","7","6","5","3","4","5","3","3","4","3","6","3","6","792736654921179138","肖","76","Female","[""好我"",""坏她"",""坏我"",""好她""]","[""强我"",""弱她"",""弱我"",""强她""]","","","","","","","","","","","","","","","","","SRET_EW","EW_practice","","key","null","23.700787401574804","960","536","自己","刻板","Negative","ability","","","","","","","","","","",""
"1237","","f","psychophysics","10","95384","0.0-7.0-1.0-0.1","5","5","6","4","3","4","3","4","4","4","5","1","-1","1","0","1","0","2","1","5","4","5","4","4","3","4","3","4","4","6","8","7","7","6","7","7","6","8","4","5","4","6","5","3","6","5","6","5","1","5","4","5","4","6","4","5","5","5","6","3","6","4","5","5","6","5","7","6","5","3","4","5","3","3","4","3","6","3","6","792736654921179138","肖","76","Female","[""好我"",""坏她"",""坏我"",""好她""]","[""强我"",""弱她"",""弱我"",""强她""]","","","","","","","","yes","","","","","","","","","SRET_EW","EW_practice","","key","f","21.047619047619047","960","536","朋友","忠实","Positive","morality","","","","","","","","","","",""
"1495","","j","psychophysics","11","97881","0.0-7.0-1.0-0.2","5","5","6","4","3","4","3","4","4","4","5","1","-1","1","0","1","0","2","1","5","4","5","4","4","3","4","3","4","4","6","8","7","7","6","7","7","6","8","4","5","4","6","5","3","6","5","6","5","1","5","4","5","4","6","4","5","5","5","6","3","6","4","5","5","6","5","7","6","5","3","4","5","3","3","4","3","6","3","6","792736654921179138","肖","76","Female","[""好我"",""坏她"",""坏我"",""好她""]","[""强我"",""弱她"",""弱我"",""强她""]","","","","","","","","no","","","","","","","","","SRET_EW","EW_practice","","key","j","21.379310344827587","960","536","朋友","徇私","Negative","morality","","","","","","","","","","",""
"1036","","f","psychophysics","12","99921","0.0-7.0-1.0-0.3","5","5","6","4","3","4","3","4","4","4","5","1","-1","1","0","1","0","2","1","5","4","5","4","4","3","4","3","4","4","6","8","7","7","6","7","7","6","8","4","5","4","6","5","3","6","5","6","5","1","5","4","5","4","6","4","5","5","5","6","3","6","4","5","5","6","5","7","6","5","3","4","5","3","3","4","3","6","3","6","792736654921179138","肖","76","Female","[""好我"",""坏她"",""坏我"",""好她""]","[""强我"",""弱她"",""弱我"",""强她""]","","","","","","","","yes","","","","","","","","","SRET_EW","EW_practice","","key","f","21.612903225806452","960","536","自己","严谨","Positive","ability","","","","","","","","","","",""
"12097","
    <p><div style='color:white;font-size:35px; line-height:20px;'>请您再次阅读实验要求</div></p><br>
    <p><div style='color:white;font-size:25px; line-height:20px;'>请回忆某一个亲密的朋友，你们至少2年前就认识了，并且最近2年经常见面。</div></p>
    <p><div style='color:white;font-size:25px; line-height:20px;'>在本实验中，您将会看到一些形容词。</div></p>
    <p><div style='color:yellow;font-size:25px; line-height:20px;'>您的任务是判断这些形容词是否符合对您自己或您的朋友的描述。</div></p>
    <p><div class='footer' style='font-size:25px; line-height:20px;'>如果对本实验还有不清楚之处，请立即向实验员咨询。</p><p style='font-size:25px; line-height:20px;'>如果您明白了规则：</p><p style='font-size:22px; line-height:20px;'>请按 继续 进入正式实验</p>
    </div>
    <p style='font-size:35px'>符合按<span style=""color:lightgreen""> f 键</span>，不符合按<span style=""color:red""> j 键</span></p>","0","html-button-response","13","112021","0.0-7.0-2.0","5","5","6","4","3","4","3","4","4","4","5","1","-1","1","0","1","0","2","1","5","4","5","4","4","3","4","3","4","4","6","8","7","7","6","7","7","6","8","4","5","4","6","5","3","6","5","6","5","1","5","4","5","4","6","4","5","5","5","6","3","6","4","5","5","6","5","7","6","5","3","4","5","3","3","4","3","6","3","6","792736654921179138","肖","76","Female","[""好我"",""坏她"",""坏我"",""好她""]","[""强我"",""弱她"",""弱我"",""强她""]","","","","","","","","","","","","","","","","","SRET_EW","prac_instructions","Wed Jan 31 2024 14:21:43 GMT+0800 (中国标准时间)","","","","","","","","","","","","","","","","","","","",""
"934","","j","psychophysics","14","113965","0.0-7.0-3.0-0.0","5","5","6","4","3","4","3","4","4","4","5","1","-1","1","0","1","0","2","1","5","4","5","4","4","3","4","3","4","4","6","8","7","7","6","7","7","6","8","4","5","4","6","5","3","6","5","6","5","1","5","4","5","4","6","4","5","5","5","6","3","6","4","5","5","6","5","7","6","5","3","4","5","3","3","4","3","6","3","6","792736654921179138","肖","76","Female","[""好我"",""坏她"",""坏我"",""好她""]","[""强我"",""弱她"",""弱我"",""强她""]","","","","","","","","no","","","","","","","","","SRET","EW_formal","","key","j","20.53191489361702","960","536","朋友","迷糊","Negative","ability","","","","","","","","","","",""
"931","","f","psychophysics","15","115903","0.0-7.0-3.0-0.1","5","5","6","4","3","4","3","4","4","4","5","1","-1","1","0","1","0","2","1","5","4","5","4","4","3","4","3","4","4","6","8","7","7","6","7","7","6","8","4","5","4","6","5","3","6","5","6","5","1","5","4","5","4","6","4","5","5","5","6","3","6","4","5","5","6","5","7","6","5","3","4","5","3","3","4","3","6","3","6","792736654921179138","肖","76","Female","[""好我"",""坏她"",""坏我"",""好她""]","[""强我"",""弱她"",""弱我"",""强她""]","","","","","","","","yes","","","","","","","","","SRET","EW_formal","","key","f","20.319148936170212","960","536","自己","坚贞","Positive","morality","","","","","","","","","","",""
"1213","","f","psychophysics","16","118118","0.0-7.0-3.0-0.2","5","5","6","4","3","4","3","4","4","4","5","1","-1","1","0","1","0","2","1","5","4","5","4","4","3","4","3","4","4","6","8","7","7","6","7","7","6","8","4","5","4","6","5","3","6","5","6","5","1","5","4","5","4","6","4","5","5","5","6","3","6","4","5","5","6","5","7","6","5","3","4","5","3","3","4","3","6","3","6","792736654921179138","肖","76","Female","[""好我"",""坏她"",""坏我"",""好她""]","[""强我"",""弱她"",""弱我"",""强她""]","","","","","","","","yes","","","","","","","","","SRET","EW_formal","","key","f","19.90909090909091","960","536","朋友","务实","Positive","ability","","","","","","","","","","",""
"1003","","j","psychophysics","17","120123","0.0-7.0-3.0-0.3","5","5","6","4","3","4","3","4","4","4","5","1","-1","1","0","1","0","2","1","5","4","5","4","4","3","4","3","4","4","6","8","7","7","6","7","7","6","8","4","5","4","6","5","3","6","5","6","5","1","5","4","5","4","6","4","5","5","5","6","3","6","4","5","5","6","5","7","6","5","3","4","5","3","3","4","3","6","3","6","792736654921179138","肖","76","Female","[""好我"",""坏她"",""坏我"",""好她""]","[""强我"",""弱她"",""弱我"",""强她""]","","","","","","","","no","","","","","","","","","SRET","EW_formal","","key","j","20","960","536","自己","说谎","Negative","morality","","","","","","","","","","",""
"1170","","f","psychophysics","18","122301","0.0-7.0-3.0-0.4","5","5","6","4","3","4","3","4","4","4","5","1","-1","1","0","1","0","2","1","5","4","5","4","4","3","4","3","4","4","6","8","7","7","6","7","7","6","8","4","5","4","6","5","3","6","5","6","5","1","5","4","5","4","6","4","5","5","5","6","3","6","4","5","5","6","5","7","6","5","3","4","5","3","3","4","3","6","3","6","792736654921179138","肖","76","Female","[""好我"",""坏她"",""坏我"",""好她""]","[""强我"",""弱她"",""弱我"",""强她""]","","","","","","","","yes","","","","","","","","","SRET","EW_formal","","key","f","21.616161616161616","960","536","朋友","变通","Positive","ability","","","","","","","","","","",""
"1105","","f","psychophysics","19","124412","0.0-7.0-3.0-0.5","5","5","6","4","3","4","3","4","4","4","5","1","-1","1","0","1","0","2","1","5","4","5","4","4","3","4","3","4","4","6","8","7","7","6","7","7","6","8","4","5","4","6","5","3","6","5","6","5","1","5","4","5","4","6","4","5","5","5","6","3","6","4","5","5","6","5","7","6","5","3","4","5","3","3","4","3","6","3","6","792736654921179138","肖","76","Female","[""好我"",""坏她"",""坏我"",""好她""]","[""强我"",""弱她"",""弱我"",""强她""]","","","","","","","","yes","","","","","","","","","SRET","EW_formal","","key","f","20.294117647058822","960","536","朋友","高明","Positive","ability","","","","","","","","","","",""
"949","","j","psychophysics","20","126371","0.0-7.0-3.0-0.6","5","5","6","4","3","4","3","4","4","4","5","1","-1","1","0","1","0","2","1","5","4","5","4","4","3","4","3","4","4","6","8","7","7","6","7","7","6","8","4","5","4","6","5","3","6","5","6","5","1","5","4","5","4","6","4","5","5","5","6","3","6","4","5","5","6","5","7","6","5","3","4","5","3","3","4","3","6","3","6","792736654921179138","肖","76","Female","[""好我"",""坏她"",""坏我"",""好她""]","[""强我"",""弱她"",""弱我"",""强她""]","","","","","","","","no","","","","","","","","","SRET","EW_formal","","key","j","20","960","536","朋友","缺德","Negative","morality","","","","","","","","","","",""
"1022","","j","psychophysics","21","128396","0.0-7.0-3.0-0.7","5","5","6","4","3","4","3","4","4","4","5","1","-1","1","0","1","0","2","1","5","4","5","4","4","3","4","3","4","4","6","8","7","7","6","7","7","6","8","4","5","4","6","5","3","6","5","6","5","1","5","4","5","4","6","4","5","5","5","6","3","6","4","5","5","6","5","7","6","5","3","4","5","3","3","4","3","6","3","6","792736654921179138","肖","76","Female","[""好我"",""坏她"",""坏我"",""好她""]","[""强我"",""弱她"",""弱我"",""强她""]","","","","","","","","no","","","","","","","","","SRET","EW_formal","","key","j","18.867924528301888","960","536","朋友","蛇蝎","Negative","morality","","","","","","","","","","",""
"1062","","f","psychophysics","22","130464","0.0-7.0-3.0-0.8","5","5","6","4","3","4","3","4","4","4","5","1","-1","1","0","1","0","2","1","5","4","5","4","4","3","4","3","4","4","6","8","7","7","6","7","7","6","8","4","5","4","6","5","3","6","5","6","5","1","5","4","5","4","6","4","5","5","5","6","3","6","4","5","5","6","5","7","6","5","3","4","5","3","3","4","3","6","3","6","792736654921179138","肖","76","Female","[""好我"",""坏她"",""坏我"",""好她""]","[""强我"",""弱她"",""弱我"",""强她""]","","","","","","","","yes","","","","","","","","","SRET","EW_formal","","key","f","18.55855855855856","960","536","朋友","利落","Positive","ability","","","","","","","","","","",""
"960","","f","psychophysics","23","132425","0.0-7.0-3.0-0.9","5","5","6","4","3","4","3","4","4","4","5","1","-1","1","0","1","0","2","1","5","4","5","4","4","3","4","3","4","4","6","8","7","7","6","7","7","6","8","4","5","4","6","5","3","6","5","6","5","1","5","4","5","4","6","4","5","5","5","6","3","6","4","5","5","6","5","7","6","5","3","4","5","3","3","4","3","6","3","6","792736654921179138","肖","76","Female","[""好我"",""坏她"",""坏我"",""好她""]","[""强我"",""弱她"",""弱我"",""强她""]","","","","","","","","yes","","","","","","","","","SRET","EW_formal","","key","f","17.636363636363637","960","536","朋友","文明","Positive","morality","","","","","","","","","","",""
"1383","","j","psychophysics","24","134812","0.0-7.0-3.0-0.10","5","5","6","4","3","4","3","4","4","4","5","1","-1","1","0","1","0","2","1","5","4","5","4","4","3","4","3","4","4","6","8","7","7","6","7","7","6","8","4","5","4","6","5","3","6","5","6","5","1","5","4","5","4","6","4","5","5","5","6","3","6","4","5","5","6","5","7","6","5","3","4","5","3","3","4","3","6","3","6","792736654921179138","肖","76","Female","[""好我"",""坏她"",""坏我"",""好她""]","[""强我"",""弱她"",""弱我"",""强她""]","","","","","","","","no","","","","","","","","","SRET","EW_formal","","key","j","18.153846153846153","960","536","自己","无能","Negative","ability","","","","","","","","","","",""
"null","","null","psychophysics","25","137822","0.0-7.0-3.0-0.11","5","5","6","4","3","4","3","4","4","4","5","1","-1","1","0","1","0","2","1","5","4","5","4","4","3","4","3","4","4","6","8","7","7","6","7","7","6","8","4","5","4","6","5","3","6","5","6","5","1","5","4","5","4","6","4","5","5","5","6","3","6","4","5","5","6","5","7","6","5","3","4","5","3","3","4","3","6","3","6","792736654921179138","肖","76","Female","[""好我"",""坏她"",""坏我"",""好她""]","[""强我"",""弱她"",""弱我"",""强她""]","","","","","","","","","","","","","","","","","SRET","EW_formal","","key","null","19.166666666666668","960","536","自己","无敌","Positive","ability","","","","","","","","","","",""
"1223","","f","psychophysics","26","140056","0.0-7.0-3.0-0.12","5","5","6","4","3","4","3","4","4","4","5","1","-1","1","0","1","0","2","1","5","4","5","4","4","3","4","3","4","4","6","8","7","7","6","7","7","6","8","4","5","4","6","5","3","6","5","6","5","1","5","4","5","4","6","4","5","5","5","6","3","6","4","5","5","6","5","7","6","5","3","4","5","3","3","4","3","6","3","6","792736654921179138","肖","76","Female","[""好我"",""坏她"",""坏我"",""好她""]","[""强我"",""弱她"",""弱我"",""强她""]","","","","","","","","yes","","","","","","","","","SRET","EW_formal","","key","f","20.560747663551403","960","536","朋友","骁勇","Positive","ability","","","","","","","","","","",""
"1094","","f","psychophysics","27","142160","0.0-7.0-3.0-0.13","5","5","6","4","3","4","3","4","4","4","5","1","-1","1","0","1","0","2","1","5","4","5","4","4","3","4","3","4","4","6","8","7","7","6","7","7","6","8","4","5","4","6","5","3","6","5","6","5","1","5","4","5","4","6","4","5","5","5","6","3","6","4","5","5","6","5","7","6","5","3","4","5","3","3","4","3","6","3","6","792736654921179138","肖","76","Female","[""好我"",""坏她"",""坏我"",""好她""]","[""强我"",""弱她"",""弱我"",""强她""]","","","","","","","","yes","","","","","","","","","SRET","EW_formal","","key","f","19.71698113207547","960","536","朋友","中用","Positive","ability","","","","","","","","","","",""
"1771","","j","psychophysics","28","144944","0.0-7.0-3.0-0.14","5","5","6","4","3","4","3","4","4","4","5","1","-1","1","0","1","0","2","1","5","4","5","4","4","3","4","3","4","4","6","8","7","7","6","7","7","6","8","4","5","4","6","5","3","6","5","6","5","1","5","4","5","4","6","4","5","5","5","6","3","6","4","5","5","6","5","7","6","5","3","4","5","3","3","4","3","6","3","6","792736654921179138","肖","76","Female","[""好我"",""坏她"",""坏我"",""好她""]","[""强我"",""弱她"",""弱我"",""强她""]","","","","","","","","no","","","","","","","","","SRET","EW_formal","","key","j","18.523489932885905","960","536","自己","无助","Negative","ability","","","","","","","","","","",""
"1462","","j","psychophysics","29","147408","0.0-7.0-3.0-0.15","5","5","6","4","3","4","3","4","4","4","5","1","-1","1","0","1","0","2","1","5","4","5","4","4","3","4","3","4","4","6","8","7","7","6","7","7","6","8","4","5","4","6","5","3","6","5","6","5","1","5","4","5","4","6","4","5","5","5","6","3","6","4","5","5","6","5","7","6","5","3","4","5","3","3","4","3","6","3","6","792736654921179138","肖","76","Female","[""好我"",""坏她"",""坏我"",""好她""]","[""强我"",""弱她"",""弱我"",""强她""]","","","","","","","","no","","","","","","","","","SRET","EW_formal","","key","j","20.33613445378151","960","536","自己","失信","Negative","morality","","","","","","","","","","",""
"895","","j","psychophysics","30","148765","0.0-7.0-3.0-0.16","5","5","6","4","3","4","3","4","4","4","5","1","-1","1","0","1","0","2","1","5","4","5","4","4","3","4","3","4","4","6","8","7","7","6","7","7","6","8","4","5","4","6","5","3","6","5","6","5","1","5","4","5","4","6","4","5","5","5","6","3","6","4","5","5","6","5","7","6","5","3","4","5","3","3","4","3","6","3","6","792736654921179138","肖","76","Female","[""好我"",""坏她"",""坏我"",""好她""]","[""强我"",""弱她"",""弱我"",""强她""]","","","","","","","","no","","","","","","","","","SRET","EW_formal","","key","j","20.87912087912088","960","536","自己","龌龊","Negative","morality","","","","","","","","","","",""
"1355","","j","psychophysics","31","151124","0.0-7.0-3.0-0.17","5","5","6","4","3","4","3","4","4","4","5","1","-1","1","0","1","0","2","1","5","4","5","4","4","3","4","3","4","4","6","8","7","7","6","7","7","6","8","4","5","4","6","5","3","6","5","6","5","1","5","4","5","4","6","4","5","5","5","6","3","6","4","5","5","6","5","7","6","5","3","4","5","3","3","4","3","6","3","6","792736654921179138","肖","76","Female","[""好我"",""坏她"",""坏我"",""好她""]","[""强我"",""弱她"",""弱我"",""强她""]","","","","","","","","no","","","","","","","","","SRET","EW_formal","","key","j","19.18032786885246","960","536","朋友","独断","Negative","ability","","","","","","","","","","",""
"1109","","f","psychophysics","32","153237","0.0-7.0-3.0-0.18","5","5","6","4","3","4","3","4","4","4","5","1","-1","1","0","1","0","2","1","5","4","5","4","4","3","4","3","4","4","6","8","7","7","6","7","7","6","8","4","5","4","6","5","3","6","5","6","5","1","5","4","5","4","6","4","5","5","5","6","3","6","4","5","5","6","5","7","6","5","3","4","5","3","3","4","3","6","3","6","792736654921179138","肖","76","Female","[""好我"",""坏她"",""坏我"",""好她""]","[""强我"",""弱她"",""弱我"",""强她""]","","","","","","","","yes","","","","","","","","","SRET","EW_formal","","key","f","18.64864864864865","960","536","自己","稳健","Positive","ability","","","","","","","","","","",""
"997","","f","psychophysics","33","155243","0.0-7.0-3.0-0.19","5","5","6","4","3","4","3","4","4","4","5","1","-1","1","0","1","0","2","1","5","4","5","4","4","3","4","3","4","4","6","8","7","7","6","7","7","6","8","4","5","4","6","5","3","6","5","6","5","1","5","4","5","4","6","4","5","5","5","6","3","6","4","5","5","6","5","7","6","5","3","4","5","3","3","4","3","6","3","6","792736654921179138","肖","76","Female","[""好我"",""坏她"",""坏我"",""好她""]","[""强我"",""弱她"",""弱我"",""强她""]","","","","","","","","yes","","","","","","","","","SRET","EW_formal","","key","f","18.09090909090909","960","536","自己","守时","Positive","morality","","","","","","","","","","",""
"994","","j","psychophysics","34","157244","0.0-7.0-3.0-0.20","5","5","6","4","3","4","3","4","4","4","5","1","-1","1","0","1","0","2","1","5","4","5","4","4","3","4","3","4","4","6","8","7","7","6","7","7","6","8","4","5","4","6","5","3","6","5","6","5","1","5","4","5","4","6","4","5","5","5","6","3","6","4","5","5","6","5","7","6","5","3","4","5","3","3","4","3","6","3","6","792736654921179138","肖","76","Female","[""好我"",""坏她"",""坏我"",""好她""]","[""强我"",""弱她"",""弱我"",""强她""]","","","","","","","","no","","","","","","","","","SRET","EW_formal","","key","j","18.761904761904763","960","536","朋友","自私","Negative","morality","","","","","","","","","","",""
"1290","","j","psychophysics","35","159537","0.0-7.0-3.0-0.21","5","5","6","4","3","4","3","4","4","4","5","1","-1","1","0","1","0","2","1","5","4","5","4","4","3","4","3","4","4","6","8","7","7","6","7","7","6","8","4","5","4","6","5","3","6","5","6","5","1","5","4","5","4","6","4","5","5","5","6","3","6","4","5","5","6","5","7","6","5","3","4","5","3","3","4","3","6","3","6","792736654921179138","肖","76","Female","[""好我"",""坏她"",""坏我"",""好她""]","[""强我"",""弱她"",""弱我"",""强她""]","","","","","","","","no","","","","","","","","","SRET","EW_formal","","key","j","19","960","536","自己","背叛","Negative","morality","","","","","","","","","","",""
"1039","","f","psychophysics","36","161583","0.0-7.0-3.0-0.22","5","5","6","4","3","4","3","4","4","4","5","1","-1","1","0","1","0","2","1","5","4","5","4","4","3","4","3","4","4","6","8","7","7","6","7","7","6","8","4","5","4","6","5","3","6","5","6","5","1","5","4","5","4","6","4","5","5","5","6","3","6","4","5","5","6","5","7","6","5","3","4","5","3","3","4","3","6","3","6","792736654921179138","肖","76","Female","[""好我"",""坏她"",""坏我"",""好她""]","[""强我"",""弱她"",""弱我"",""强她""]","","","","","","","","yes","","","","","","","","","SRET","EW_formal","","key","f","17.787610619469028","960","536","朋友","善心","Positive","morality","","","","","","","","","","",""
"1066","","f","psychophysics","37","163651","0.0-7.0-3.0-0.23","5","5","6","4","3","4","3","4","4","4","5","1","-1","1","0","1","0","2","1","5","4","5","4","4","3","4","3","4","4","6","8","7","7","6","7","7","6","8","4","5","4","6","5","3","6","5","6","5","1","5","4","5","4","6","4","5","5","5","6","3","6","4","5","5","6","5","7","6","5","3","4","5","3","3","4","3","6","3","6","792736654921179138","肖","76","Female","[""好我"",""坏她"",""坏我"",""好她""]","[""强我"",""弱她"",""弱我"",""强她""]","","","","","","","","yes","","","","","","","","","SRET","EW_formal","","key","f","18.98148148148148","960","536","朋友","自律","Positive","ability","","","","","","","","","","",""
"913","","f","psychophysics","38","165567","0.0-7.0-3.0-0.24","5","5","6","4","3","4","3","4","4","4","5","1","-1","1","0","1","0","2","1","5","4","5","4","4","3","4","3","4","4","6","8","7","7","6","7","7","6","8","4","5","4","6","5","3","6","5","6","5","1","5","4","5","4","6","4","5","5","5","6","3","6","4","5","5","6","5","7","6","5","3","4","5","3","3","4","3","6","3","6","792736654921179138","肖","76","Female","[""好我"",""坏她"",""坏我"",""好她""]","[""强我"",""弱她"",""弱我"",""强她""]","","","","","","","","yes","","","","","","","","","SRET","EW_formal","","key","f","18.81188118811881","960","536","朋友","守法","Positive","morality","","","","","","","","","","",""
"1553","","f","psychophysics","39","168123","0.0-7.0-3.0-0.25","5","5","6","4","3","4","3","4","4","4","5","1","-1","1","0","1","0","2","1","5","4","5","4","4","3","4","3","4","4","6","8","7","7","6","7","7","6","8","4","5","4","6","5","3","6","5","6","5","1","5","4","5","4","6","4","5","5","5","6","3","6","4","5","5","6","5","7","6","5","3","4","5","3","3","4","3","6","3","6","792736654921179138","肖","76","Female","[""好我"",""坏她"",""坏我"",""好她""]","[""强我"",""弱她"",""弱我"",""强她""]","","","","","","","","yes","","","","","","","","","SRET","EW_formal","","key","f","18.27338129496403","960","536","自己","侠义","Positive","morality","","","","","","","","","","",""
"1165","","j","psychophysics","40","170295","0.0-7.0-3.0-0.26","5","5","6","4","3","4","3","4","4","4","5","1","-1","1","0","1","0","2","1","5","4","5","4","4","3","4","3","4","4","6","8","7","7","6","7","7","6","8","4","5","4","6","5","3","6","5","6","5","1","5","4","5","4","6","4","5","5","5","6","3","6","4","5","5","6","5","7","6","5","3","4","5","3","3","4","3","6","3","6","792736654921179138","肖","76","Female","[""好我"",""坏她"",""坏我"",""好她""]","[""强我"",""弱她"",""弱我"",""强她""]","","","","","","","","no","","","","","","","","","SRET","EW_formal","","key","j","18.695652173913043","960","536","朋友","伪善","Negative","morality","","","","","","","","","","",""
"1105","","f","psychophysics","41","172403","0.0-7.0-3.0-0.27","5","5","6","4","3","4","3","4","4","4","5","1","-1","1","0","1","0","2","1","5","4","5","4","4","3","4","3","4","4","6","8","7","7","6","7","7","6","8","4","5","4","6","5","3","6","5","6","5","1","5","4","5","4","6","4","5","5","5","6","3","6","4","5","5","6","5","7","6","5","3","4","5","3","3","4","3","6","3","6","792736654921179138","肖","76","Female","[""好我"",""坏她"",""坏我"",""好她""]","[""强我"",""弱她"",""弱我"",""强她""]","","","","","","","","yes","","","","","","","","","SRET","EW_formal","","key","f","18.4070796460177","960","536","朋友","爱国","Positive","morality","","","","","","","","","","",""
"1414","","j","psychophysics","42","174818","0.0-7.0-3.0-0.28","5","5","6","4","3","4","3","4","4","4","5","1","-1","1","0","1","0","2","1","5","4","5","4","4","3","4","3","4","4","6","8","7","7","6","7","7","6","8","4","5","4","6","5","3","6","5","6","5","1","5","4","5","4","6","4","5","5","5","6","3","6","4","5","5","6","5","7","6","5","3","4","5","3","3","4","3","6","3","6","792736654921179138","肖","76","Female","[""好我"",""坏她"",""坏我"",""好她""]","[""强我"",""弱她"",""弱我"",""强她""]","","","","","","","","no","","","","","","","","","SRET","EW_formal","","key","j","17.77777777777778","960","536","朋友","恶劣","Negative","morality","","","","","","","","","","",""
"1078","","j","psychophysics","43","176899","0.0-7.0-3.0-0.29","5","5","6","4","3","4","3","4","4","4","5","1","-1","1","0","1","0","2","1","5","4","5","4","4","3","4","3","4","4","6","8","7","7","6","7","7","6","8","4","5","4","6","5","3","6","5","6","5","1","5","4","5","4","6","4","5","5","5","6","3","6","4","5","5","6","5","7","6","5","3","4","5","3","3","4","3","6","3","6","792736654921179138","肖","76","Female","[""好我"",""坏她"",""坏我"",""好她""]","[""强我"",""弱她"",""弱我"",""强她""]","","","","","","","","no","","","","","","","","","SRET","EW_formal","","key","j","18.89908256880734","960","536","朋友","奸诈","Negative","morality","","","","","","","","","","",""
"1125","","f","psychophysics","44","179027","0.0-7.0-3.0-0.30","5","5","6","4","3","4","3","4","4","4","5","1","-1","1","0","1","0","2","1","5","4","5","4","4","3","4","3","4","4","6","8","7","7","6","7","7","6","8","4","5","4","6","5","3","6","5","6","5","1","5","4","5","4","6","4","5","5","5","6","3","6","4","5","5","6","5","7","6","5","3","4","5","3","3","4","3","6","3","6","792736654921179138","肖","76","Female","[""好我"",""坏她"",""坏我"",""好她""]","[""强我"",""弱她"",""弱我"",""强她""]","","","","","","","","yes","","","","","","","","","SRET","EW_formal","","key","f","17.88135593220339","960","536","自己","独立","Positive","ability","","","","","","","","","","",""
"1018","","j","psychophysics","45","181051","0.0-7.0-3.0-0.31","5","5","6","4","3","4","3","4","4","4","5","1","-1","1","0","1","0","2","1","5","4","5","4","4","3","4","3","4","4","6","8","7","7","6","7","7","6","8","4","5","4","6","5","3","6","5","6","5","1","5","4","5","4","6","4","5","5","5","6","3","6","4","5","5","6","5","7","6","5","3","4","5","3","3","4","3","6","3","6","792736654921179138","肖","76","Female","[""好我"",""坏她"",""坏我"",""好她""]","[""强我"",""弱她"",""弱我"",""强她""]","","","","","","","","no","","","","","","","","","SRET","EW_formal","","key","j","17.857142857142858","960","536","朋友","马虎","Negative","ability","","","","","","","","","","",""
"1613","","f","psychophysics","46","183677","0.0-7.0-3.0-0.32","5","5","6","4","3","4","3","4","4","4","5","1","-1","1","0","1","0","2","1","5","4","5","4","4","3","4","3","4","4","6","8","7","7","6","7","7","6","8","4","5","4","6","5","3","6","5","6","5","1","5","4","5","4","6","4","5","5","5","6","3","6","4","5","5","6","5","7","6","5","3","4","5","3","3","4","3","6","3","6","792736654921179138","肖","76","Female","[""好我"",""坏她"",""坏我"",""好她""]","[""强我"",""弱她"",""弱我"",""强她""]","","","","","","","","yes","","","","","","","","","SRET","EW_formal","","key","f","17.755102040816325","960","536","自己","坦荡","Positive","morality","","","","","","","","","","",""
"1413","","j","psychophysics","47","186099","0.0-7.0-3.0-0.33","5","5","6","4","3","4","3","4","4","4","5","1","-1","1","0","1","0","2","1","5","4","5","4","4","3","4","3","4","4","6","8","7","7","6","7","7","6","8","4","5","4","6","5","3","6","5","6","5","1","5","4","5","4","6","4","5","5","5","6","3","6","4","5","5","6","5","7","6","5","3","4","5","3","3","4","3","6","3","6","792736654921179138","肖","76","Female","[""好我"",""坏她"",""坏我"",""好她""]","[""强我"",""弱她"",""弱我"",""强她""]","","","","","","","","no","","","","","","","","","SRET","EW_formal","","key","j","17.77777777777778","960","536","自己","小人","Negative","morality","","","","","","","","","","",""
"1059","","j","psychophysics","48","188159","0.0-7.0-3.0-0.34","5","5","6","4","3","4","3","4","4","4","5","1","-1","1","0","1","0","2","1","5","4","5","4","4","3","4","3","4","4","6","8","7","7","6","7","7","6","8","4","5","4","6","5","3","6","5","6","5","1","5","4","5","4","6","4","5","5","5","6","3","6","4","5","5","6","5","7","6","5","3","4","5","3","3","4","3","6","3","6","792736654921179138","肖","76","Female","[""好我"",""坏她"",""坏我"",""好她""]","[""强我"",""弱她"",""弱我"",""强她""]","","","","","","","","no","","","","","","","","","SRET","EW_formal","","key","j","17.142857142857142","960","536","朋友","拖延","Negative","ability","","","","","","","","","","",""
"1174","","j","psychophysics","49","190334","0.0-7.0-3.0-0.35","5","5","6","4","3","4","3","4","4","4","5","1","-1","1","0","1","0","2","1","5","4","5","4","4","3","4","3","4","4","6","8","7","7","6","7","7","6","8","4","5","4","6","5","3","6","5","6","5","1","5","4","5","4","6","4","5","5","5","6","3","6","4","5","5","6","5","7","6","5","3","4","5","3","3","4","3","6","3","6","792736654921179138","肖","76","Female","[""好我"",""坏她"",""坏我"",""好她""]","[""强我"",""弱她"",""弱我"",""强她""]","","","","","","","","no","","","","","","","","","SRET","EW_formal","","key","j","17.704918032786885","960","536","自己","诡诈","Negative","morality","","","","","","","","","","",""
"1264","","j","psychophysics","50","192598","0.0-7.0-3.0-0.36","5","5","6","4","3","4","3","4","4","4","5","1","-1","1","0","1","0","2","1","5","4","5","4","4","3","4","3","4","4","6","8","7","7","6","7","7","6","8","4","5","4","6","5","3","6","5","6","5","1","5","4","5","4","6","4","5","5","5","6","3","6","4","5","5","6","5","7","6","5","3","4","5","3","3","4","3","6","3","6","792736654921179138","肖","76","Female","[""好我"",""坏她"",""坏我"",""好她""]","[""强我"",""弱她"",""弱我"",""强她""]","","","","","","","","no","","","","","","","","","SRET","EW_formal","","key","j","17.92","960","536","朋友","屈才","Negative","ability","","","","","","","","","","",""
"959","","j","psychophysics","51","194563","0.0-7.0-3.0-0.37","5","5","6","4","3","4","3","4","4","4","5","1","-1","1","0","1","0","2","1","5","4","5","4","4","3","4","3","4","4","6","8","7","7","6","7","7","6","8","4","5","4","6","5","3","6","5","6","5","1","5","4","5","4","6","4","5","5","5","6","3","6","4","5","5","6","5","7","6","5","3","4","5","3","3","4","3","6","3","6","792736654921179138","肖","76","Female","[""好我"",""坏她"",""坏我"",""好她""]","[""强我"",""弱她"",""弱我"",""强她""]","","","","","","","","no","","","","","","","","","SRET","EW_formal","","key","j","17.727272727272727","960","536","自己","下流","Negative","morality","","","","","","","","","","",""
"1499","","f","psychophysics","52","197065","0.0-7.0-3.0-0.38","5","5","6","4","3","4","3","4","4","4","5","1","-1","1","0","1","0","2","1","5","4","5","4","4","3","4","3","4","4","6","8","7","7","6","7","7","6","8","4","5","4","6","5","3","6","5","6","5","1","5","4","5","4","6","4","5","5","5","6","3","6","4","5","5","6","5","7","6","5","3","4","5","3","3","4","3","6","3","6","792736654921179138","肖","76","Female","[""好我"",""坏她"",""坏我"",""好她""]","[""强我"",""弱她"",""弱我"",""强她""]","","","","","","","","yes","","","","","","","","","SRET","EW_formal","","key","f","18.37037037037037","960","536","朋友","干练","Positive","ability","","","","","","","","","","",""
"1080","","f","psychophysics","53","199151","0.0-7.0-3.0-0.39","5","5","6","4","3","4","3","4","4","4","5","1","-1","1","0","1","0","2","1","5","4","5","4","4","3","4","3","4","4","6","8","7","7","6","7","7","6","8","4","5","4","6","5","3","6","5","6","5","1","5","4","5","4","6","4","5","5","5","6","3","6","4","5","5","6","5","7","6","5","3","4","5","3","3","4","3","6","3","6","792736654921179138","肖","76","Female","[""好我"",""坏她"",""坏我"",""好她""]","[""强我"",""弱她"",""弱我"",""强她""]","","","","","","","","yes","","","","","","","","","SRET","EW_formal","","key","f","18.46846846846847","960","536","自己","廉正","Positive","morality","","","","","","","","","","",""
"1133","","f","psychophysics","54","201288","0.0-7.0-3.0-0.40","5","5","6","4","3","4","3","4","4","4","5","1","-1","1","0","1","0","2","1","5","4","5","4","4","3","4","3","4","4","6","8","7","7","6","7","7","6","8","4","5","4","6","5","3","6","5","6","5","1","5","4","5","4","6","4","5","5","5","6","3","6","4","5","5","6","5","7","6","5","3","4","5","3","3","4","3","6","3","6","792736654921179138","肖","76","Female","[""好我"",""坏她"",""坏我"",""好她""]","[""强我"",""弱她"",""弱我"",""强她""]","","","","","","","","yes","","","","","","","","","SRET","EW_formal","","key","f","17.096774193548388","960","536","自己","慈悲","Positive","morality","","","","","","","","","","",""
"1325","","f","psychophysics","55","203620","0.0-7.0-3.0-0.41","5","5","6","4","3","4","3","4","4","4","5","1","-1","1","0","1","0","2","1","5","4","5","4","4","3","4","3","4","4","6","8","7","7","6","7","7","6","8","4","5","4","6","5","3","6","5","6","5","1","5","4","5","4","6","4","5","5","5","6","3","6","4","5","5","6","5","7","6","5","3","4","5","3","3","4","3","6","3","6","792736654921179138","肖","76","Female","[""好我"",""坏她"",""坏我"",""好她""]","[""强我"",""弱她"",""弱我"",""强她""]","","","","","","","","yes","","","","","","","","","SRET","EW_formal","","key","f","17.76923076923077","960","536","朋友","顶事","Positive","ability","","","","","","","","","","",""
"1161","","j","psychophysics","56","205786","0.0-7.0-3.0-0.42","5","5","6","4","3","4","3","4","4","4","5","1","-1","1","0","1","0","2","1","5","4","5","4","4","3","4","3","4","4","6","8","7","7","6","7","7","6","8","4","5","4","6","5","3","6","5","6","5","1","5","4","5","4","6","4","5","5","5","6","3","6","4","5","5","6","5","7","6","5","3","4","5","3","3","4","3","6","3","6","792736654921179138","肖","76","Female","[""好我"",""坏她"",""坏我"",""好她""]","[""强我"",""弱她"",""弱我"",""强她""]","","","","","","","","no","","","","","","","","","SRET","EW_formal","","key","j","18.275862068965516","960","536","自己","浅薄","Negative","ability","","","","","","","","","","",""
"1044","","j","psychophysics","57","207853","0.0-7.0-3.0-0.43","5","5","6","4","3","4","3","4","4","4","5","1","-1","1","0","1","0","2","1","5","4","5","4","4","3","4","3","4","4","6","8","7","7","6","7","7","6","8","4","5","4","6","5","3","6","5","6","5","1","5","4","5","4","6","4","5","5","5","6","3","6","4","5","5","6","5","7","6","5","3","4","5","3","3","4","3","6","3","6","792736654921179138","肖","76","Female","[""好我"",""坏她"",""坏我"",""好她""]","[""强我"",""弱她"",""弱我"",""强她""]","","","","","","","","no","","","","","","","","","SRET","EW_formal","","key","j","17.75862068965517","960","536","自己","笨蛋","Negative","ability","","","","","","","","","","",""
"1122","","j","psychophysics","58","209552","0.0-7.0-3.0-0.44","5","5","6","4","3","4","3","4","4","4","5","1","-1","1","0","1","0","2","1","5","4","5","4","4","3","4","3","4","4","6","8","7","7","6","7","7","6","8","4","5","4","6","5","3","6","5","6","5","1","5","4","5","4","6","4","5","5","5","6","3","6","4","5","5","6","5","7","6","5","3","4","5","3","3","4","3","6","3","6","792736654921179138","肖","76","Female","[""好我"",""坏她"",""坏我"",""好她""]","[""强我"",""弱她"",""弱我"",""强她""]","","","","","","","","no","","","","","","","","","SRET","EW_formal","","key","j","17.94871794871795","960","536","朋友","无耻","Negative","morality","","","","","","","","","","",""
"1266","","f","psychophysics","59","211821","0.0-7.0-3.0-0.45","5","5","6","4","3","4","3","4","4","4","5","1","-1","1","0","1","0","2","1","5","4","5","4","4","3","4","3","4","4","6","8","7","7","6","7","7","6","8","4","5","4","6","5","3","6","5","6","5","1","5","4","5","4","6","4","5","5","5","6","3","6","4","5","5","6","5","7","6","5","3","4","5","3","3","4","3","6","3","6","792736654921179138","肖","76","Female","[""好我"",""坏她"",""坏我"",""好她""]","[""强我"",""弱她"",""弱我"",""强她""]","","","","","","","","yes","","","","","","","","","SRET","EW_formal","","key","f","18.907563025210084","960","536","自己","无私","Positive","morality","","","","","","","","","","",""
"1700","","f","psychophysics","60","214531","0.0-7.0-3.0-0.46","5","5","6","4","3","4","3","4","4","4","5","1","-1","1","0","1","0","2","1","5","4","5","4","4","3","4","3","4","4","6","8","7","7","6","7","7","6","8","4","5","4","6","5","3","6","5","6","5","1","5","4","5","4","6","4","5","5","5","6","3","6","4","5","5","6","5","7","6","5","3","4","5","3","3","4","3","6","3","6","792736654921179138","肖","76","Female","[""好我"",""坏她"",""坏我"",""好她""]","[""强我"",""弱她"",""弱我"",""强她""]","","","","","","","","yes","","","","","","","","","SRET","EW_formal","","key","f","17.133757961783438","960","536","朋友","守信","Positive","morality","","","","","","","","","","",""
"1249","","f","psychophysics","61","216782","0.0-7.0-3.0-0.47","5","5","6","4","3","4","3","4","4","4","5","1","-1","1","0","1","0","2","1","5","4","5","4","4","3","4","3","4","4","6","8","7","7","6","7","7","6","8","4","5","4","6","5","3","6","5","6","5","1","5","4","5","4","6","4","5","5","5","6","3","6","4","5","5","6","5","7","6","5","3","4","5","3","3","4","3","6","3","6","792736654921179138","肖","76","Female","[""好我"",""坏她"",""坏我"",""好她""]","[""强我"",""弱她"",""弱我"",""强她""]","","","","","","","","yes","","","","","","","","","SRET","EW_formal","","key","f","18.429752066115704","960","536","自己","谦逊","Positive","morality","","","","","","","","","","",""
"1221","","f","psychophysics","62","219011","0.0-7.0-3.0-0.48","5","5","6","4","3","4","3","4","4","4","5","1","-1","1","0","1","0","2","1","5","4","5","4","4","3","4","3","4","4","6","8","7","7","6","7","7","6","8","4","5","4","6","5","3","6","5","6","5","1","5","4","5","4","6","4","5","5","5","6","3","6","4","5","5","6","5","7","6","5","3","4","5","3","3","4","3","6","3","6","792736654921179138","肖","76","Female","[""好我"",""坏她"",""坏我"",""好她""]","[""强我"",""弱她"",""弱我"",""强她""]","","","","","","","","yes","","","","","","","","","SRET","EW_formal","","key","f","17.53968253968254","960","536","自己","娴熟","Positive","ability","","","","","","","","","","",""
"924","","f","psychophysics","63","220936","0.0-7.0-3.0-0.49","5","5","6","4","3","4","3","4","4","4","5","1","-1","1","0","1","0","2","1","5","4","5","4","4","3","4","3","4","4","6","8","7","7","6","7","7","6","8","4","5","4","6","5","3","6","5","6","5","1","5","4","5","4","6","4","5","5","5","6","3","6","4","5","5","6","5","7","6","5","3","4","5","3","3","4","3","6","3","6","792736654921179138","肖","76","Female","[""好我"",""坏她"",""坏我"",""好她""]","[""强我"",""弱她"",""弱我"",""强她""]","","","","","","","","yes","","","","","","","","","SRET","EW_formal","","key","f","18","960","536","自己","聪明","Positive","ability","","","","","","","","","","",""
"955","","f","psychophysics","64","222894","0.0-7.0-3.0-0.50","5","5","6","4","3","4","3","4","4","4","5","1","-1","1","0","1","0","2","1","5","4","5","4","4","3","4","3","4","4","6","8","7","7","6","7","7","6","8","4","5","4","6","5","3","6","5","6","5","1","5","4","5","4","6","4","5","5","5","6","3","6","4","5","5","6","5","7","6","5","3","4","5","3","3","4","3","6","3","6","792736654921179138","肖","76","Female","[""好我"",""坏她"",""坏我"",""好她""]","[""强我"",""弱她"",""弱我"",""强她""]","","","","","","","","yes","","","","","","","","","SRET","EW_formal","","key","f","18.14814814814815","960","536","自己","高尚","Positive","morality","","","","","","","","","","",""
"1028","","j","psychophysics","65","224925","0.0-7.0-3.0-0.51","5","5","6","4","3","4","3","4","4","4","5","1","-1","1","0","1","0","2","1","5","4","5","4","4","3","4","3","4","4","6","8","7","7","6","7","7","6","8","4","5","4","6","5","3","6","5","6","5","1","5","4","5","4","6","4","5","5","5","6","3","6","4","5","5","6","5","7","6","5","3","4","5","3","3","4","3","6","3","6","792736654921179138","肖","76","Female","[""好我"",""坏她"",""坏我"",""好她""]","[""强我"",""弱她"",""弱我"",""强她""]","","","","","","","","no","","","","","","","","","SRET","EW_formal","","key","j","18.50467289719626","960","536","朋友","驽钝","Negative","ability","","","","","","","","","","",""
"979","","j","psychophysics","66","226909","0.0-7.0-3.0-0.52","5","5","6","4","3","4","3","4","4","4","5","1","-1","1","0","1","0","2","1","5","4","5","4","4","3","4","3","4","4","6","8","7","7","6","7","7","6","8","4","5","4","6","5","3","6","5","6","5","1","5","4","5","4","6","4","5","5","5","6","3","6","4","5","5","6","5","7","6","5","3","4","5","3","3","4","3","6","3","6","792736654921179138","肖","76","Female","[""好我"",""坏她"",""坏我"",""好她""]","[""强我"",""弱她"",""弱我"",""强她""]","","","","","","","","no","","","","","","","","","SRET","EW_formal","","key","j","19.12621359223301","960","536","朋友","狡诈","Negative","morality","","","","","","","","","","",""
"1075","","f","psychophysics","67","228991","0.0-7.0-3.0-0.53","5","5","6","4","3","4","3","4","4","4","5","1","-1","1","0","1","0","2","1","5","4","5","4","4","3","4","3","4","4","6","8","7","7","6","7","7","6","8","4","5","4","6","5","3","6","5","6","5","1","5","4","5","4","6","4","5","5","5","6","3","6","4","5","5","6","5","7","6","5","3","4","5","3","3","4","3","6","3","6","792736654921179138","肖","76","Female","[""好我"",""坏她"",""坏我"",""好她""]","[""强我"",""弱她"",""弱我"",""强她""]","","","","","","","","yes","","","","","","","","","SRET","EW_formal","","key","f","18.141592920353983","960","536","自己","勤奋","Positive","ability","","","","","","","","","","",""
"1011","","f","psychophysics","68","231003","0.0-7.0-3.0-0.54","5","5","6","4","3","4","3","4","4","4","5","1","-1","1","0","1","0","2","1","5","4","5","4","4","3","4","3","4","4","6","8","7","7","6","7","7","6","8","4","5","4","6","5","3","6","5","6","5","1","5","4","5","4","6","4","5","5","5","6","3","6","4","5","5","6","5","7","6","5","3","4","5","3","3","4","3","6","3","6","792736654921179138","肖","76","Female","[""好我"",""坏她"",""坏我"",""好她""]","[""强我"",""弱她"",""弱我"",""强她""]","","","","","","","","yes","","","","","","","","","SRET","EW_formal","","key","f","17.92792792792793","960","536","朋友","毅力","Positive","ability","","","","","","","","","","",""
"1028","","j","psychophysics","69","233034","0.0-7.0-3.0-0.55","5","5","6","4","3","4","3","4","4","4","5","1","-1","1","0","1","0","2","1","5","4","5","4","4","3","4","3","4","4","6","8","7","7","6","7","7","6","8","4","5","4","6","5","3","6","5","6","5","1","5","4","5","4","6","4","5","5","5","6","3","6","4","5","5","6","5","7","6","5","3","4","5","3","3","4","3","6","3","6","792736654921179138","肖","76","Female","[""好我"",""坏她"",""坏我"",""好她""]","[""强我"",""弱她"",""弱我"",""强她""]","","","","","","","","no","","","","","","","","","SRET","EW_formal","","key","j","17.946428571428573","960","536","朋友","无为","Negative","ability","","","","","","","","","","",""
"1111","","f","psychophysics","70","235146","0.0-7.0-3.0-0.56","5","5","6","4","3","4","3","4","4","4","5","1","-1","1","0","1","0","2","1","5","4","5","4","4","3","4","3","4","4","6","8","7","7","6","7","7","6","8","4","5","4","6","5","3","6","5","6","5","1","5","4","5","4","6","4","5","5","5","6","3","6","4","5","5","6","5","7","6","5","3","4","5","3","3","4","3","6","3","6","792736654921179138","肖","76","Female","[""好我"",""坏她"",""坏我"",""好她""]","[""强我"",""弱她"",""弱我"",""强她""]","","","","","","","","yes","","","","","","","","","SRET","EW_formal","","key","f","18.495575221238937","960","536","自己","敬业","Positive","morality","","","","","","","","","","",""
"1304","","f","psychophysics","71","237452","0.0-7.0-3.0-0.57","5","5","6","4","3","4","3","4","4","4","5","1","-1","1","0","1","0","2","1","5","4","5","4","4","3","4","3","4","4","6","8","7","7","6","7","7","6","8","4","5","4","6","5","3","6","5","6","5","1","5","4","5","4","6","4","5","5","5","6","3","6","4","5","5","6","5","7","6","5","3","4","5","3","3","4","3","6","3","6","792736654921179138","肖","76","Female","[""好我"",""坏她"",""坏我"",""好她""]","[""强我"",""弱她"",""弱我"",""强她""]","","","","","","","","yes","","","","","","","","","SRET","EW_formal","","key","f","19.159663865546218","960","536","自己","有力","Positive","ability","","","","","","","","","","",""
"972","","j","psychophysics","72","239427","0.0-7.0-3.0-0.58","5","5","6","4","3","4","3","4","4","4","5","1","-1","1","0","1","0","2","1","5","4","5","4","4","3","4","3","4","4","6","8","7","7","6","7","7","6","8","4","5","4","6","5","3","6","5","6","5","1","5","4","5","4","6","4","5","5","5","6","3","6","4","5","5","6","5","7","6","5","3","4","5","3","3","4","3","6","3","6","792736654921179138","肖","76","Female","[""好我"",""坏她"",""坏我"",""好她""]","[""强我"",""弱她"",""弱我"",""强她""]","","","","","","","","no","","","","","","","","","SRET","EW_formal","","key","j","17.98165137614679","960","536","自己","罪恶","Negative","morality","","","","","","","","","","",""
"1624","","j","psychophysics","73","242057","0.0-7.0-3.0-0.59","5","5","6","4","3","4","3","4","4","4","5","1","-1","1","0","1","0","2","1","5","4","5","4","4","3","4","3","4","4","6","8","7","7","6","7","7","6","8","4","5","4","6","5","3","6","5","6","5","1","5","4","5","4","6","4","5","5","5","6","3","6","4","5","5","6","5","7","6","5","3","4","5","3","3","4","3","6","3","6","792736654921179138","肖","76","Female","[""好我"",""坏她"",""坏我"",""好她""]","[""强我"",""弱她"",""弱我"",""强她""]","","","","","","","","no","","","","","","","","","SRET","EW_formal","","key","j","17.755102040816325","960","536","朋友","仗义","Positive","morality","","","","","","","","","","",""
"902","","f","psychophysics","74","243962","0.0-7.0-3.0-0.60","5","5","6","4","3","4","3","4","4","4","5","1","-1","1","0","1","0","2","1","5","4","5","4","4","3","4","3","4","4","6","8","7","7","6","7","7","6","8","4","5","4","6","5","3","6","5","6","5","1","5","4","5","4","6","4","5","5","5","6","3","6","4","5","5","6","5","7","6","5","3","4","5","3","3","4","3","6","3","6","792736654921179138","肖","76","Female","[""好我"",""坏她"",""坏我"",""好她""]","[""强我"",""弱她"",""弱我"",""强她""]","","","","","","","","yes","","","","","","","","","SRET","EW_formal","","key","f","16.964285714285715","960","536","自己","刻苦","Positive","ability","","","","","","","","","","",""
"1366","","j","psychophysics","75","246334","0.0-7.0-3.0-0.61","5","5","6","4","3","4","3","4","4","4","5","1","-1","1","0","1","0","2","1","5","4","5","4","4","3","4","3","4","4","6","8","7","7","6","7","7","6","8","4","5","4","6","5","3","6","5","6","5","1","5","4","5","4","6","4","5","5","5","6","3","6","4","5","5","6","5","7","6","5","3","4","5","3","3","4","3","6","3","6","792736654921179138","肖","76","Female","[""好我"",""坏她"",""坏我"",""好她""]","[""强我"",""弱她"",""弱我"",""强她""]","","","","","","","","no","","","","","","","","","SRET","EW_formal","","key","j","18.88","960","536","朋友","新手","Negative","ability","","","","","","","","","","",""
"1106","","f","psychophysics","76","248442","0.0-7.0-3.0-0.62","5","5","6","4","3","4","3","4","4","4","5","1","-1","1","0","1","0","2","1","5","4","5","4","4","3","4","3","4","4","6","8","7","7","6","7","7","6","8","4","5","4","6","5","3","6","5","6","5","1","5","4","5","4","6","4","5","5","5","6","3","6","4","5","5","6","5","7","6","5","3","4","5","3","3","4","3","6","3","6","792736654921179138","肖","76","Female","[""好我"",""坏她"",""坏我"",""好她""]","[""强我"",""弱她"",""弱我"",""强她""]","","","","","","","","yes","","","","","","","","","SRET","EW_formal","","key","f","17.333333333333332","960","536","朋友","忠勇","Positive","morality","","","","","","","","","","",""
"888","","f","psychophysics","77","250339","0.0-7.0-3.0-0.63","5","5","6","4","3","4","3","4","4","4","5","1","-1","1","0","1","0","2","1","5","4","5","4","4","3","4","3","4","4","6","8","7","7","6","7","7","6","8","4","5","4","6","5","3","6","5","6","5","1","5","4","5","4","6","4","5","5","5","6","3","6","4","5","5","6","5","7","6","5","3","4","5","3","3","4","3","6","3","6","792736654921179138","肖","76","Female","[""好我"",""坏她"",""坏我"",""好她""]","[""强我"",""弱她"",""弱我"",""强她""]","","","","","","","","yes","","","","","","","","","SRET","EW_formal","","key","f","18.514851485148515","960","536","自己","高效","Positive","ability","","","","","","","","","","",""
"1731","","j","psychophysics","78","253075","0.0-7.0-3.0-0.64","5","5","6","4","3","4","3","4","4","4","5","1","-1","1","0","1","0","2","1","5","4","5","4","4","3","4","3","4","4","6","8","7","7","6","7","7","6","8","4","5","4","6","5","3","6","5","6","5","1","5","4","5","4","6","4","5","5","5","6","3","6","4","5","5","6","5","7","6","5","3","4","5","3","3","4","3","6","3","6","792736654921179138","肖","76","Female","[""好我"",""坏她"",""坏我"",""好她""]","[""强我"",""弱她"",""弱我"",""强她""]","","","","","","","","no","","","","","","","","","SRET","EW_formal","","key","j","19.08450704225352","960","536","朋友","犹豫","Negative","ability","","","","","","","","","","",""
"1020","","f","psychophysics","79","255097","0.0-7.0-3.0-0.65","5","5","6","4","3","4","3","4","4","4","5","1","-1","1","0","1","0","2","1","5","4","5","4","4","3","4","3","4","4","6","8","7","7","6","7","7","6","8","4","5","4","6","5","3","6","5","6","5","1","5","4","5","4","6","4","5","5","5","6","3","6","4","5","5","6","5","7","6","5","3","4","5","3","3","4","3","6","3","6","792736654921179138","肖","76","Female","[""好我"",""坏她"",""坏我"",""好她""]","[""强我"",""弱她"",""弱我"",""强她""]","","","","","","","","yes","","","","","","","","","SRET","EW_formal","","key","f","19.23076923076923","960","536","朋友","忠诚","Positive","morality","","","","","","","","","","",""
"1182","","j","psychophysics","80","257281","0.0-7.0-3.0-0.66","5","5","6","4","3","4","3","4","4","4","5","1","-1","1","0","1","0","2","1","5","4","5","4","4","3","4","3","4","4","6","8","7","7","6","7","7","6","8","4","5","4","6","5","3","6","5","6","5","1","5","4","5","4","6","4","5","5","5","6","3","6","4","5","5","6","5","7","6","5","3","4","5","3","3","4","3","6","3","6","792736654921179138","肖","76","Female","[""好我"",""坏她"",""坏我"",""好她""]","[""强我"",""弱她"",""弱我"",""强她""]","","","","","","","","no","","","","","","","","","SRET","EW_formal","","key","j","21.067961165048544","960","536","自己","粗心","Negative","ability","","","","","","","","","","",""
"1038","","j","psychophysics","81","259322","0.0-7.0-3.0-0.67","5","5","6","4","3","4","3","4","4","4","5","1","-1","1","0","1","0","2","1","5","4","5","4","4","3","4","3","4","4","6","8","7","7","6","7","7","6","8","4","5","4","6","5","3","6","5","6","5","1","5","4","5","4","6","4","5","5","5","6","3","6","4","5","5","6","5","7","6","5","3","4","5","3","3","4","3","6","3","6","792736654921179138","肖","76","Female","[""好我"",""坏她"",""坏我"",""好她""]","[""强我"",""弱她"",""弱我"",""强她""]","","","","","","","","no","","","","","","","","","SRET","EW_formal","","key","j","18.272727272727273","960","536","朋友","狡狯","Negative","morality","","","","","","","","","","",""
"1672","","f","psychophysics","82","261999","0.0-7.0-3.0-0.68","5","5","6","4","3","4","3","4","4","4","5","1","-1","1","0","1","0","2","1","5","4","5","4","4","3","4","3","4","4","6","8","7","7","6","7","7","6","8","4","5","4","6","5","3","6","5","6","5","1","5","4","5","4","6","4","5","5","5","6","3","6","4","5","5","6","5","7","6","5","3","4","5","3","3","4","3","6","3","6","792736654921179138","肖","76","Female","[""好我"",""坏她"",""坏我"",""好她""]","[""强我"",""弱她"",""弱我"",""强她""]","","","","","","","","yes","","","","","","","","","SRET","EW_formal","","key","f","18.163265306122447","960","536","自己","畏难","Negative","ability","","","","","","","","","","",""
"930","","j","psychophysics","83","263931","0.0-7.0-3.0-0.69","5","5","6","4","3","4","3","4","4","4","5","1","-1","1","0","1","0","2","1","5","4","5","4","4","3","4","3","4","4","6","8","7","7","6","7","7","6","8","4","5","4","6","5","3","6","5","6","5","1","5","4","5","4","6","4","5","5","5","6","3","6","4","5","5","6","5","7","6","5","3","4","5","3","3","4","3","6","3","6","792736654921179138","肖","76","Female","[""好我"",""坏她"",""坏我"",""好她""]","[""强我"",""弱她"",""弱我"",""强她""]","","","","","","","","no","","","","","","","","","SRET","EW_formal","","key","j","17.363636363636363","960","536","自己","奸险","Negative","morality","","","","","","","","","","",""
"1016","","j","psychophysics","84","265948","0.0-7.0-3.0-0.70","5","5","6","4","3","4","3","4","4","4","5","1","-1","1","0","1","0","2","1","5","4","5","4","4","3","4","3","4","4","6","8","7","7","6","7","7","6","8","4","5","4","6","5","3","6","5","6","5","1","5","4","5","4","6","4","5","5","5","6","3","6","4","5","5","6","5","7","6","5","3","4","5","3","3","4","3","6","3","6","792736654921179138","肖","76","Female","[""好我"",""坏她"",""坏我"",""好她""]","[""强我"",""弱她"",""弱我"",""强她""]","","","","","","","","no","","","","","","","","","SRET","EW_formal","","key","j","19.23076923076923","960","536","朋友","拜金","Negative","morality","","","","","","","","","","",""
"1195","","j","psychophysics","85","267593","0.0-7.0-3.0-0.71","5","5","6","4","3","4","3","4","4","4","5","1","-1","1","0","1","0","2","1","5","4","5","4","4","3","4","3","4","4","6","8","7","7","6","7","7","6","8","4","5","4","6","5","3","6","5","6","5","1","5","4","5","4","6","4","5","5","5","6","3","6","4","5","5","6","5","7","6","5","3","4","5","3","3","4","3","6","3","6","792736654921179138","肖","76","Female","[""好我"",""坏她"",""坏我"",""好她""]","[""强我"",""弱她"",""弱我"",""强她""]","","","","","","","","no","","","","","","","","","SRET","EW_formal","","key","j","18.235294117647058","960","536","自己","草率","Negative","ability","","","","","","","","","","",""
"1027","","f","psychophysics","86","269623","0.0-7.0-3.0-0.72","5","5","6","4","3","4","3","4","4","4","5","1","-1","1","0","1","0","2","1","5","4","5","4","4","3","4","3","4","4","6","8","7","7","6","7","7","6","8","4","5","4","6","5","3","6","5","6","5","1","5","4","5","4","6","4","5","5","5","6","3","6","4","5","5","6","5","7","6","5","3","4","5","3","3","4","3","6","3","6","792736654921179138","肖","76","Female","[""好我"",""坏她"",""坏我"",""好她""]","[""强我"",""弱她"",""弱我"",""强她""]","","","","","","","","yes","","","","","","","","","SRET","EW_formal","","key","f","18.440366972477065","960","536","朋友","君子","Positive","morality","","","","","","","","","","",""
"1049","","f","psychophysics","87","271675","0.0-7.0-3.0-0.73","5","5","6","4","3","4","3","4","4","4","5","1","-1","1","0","1","0","2","1","5","4","5","4","4","3","4","3","4","4","6","8","7","7","6","7","7","6","8","4","5","4","6","5","3","6","5","6","5","1","5","4","5","4","6","4","5","5","5","6","3","6","4","5","5","6","5","7","6","5","3","4","5","3","3","4","3","6","3","6","792736654921179138","肖","76","Female","[""好我"",""坏她"",""坏我"",""好她""]","[""强我"",""弱她"",""弱我"",""强她""]","","","","","","","","yes","","","","","","","","","SRET","EW_formal","","key","f","19.615384615384617","960","536","朋友","忠良","Positive","morality","","","","","","","","","","",""
"959","","j","psychophysics","88","273635","0.0-7.0-3.0-0.74","5","5","6","4","3","4","3","4","4","4","5","1","-1","1","0","1","0","2","1","5","4","5","4","4","3","4","3","4","4","6","8","7","7","6","7","7","6","8","4","5","4","6","5","3","6","5","6","5","1","5","4","5","4","6","4","5","5","5","6","3","6","4","5","5","6","5","7","6","5","3","4","5","3","3","4","3","6","3","6","792736654921179138","肖","76","Female","[""好我"",""坏她"",""坏我"",""好她""]","[""强我"",""弱她"",""弱我"",""强她""]","","","","","","","","no","","","","","","","","","SRET","EW_formal","","key","j","17.889908256880734","960","536","自己","愚钝","Negative","ability","","","","","","","","","","",""
"1074","","f","psychophysics","89","275711","0.0-7.0-3.0-0.75","5","5","6","4","3","4","3","4","4","4","5","1","-1","1","0","1","0","2","1","5","4","5","4","4","3","4","3","4","4","6","8","7","7","6","7","7","6","8","4","5","4","6","5","3","6","5","6","5","1","5","4","5","4","6","4","5","5","5","6","3","6","4","5","5","6","5","7","6","5","3","4","5","3","3","4","3","6","3","6","792736654921179138","肖","76","Female","[""好我"",""坏她"",""坏我"",""好她""]","[""强我"",""弱她"",""弱我"",""强她""]","","","","","","","","yes","","","","","","","","","SRET","EW_formal","","key","f","18.23008849557522","960","536","自己","清廉","Positive","morality","","","","","","","","","","",""
"1515","","f","psychophysics","90","278232","0.0-7.0-3.0-0.76","5","5","6","4","3","4","3","4","4","4","5","1","-1","1","0","1","0","2","1","5","4","5","4","4","3","4","3","4","4","6","8","7","7","6","7","7","6","8","4","5","4","6","5","3","6","5","6","5","1","5","4","5","4","6","4","5","5","5","6","3","6","4","5","5","6","5","7","6","5","3","4","5","3","3","4","3","6","3","6","792736654921179138","肖","76","Female","[""好我"",""坏她"",""坏我"",""好她""]","[""强我"",""弱她"",""弱我"",""强她""]","","","","","","","","yes","","","","","","","","","SRET","EW_formal","","key","f","18.18840579710145","960","536","朋友","果决","Positive","ability","","","","","","","","","","",""
"1181","","j","psychophysics","91","280418","0.0-7.0-3.0-0.77","5","5","6","4","3","4","3","4","4","4","5","1","-1","1","0","1","0","2","1","5","4","5","4","4","3","4","3","4","4","6","8","7","7","6","7","7","6","8","4","5","4","6","5","3","6","5","6","5","1","5","4","5","4","6","4","5","5","5","6","3","6","4","5","5","6","5","7","6","5","3","4","5","3","3","4","3","6","3","6","792736654921179138","肖","76","Female","[""好我"",""坏她"",""坏我"",""好她""]","[""强我"",""弱她"",""弱我"",""强她""]","","","","","","","","no","","","","","","","","","SRET","EW_formal","","key","j","17.704918032786885","960","536","朋友","业余","Negative","ability","","","","","","","","","","",""
"1058","","f","psychophysics","92","282483","0.0-7.0-3.0-0.78","5","5","6","4","3","4","3","4","4","4","5","1","-1","1","0","1","0","2","1","5","4","5","4","4","3","4","3","4","4","6","8","7","7","6","7","7","6","8","4","5","4","6","5","3","6","5","6","5","1","5","4","5","4","6","4","5","5","5","6","3","6","4","5","5","6","5","7","6","5","3","4","5","3","3","4","3","6","3","6","792736654921179138","肖","76","Female","[""好我"",""坏她"",""坏我"",""好她""]","[""强我"",""弱她"",""弱我"",""强她""]","","","","","","","","yes","","","","","","","","","SRET","EW_formal","","key","f","18.71559633027523","960","536","自己","能干","Positive","ability","","","","","","","","","","",""
"1176","","j","psychophysics","93","284675","0.0-7.0-3.0-0.79","5","5","6","4","3","4","3","4","4","4","5","1","-1","1","0","1","0","2","1","5","4","5","4","4","3","4","3","4","4","6","8","7","7","6","7","7","6","8","4","5","4","6","5","3","6","5","6","5","1","5","4","5","4","6","4","5","5","5","6","3","6","4","5","5","6","5","7","6","5","3","4","5","3","3","4","3","6","3","6","792736654921179138","肖","76","Female","[""好我"",""坏她"",""坏我"",""好她""]","[""强我"",""弱她"",""弱我"",""强她""]","","","","","","","","no","","","","","","","","","SRET","EW_formal","","key","j","18.389830508474578","960","536","自己","混账","Negative","morality","","","","","","","","","","",""
"948","","j","psychophysics","94","286624","0.0-7.0-3.0-0.80","5","5","6","4","3","4","3","4","4","4","5","1","-1","1","0","1","0","2","1","5","4","5","4","4","3","4","3","4","4","6","8","7","7","6","7","7","6","8","4","5","4","6","5","3","6","5","6","5","1","5","4","5","4","6","4","5","5","5","6","3","6","4","5","5","6","5","7","6","5","3","4","5","3","3","4","3","6","3","6","792736654921179138","肖","76","Female","[""好我"",""坏她"",""坏我"",""好她""]","[""强我"",""弱她"",""弱我"",""强她""]","","","","","","","","no","","","","","","","","","SRET","EW_formal","","key","j","18.38095238095238","960","536","自己","阴毒","Negative","morality","","","","","","","","","","",""
"1134","","j","psychophysics","95","288761","0.0-7.0-3.0-0.81","5","5","6","4","3","4","3","4","4","4","5","1","-1","1","0","1","0","2","1","5","4","5","4","4","3","4","3","4","4","6","8","7","7","6","7","7","6","8","4","5","4","6","5","3","6","5","6","5","1","5","4","5","4","6","4","5","5","5","6","3","6","4","5","5","6","5","7","6","5","3","4","5","3","3","4","3","6","3","6","792736654921179138","肖","76","Female","[""好我"",""坏她"",""坏我"",""好她""]","[""强我"",""弱她"",""弱我"",""强她""]","","","","","","","","no","","","","","","","","","SRET","EW_formal","","key","j","19.90566037735849","960","536","自己","迟钝","Negative","ability","","","","","","","","","","",""
"1285","","j","psychophysics","96","291049","0.0-7.0-3.0-0.82","5","5","6","4","3","4","3","4","4","4","5","1","-1","1","0","1","0","2","1","5","4","5","4","4","3","4","3","4","4","6","8","7","7","6","7","7","6","8","4","5","4","6","5","3","6","5","6","5","1","5","4","5","4","6","4","5","5","5","6","3","6","4","5","5","6","5","7","6","5","3","4","5","3","3","4","3","6","3","6","792736654921179138","肖","76","Female","[""好我"",""坏她"",""坏我"",""好她""]","[""强我"",""弱她"",""弱我"",""强她""]","","","","","","","","no","","","","","","","","","SRET","EW_formal","","key","j","17.734375","960","536","朋友","逞强","Negative","ability","","","","","","","","","","",""
"1127","","j","psychophysics","97","293178","0.0-7.0-3.0-0.83","5","5","6","4","3","4","3","4","4","4","5","1","-1","1","0","1","0","2","1","5","4","5","4","4","3","4","3","4","4","6","8","7","7","6","7","7","6","8","4","5","4","6","5","3","6","5","6","5","1","5","4","5","4","6","4","5","5","5","6","3","6","4","5","5","6","5","7","6","5","3","4","5","3","3","4","3","6","3","6","792736654921179138","肖","76","Female","[""好我"",""坏她"",""坏我"",""好她""]","[""强我"",""弱她"",""弱我"",""强她""]","","","","","","","","no","","","","","","","","","SRET","EW_formal","","key","j","18.189655172413794","960","536","自己","短视","Negative","ability","","","","","","","","","","",""
"1012","","j","psychophysics","98","295195","0.0-7.0-3.0-0.84","5","5","6","4","3","4","3","4","4","4","5","1","-1","1","0","1","0","2","1","5","4","5","4","4","3","4","3","4","4","6","8","7","7","6","7","7","6","8","4","5","4","6","5","3","6","5","6","5","1","5","4","5","4","6","4","5","5","5","6","3","6","4","5","5","6","5","7","6","5","3","4","5","3","3","4","3","6","3","6","792736654921179138","肖","76","Female","[""好我"",""坏她"",""坏我"",""好她""]","[""强我"",""弱她"",""弱我"",""强她""]","","","","","","","","no","","","","","","","","","SRET","EW_formal","","key","j","18.51851851851852","960","536","自己","缓慢","Negative","ability","","","","","","","","","","",""
"1050","","f","psychophysics","99","297246","0.0-7.0-3.0-0.85","5","5","6","4","3","4","3","4","4","4","5","1","-1","1","0","1","0","2","1","5","4","5","4","4","3","4","3","4","4","6","8","7","7","6","7","7","6","8","4","5","4","6","5","3","6","5","6","5","1","5","4","5","4","6","4","5","5","5","6","3","6","4","5","5","6","5","7","6","5","3","4","5","3","3","4","3","6","3","6","792736654921179138","肖","76","Female","[""好我"",""坏她"",""坏我"",""好她""]","[""强我"",""弱她"",""弱我"",""强她""]","","","","","","","","yes","","","","","","","","","SRET","EW_formal","","key","f","19.611650485436893","960","536","朋友","素养","Positive","morality","","","","","","","","","","",""
"1047","","f","psychophysics","100","299295","0.0-7.0-3.0-0.86","5","5","6","4","3","4","3","4","4","4","5","1","-1","1","0","1","0","2","1","5","4","5","4","4","3","4","3","4","4","6","8","7","7","6","7","7","6","8","4","5","4","6","5","3","6","5","6","5","1","5","4","5","4","6","4","5","5","5","6","3","6","4","5","5","6","5","7","6","5","3","4","5","3","3","4","3","6","3","6","792736654921179138","肖","76","Female","[""好我"",""坏她"",""坏我"",""好她""]","[""强我"",""弱她"",""弱我"",""强她""]","","","","","","","","yes","","","","","","","","","SRET","EW_formal","","key","f","20.606060606060606","960","536","自己","主见","Positive","ability","","","","","","","","","","",""
"946","","j","psychophysics","101","301243","0.0-7.0-3.0-0.87","5","5","6","4","3","4","3","4","4","4","5","1","-1","1","0","1","0","2","1","5","4","5","4","4","3","4","3","4","4","6","8","7","7","6","7","7","6","8","4","5","4","6","5","3","6","5","6","5","1","5","4","5","4","6","4","5","5","5","6","3","6","4","5","5","6","5","7","6","5","3","4","5","3","3","4","3","6","3","6","792736654921179138","肖","76","Female","[""好我"",""坏她"",""坏我"",""好她""]","[""强我"",""弱她"",""弱我"",""强她""]","","","","","","","","no","","","","","","","","","SRET","EW_formal","","key","j","17.94392523364486","960","536","朋友","低俗","Negative","morality","","","","","","","","","","",""
"4515","
    <p><div style='color:white;font-size:35px; line-height:20px;'>计算任务</div></p><br>
    <p><div style='color:red;font-size:25px; line-height:20px;'>接下来，您将看到一些四则运算题，<b>请从键盘选择 0-9 进行反应。</b></div></p>
    <p><div style='color:red;font-size:25px; line-height:20px;'>请尽可能快地进行计算，计算的速度和正确率将影响报酬的发放。</div></p>
    <p><div class='footer' style='color:white;font-size:25px; line-height:20px;'>如果对本实验还有不清楚之处，请立即向实验员咨询。</p><p style='color:white;font-size:25px; line-height:20px;'>如果您明白了规则：</p><p style='color:white;font-size:22px; line-height:20px;'>请按 继续 进入练习</p>
    </div>
    ","0","html-button-response","102","305761","0.0-7.0-4.0","5","5","6","4","3","4","3","4","4","4","5","1","-1","1","0","1","0","2","1","5","4","5","4","4","3","4","3","4","4","6","8","7","7","6","7","7","6","8","4","5","4","6","5","3","6","5","6","5","1","5","4","5","4","6","4","5","5","5","6","3","6","4","5","5","6","5","7","6","5","3","4","5","3","3","4","3","6","3","6","792736654921179138","肖","76","Female","[""好我"",""坏她"",""坏我"",""好她""]","[""强我"",""弱她"",""弱我"",""强她""]","","","","","","","","","","","","","","","","","SRET_math","math_instructions","Wed Jan 31 2024 14:21:43 GMT+0800 (中国标准时间)","","","","","","","","","","","","","","","","","","","",""
"2113","","3","psychophysics","103","307890","0.0-7.0-5.0-0.0","5","5","6","4","3","4","3","4","4","4","5","1","-1","1","0","1","0","2","1","5","4","5","4","4","3","4","3","4","4","6","8","7","7","6","7","7","6","8","4","5","4","6","5","3","6","5","6","5","1","5","4","5","4","6","4","5","5","5","6","3","6","4","5","5","6","5","7","6","5","3","4","5","3","3","4","3","6","3","6","792736654921179138","肖","76","Female","[""好我"",""坏她"",""坏我"",""好她""]","[""强我"",""弱她"",""弱我"",""强她""]","","","","","","","","3","","","","","","","","","SRET","SRET_math_calculate","","key","3","21.632653061224488","960","536","","","","","3+0= ?","3","1","","","","","","","",""
"2173","","9","psychophysics","104","310070","0.0-7.0-5.0-0.1","5","5","6","4","3","4","3","4","4","4","5","1","-1","1","0","1","0","2","1","5","4","5","4","4","3","4","3","4","4","6","8","7","7","6","7","7","6","8","4","5","4","6","5","3","6","5","6","5","1","5","4","5","4","6","4","5","5","5","6","3","6","4","5","5","6","5","7","6","5","3","4","5","3","3","4","3","6","3","6","792736654921179138","肖","76","Female","[""好我"",""坏她"",""坏我"",""好她""]","[""强我"",""弱她"",""弱我"",""强她""]","","","","","","","","9","","","","","","","","","SRET","SRET_math_calculate","","key","9","17.85123966942149","960","536","","","","","18/2= ?","9","1","","","","","","","",""
"2146","","8","psychophysics","105","312223","0.0-7.0-5.0-0.2","5","5","6","4","3","4","3","4","4","4","5","1","-1","1","0","1","0","2","1","5","4","5","4","4","3","4","3","4","4","6","8","7","7","6","7","7","6","8","4","5","4","6","5","3","6","5","6","5","1","5","4","5","4","6","4","5","5","5","6","3","6","4","5","5","6","5","7","6","5","3","4","5","3","3","4","3","6","3","6","792736654921179138","肖","76","Female","[""好我"",""坏她"",""坏我"",""好她""]","[""强我"",""弱她"",""弱我"",""强她""]","","","","","","","","8","","","","","","","","","SRET","SRET_math_calculate","","key","8","19.363636363636363","960","536","","","","","8*1= ?","8","1","","","","","","","",""
"1904","","8","psychophysics","106","314137","0.0-7.0-5.0-0.3","5","5","6","4","3","4","3","4","4","4","5","1","-1","1","0","1","0","2","1","5","4","5","4","4","3","4","3","4","4","6","8","7","7","6","7","7","6","8","4","5","4","6","5","3","6","5","6","5","1","5","4","5","4","6","4","5","5","5","6","3","6","4","5","5","6","5","7","6","5","3","4","5","3","3","4","3","6","3","6","792736654921179138","肖","76","Female","[""好我"",""坏她"",""坏我"",""好她""]","[""强我"",""弱她"",""弱我"",""强她""]","","","","","","","","8","","","","","","","","","SRET","SRET_math_calculate","","key","8","19.6875","960","536","","","","","1*8= ?","8","1","","","","","","","",""
"2471","","2","psychophysics","107","316621","0.0-7.0-5.0-0.4","5","5","6","4","3","4","3","4","4","4","5","1","-1","1","0","1","0","2","1","5","4","5","4","4","3","4","3","4","4","6","8","7","7","6","7","7","6","8","4","5","4","6","5","3","6","5","6","5","1","5","4","5","4","6","4","5","5","5","6","3","6","4","5","5","6","5","7","6","5","3","4","5","3","3","4","3","6","3","6","792736654921179138","肖","76","Female","[""好我"",""坏她"",""坏我"",""好她""]","[""强我"",""弱她"",""弱我"",""强她""]","","","","","","","","2","","","","","","","","","SRET","SRET_math_calculate","","key","2","20.24590163934426","960","536","","","","","19-17= ?","2","1","","","","","","","",""
"1986","","1","psychophysics","108","318613","0.0-7.0-5.0-0.5","5","5","6","4","3","4","3","4","4","4","5","1","-1","1","0","1","0","2","1","5","4","5","4","4","3","4","3","4","4","6","8","7","7","6","7","7","6","8","4","5","4","6","5","3","6","5","6","5","1","5","4","5","4","6","4","5","5","5","6","3","6","4","5","5","6","5","7","6","5","3","4","5","3","3","4","3","6","3","6","792736654921179138","肖","76","Female","[""好我"",""坏她"",""坏我"",""好她""]","[""强我"",""弱她"",""弱我"",""强她""]","","","","","","","","1","","","","","","","","","SRET","SRET_math_calculate","","key","1","18.14814814814815","960","536","","","","","9-8= ?","1","1","","","","","","","",""
"1949","","5","psychophysics","109","320574","0.0-7.0-5.0-0.6","5","5","6","4","3","4","3","4","4","4","5","1","-1","1","0","1","0","2","1","5","4","5","4","4","3","4","3","4","4","6","8","7","7","6","7","7","6","8","4","5","4","6","5","3","6","5","6","5","1","5","4","5","4","6","4","5","5","5","6","3","6","4","5","5","6","5","7","6","5","3","4","5","3","3","4","3","6","3","6","792736654921179138","肖","76","Female","[""好我"",""坏她"",""坏我"",""好她""]","[""强我"",""弱她"",""弱我"",""强她""]","","","","","","","","5","","","","","","","","","SRET","SRET_math_calculate","","key","5","18.932038834951456","960","536","","","","","8-3= ? ","5","1","","","","","","","",""
"1985","","9","psychophysics","110","322566","0.0-7.0-5.0-0.7","5","5","6","4","3","4","3","4","4","4","5","1","-1","1","0","1","0","2","1","5","4","5","4","4","3","4","3","4","4","6","8","7","7","6","7","7","6","8","4","5","4","6","5","3","6","5","6","5","1","5","4","5","4","6","4","5","5","5","6","3","6","4","5","5","6","5","7","6","5","3","4","5","3","3","4","3","6","3","6","792736654921179138","肖","76","Female","[""好我"",""坏她"",""坏我"",""好她""]","[""强我"",""弱她"",""弱我"",""强她""]","","","","","","","","9","","","","","","","","","SRET","SRET_math_calculate","","key","9","17.43362831858407","960","536","","","","","4+5= ?","9","1","","","","","","","",""
"2058","","1","psychophysics","111","324631","0.0-7.0-5.0-0.8","5","5","6","4","3","4","3","4","4","4","5","1","-1","1","0","1","0","2","1","5","4","5","4","4","3","4","3","4","4","6","8","7","7","6","7","7","6","8","4","5","4","6","5","3","6","5","6","5","1","5","4","5","4","6","4","5","5","5","6","3","6","4","5","5","6","5","7","6","5","3","4","5","3","3","4","3","6","3","6","792736654921179138","肖","76","Female","[""好我"",""坏她"",""坏我"",""好她""]","[""强我"",""弱她"",""弱我"",""强她""]","","","","","","","","1","","","","","","","","","SRET","SRET_math_calculate","","key","1","18.214285714285715","960","536","","","","","12/12= ?","1","1","","","","","","","",""
"2077","","8","psychophysics","112","326714","0.0-7.0-5.0-0.9","5","5","6","4","3","4","3","4","4","4","5","1","-1","1","0","1","0","2","1","5","4","5","4","4","3","4","3","4","4","6","8","7","7","6","7","7","6","8","4","5","4","6","5","3","6","5","6","5","1","5","4","5","4","6","4","5","5","5","6","3","6","4","5","5","6","5","7","6","5","3","4","5","3","3","4","3","6","3","6","792736654921179138","肖","76","Female","[""好我"",""坏她"",""坏我"",""好她""]","[""强我"",""弱她"",""弱我"",""强她""]","","","","","","","","8","","","","","","","","","SRET","SRET_math_calculate","","key","8","17.25","960","536","","","","","2+6= ?","8","1","","","","","","","",""
"2014","","3","psychophysics","113","328368","0.0-7.0-5.0-0.10","5","5","6","4","3","4","3","4","4","4","5","1","-1","1","0","1","0","2","1","5","4","5","4","4","3","4","3","4","4","6","8","7","7","6","7","7","6","8","4","5","4","6","5","3","6","5","6","5","1","5","4","5","4","6","4","5","5","5","6","3","6","4","5","5","6","5","7","6","5","3","4","5","3","3","4","3","6","3","6","792736654921179138","肖","76","Female","[""好我"",""坏她"",""坏我"",""好她""]","[""强我"",""弱她"",""弱我"",""强她""]","","","","","","","","3","","","","","","","","","SRET","SRET_math_calculate","","key","3","18.01801801801802","960","536","","","","","9-6= ?","3","1","","","","","","","",""
"2096","","7","psychophysics","114","330471","0.0-7.0-5.0-0.11","5","5","6","4","3","4","3","4","4","4","5","1","-1","1","0","1","0","2","1","5","4","5","4","4","3","4","3","4","4","6","8","7","7","6","7","7","6","8","4","5","4","6","5","3","6","5","6","5","1","5","4","5","4","6","4","5","5","5","6","3","6","4","5","5","6","5","7","6","5","3","4","5","3","3","4","3","6","3","6","792736654921179138","肖","76","Female","[""好我"",""坏她"",""坏我"",""好她""]","[""强我"",""弱她"",""弱我"",""强她""]","","","","","","","","7","","","","","","","","","SRET","SRET_math_calculate","","key","7","19.62264150943396","960","536","","","","","12-5= ?","7","1","","","","","","","",""
"2200","","0","psychophysics","115","332683","0.0-7.0-5.0-0.12","5","5","6","4","3","4","3","4","4","4","5","1","-1","1","0","1","0","2","1","5","4","5","4","4","3","4","3","4","4","6","8","7","7","6","7","7","6","8","4","5","4","6","5","3","6","5","6","5","1","5","4","5","4","6","4","5","5","5","6","3","6","4","5","5","6","5","7","6","5","3","4","5","3","3","4","3","6","3","6","792736654921179138","肖","76","Female","[""好我"",""坏她"",""坏我"",""好她""]","[""强我"",""弱她"",""弱我"",""强她""]","","","","","","","","0","","","","","","","","","SRET","SRET_math_calculate","","key","0","17.661290322580644","960","536","","","","","32-32= ?","0","1","","","","","","","",""
"2052","","6","psychophysics","116","334741","0.0-7.0-5.0-0.13","5","5","6","4","3","4","3","4","4","4","5","1","-1","1","0","1","0","2","1","5","4","5","4","4","3","4","3","4","4","6","8","7","7","6","7","7","6","8","4","5","4","6","5","3","6","5","6","5","1","5","4","5","4","6","4","5","5","5","6","3","6","4","5","5","6","5","7","6","5","3","4","5","3","3","4","3","6","3","6","792736654921179138","肖","76","Female","[""好我"",""坏她"",""坏我"",""好她""]","[""强我"",""弱她"",""弱我"",""强她""]","","","","","","","","6","","","","","","","","","SRET","SRET_math_calculate","","key","6","18.125","960","536","","","","","3+3= ?","6","1","","","","","","","",""
"2253","","7","psychophysics","117","337002","0.0-7.0-5.0-0.14","5","5","6","4","3","4","3","4","4","4","5","1","-1","1","0","1","0","2","1","5","4","5","4","4","3","4","3","4","4","6","8","7","7","6","7","7","6","8","4","5","4","6","5","3","6","5","6","5","1","5","4","5","4","6","4","5","5","5","6","3","6","4","5","5","6","5","7","6","5","3","4","5","3","3","4","3","6","3","6","792736654921179138","肖","76","Female","[""好我"",""坏她"",""坏我"",""好她""]","[""强我"",""弱她"",""弱我"",""强她""]","","","","","","","","7","","","","","","","","","SRET","SRET_math_calculate","","key","7","17.983870967741936","960","536","","","","","13-6= ?","7","1","","","","","","","",""
"2108","","7","psychophysics","118","339123","0.0-7.0-5.0-0.15","5","5","6","4","3","4","3","4","4","4","5","1","-1","1","0","1","0","2","1","5","4","5","4","4","3","4","3","4","4","6","8","7","7","6","7","7","6","8","4","5","4","6","5","3","6","5","6","5","1","5","4","5","4","6","4","5","5","5","6","3","6","4","5","5","6","5","7","6","5","3","4","5","3","3","4","3","6","3","6","792736654921179138","肖","76","Female","[""好我"",""坏她"",""坏我"",""好她""]","[""强我"",""弱她"",""弱我"",""强她""]","","","","","","","","7","","","","","","","","","SRET","SRET_math_calculate","","key","7","19.35185185185185","960","536","","","","","9-2= ?","7","1","","","","","","","",""
"1925","","5","psychophysics","119","341059","0.0-7.0-5.0-0.16","5","5","6","4","3","4","3","4","4","4","5","1","-1","1","0","1","0","2","1","5","4","5","4","4","3","4","3","4","4","6","8","7","7","6","7","7","6","8","4","5","4","6","5","3","6","5","6","5","1","5","4","5","4","6","4","5","5","5","6","3","6","4","5","5","6","5","7","6","5","3","4","5","3","3","4","3","6","3","6","792736654921179138","肖","76","Female","[""好我"",""坏她"",""坏我"",""好她""]","[""强我"",""弱她"",""弱我"",""强她""]","","","","","","","","5","","","","","","","","","SRET","SRET_math_calculate","","key","5","17.706422018348626","960","536","","","","","2+3= ?","5","1","","","","","","","",""
"2057","","2","psychophysics","120","343123","0.0-7.0-5.0-0.17","5","5","6","4","3","4","3","4","4","4","5","1","-1","1","0","1","0","2","1","5","4","5","4","4","3","4","3","4","4","6","8","7","7","6","7","7","6","8","4","5","4","6","5","3","6","5","6","5","1","5","4","5","4","6","4","5","5","5","6","3","6","4","5","5","6","5","7","6","5","3","4","5","3","3","4","3","6","3","6","792736654921179138","肖","76","Female","[""好我"",""坏她"",""坏我"",""好她""]","[""强我"",""弱她"",""弱我"",""强她""]","","","","","","","","2","","","","","","","","","SRET","SRET_math_calculate","","key","2","18.214285714285715","960","536","","","","","8-6= ?","2","1","","","","","","","",""
"1988","","5","psychophysics","121","345118","0.0-7.0-5.0-0.18","5","5","6","4","3","4","3","4","4","4","5","1","-1","1","0","1","0","2","1","5","4","5","4","4","3","4","3","4","4","6","8","7","7","6","7","7","6","8","4","5","4","6","5","3","6","5","6","5","1","5","4","5","4","6","4","5","5","5","6","3","6","4","5","5","6","5","7","6","5","3","4","5","3","3","4","3","6","3","6","792736654921179138","肖","76","Female","[""好我"",""坏她"",""坏我"",""好她""]","[""强我"",""弱她"",""弱我"",""强她""]","","","","","","","","5","","","","","","","","","SRET","SRET_math_calculate","","key","5","18.857142857142858","960","536","","","","","9-4= ?","5","1","","","","","","","",""
"1956","","8","psychophysics","122","347081","0.0-7.0-5.0-0.19","5","5","6","4","3","4","3","4","4","4","5","1","-1","1","0","1","0","2","1","5","4","5","4","4","3","4","3","4","4","6","8","7","7","6","7","7","6","8","4","5","4","6","5","3","6","5","6","5","1","5","4","5","4","6","4","5","5","5","6","3","6","4","5","5","6","5","7","6","5","3","4","5","3","3","4","3","6","3","6","792736654921179138","肖","76","Female","[""好我"",""坏她"",""坏我"",""好她""]","[""强我"",""弱她"",""弱我"",""强她""]","","","","","","","","8","","","","","","","","","SRET","SRET_math_calculate","","key","8","17.706422018348626","960","536","","","","","13-5= ?","8","1","","","","","","","",""
"1987","","4","psychophysics","123","349079","0.0-7.0-5.0-0.20","5","5","6","4","3","4","3","4","4","4","5","1","-1","1","0","1","0","2","1","5","4","5","4","4","3","4","3","4","4","6","8","7","7","6","7","7","6","8","4","5","4","6","5","3","6","5","6","5","1","5","4","5","4","6","4","5","5","5","6","3","6","4","5","5","6","5","7","6","5","3","4","5","3","3","4","3","6","3","6","792736654921179138","肖","76","Female","[""好我"",""坏她"",""坏我"",""好她""]","[""强我"",""弱她"",""弱我"",""强她""]","","","","","","","","4","","","","","","","","","SRET","SRET_math_calculate","","key","4","17.678571428571427","960","536","","","","","9-5= ?","4","1","","","","","","","",""
"2340","","5","psychophysics","124","351425","0.0-7.0-5.0-0.21","5","5","6","4","3","4","3","4","4","4","5","1","-1","1","0","1","0","2","1","5","4","5","4","4","3","4","3","4","4","6","8","7","7","6","7","7","6","8","4","5","4","6","5","3","6","5","6","5","1","5","4","5","4","6","4","5","5","5","6","3","6","4","5","5","6","5","7","6","5","3","4","5","3","3","4","3","6","3","6","792736654921179138","肖","76","Female","[""好我"",""坏她"",""坏我"",""好她""]","[""强我"",""弱她"",""弱我"",""强她""]","","","","","","","","5","","","","","","","","","SRET","SRET_math_calculate","","key","5","18.26771653543307","960","536","","","","","12-7= ?","5","1","","","","","","","",""
"2075","","8","psychophysics","125","353507","0.0-7.0-5.0-0.22","5","5","6","4","3","4","3","4","4","4","5","1","-1","1","0","1","0","2","1","5","4","5","4","4","3","4","3","4","4","6","8","7","7","6","7","7","6","8","4","5","4","6","5","3","6","5","6","5","1","5","4","5","4","6","4","5","5","5","6","3","6","4","5","5","6","5","7","6","5","3","4","5","3","3","4","3","6","3","6","792736654921179138","肖","76","Female","[""好我"",""坏她"",""坏我"",""好她""]","[""强我"",""弱她"",""弱我"",""强她""]","","","","","","","","8","","","","","","","","","SRET","SRET_math_calculate","","key","8","17.982456140350877","960","536","","","","","4*2= ?","8","1","","","","","","","",""
"2578","","9","psychophysics","126","356098","0.0-7.0-5.0-0.23","5","5","6","4","3","4","3","4","4","4","5","1","-1","1","0","1","0","2","1","5","4","5","4","4","3","4","3","4","4","6","8","7","7","6","7","7","6","8","4","5","4","6","5","3","6","5","6","5","1","5","4","5","4","6","4","5","5","5","6","3","6","4","5","5","6","5","7","6","5","3","4","5","3","3","4","3","6","3","6","792736654921179138","肖","76","Female","[""好我"",""坏她"",""坏我"",""好她""]","[""强我"",""弱她"",""弱我"",""强她""]","","","","","","","","9","","","","","","","","","SRET","SRET_math_calculate","","key","9","18.41726618705036","960","536","","","","","43-34= ?","9","1","","","","","","","",""
"2064","","5","psychophysics","127","358171","0.0-7.0-5.0-0.24","5","5","6","4","3","4","3","4","4","4","5","1","-1","1","0","1","0","2","1","5","4","5","4","4","3","4","3","4","4","6","8","7","7","6","7","7","6","8","4","5","4","6","5","3","6","5","6","5","1","5","4","5","4","6","4","5","5","5","6","3","6","4","5","5","6","5","7","6","5","3","4","5","3","3","4","3","6","3","6","792736654921179138","肖","76","Female","[""好我"",""坏她"",""坏我"",""好她""]","[""强我"",""弱她"",""弱我"",""强她""]","","","","","","","","5","","","","","","","","","SRET","SRET_math_calculate","","key","5","19.245283018867923","960","536","","","","","8-4= ?","4","0","","","","","","","",""
"2133","","8","psychophysics","128","360317","0.0-7.0-5.0-0.25","5","5","6","4","3","4","3","4","4","4","5","1","-1","1","0","1","0","2","1","5","4","5","4","4","3","4","3","4","4","6","8","7","7","6","7","7","6","8","4","5","4","6","5","3","6","5","6","5","1","5","4","5","4","6","4","5","5","5","6","3","6","4","5","5","6","5","7","6","5","3","4","5","3","3","4","3","6","3","6","792736654921179138","肖","76","Female","[""好我"",""坏她"",""坏我"",""好她""]","[""强我"",""弱她"",""弱我"",""强她""]","","","","","","","","8","","","","","","","","","SRET","SRET_math_calculate","","key","8","18.135593220338983","960","536","","","","","56/7= ?","8","1","","","","","","","",""
"2549","","3","psychophysics","129","362873","0.0-7.0-5.0-0.26","5","5","6","4","3","4","3","4","4","4","5","1","-1","1","0","1","0","2","1","5","4","5","4","4","3","4","3","4","4","6","8","7","7","6","7","7","6","8","4","5","4","6","5","3","6","5","6","5","1","5","4","5","4","6","4","5","5","5","6","3","6","4","5","5","6","5","7","6","5","3","4","5","3","3","4","3","6","3","6","792736654921179138","肖","76","Female","[""好我"",""坏她"",""坏我"",""好她""]","[""强我"",""弱她"",""弱我"",""强她""]","","","","","","","","3","","","","","","","","","SRET","SRET_math_calculate","","key","3","17.448275862068964","960","536","","","","","6/2= ?","3","1","","","","","","","",""
"2910","","5","psychophysics","130","365794","0.0-7.0-5.0-0.27","5","5","6","4","3","4","3","4","4","4","5","1","-1","1","0","1","0","2","1","5","4","5","4","4","3","4","3","4","4","6","8","7","7","6","7","7","6","8","4","5","4","6","5","3","6","5","6","5","1","5","4","5","4","6","4","5","5","5","6","3","6","4","5","5","6","5","7","6","5","3","4","5","3","3","4","3","6","3","6","792736654921179138","肖","76","Female","[""好我"",""坏她"",""坏我"",""好她""]","[""强我"",""弱她"",""弱我"",""强她""]","","","","","","","","5","","","","","","","","","SRET","SRET_math_calculate","","key","5","18.471337579617835","960","536","","","","","4+1= ?","5","1","","","","","","","",""
"3255","","9","psychophysics","131","369057","0.0-7.0-5.0-0.28","5","5","6","4","3","4","3","4","4","4","5","1","-1","1","0","1","0","2","1","5","4","5","4","4","3","4","3","4","4","6","8","7","7","6","7","7","6","8","4","5","4","6","5","3","6","5","6","5","1","5","4","5","4","6","4","5","5","5","6","3","6","4","5","5","6","5","7","6","5","3","4","5","3","3","4","3","6","3","6","792736654921179138","肖","76","Female","[""好我"",""坏她"",""坏我"",""好她""]","[""强我"",""弱她"",""弱我"",""强她""]","","","","","","","","9","","","","","","","","","SRET","SRET_math_calculate","","key","9","17.704918032786885","960","536","","","","","1+8= ?","9","1","","","","","","","",""
"2074","","3","psychophysics","132","371140","0.0-7.0-5.0-0.29","5","5","6","4","3","4","3","4","4","4","5","1","-1","1","0","1","0","2","1","5","4","5","4","4","3","4","3","4","4","6","8","7","7","6","7","7","6","8","4","5","4","6","5","3","6","5","6","5","1","5","4","5","4","6","4","5","5","5","6","3","6","4","5","5","6","5","7","6","5","3","4","5","3","3","4","3","6","3","6","792736654921179138","肖","76","Female","[""好我"",""坏她"",""坏我"",""好她""]","[""强我"",""弱她"",""弱我"",""强她""]","","","","","","","","3","","","","","","","","","SRET","SRET_math_calculate","","key","3","17.54237288135593","960","536","","","","","8-5= ?","3","1","","","","","","","",""
"1933","","8","psychophysics","133","373080","0.0-7.0-5.0-0.30","5","5","6","4","3","4","3","4","4","4","5","1","-1","1","0","1","0","2","1","5","4","5","4","4","3","4","3","4","4","6","8","7","7","6","7","7","6","8","4","5","4","6","5","3","6","5","6","5","1","5","4","5","4","6","4","5","5","5","6","3","6","4","5","5","6","5","7","6","5","3","4","5","3","3","4","3","6","3","6","792736654921179138","肖","76","Female","[""好我"",""坏她"",""坏我"",""好她""]","[""强我"",""弱她"",""弱我"",""强她""]","","","","","","","","8","","","","","","","","","SRET","SRET_math_calculate","","key","8","19.393939393939394","960","536","","","","","7+1= ?","8","1","","","","","","","",""
"1890","","6","psychophysics","134","374977","0.0-7.0-5.0-0.31","5","5","6","4","3","4","3","4","4","4","5","1","-1","1","0","1","0","2","1","5","4","5","4","4","3","4","3","4","4","6","8","7","7","6","7","7","6","8","4","5","4","6","5","3","6","5","6","5","1","5","4","5","4","6","4","5","5","5","6","3","6","4","5","5","6","5","7","6","5","3","4","5","3","3","4","3","6","3","6","792736654921179138","肖","76","Female","[""好我"",""坏她"",""坏我"",""好她""]","[""强我"",""弱她"",""弱我"",""强她""]","","","","","","","","6","","","","","","","","","SRET","SRET_math_calculate","","key","6","18.514851485148515","960","536","","","","","2+4= ?","6","1","","","","","","","",""
"2014","","4","psychophysics","135","377000","0.0-7.0-5.0-0.32","5","5","6","4","3","4","3","4","4","4","5","1","-1","1","0","1","0","2","1","5","4","5","4","4","3","4","3","4","4","6","8","7","7","6","7","7","6","8","4","5","4","6","5","3","6","5","6","5","1","5","4","5","4","6","4","5","5","5","6","3","6","4","5","5","6","5","7","6","5","3","4","5","3","3","4","3","6","3","6","792736654921179138","肖","76","Female","[""好我"",""坏她"",""坏我"",""好她""]","[""强我"",""弱她"",""弱我"",""强她""]","","","","","","","","4","","","","","","","","","SRET","SRET_math_calculate","","key","4","18.272727272727273","960","536","","","","","3+1= ?","4","1","","","","","","","",""
"2160","","3","psychophysics","136","379173","0.0-7.0-5.0-0.33","5","5","6","4","3","4","3","4","4","4","5","1","-1","1","0","1","0","2","1","5","4","5","4","4","3","4","3","4","4","6","8","7","7","6","7","7","6","8","4","5","4","6","5","3","6","5","6","5","1","5","4","5","4","6","4","5","5","5","6","3","6","4","5","5","6","5","7","6","5","3","4","5","3","3","4","3","6","3","6","792736654921179138","肖","76","Female","[""好我"",""坏她"",""坏我"",""好她""]","[""强我"",""弱她"",""弱我"",""强她""]","","","","","","","","3","","","","","","","","","SRET","SRET_math_calculate","","key","3","18.305084745762713","960","536","","","","","21/7=  ?","3","1","","","","","","","",""
"2002","","0","psychophysics","137","381183","0.0-7.0-5.0-0.34","5","5","6","4","3","4","3","4","4","4","5","1","-1","1","0","1","0","2","1","5","4","5","4","4","3","4","3","4","4","6","8","7","7","6","7","7","6","8","4","5","4","6","5","3","6","5","6","5","1","5","4","5","4","6","4","5","5","5","6","3","6","4","5","5","6","5","7","6","5","3","4","5","3","3","4","3","6","3","6","792736654921179138","肖","76","Female","[""好我"",""坏她"",""坏我"",""好她""]","[""强我"",""弱她"",""弱我"",""强她""]","","","","","","","","0","","","","","","","","","SRET","SRET_math_calculate","","key","0","17.92792792792793","960","536","","","","","9-9= ?","0","1","","","","","","","",""
"2094","","8","psychophysics","138","383288","0.0-7.0-5.0-0.35","5","5","6","4","3","4","3","4","4","4","5","1","-1","1","0","1","0","2","1","5","4","5","4","4","3","4","3","4","4","6","8","7","7","6","7","7","6","8","4","5","4","6","5","3","6","5","6","5","1","5","4","5","4","6","4","5","5","5","6","3","6","4","5","5","6","5","7","6","5","3","4","5","3","3","4","3","6","3","6","792736654921179138","肖","76","Female","[""好我"",""坏她"",""坏我"",""好她""]","[""强我"",""弱她"",""弱我"",""强她""]","","","","","","","","8","","","","","","","","","SRET","SRET_math_calculate","","key","8","17.77777777777778","960","536","","","","","50-42= ?","8","1","","","","","","","",""
"1895","","6","psychophysics","139","385192","0.0-7.0-5.0-0.36","5","5","6","4","3","4","3","4","4","4","5","1","-1","1","0","1","0","2","1","5","4","5","4","4","3","4","3","4","4","6","8","7","7","6","7","7","6","8","4","5","4","6","5","3","6","5","6","5","1","5","4","5","4","6","4","5","5","5","6","3","6","4","5","5","6","5","7","6","5","3","4","5","3","3","4","3","6","3","6","792736654921179138","肖","76","Female","[""好我"",""坏她"",""坏我"",""好她""]","[""强我"",""弱她"",""弱我"",""强她""]","","","","","","","","6","","","","","","","","","SRET","SRET_math_calculate","","key","6","18.9","960","536","","","","","9-3= ?","6","1","","","","","","","",""
"2233","","7","psychophysics","140","387087","0.0-7.0-5.0-0.37","5","5","6","4","3","4","3","4","4","4","5","1","-1","1","0","1","0","2","1","5","4","5","4","4","3","4","3","4","4","6","8","7","7","6","7","7","6","8","4","5","4","6","5","3","6","5","6","5","1","5","4","5","4","6","4","5","5","5","6","3","6","4","5","5","6","5","7","6","5","3","4","5","3","3","4","3","6","3","6","792736654921179138","肖","76","Female","[""好我"",""坏她"",""坏我"",""好她""]","[""强我"",""弱她"",""弱我"",""强她""]","","","","","","","","7","","","","","","","","","SRET","SRET_math_calculate","","key","7","17.61904761904762","960","536","","","","","7*1=  ?","7","1","","","","","","","",""
"1877","","5","psychophysics","141","388977","0.0-7.0-5.0-0.38","5","5","6","4","3","4","3","4","4","4","5","1","-1","1","0","1","0","2","1","5","4","5","4","4","3","4","3","4","4","6","8","7","7","6","7","7","6","8","4","5","4","6","5","3","6","5","6","5","1","5","4","5","4","6","4","5","5","5","6","3","6","4","5","5","6","5","7","6","5","3","4","5","3","3","4","3","6","3","6","792736654921179138","肖","76","Female","[""好我"",""坏她"",""坏我"",""好她""]","[""强我"",""弱她"",""弱我"",""强她""]","","","","","","","","5","","","","","","","","","SRET","SRET_math_calculate","","key","5","18.613861386138613","960","536","","","","","10-5= ?","5","1","","","","","","","",""
"2064","","9","psychophysics","142","391048","0.0-7.0-5.0-0.39","5","5","6","4","3","4","3","4","4","4","5","1","-1","1","0","1","0","2","1","5","4","5","4","4","3","4","3","4","4","6","8","7","7","6","7","7","6","8","4","5","4","6","5","3","6","5","6","5","1","5","4","5","4","6","4","5","5","5","6","3","6","4","5","5","6","5","7","6","5","3","4","5","3","3","4","3","6","3","6","792736654921179138","肖","76","Female","[""好我"",""坏她"",""坏我"",""好她""]","[""强我"",""弱她"",""弱我"",""强她""]","","","","","","","","9","","","","","","","","","SRET","SRET_math_calculate","","key","9","19.615384615384617","960","536","","","","","81/9= ?","9","1","","","","","","","",""
