"rt","stimulus","response","trial_type","trial_index","time_elapsed","internal_node_id","swb_1","swb_2","swb_3","swb_4","swb_5","LOT_1","LOT_2","LOT_3","LOT_4","LOT_5","LOT_6","IPC_1","IPC_2","IPC_3","IPC_4","IPC_5","IPC_6","IPC_7","IPC_8","MorIden_1","MorIden_2","MorIden_3","MorIden_4","MorIden_5","MorIden_6","MorIden_7","MorIden_8","MorIden_9","MorIden_10","moralSeImag_1","moralSeImag_2","moralSeImag_3","moralSeImag_4","moralSeImag_5","moralSeImag_6","moralSeImag_7","moralSeImag_8","moralSeImag_9","sde_1","sde_2","sde_3","sde_4","sde_5","sde_6","sde_7","sde_8","sde_9","sde_10","trap2","sde_11","sde_12","sde_13","sde_14","sde_15","sde_16","sde_17","sde_18","sde_19","sde_20","IM_1","IM_2","IM_3","IM_4","IM_5","IM_6","IM_7","IM_8","IM_9","IM_10","IM_11","IM_12","IM_13","IM_14","IM_15","IM_16","IM_17","IM_18","IM_19","IM_20","subj_idx","friend_name","ParticipantID","Sex","Word","Word2","value","success","timeout","failed_images","failed_audio","failed_video","user_agent","responses","item_order","radio_event_ids","radio_event_times","key_event_times","mouse_event_times","straightlining","zigzagging","honeypot","task_id","screen_id","time_stamp","response_type","key_press","avg_frame_time","center_x","center_y","person","word","valence","domain","math","correct_response","correct","status","view_history","identity","duration","Image","condition","question_order","trap2_item"
"27571","
   <p><div style='color:white; font-size: 25px'>您好，欢迎参加本次实验。</div></p>
   <p><div style='color:white; font-size: 25px'>为充分保障您的权利，请确保您已经知晓并同意《参与实验同意书》以及《数据公开知情同意书》。</div></p>
   <p><div style='color:white; font-size: 25px'>如果您未见过上述内容，请咨询实验员。</div></p>
   <p style='color:white; font-size: 25px'>如果您选择继续实验，则表示您已经清楚两份知情同意书的内容并同意。</p>
   <p><div style = ""color: pink;font-size:30px;"">请确保您记得day0的实验编号，您将在本次实验输入该编号，若您忘记，请咨询实验员后作答。</div></p>
   <p><div style = ""color:lightblue;font-size:25px;"">请您尽可能认真地作答，我们将依据您在各问卷和按键任务中的作答质量发放报酬。</div></p>
   <p> <div style = ""color: green""><按空格键至下页></div> </p>
   "," ","html-keyboard-response","0","27574","0.0-0.0","5","6","6","5","3","4","4","4","4","4","4","1","-1","0","1","0","0","0","1","5","4","5","5","4","3","4","5","4","4","5","6","4","6","4","4","6","4","6","6","6","6","6","6","5","6","3","6","6","1","5","4","3","4","6","6","6","6","6","6","3","5","3","3","3","6","6","5","5","5","5","5","6","5","5","6","3","2","5","5","802899041120821250","潘","23","Female","[""坏她"",""好她"",""坏我"",""好我""]","[""弱她"",""强她"",""弱我"",""强我""]","","","","","","","","","","","","","","","","","","","","","","","","","","","","","","","","","","","","","","",""
"","","","call-function","1","27575","0.0-1.0-0.0","5","6","6","5","3","4","4","4","4","4","4","1","-1","0","1","0","0","0","1","5","4","5","5","4","3","4","5","4","4","5","6","4","6","4","4","6","4","6","6","6","6","6","6","5","6","3","6","6","1","5","4","3","4","6","6","6","6","6","6","3","5","3","3","3","6","6","5","5","5","5","5","6","5","5","6","3","2","5","5","802899041120821250","潘","23","Female","[""坏她"",""好她"",""坏我"",""好我""]","[""弱她"",""强她"",""弱我"",""强我""]","","","","","","","","","","","","","","","","","","","","","","","","","","","","","","","","","","","","","","",""
"11602","","[{""name"":""Sex"",""value"":""1""},{""name"":""friend_name"",""value"":""潘""},{""name"":""ParticipantID"",""value"":""23""}]","survey-html-form","2","39178","0.0-1.0-1.0","5","6","6","5","3","4","4","4","4","4","4","1","-1","0","1","0","0","0","1","5","4","5","5","4","3","4","5","4","4","5","6","4","6","4","4","6","4","6","6","6","6","6","6","5","6","3","6","6","1","5","4","3","4","6","6","6","6","6","6","3","5","3","3","3","6","6","5","5","5","5","5","6","5","5","6","3","2","5","5","802899041120821250","潘","23","Female","[""坏她"",""好她"",""坏我"",""好我""]","[""弱她"",""强她"",""弱我"",""强我""]","","","","","","","","","","","","","","","","","","","","","","","","","","","","","","","","","","","","","","",""
"","","","preload","3","39575","0.0-2.0","5","6","6","5","3","4","4","4","4","4","4","1","-1","0","1","0","0","0","1","5","4","5","5","4","3","4","5","4","4","5","6","4","6","4","4","6","4","6","6","6","6","6","6","5","6","3","6","6","1","5","4","3","4","6","6","6","6","6","6","3","5","3","3","3","6","6","5","5","5","5","5","6","5","5","6","3","2","5","5","802899041120821250","潘","23","Female","[""坏她"",""好她"",""坏我"",""好我""]","[""弱她"",""强她"",""弱我"",""强我""]","","true","false","[]","[]","[]","","","","","","","","","","","","","","","","","","","","","","","","","","","","","","","","",""
"","","","fullscreen","4","49643","0.0-3.0","5","6","6","5","3","4","4","4","4","4","4","1","-1","0","1","0","0","0","1","5","4","5","5","4","3","4","5","4","4","5","6","4","6","4","4","6","4","6","6","6","6","6","6","5","6","3","6","6","1","5","4","3","4","6","6","6","6","6","6","3","5","3","3","3","6","6","5","5","5","5","5","6","5","5","6","3","2","5","5","802899041120821250","潘","23","Female","[""坏她"",""好她"",""坏我"",""好我""]","[""弱她"",""强她"",""弱我"",""强我""]","","true","","","","","","","","","","","","","","","","","","","","","","","","","","","","","","","","","","","","",""
"10353","","{""Q01"":""5"",""Q02"":""6"",""Q03"":""6"",""Q04"":""5"",""Q05"":""3""}","survey-template","5","60000","0.0-4.0","5","6","6","5","3","4","4","4","4","4","4","1","-1","0","1","0","0","0","1","5","4","5","5","4","3","4","5","4","4","5","6","4","6","4","4","6","4","6","6","6","6","6","6","5","6","3","6","6","1","5","4","3","4","6","6","6","6","6","6","3","5","3","3","3","6","6","5","5","5","5","5","6","5","5","6","3","2","5","5","802899041120821250","潘","23","Female","[""坏她"",""好她"",""坏我"",""好我""]","[""弱她"",""强她"",""弱我"",""强我""]","","","","","","","","{""Q01"":""5"",""Q02"":""6"",""Q03"":""6"",""Q04"":""5"",""Q05"":""3""}","[0,1,2,3,4]","[""Q01"",""Q02"",""Q03"",""Q04"",""Q05""]","[3013,4760,5788,7226,9508]","[]","[3013,4760,5788,7226,9508,10353]","0.4","0.5","0","","","","","","","","","","","","","","","","","","","","","","",""
"25518","","{""Q01"":""4"",""Q02"":""4"",""Q03"":""4"",""Q04"":""4"",""Q05"":""4"",""Q06"":""4""}","survey-template","6","85520","0.0-5.0","5","6","6","5","3","4","4","4","4","4","4","1","-1","0","1","0","0","0","1","5","4","5","5","4","3","4","5","4","4","5","6","4","6","4","4","6","4","6","6","6","6","6","6","5","6","3","6","6","1","5","4","3","4","6","6","6","6","6","6","3","5","3","3","3","6","6","5","5","5","5","5","6","5","5","6","3","2","5","5","802899041120821250","潘","23","Female","[""坏她"",""好她"",""坏我"",""好我""]","[""弱她"",""强她"",""弱我"",""强我""]","","","","","","","","{""Q01"":""4"",""Q02"":""4"",""Q03"":""4"",""Q04"":""4"",""Q05"":""4"",""Q06"":""4""}","[0,1,2,3,4,5]","[""Q01"",""Q02"",""Q03"",""Q04"",""Q05"",""Q06""]","[9409,13360,14573,18291,20597,24155]","[]","[4300,9409,11624,13360,14573,18291,19383,20597,24155,25518]","0.5","0","0","","","","","","","","","","","","","","","","","","","","","","",""
"24881","","{""Q01"":""1"",""Q02"":""-1"",""Q03"":""0"",""Q04"":""1"",""Q05"":""0"",""Q06"":""0"",""Q07"":""0"",""Q08"":""1""}","survey-template","7","110406","0.0-6.0","5","6","6","5","3","4","4","4","4","4","4","1","-1","0","1","0","0","0","1","5","4","5","5","4","3","4","5","4","4","5","6","4","6","4","4","6","4","6","6","6","6","6","6","5","6","3","6","6","1","5","4","3","4","6","6","6","6","6","6","3","5","3","3","3","6","6","5","5","5","5","5","6","5","5","6","3","2","5","5","802899041120821250","潘","23","Female","[""坏她"",""好她"",""坏我"",""好我""]","[""弱她"",""强她"",""弱我"",""强我""]","","","","","","","","{""Q01"":""1"",""Q02"":""-1"",""Q03"":""0"",""Q04"":""1"",""Q05"":""0"",""Q06"":""0"",""Q07"":""0"",""Q08"":""1""}","[0,1,2,3,4,5,6,7]","[""Q01"",""Q02"",""Q03"",""Q04"",""Q05"",""Q06"",""Q07"",""Q08""]","[5733,10865,12733,15337,17435,18647,22504,23998]","[]","[4202,5733,10865,12733,15337,17435,18647,20108,21261,22504,23998,24881]","0.5","0.5714285714285714","0","","","","","","","","","","","","","","","","","","","","","","",""
"14009","
    <p><div style='color:white;font-size:35px; line-height:20px;'>词汇评估任务</div></p><br>
    <p><div style='color:white;font-size:25px; line-height:20px;'>请再次回忆该亲密的朋友，你们至少2年前就认识了，并且最近2年经常见面。</div></p>
    <p><div style='color:white;font-size:25px; line-height:20px;'>在本实验中，您将会看到一些形容词。</div></p>
    <p><div style='color:yellow;font-size:25px; line-height:20px;'>您的任务是判断这些形容词是否符合对您自己或您的朋友的描述。</div></p><p style='font-size:35px'>符合按<span style=""color:lightgreen""> j 键</span>，不符合按<span style=""color:red""> f 键</span></p>","0","html-button-response","8","124417","0.0-7.0-0.0","5","6","6","5","3","4","4","4","4","4","4","1","-1","0","1","0","0","0","1","5","4","5","5","4","3","4","5","4","4","5","6","4","6","4","4","6","4","6","6","6","6","6","6","5","6","3","6","6","1","5","4","3","4","6","6","6","6","6","6","3","5","3","3","3","6","6","5","5","5","5","5","6","5","5","6","3","2","5","5","802899041120821250","潘","23","Female","[""坏她"",""好她"",""坏我"",""好我""]","[""弱她"",""强她"",""弱我"",""强我""]","","","","","","","","","","","","","","","","","SRET_EW","EW_instructions","Sun Jan 28 2024 20:49:43 GMT+0800 (中国标准时间)","","","","","","","","","","","","","","","","","","","",""
"null","","null","psychophysics","9","127475","0.0-7.0-1.0-0.0","5","6","6","5","3","4","4","4","4","4","4","1","-1","0","1","0","0","0","1","5","4","5","5","4","3","4","5","4","4","5","6","4","6","4","4","6","4","6","6","6","6","6","6","5","6","3","6","6","1","5","4","3","4","6","6","6","6","6","6","3","5","3","3","3","6","6","5","5","5","5","5","6","5","5","6","3","2","5","5","802899041120821250","潘","23","Female","[""坏她"",""好她"",""坏我"",""好我""]","[""弱她"",""强她"",""弱我"",""强我""]","","","","","","","","","","","","","","","","","SRET_EW","EW_practice","","key","null","16.675628415300544","768","428","自己","刻板","Negative","ability","","","","","","","","","","",""
"745","","j","psychophysics","10","129240","0.0-7.0-1.0-0.1","5","6","6","5","3","4","4","4","4","4","4","1","-1","0","1","0","0","0","1","5","4","5","5","4","3","4","5","4","4","5","6","4","6","4","4","6","4","6","6","6","6","6","6","5","6","3","6","6","1","5","4","3","4","6","6","6","6","6","6","3","5","3","3","3","6","6","5","5","5","5","5","6","5","5","6","3","2","5","5","802899041120821250","潘","23","Female","[""坏她"",""好她"",""坏我"",""好我""]","[""弱她"",""强她"",""弱我"",""强我""]","","","","","","","","yes","","","","","","","","","SRET_EW","EW_practice","","key","j","16.684952380952502","768","428","自己","严谨","Positive","ability","","","","","","","","","","",""
"512","","j","psychophysics","11","130766","0.0-7.0-1.0-0.2","5","6","6","5","3","4","4","4","4","4","4","1","-1","0","1","0","0","0","1","5","4","5","5","4","3","4","5","4","4","5","6","4","6","4","4","6","4","6","6","6","6","6","6","5","6","3","6","6","1","5","4","3","4","6","6","6","6","6","6","3","5","3","3","3","6","6","5","5","5","5","5","6","5","5","6","3","2","5","5","802899041120821250","潘","23","Female","[""坏她"",""好她"",""坏我"",""好我""]","[""弱她"",""强她"",""弱我"",""强我""]","","","","","","","","yes","","","","","","","","","SRET_EW","EW_practice","","key","j","16.68511111111115","768","428","朋友","忠实","Positive","morality","","","","","","","","","","",""
"598","","f","psychophysics","12","132381","0.0-7.0-1.0-0.3","5","6","6","5","3","4","4","4","4","4","4","1","-1","0","1","0","0","0","1","5","4","5","5","4","3","4","5","4","4","5","6","4","6","4","4","6","4","6","6","6","6","6","6","5","6","3","6","6","1","5","4","3","4","6","6","6","6","6","6","3","5","3","3","3","6","6","5","5","5","5","5","6","5","5","6","3","2","5","5","802899041120821250","潘","23","Female","[""坏她"",""好她"",""坏我"",""好我""]","[""弱她"",""强她"",""弱我"",""强我""]","","","","","","","","no","","","","","","","","","SRET_EW","EW_practice","","key","f","16.685000000000098","768","428","朋友","徇私","Negative","morality","","","","","","","","","","",""
"7435","
    <p><div style='color:white;font-size:35px; line-height:20px;'>请您再次阅读实验要求</div></p><br>
    <p><div style='color:white;font-size:25px; line-height:20px;'>请回忆某一个亲密的朋友，你们至少2年前就认识了，并且最近2年经常见面。</div></p>
    <p><div style='color:white;font-size:25px; line-height:20px;'>在本实验中，您将会看到一些形容词。</div></p>
    <p><div style='color:yellow;font-size:25px; line-height:20px;'>您的任务是判断这些形容词是否符合对您自己或您的朋友的描述。</div></p>
    <p><div class='footer' style='font-size:25px; line-height:20px;'>如果对本实验还有不清楚之处，请立即向实验员咨询。</p><p style='font-size:25px; line-height:20px;'>如果您明白了规则：</p><p style='font-size:22px; line-height:20px;'>请按 继续 进入正式实验</p>
    </div>
    <p style='font-size:35px'>符合按<span style=""color:lightgreen""> j 键</span>，不符合按<span style=""color:red""> f 键</span></p>","0","html-button-response","13","139816","0.0-7.0-2.0","5","6","6","5","3","4","4","4","4","4","4","1","-1","0","1","0","0","0","1","5","4","5","5","4","3","4","5","4","4","5","6","4","6","4","4","6","4","6","6","6","6","6","6","5","6","3","6","6","1","5","4","3","4","6","6","6","6","6","6","3","5","3","3","3","6","6","5","5","5","5","5","6","5","5","6","3","2","5","5","802899041120821250","潘","23","Female","[""坏她"",""好她"",""坏我"",""好我""]","[""弱她"",""强她"",""弱我"",""强我""]","","","","","","","","","","","","","","","","","SRET_EW","prac_instructions","Sun Jan 28 2024 20:49:43 GMT+0800 (中国标准时间)","","","","","","","","","","","","","","","","","","","",""
"578","","f","psychophysics","14","141514","0.0-7.0-3.0-0.0","5","6","6","5","3","4","4","4","4","4","4","1","-1","0","1","0","0","0","1","5","4","5","5","4","3","4","5","4","4","5","6","4","6","4","4","6","4","6","6","6","6","6","6","5","6","3","6","6","1","5","4","3","4","6","6","6","6","6","6","3","5","3","3","3","6","6","5","5","5","5","5","6","5","5","6","3","2","5","5","802899041120821250","潘","23","Female","[""坏她"",""好她"",""坏我"",""好我""]","[""弱她"",""强她"",""弱我"",""强我""]","","","","","","","","no","","","","","","","","","SRET","EW_formal","","key","f","16.67386138613859","768","428","自己","说谎","Negative","morality","","","","","","","","","","",""
"763","","j","psychophysics","15","143296","0.0-7.0-3.0-0.1","5","6","6","5","3","4","4","4","4","4","4","1","-1","0","1","0","0","0","1","5","4","5","5","4","3","4","5","4","4","5","6","4","6","4","4","6","4","6","6","6","6","6","6","5","6","3","6","6","1","5","4","3","4","6","6","6","6","6","6","3","5","3","3","3","6","6","5","5","5","5","5","6","5","5","6","3","2","5","5","802899041120821250","潘","23","Female","[""坏她"",""好她"",""坏我"",""好我""]","[""弱她"",""强她"",""弱我"",""强我""]","","","","","","","","yes","","","","","","","","","SRET","EW_formal","","key","j","16.68509433962287","768","428","朋友","迷糊","Negative","ability","","","","","","","","","","",""
"608","","j","psychophysics","16","144912","0.0-7.0-3.0-0.2","5","6","6","5","3","4","4","4","4","4","4","1","-1","0","1","0","0","0","1","5","4","5","5","4","3","4","5","4","4","5","6","4","6","4","4","6","4","6","6","6","6","6","6","5","6","3","6","6","1","5","4","3","4","6","6","6","6","6","6","3","5","3","3","3","6","6","5","5","5","5","5","6","5","5","6","3","2","5","5","802899041120821250","潘","23","Female","[""坏她"",""好她"",""坏我"",""好我""]","[""弱她"",""强她"",""弱我"",""强我""]","","","","","","","","yes","","","","","","","","","SRET","EW_formal","","key","j","16.68520833333332","768","428","自己","坚贞","Positive","morality","","","","","","","","","","",""
"565","","j","psychophysics","17","146490","0.0-7.0-3.0-0.3","5","6","6","5","3","4","4","4","4","4","4","1","-1","0","1","0","0","0","1","5","4","5","5","4","3","4","5","4","4","5","6","4","6","4","4","6","4","6","6","6","6","6","6","5","6","3","6","6","1","5","4","3","4","6","6","6","6","6","6","3","5","3","3","3","6","6","5","5","5","5","5","6","5","5","6","3","2","5","5","802899041120821250","潘","23","Female","[""坏她"",""好她"",""坏我"",""好我""]","[""弱她"",""强她"",""弱我"",""强我""]","","","","","","","","yes","","","","","","","","","SRET","EW_formal","","key","j","16.685161290322593","768","428","朋友","务实","Positive","ability","","","","","","","","","","",""
"883","","j","psychophysics","18","148387","0.0-7.0-3.0-0.4","5","6","6","5","3","4","4","4","4","4","4","1","-1","0","1","0","0","0","1","5","4","5","5","4","3","4","5","4","4","5","6","4","6","4","4","6","4","6","6","6","6","6","6","5","6","3","6","6","1","5","4","3","4","6","6","6","6","6","6","3","5","3","3","3","6","6","5","5","5","5","5","6","5","5","6","3","2","5","5","802899041120821250","潘","23","Female","[""坏她"",""好她"",""坏我"",""好我""]","[""弱她"",""强她"",""弱我"",""强我""]","","","","","","","","yes","","","","","","","","","SRET","EW_formal","","key","j","16.685132743362946","768","428","自己","笨蛋","Negative","ability","","","","","","","","","","",""
"653","","j","psychophysics","19","150056","0.0-7.0-3.0-0.5","5","6","6","5","3","4","4","4","4","4","4","1","-1","0","1","0","0","0","1","5","4","5","5","4","3","4","5","4","4","5","6","4","6","4","4","6","4","6","6","6","6","6","6","5","6","3","6","6","1","5","4","3","4","6","6","6","6","6","6","3","5","3","3","3","6","6","5","5","5","5","5","6","5","5","6","3","2","5","5","802899041120821250","潘","23","Female","[""坏她"",""好她"",""坏我"",""好我""]","[""弱她"",""强她"",""弱我"",""强我""]","","","","","","","","yes","","","","","","","","","SRET","EW_formal","","key","j","16.685050505050576","768","428","自己","中用","Positive","ability","","","","","","","","","","",""
"546","","f","psychophysics","20","151690","0.0-7.0-3.0-0.6","5","6","6","5","3","4","4","4","4","4","4","1","-1","0","1","0","0","0","1","5","4","5","5","4","3","4","5","4","4","5","6","4","6","4","4","6","4","6","6","6","6","6","6","5","6","3","6","6","1","5","4","3","4","6","6","6","6","6","6","3","5","3","3","3","6","6","5","5","5","5","5","6","5","5","6","3","2","5","5","802899041120821250","潘","23","Female","[""坏她"",""好她"",""坏我"",""好我""]","[""弱她"",""强她"",""弱我"",""强我""]","","","","","","","","no","","","","","","","","","SRET","EW_formal","","key","f","16.68494845360827","768","428","自己","不良","Negative","morality","","","","","","","","","","",""
"585","","j","psychophysics","21","153279","0.0-7.0-3.0-0.7","5","6","6","5","3","4","4","4","4","4","4","1","-1","0","1","0","0","0","1","5","4","5","5","4","3","4","5","4","4","5","6","4","6","4","4","6","4","6","6","6","6","6","6","5","6","3","6","6","1","5","4","3","4","6","6","6","6","6","6","3","5","3","3","3","6","6","5","5","5","5","5","6","5","5","6","3","2","5","5","802899041120821250","潘","23","Female","[""坏她"",""好她"",""坏我"",""好我""]","[""弱她"",""强她"",""弱我"",""强我""]","","","","","","","","yes","","","","","","","","","SRET","EW_formal","","key","j","16.685106382978663","768","428","自己","博学","Positive","ability","","","","","","","","","","",""
"959","","f","psychophysics","22","155252","0.0-7.0-3.0-0.8","5","6","6","5","3","4","4","4","4","4","4","1","-1","0","1","0","0","0","1","5","4","5","5","4","3","4","5","4","4","5","6","4","6","4","4","6","4","6","6","6","6","6","6","5","6","3","6","6","1","5","4","3","4","6","6","6","6","6","6","3","5","3","3","3","6","6","5","5","5","5","5","6","5","5","6","3","2","5","5","802899041120821250","潘","23","Female","[""坏她"",""好她"",""坏我"",""好我""]","[""弱她"",""强她"",""弱我"",""强我""]","","","","","","","","no","","","","","","","","","SRET","EW_formal","","key","f","16.68508474576293","768","428","自己","愚蠢","Negative","ability","","","","","","","","","","",""
"683","","j","psychophysics","23","156976","0.0-7.0-3.0-0.9","5","6","6","5","3","4","4","4","4","4","4","1","-1","0","1","0","0","0","1","5","4","5","5","4","3","4","5","4","4","5","6","4","6","4","4","6","4","6","6","6","6","6","6","5","6","3","6","6","1","5","4","3","4","6","6","6","6","6","6","3","5","3","3","3","6","6","5","5","5","5","5","6","5","5","6","3","2","5","5","802899041120821250","潘","23","Female","[""坏她"",""好她"",""坏我"",""好我""]","[""弱她"",""强她"",""弱我"",""强我""]","","","","","","","","yes","","","","","","","","","SRET","EW_formal","","key","j","16.68509803921573","768","428","自己","守法","Positive","morality","","","","","","","","","","",""
"612","","f","psychophysics","24","158605","0.0-7.0-3.0-0.10","5","6","6","5","3","4","4","4","4","4","4","1","-1","0","1","0","0","0","1","5","4","5","5","4","3","4","5","4","4","5","6","4","6","4","4","6","4","6","6","6","6","6","6","5","6","3","6","6","1","5","4","3","4","6","6","6","6","6","6","3","5","3","3","3","6","6","5","5","5","5","5","6","5","5","6","3","2","5","5","802899041120821250","潘","23","Female","[""坏她"",""好她"",""坏我"",""好我""]","[""弱她"",""强她"",""弱我"",""强我""]","","","","","","","","no","","","","","","","","","SRET","EW_formal","","key","f","16.685154639175174","768","428","自己","背叛","Negative","morality","","","","","","","","","","",""
"669","","f","psychophysics","25","160283","0.0-7.0-3.0-0.11","5","6","6","5","3","4","4","4","4","4","4","1","-1","0","1","0","0","0","1","5","4","5","5","4","3","4","5","4","4","5","6","4","6","4","4","6","4","6","6","6","6","6","6","5","6","3","6","6","1","5","4","3","4","6","6","6","6","6","6","3","5","3","3","3","6","6","5","5","5","5","5","6","5","5","6","3","2","5","5","802899041120821250","潘","23","Female","[""坏她"",""好她"",""坏我"",""好我""]","[""弱她"",""强她"",""弱我"",""强我""]","","","","","","","","no","","","","","","","","","SRET","EW_formal","","key","f","16.685252525252785","768","428","自己","奸险","Negative","morality","","","","","","","","","","",""
"593","","j","psychophysics","26","161937","0.0-7.0-3.0-0.12","5","6","6","5","3","4","4","4","4","4","4","1","-1","0","1","0","0","0","1","5","4","5","5","4","3","4","5","4","4","5","6","4","6","4","4","6","4","6","6","6","6","6","6","5","6","3","6","6","1","5","4","3","4","6","6","6","6","6","6","3","5","3","3","3","6","6","5","5","5","5","5","6","5","5","6","3","2","5","5","802899041120821250","潘","23","Female","[""坏她"",""好她"",""坏我"",""好我""]","[""弱她"",""强她"",""弱我"",""强我""]","","","","","","","","yes","","","","","","","","","SRET","EW_formal","","key","j","16.685102040816172","768","428","朋友","善心","Positive","morality","","","","","","","","","","",""
"573","","f","psychophysics","27","163517","0.0-7.0-3.0-0.13","5","6","6","5","3","4","4","4","4","4","4","1","-1","0","1","0","0","0","1","5","4","5","5","4","3","4","5","4","4","5","6","4","6","4","4","6","4","6","6","6","6","6","6","5","6","3","6","6","1","5","4","3","4","6","6","6","6","6","6","3","5","3","3","3","6","6","5","5","5","5","5","6","5","5","6","3","2","5","5","802899041120821250","潘","23","Female","[""坏她"",""好她"",""坏我"",""好我""]","[""弱她"",""强她"",""弱我"",""强我""]","","","","","","","","no","","","","","","","","","SRET","EW_formal","","key","f","16.685106382978663","768","428","朋友","无知","Negative","ability","","","","","","","","","","",""
"711","","j","psychophysics","28","165235","0.0-7.0-3.0-0.14","5","6","6","5","3","4","4","4","4","4","4","1","-1","0","1","0","0","0","1","5","4","5","5","4","3","4","5","4","4","5","6","4","6","4","4","6","4","6","6","6","6","6","6","5","6","3","6","6","1","5","4","3","4","6","6","6","6","6","6","3","5","3","3","3","6","6","5","5","5","5","5","6","5","5","6","3","2","5","5","802899041120821250","潘","23","Female","[""坏她"",""好她"",""坏我"",""好我""]","[""弱她"",""强她"",""弱我"",""强我""]","","","","","","","","yes","","","","","","","","","SRET","EW_formal","","key","j","16.68509803921573","768","428","朋友","坦荡","Positive","morality","","","","","","","","","","",""
"715","","f","psychophysics","29","166959","0.0-7.0-3.0-0.15","5","6","6","5","3","4","4","4","4","4","4","1","-1","0","1","0","0","0","1","5","4","5","5","4","3","4","5","4","4","5","6","4","6","4","4","6","4","6","6","6","6","6","6","5","6","3","6","6","1","5","4","3","4","6","6","6","6","6","6","3","5","3","3","3","6","6","5","5","5","5","5","6","5","5","6","3","2","5","5","802899041120821250","潘","23","Female","[""坏她"",""好她"",""坏我"",""好我""]","[""弱她"",""强她"",""弱我"",""强我""]","","","","","","","","no","","","","","","","","","SRET","EW_formal","","key","f","16.68509803921573","768","428","朋友","逞能","Negative","ability","","","","","","","","","","",""
"820","","f","psychophysics","30","168794","0.0-7.0-3.0-0.16","5","6","6","5","3","4","4","4","4","4","4","1","-1","0","1","0","0","0","1","5","4","5","5","4","3","4","5","4","4","5","6","4","6","4","4","6","4","6","6","6","6","6","6","5","6","3","6","6","1","5","4","3","4","6","6","6","6","6","6","3","5","3","3","3","6","6","5","5","5","5","5","6","5","5","6","3","2","5","5","802899041120821250","潘","23","Female","[""坏她"",""好她"",""坏我"",""好我""]","[""弱她"",""强她"",""弱我"",""强我""]","","","","","","","","no","","","","","","","","","SRET","EW_formal","","key","f","16.6849541284404","768","428","朋友","高明","Positive","ability","","","","","","","","","","",""
"692","","j","psychophysics","31","170506","0.0-7.0-3.0-0.17","5","6","6","5","3","4","4","4","4","4","4","1","-1","0","1","0","0","0","1","5","4","5","5","4","3","4","5","4","4","5","6","4","6","4","4","6","4","6","6","6","6","6","6","5","6","3","6","6","1","5","4","3","4","6","6","6","6","6","6","3","5","3","3","3","6","6","5","5","5","5","5","6","5","5","6","3","2","5","5","802899041120821250","潘","23","Female","[""坏她"",""好她"",""坏我"",""好我""]","[""弱她"",""强她"",""弱我"",""强我""]","","","","","","","","yes","","","","","","","","","SRET","EW_formal","","key","j","16.68509803921573","768","428","自己","守信","Positive","morality","","","","","","","","","","",""
"654","","f","psychophysics","32","172164","0.0-7.0-3.0-0.18","5","6","6","5","3","4","4","4","4","4","4","1","-1","0","1","0","0","0","1","5","4","5","5","4","3","4","5","4","4","5","6","4","6","4","4","6","4","6","6","6","6","6","6","5","6","3","6","6","1","5","4","3","4","6","6","6","6","6","6","3","5","3","3","3","6","6","5","5","5","5","5","6","5","5","6","3","2","5","5","802899041120821250","潘","23","Female","[""坏她"",""好她"",""坏我"",""好我""]","[""弱她"",""强她"",""弱我"",""强我""]","","","","","","","","no","","","","","","","","","SRET","EW_formal","","key","f","16.68510204081647","768","428","自己","下流","Negative","morality","","","","","","","","","","",""
"648","","f","psychophysics","33","173822","0.0-7.0-3.0-0.19","5","6","6","5","3","4","4","4","4","4","4","1","-1","0","1","0","0","0","1","5","4","5","5","4","3","4","5","4","4","5","6","4","6","4","4","6","4","6","6","6","6","6","6","5","6","3","6","6","1","5","4","3","4","6","6","6","6","6","6","3","5","3","3","3","6","6","5","5","5","5","5","6","5","5","6","3","2","5","5","802899041120821250","潘","23","Female","[""坏她"",""好她"",""坏我"",""好我""]","[""弱她"",""强她"",""弱我"",""强我""]","","","","","","","","no","","","","","","","","","SRET","EW_formal","","key","f","16.685050505050576","768","428","自己","无私","Positive","morality","","","","","","","","","","",""
"729","","f","psychophysics","34","175552","0.0-7.0-3.0-0.20","5","6","6","5","3","4","4","4","4","4","4","1","-1","0","1","0","0","0","1","5","4","5","5","4","3","4","5","4","4","5","6","4","6","4","4","6","4","6","6","6","6","6","6","5","6","3","6","6","1","5","4","3","4","6","6","6","6","6","6","3","5","3","3","3","6","6","5","5","5","5","5","6","5","5","6","3","2","5","5","802899041120821250","潘","23","Female","[""坏她"",""好她"",""坏我"",""好我""]","[""弱她"",""强她"",""弱我"",""强我""]","","","","","","","","no","","","","","","","","","SRET","EW_formal","","key","f","16.68509803921573","768","428","朋友","伪善","Negative","morality","","","","","","","","","","",""
"777","","j","psychophysics","35","177340","0.0-7.0-3.0-0.21","5","6","6","5","3","4","4","4","4","4","4","1","-1","0","1","0","0","0","1","5","4","5","5","4","3","4","5","4","4","5","6","4","6","4","4","6","4","6","6","6","6","6","6","5","6","3","6","6","1","5","4","3","4","6","6","6","6","6","6","3","5","3","3","3","6","6","5","5","5","5","5","6","5","5","6","3","2","5","5","802899041120821250","潘","23","Female","[""坏她"",""好她"",""坏我"",""好我""]","[""弱她"",""强她"",""弱我"",""强我""]","","","","","","","","yes","","","","","","","","","SRET","EW_formal","","key","j","16.684905660377414","768","428","自己","高尚","Positive","morality","","","","","","","","","","",""
"1056","","f","psychophysics","36","179400","0.0-7.0-3.0-0.22","5","6","6","5","3","4","4","4","4","4","4","1","-1","0","1","0","0","0","1","5","4","5","5","4","3","4","5","4","4","5","6","4","6","4","4","6","4","6","6","6","6","6","6","5","6","3","6","6","1","5","4","3","4","6","6","6","6","6","6","3","5","3","3","3","6","6","5","5","5","5","5","6","5","5","6","3","2","5","5","802899041120821250","潘","23","Female","[""坏她"",""好她"",""坏我"",""好我""]","[""弱她"",""强她"",""弱我"",""强我""]","","","","","","","","no","","","","","","","","","SRET","EW_formal","","key","f","16.685040650406343","768","428","朋友","懂行","Positive","ability","","","","","","","","","","",""
"925","","j","psychophysics","37","181329","0.0-7.0-3.0-0.23","5","6","6","5","3","4","4","4","4","4","4","1","-1","0","1","0","0","0","1","5","4","5","5","4","3","4","5","4","4","5","6","4","6","4","4","6","4","6","6","6","6","6","6","5","6","3","6","6","1","5","4","3","4","6","6","6","6","6","6","3","5","3","3","3","6","6","5","5","5","5","5","6","5","5","6","3","2","5","5","802899041120821250","潘","23","Female","[""坏她"",""好她"",""坏我"",""好我""]","[""弱她"",""强她"",""弱我"",""强我""]","","","","","","","","yes","","","","","","","","","SRET","EW_formal","","key","j","16.685217391304246","768","428","自己","利落","Positive","ability","","","","","","","","","","",""
"697","","j","psychophysics","38","183032","0.0-7.0-3.0-0.24","5","6","6","5","3","4","4","4","4","4","4","1","-1","0","1","0","0","0","1","5","4","5","5","4","3","4","5","4","4","5","6","4","6","4","4","6","4","6","6","6","6","6","6","5","6","3","6","6","1","5","4","3","4","6","6","6","6","6","6","3","5","3","3","3","6","6","5","5","5","5","5","6","5","5","6","3","2","5","5","802899041120821250","潘","23","Female","[""坏她"",""好她"",""坏我"",""好我""]","[""弱她"",""强她"",""弱我"",""强我""]","","","","","","","","yes","","","","","","","","","SRET","EW_formal","","key","j","16.6851485148516","768","428","朋友","娴熟","Positive","ability","","","","","","","","","","",""
"1170","","j","psychophysics","39","185224","0.0-7.0-3.0-0.25","5","6","6","5","3","4","4","4","4","4","4","1","-1","0","1","0","0","0","1","5","4","5","5","4","3","4","5","4","4","5","6","4","6","4","4","6","4","6","6","6","6","6","6","5","6","3","6","6","1","5","4","3","4","6","6","6","6","6","6","3","5","3","3","3","6","6","5","5","5","5","5","6","5","5","6","3","2","5","5","802899041120821250","潘","23","Female","[""坏她"",""好她"",""坏我"",""好我""]","[""弱她"",""强她"",""弱我"",""强我""]","","","","","","","","yes","","","","","","","","","SRET","EW_formal","","key","j","16.685076923076906","768","428","朋友","聪明","Positive","ability","","","","","","","","","","",""
"598","","f","psychophysics","40","186842","0.0-7.0-3.0-0.26","5","6","6","5","3","4","4","4","4","4","4","1","-1","0","1","0","0","0","1","5","4","5","5","4","3","4","5","4","4","5","6","4","6","4","4","6","4","6","6","6","6","6","6","5","6","3","6","6","1","5","4","3","4","6","6","6","6","6","6","3","5","3","3","3","6","6","5","5","5","5","5","6","5","5","6","3","2","5","5","802899041120821250","潘","23","Female","[""坏她"",""好她"",""坏我"",""好我""]","[""弱她"",""强她"",""弱我"",""强我""]","","","","","","","","no","","","","","","","","","SRET","EW_formal","","key","f","16.68520833333332","768","428","自己","弱智","Negative","ability","","","","","","","","","","",""
"650","","f","psychophysics","41","188494","0.0-7.0-3.0-0.27","5","6","6","5","3","4","4","4","4","4","4","1","-1","0","1","0","0","0","1","5","4","5","5","4","3","4","5","4","4","5","6","4","6","4","4","6","4","6","6","6","6","6","6","5","6","3","6","6","1","5","4","3","4","6","6","6","6","6","6","3","5","3","3","3","6","6","5","5","5","5","5","6","5","5","6","3","2","5","5","802899041120821250","潘","23","Female","[""坏她"",""好她"",""坏我"",""好我""]","[""弱她"",""强她"",""弱我"",""强我""]","","","","","","","","no","","","","","","","","","SRET","EW_formal","","key","f","16.684897959183626","768","428","自己","罪恶","Negative","morality","","","","","","","","","","",""
"661","","j","psychophysics","42","190165","0.0-7.0-3.0-0.28","5","6","6","5","3","4","4","4","4","4","4","1","-1","0","1","0","0","0","1","5","4","5","5","4","3","4","5","4","4","5","6","4","6","4","4","6","4","6","6","6","6","6","6","5","6","3","6","6","1","5","4","3","4","6","6","6","6","6","6","3","5","3","3","3","6","6","5","5","5","5","5","6","5","5","6","3","2","5","5","802899041120821250","潘","23","Female","[""坏她"",""好她"",""坏我"",""好我""]","[""弱她"",""强她"",""弱我"",""强我""]","","","","","","","","yes","","","","","","","","","SRET","EW_formal","","key","j","16.685050505050576","768","428","朋友","好心","Positive","morality","","","","","","","","","","",""
"705","","f","psychophysics","43","191884","0.0-7.0-3.0-0.29","5","6","6","5","3","4","4","4","4","4","4","1","-1","0","1","0","0","0","1","5","4","5","5","4","3","4","5","4","4","5","6","4","6","4","4","6","4","6","6","6","6","6","6","5","6","3","6","6","1","5","4","3","4","6","6","6","6","6","6","3","5","3","3","3","6","6","5","5","5","5","5","6","5","5","6","3","2","5","5","802899041120821250","潘","23","Female","[""坏她"",""好她"",""坏我"",""好我""]","[""弱她"",""强她"",""弱我"",""强我""]","","","","","","","","no","","","","","","","","","SRET","EW_formal","","key","f","16.68509803921573","768","428","朋友","歹毒","Negative","morality","","","","","","","","","","",""
"810","","f","psychophysics","44","193715","0.0-7.0-3.0-0.30","5","6","6","5","3","4","4","4","4","4","4","1","-1","0","1","0","0","0","1","5","4","5","5","4","3","4","5","4","4","5","6","4","6","4","4","6","4","6","6","6","6","6","6","5","6","3","6","6","1","5","4","3","4","6","6","6","6","6","6","3","5","3","3","3","6","6","5","5","5","5","5","6","5","5","6","3","2","5","5","802899041120821250","潘","23","Female","[""坏她"",""好她"",""坏我"",""好我""]","[""弱她"",""强她"",""弱我"",""强我""]","","","","","","","","no","","","","","","","","","SRET","EW_formal","","key","f","16.685137614679103","768","428","朋友","黑心","Negative","morality","","","","","","","","","","",""
"904","","f","psychophysics","45","195656","0.0-7.0-3.0-0.31","5","6","6","5","3","4","4","4","4","4","4","1","-1","0","1","0","0","0","1","5","4","5","5","4","3","4","5","4","4","5","6","4","6","4","4","6","4","6","6","6","6","6","6","5","6","3","6","6","1","5","4","3","4","6","6","6","6","6","6","3","5","3","3","3","6","6","5","5","5","5","5","6","5","5","6","3","2","5","5","802899041120821250","潘","23","Female","[""坏她"",""好她"",""坏我"",""好我""]","[""弱她"",""强她"",""弱我"",""强我""]","","","","","","","","no","","","","","","","","","SRET","EW_formal","","key","f","16.684869565217472","768","428","朋友","淡泊","Positive","morality","","","","","","","","","","",""
"1131","","f","psychophysics","46","197804","0.0-7.0-3.0-0.32","5","6","6","5","3","4","4","4","4","4","4","1","-1","0","1","0","0","0","1","5","4","5","5","4","3","4","5","4","4","5","6","4","6","4","4","6","4","6","6","6","6","6","6","5","6","3","6","6","1","5","4","3","4","6","6","6","6","6","6","3","5","3","3","3","6","6","5","5","5","5","5","6","5","5","6","3","2","5","5","802899041120821250","潘","23","Female","[""坏她"",""好她"",""坏我"",""好我""]","[""弱她"",""强她"",""弱我"",""强我""]","","","","","","","","no","","","","","","","","","SRET","EW_formal","","key","f","16.684999999999945","768","428","朋友","诡诈","Negative","morality","","","","","","","","","","",""
"845","","f","psychophysics","47","199659","0.0-7.0-3.0-0.33","5","6","6","5","3","4","4","4","4","4","4","1","-1","0","1","0","0","0","1","5","4","5","5","4","3","4","5","4","4","5","6","4","6","4","4","6","4","6","6","6","6","6","6","5","6","3","6","6","1","5","4","3","4","6","6","6","6","6","6","3","5","3","3","3","6","6","5","5","5","5","5","6","5","5","6","3","2","5","5","802899041120821250","潘","23","Female","[""坏她"",""好她"",""坏我"",""好我""]","[""弱她"",""强她"",""弱我"",""强我""]","","","","","","","","no","","","","","","","","","SRET","EW_formal","","key","f","16.68509090909105","768","428","朋友","无助","Negative","ability","","","","","","","","","","",""
"909","","j","psychophysics","48","201582","0.0-7.0-3.0-0.34","5","6","6","5","3","4","4","4","4","4","4","1","-1","0","1","0","0","0","1","5","4","5","5","4","3","4","5","4","4","5","6","4","6","4","4","6","4","6","6","6","6","6","6","5","6","3","6","6","1","5","4","3","4","6","6","6","6","6","6","3","5","3","3","3","6","6","5","5","5","5","5","6","5","5","6","3","2","5","5","802899041120821250","潘","23","Female","[""坏她"",""好她"",""坏我"",""好我""]","[""弱她"",""强她"",""弱我"",""强我""]","","","","","","","","yes","","","","","","","","","SRET","EW_formal","","key","j","16.685087719298295","768","428","自己","果断","Positive","ability","","","","","","","","","","",""
"712","","f","psychophysics","49","203296","0.0-7.0-3.0-0.35","5","6","6","5","3","4","4","4","4","4","4","1","-1","0","1","0","0","0","1","5","4","5","5","4","3","4","5","4","4","5","6","4","6","4","4","6","4","6","6","6","6","6","6","5","6","3","6","6","1","5","4","3","4","6","6","6","6","6","6","3","5","3","3","3","6","6","5","5","5","5","5","6","5","5","6","3","2","5","5","802899041120821250","潘","23","Female","[""坏她"",""好她"",""坏我"",""好我""]","[""弱她"",""强她"",""弱我"",""强我""]","","","","","","","","no","","","","","","","","","SRET","EW_formal","","key","f","16.68509803921573","768","428","朋友","狡狯","Negative","morality","","","","","","","","","","",""
"1084","","f","psychophysics","50","205388","0.0-7.0-3.0-0.36","5","6","6","5","3","4","4","4","4","4","4","1","-1","0","1","0","0","0","1","5","4","5","5","4","3","4","5","4","4","5","6","4","6","4","4","6","4","6","6","6","6","6","6","5","6","3","6","6","1","5","4","3","4","6","6","6","6","6","6","3","5","3","3","3","6","6","5","5","5","5","5","6","5","5","6","3","2","5","5","802899041120821250","潘","23","Female","[""坏她"",""好她"",""坏我"",""好我""]","[""弱她"",""强她"",""弱我"",""强我""]","","","","","","","","no","","","","","","","","","SRET","EW_formal","","key","f","16.68511999999988","768","428","自己","新手","Negative","ability","","","","","","","","","","",""
"955","","j","psychophysics","51","207351","0.0-7.0-3.0-0.37","5","6","6","5","3","4","4","4","4","4","4","1","-1","0","1","0","0","0","1","5","4","5","5","4","3","4","5","4","4","5","6","4","6","4","4","6","4","6","6","6","6","6","6","5","6","3","6","6","1","5","4","3","4","6","6","6","6","6","6","3","5","3","3","3","6","6","5","5","5","5","5","6","5","5","6","3","2","5","5","802899041120821250","潘","23","Female","[""坏她"",""好她"",""坏我"",""好我""]","[""弱她"",""强她"",""弱我"",""强我""]","","","","","","","","yes","","","","","","","","","SRET","EW_formal","","key","j","16.68499999999993","768","428","朋友","独断","Negative","ability","","","","","","","","","","",""
"1201","","j","psychophysics","52","209564","0.0-7.0-3.0-0.38","5","6","6","5","3","4","4","4","4","4","4","1","-1","0","1","0","0","0","1","5","4","5","5","4","3","4","5","4","4","5","6","4","6","4","4","6","4","6","6","6","6","6","6","5","6","3","6","6","1","5","4","3","4","6","6","6","6","6","6","3","5","3","3","3","6","6","5","5","5","5","5","6","5","5","6","3","2","5","5","802899041120821250","潘","23","Female","[""坏她"",""好她"",""坏我"",""好我""]","[""弱她"",""强她"",""弱我"",""强我""]","","","","","","","","yes","","","","","","","","","SRET","EW_formal","","key","j","16.684999999999878","768","428","自己","忠勇","Positive","morality","","","","","","","","","","",""
"615","","j","psychophysics","53","211189","0.0-7.0-3.0-0.39","5","6","6","5","3","4","4","4","4","4","4","1","-1","0","1","0","0","0","1","5","4","5","5","4","3","4","5","4","4","5","6","4","6","4","4","6","4","6","6","6","6","6","6","5","6","3","6","6","1","5","4","3","4","6","6","6","6","6","6","3","5","3","3","3","6","6","5","5","5","5","5","6","5","5","6","3","2","5","5","802899041120821250","潘","23","Female","[""坏她"",""好她"",""坏我"",""好我""]","[""弱她"",""强她"",""弱我"",""强我""]","","","","","","","","yes","","","","","","","","","SRET","EW_formal","","key","j","16.860631578947466","768","428","自己","敏捷","Positive","ability","","","","","","","","","","",""
"694","","f","psychophysics","54","212888","0.0-7.0-3.0-0.40","5","6","6","5","3","4","4","4","4","4","4","1","-1","0","1","0","0","0","1","5","4","5","5","4","3","4","5","4","4","5","6","4","6","4","4","6","4","6","6","6","6","6","6","5","6","3","6","6","1","5","4","3","4","6","6","6","6","6","6","3","5","3","3","3","6","6","5","5","5","5","5","6","5","5","6","3","2","5","5","802899041120821250","潘","23","Female","[""坏她"",""好她"",""坏我"",""好我""]","[""弱她"",""强她"",""弱我"",""强我""]","","","","","","","","no","","","","","","","","","SRET","EW_formal","","key","f","17.02222222222234","768","428","自己","庸碌","Negative","ability","","","","","","","","","","",""
"860","","f","psychophysics","55","214755","0.0-7.0-3.0-0.41","5","6","6","5","3","4","4","4","4","4","4","1","-1","0","1","0","0","0","1","5","4","5","5","4","3","4","5","4","4","5","6","4","6","4","4","6","4","6","6","6","6","6","6","5","6","3","6","6","1","5","4","3","4","6","6","6","6","6","6","3","5","3","3","3","6","6","5","5","5","5","5","6","5","5","6","3","2","5","5","802899041120821250","潘","23","Female","[""坏她"",""好她"",""坏我"",""好我""]","[""弱她"",""强她"",""弱我"",""强我""]","","","","","","","","no","","","","","","","","","SRET","EW_formal","","key","f","16.68504504504512","768","428","朋友","马虎","Negative","ability","","","","","","","","","","",""
"1033","","f","psychophysics","56","216807","0.0-7.0-3.0-0.42","5","6","6","5","3","4","4","4","4","4","4","1","-1","0","1","0","0","0","1","5","4","5","5","4","3","4","5","4","4","5","6","4","6","4","4","6","4","6","6","6","6","6","6","5","6","3","6","6","1","5","4","3","4","6","6","6","6","6","6","3","5","3","3","3","6","6","5","5","5","5","5","6","5","5","6","3","2","5","5","802899041120821250","潘","23","Female","[""坏她"",""好她"",""坏我"",""好我""]","[""弱她"",""强她"",""弱我"",""强我""]","","","","","","","","no","","","","","","","","","SRET","EW_formal","","key","f","16.685081967213247","768","428","朋友","博识","Positive","ability","","","","","","","","","","",""
"1046","","f","psychophysics","57","218860","0.0-7.0-3.0-0.43","5","6","6","5","3","4","4","4","4","4","4","1","-1","0","1","0","0","0","1","5","4","5","5","4","3","4","5","4","4","5","6","4","6","4","4","6","4","6","6","6","6","6","6","5","6","3","6","6","1","5","4","3","4","6","6","6","6","6","6","3","5","3","3","3","6","6","5","5","5","5","5","6","5","5","6","3","2","5","5","802899041120821250","潘","23","Female","[""坏她"",""好她"",""坏我"",""好我""]","[""弱她"",""强她"",""弱我"",""强我""]","","","","","","","","no","","","","","","","","","SRET","EW_formal","","key","f","16.68524590163939","768","428","朋友","混账","Negative","morality","","","","","","","","","","",""
"582","","j","psychophysics","58","220445","0.0-7.0-3.0-0.44","5","6","6","5","3","4","4","4","4","4","4","1","-1","0","1","0","0","0","1","5","4","5","5","4","3","4","5","4","4","5","6","4","6","4","4","6","4","6","6","6","6","6","6","5","6","3","6","6","1","5","4","3","4","6","6","6","6","6","6","3","5","3","3","3","6","6","5","5","5","5","5","6","5","5","6","3","2","5","5","802899041120821250","潘","23","Female","[""坏她"",""好她"",""坏我"",""好我""]","[""弱她"",""强她"",""弱我"",""强我""]","","","","","","","","yes","","","","","","","","","SRET","EW_formal","","key","j","16.685106382978663","768","428","朋友","宽容","Positive","morality","","","","","","","","","","",""
"679","","f","psychophysics","59","222143","0.0-7.0-3.0-0.45","5","6","6","5","3","4","4","4","4","4","4","1","-1","0","1","0","0","0","1","5","4","5","5","4","3","4","5","4","4","5","6","4","6","4","4","6","4","6","6","6","6","6","6","5","6","3","6","6","1","5","4","3","4","6","6","6","6","6","6","3","5","3","3","3","6","6","5","5","5","5","5","6","5","5","6","3","2","5","5","802899041120821250","潘","23","Female","[""坏她"",""好她"",""坏我"",""好我""]","[""弱她"",""强她"",""弱我"",""强我""]","","","","","","","","no","","","","","","","","","SRET","EW_formal","","key","f","16.685148514851313","768","428","自己","无能","Negative","ability","","","","","","","","","","",""
"668","","j","psychophysics","60","223831","0.0-7.0-3.0-0.46","5","6","6","5","3","4","4","4","4","4","4","1","-1","0","1","0","0","0","1","5","4","5","5","4","3","4","5","4","4","5","6","4","6","4","4","6","4","6","6","6","6","6","6","5","6","3","6","6","1","5","4","3","4","6","6","6","6","6","6","3","5","3","3","3","6","6","5","5","5","5","5","6","5","5","6","3","2","5","5","802899041120821250","潘","23","Female","[""坏她"",""好她"",""坏我"",""好我""]","[""弱她"",""强她"",""弱我"",""强我""]","","","","","","","","yes","","","","","","","","","SRET","EW_formal","","key","j","16.685","768","428","自己","仁爱","Positive","morality","","","","","","","","","","",""
"894","","f","psychophysics","61","225739","0.0-7.0-3.0-0.47","5","6","6","5","3","4","4","4","4","4","4","1","-1","0","1","0","0","0","1","5","4","5","5","4","3","4","5","4","4","5","6","4","6","4","4","6","4","6","6","6","6","6","6","5","6","3","6","6","1","5","4","3","4","6","6","6","6","6","6","3","5","3","3","3","6","6","5","5","5","5","5","6","5","5","6","3","2","5","5","802899041120821250","潘","23","Female","[""坏她"",""好她"",""坏我"",""好我""]","[""弱她"",""强她"",""弱我"",""强我""]","","","","","","","","no","","","","","","","","","SRET","EW_formal","","key","f","16.685132743362686","768","428","朋友","拜金","Negative","morality","","","","","","","","","","",""
"760","","j","psychophysics","62","227503","0.0-7.0-3.0-0.48","5","6","6","5","3","4","4","4","4","4","4","1","-1","0","1","0","0","0","1","5","4","5","5","4","3","4","5","4","4","5","6","4","6","4","4","6","4","6","6","6","6","6","6","5","6","3","6","6","1","5","4","3","4","6","6","6","6","6","6","3","5","3","3","3","6","6","5","5","5","5","5","6","5","5","6","3","2","5","5","802899041120821250","潘","23","Female","[""坏她"",""好她"",""坏我"",""好我""]","[""弱她"",""强她"",""弱我"",""强我""]","","","","","","","","yes","","","","","","","","","SRET","EW_formal","","key","j","16.68514285714288","768","428","朋友","有力","Positive","ability","","","","","","","","","","",""
"584","","f","psychophysics","63","229106","0.0-7.0-3.0-0.49","5","6","6","5","3","4","4","4","4","4","4","1","-1","0","1","0","0","0","1","5","4","5","5","4","3","4","5","4","4","5","6","4","6","4","4","6","4","6","6","6","6","6","6","5","6","3","6","6","1","5","4","3","4","6","6","6","6","6","6","3","5","3","3","3","6","6","5","5","5","5","5","6","5","5","6","3","2","5","5","802899041120821250","潘","23","Female","[""坏她"",""好她"",""坏我"",""好我""]","[""弱她"",""强她"",""弱我"",""强我""]","","","","","","","","no","","","","","","","","","SRET","EW_formal","","key","f","16.685052631578813","768","428","自己","拙笨","Negative","ability","","","","","","","","","","",""
"694","","f","psychophysics","64","230807","0.0-7.0-3.0-0.50","5","6","6","5","3","4","4","4","4","4","4","1","-1","0","1","0","0","0","1","5","4","5","5","4","3","4","5","4","4","5","6","4","6","4","4","6","4","6","6","6","6","6","6","5","6","3","6","6","1","5","4","3","4","6","6","6","6","6","6","3","5","3","3","3","6","6","5","5","5","5","5","6","5","5","6","3","2","5","5","802899041120821250","潘","23","Female","[""坏她"",""好她"",""坏我"",""好我""]","[""弱她"",""强她"",""弱我"",""强我""]","","","","","","","","no","","","","","","","","","SRET","EW_formal","","key","f","16.685148514851313","768","428","自己","差生","Negative","ability","","","","","","","","","","",""
"655","","f","psychophysics","65","232468","0.0-7.0-3.0-0.51","5","6","6","5","3","4","4","4","4","4","4","1","-1","0","1","0","0","0","1","5","4","5","5","4","3","4","5","4","4","5","6","4","6","4","4","6","4","6","6","6","6","6","6","5","6","3","6","6","1","5","4","3","4","6","6","6","6","6","6","3","5","3","3","3","6","6","5","5","5","5","5","6","5","5","6","3","2","5","5","802899041120821250","潘","23","Female","[""坏她"",""好她"",""坏我"",""好我""]","[""弱她"",""强她"",""弱我"",""强我""]","","","","","","","","no","","","","","","","","","SRET","EW_formal","","key","f","16.68505050505028","768","428","自己","无耻","Negative","morality","","","","","","","","","","",""
"740","","f","psychophysics","66","234214","0.0-7.0-3.0-0.52","5","6","6","5","3","4","4","4","4","4","4","1","-1","0","1","0","0","0","1","5","4","5","5","4","3","4","5","4","4","5","6","4","6","4","4","6","4","6","6","6","6","6","6","5","6","3","6","6","1","5","4","3","4","6","6","6","6","6","6","3","5","3","3","3","6","6","5","5","5","5","5","6","5","5","6","3","2","5","5","802899041120821250","潘","23","Female","[""坏她"",""好她"",""坏我"",""好我""]","[""弱她"",""强她"",""弱我"",""强我""]","","","","","","","","no","","","","","","","","","SRET","EW_formal","","key","f","16.685048543689298","768","428","自己","无敌","Positive","ability","","","","","","","","","","",""
"891","","f","psychophysics","67","236236","0.0-7.0-3.0-0.53","5","6","6","5","3","4","4","4","4","4","4","1","-1","0","1","0","0","0","1","5","4","5","5","4","3","4","5","4","4","5","6","4","6","4","4","6","4","6","6","6","6","6","6","5","6","3","6","6","1","5","4","3","4","6","6","6","6","6","6","3","5","3","3","3","6","6","5","5","5","5","5","6","5","5","6","3","2","5","5","802899041120821250","潘","23","Female","[""坏她"",""好她"",""坏我"",""好我""]","[""弱她"",""强她"",""弱我"",""强我""]","","","","","","","","no","","","","","","","","","SRET","EW_formal","","key","f","16.685166666666678","768","428","朋友","侠义","Positive","morality","","","","","","","","","","",""
"746","","f","psychophysics","68","237989","0.0-7.0-3.0-0.54","5","6","6","5","3","4","4","4","4","4","4","1","-1","0","1","0","0","0","1","5","4","5","5","4","3","4","5","4","4","5","6","4","6","4","4","6","4","6","6","6","6","6","6","5","6","3","6","6","1","5","4","3","4","6","6","6","6","6","6","3","5","3","3","3","6","6","5","5","5","5","5","6","5","5","6","3","2","5","5","802899041120821250","潘","23","Female","[""坏她"",""好她"",""坏我"",""好我""]","[""弱她"",""强她"",""弱我"",""强我""]","","","","","","","","no","","","","","","","","","SRET","EW_formal","","key","f","16.68500000000019","768","428","自己","昏庸","Negative","ability","","","","","","","","","","",""
"590","","f","psychophysics","69","239594","0.0-7.0-3.0-0.55","5","6","6","5","3","4","4","4","4","4","4","1","-1","0","1","0","0","0","1","5","4","5","5","4","3","4","5","4","4","5","6","4","6","4","4","6","4","6","6","6","6","6","6","5","6","3","6","6","1","5","4","3","4","6","6","6","6","6","6","3","5","3","3","3","6","6","5","5","5","5","5","6","5","5","6","3","2","5","5","802899041120821250","潘","23","Female","[""坏她"",""好她"",""坏我"",""好我""]","[""弱她"",""强她"",""弱我"",""强我""]","","","","","","","","no","","","","","","","","","SRET","EW_formal","","key","f","16.685000000000098","768","428","朋友","龌龊","Negative","morality","","","","","","","","","","",""
"495","","f","psychophysics","70","241099","0.0-7.0-3.0-0.56","5","6","6","5","3","4","4","4","4","4","4","1","-1","0","1","0","0","0","1","5","4","5","5","4","3","4","5","4","4","5","6","4","6","4","4","6","4","6","6","6","6","6","6","5","6","3","6","6","1","5","4","3","4","6","6","6","6","6","6","3","5","3","3","3","6","6","5","5","5","5","5","6","5","5","6","3","2","5","5","802899041120821250","潘","23","Female","[""坏她"",""好她"",""坏我"",""好我""]","[""弱她"",""强她"",""弱我"",""强我""]","","","","","","","","no","","","","","","","","","SRET","EW_formal","","key","f","16.68516853932596","768","428","自己","虚假","Negative","morality","","","","","","","","","","",""
"972","","f","psychophysics","71","243076","0.0-7.0-3.0-0.57","5","6","6","5","3","4","4","4","4","4","4","1","-1","0","1","0","0","0","1","5","4","5","5","4","3","4","5","4","4","5","6","4","6","4","4","6","4","6","6","6","6","6","6","5","6","3","6","6","1","5","4","3","4","6","6","6","6","6","6","3","5","3","3","3","6","6","5","5","5","5","5","6","5","5","6","3","2","5","5","802899041120821250","潘","23","Female","[""坏她"",""好她"",""坏我"",""好我""]","[""弱她"",""强她"",""弱我"",""强我""]","","","","","","","","no","","","","","","","","","SRET","EW_formal","","key","f","16.685128205128233","768","428","朋友","才尽","Negative","ability","","","","","","","","","","",""
"527","","f","psychophysics","72","244610","0.0-7.0-3.0-0.58","5","6","6","5","3","4","4","4","4","4","4","1","-1","0","1","0","0","0","1","5","4","5","5","4","3","4","5","4","4","5","6","4","6","4","4","6","4","6","6","6","6","6","6","5","6","3","6","6","1","5","4","3","4","6","6","6","6","6","6","3","5","3","3","3","6","6","5","5","5","5","5","6","5","5","6","3","2","5","5","802899041120821250","潘","23","Female","[""坏她"",""好她"",""坏我"",""好我""]","[""弱她"",""强她"",""弱我"",""强我""]","","","","","","","","no","","","","","","","","","SRET","EW_formal","","key","f","16.68527472527489","768","428","自己","阴毒","Negative","morality","","","","","","","","","","",""
"844","","j","psychophysics","73","246478","0.0-7.0-3.0-0.59","5","6","6","5","3","4","4","4","4","4","4","1","-1","0","1","0","0","0","1","5","4","5","5","4","3","4","5","4","4","5","6","4","6","4","4","6","4","6","6","6","6","6","6","5","6","3","6","6","1","5","4","3","4","6","6","6","6","6","6","3","5","3","3","3","6","6","5","5","5","5","5","6","5","5","6","3","2","5","5","802899041120821250","潘","23","Female","[""坏她"",""好她"",""坏我"",""好我""]","[""弱她"",""强她"",""弱我"",""强我""]","","","","","","","","yes","","","","","","","","","SRET","EW_formal","","key","j","16.68504504504512","768","428","朋友","清廉","Positive","morality","","","","","","","","","","",""
"609","","j","psychophysics","74","248102","0.0-7.0-3.0-0.60","5","6","6","5","3","4","4","4","4","4","4","1","-1","0","1","0","0","0","1","5","4","5","5","4","3","4","5","4","4","5","6","4","6","4","4","6","4","6","6","6","6","6","6","5","6","3","6","6","1","5","4","3","4","6","6","6","6","6","6","3","5","3","3","3","6","6","5","5","5","5","5","6","5","5","6","3","2","5","5","802899041120821250","潘","23","Female","[""坏她"",""好她"",""坏我"",""好我""]","[""弱她"",""强她"",""弱我"",""强我""]","","","","","","","","yes","","","","","","","","","SRET","EW_formal","","key","j","16.685154639175174","768","428","朋友","谦逊","Positive","morality","","","","","","","","","","",""
"657","","j","psychophysics","75","249771","0.0-7.0-3.0-0.61","5","6","6","5","3","4","4","4","4","4","4","1","-1","0","1","0","0","0","1","5","4","5","5","4","3","4","5","4","4","5","6","4","6","4","4","6","4","6","6","6","6","6","6","5","6","3","6","6","1","5","4","3","4","6","6","6","6","6","6","3","5","3","3","3","6","6","5","5","5","5","5","6","5","5","6","3","2","5","5","802899041120821250","潘","23","Female","[""坏她"",""好她"",""坏我"",""好我""]","[""弱她"",""强她"",""弱我"",""强我""]","","","","","","","","yes","","","","","","","","","SRET","EW_formal","","key","j","16.685252525252785","768","428","自己","廉正","Positive","morality","","","","","","","","","","",""
"586","","f","psychophysics","76","251379","0.0-7.0-3.0-0.62","5","6","6","5","3","4","4","4","4","4","4","1","-1","0","1","0","0","0","1","5","4","5","5","4","3","4","5","4","4","5","6","4","6","4","4","6","4","6","6","6","6","6","6","5","6","3","6","6","1","5","4","3","4","6","6","6","6","6","6","3","5","3","3","3","6","6","5","5","5","5","5","6","5","5","6","3","2","5","5","802899041120821250","潘","23","Female","[""坏她"",""好她"",""坏我"",""好我""]","[""弱她"",""强她"",""弱我"",""强我""]","","","","","","","","no","","","","","","","","","SRET","EW_formal","","key","f","16.685052631578813","768","428","朋友","拖拉","Negative","ability","","","","","","","","","","",""
"594","","f","psychophysics","77","252979","0.0-7.0-3.0-0.63","5","6","6","5","3","4","4","4","4","4","4","1","-1","0","1","0","0","0","1","5","4","5","5","4","3","4","5","4","4","5","6","4","6","4","4","6","4","6","6","6","6","6","6","5","6","3","6","6","1","5","4","3","4","6","6","6","6","6","6","3","5","3","3","3","6","6","5","5","5","5","5","6","5","5","6","3","2","5","5","802899041120821250","潘","23","Female","[""坏她"",""好她"",""坏我"",""好我""]","[""弱她"",""强她"",""弱我"",""强我""]","","","","","","","","no","","","","","","","","","SRET","EW_formal","","key","f","16.68505263157912","768","428","朋友","邪恶","Negative","morality","","","","","","","","","","",""
"715","","j","psychophysics","78","254699","0.0-7.0-3.0-0.64","5","6","6","5","3","4","4","4","4","4","4","1","-1","0","1","0","0","0","1","5","4","5","5","4","3","4","5","4","4","5","6","4","6","4","4","6","4","6","6","6","6","6","6","5","6","3","6","6","1","5","4","3","4","6","6","6","6","6","6","3","5","3","3","3","6","6","5","5","5","5","5","6","5","5","6","3","2","5","5","802899041120821250","潘","23","Female","[""坏她"",""好她"",""坏我"",""好我""]","[""弱她"",""强她"",""弱我"",""强我""]","","","","","","","","yes","","","","","","","","","SRET","EW_formal","","key","j","16.68509803921573","768","428","自己","礼貌","Positive","morality","","","","","","","","","","",""
"716","","f","psychophysics","79","256560","0.0-7.0-3.0-0.65","5","6","6","5","3","4","4","4","4","4","4","1","-1","0","1","0","0","0","1","5","4","5","5","4","3","4","5","4","4","5","6","4","6","4","4","6","4","6","6","6","6","6","6","5","6","3","6","6","1","5","4","3","4","6","6","6","6","6","6","3","5","3","3","3","6","6","5","5","5","5","5","6","5","5","6","3","2","5","5","802899041120821250","潘","23","Female","[""坏她"",""好她"",""坏我"",""好我""]","[""弱她"",""强她"",""弱我"",""强我""]","","","","","","","","no","","","","","","","","","SRET","EW_formal","","key","f","16.685090909090782","768","428","自己","远见","Positive","ability","","","","","","","","","","",""
"1351","","f","psychophysics","80","258915","0.0-7.0-3.0-0.66","5","6","6","5","3","4","4","4","4","4","4","1","-1","0","1","0","0","0","1","5","4","5","5","4","3","4","5","4","4","5","6","4","6","4","4","6","4","6","6","6","6","6","6","5","6","3","6","6","1","5","4","3","4","6","6","6","6","6","6","3","5","3","3","3","6","6","5","5","5","5","5","6","5","5","6","3","2","5","5","802899041120821250","潘","23","Female","[""坏她"",""好她"",""坏我"",""好我""]","[""弱她"",""强她"",""弱我"",""强我""]","","","","","","","","no","","","","","","","","","SRET","EW_formal","","key","f","16.685106382978766","768","428","朋友","犹豫","Negative","ability","","","","","","","","","","",""
"655","","f","psychophysics","81","260589","0.0-7.0-3.0-0.67","5","6","6","5","3","4","4","4","4","4","4","1","-1","0","1","0","0","0","1","5","4","5","5","4","3","4","5","4","4","5","6","4","6","4","4","6","4","6","6","6","6","6","6","5","6","3","6","6","1","5","4","3","4","6","6","6","6","6","6","3","5","3","3","3","6","6","5","5","5","5","5","6","5","5","6","3","2","5","5","802899041120821250","潘","23","Female","[""坏她"",""好她"",""坏我"",""好我""]","[""弱她"",""强她"",""弱我"",""强我""]","","","","","","","","no","","","","","","","","","SRET","EW_formal","","key","f","16.68505050505087","768","428","朋友","废物","Negative","ability","","","","","","","","","","",""
"709","","j","psychophysics","82","262302","0.0-7.0-3.0-0.68","5","6","6","5","3","4","4","4","4","4","4","1","-1","0","1","0","0","0","1","5","4","5","5","4","3","4","5","4","4","5","6","4","6","4","4","6","4","6","6","6","6","6","6","5","6","3","6","6","1","5","4","3","4","6","6","6","6","6","6","3","5","3","3","3","6","6","5","5","5","5","5","6","5","5","6","3","2","5","5","802899041120821250","潘","23","Female","[""坏她"",""好她"",""坏我"",""好我""]","[""弱她"",""强她"",""弱我"",""强我""]","","","","","","","","yes","","","","","","","","","SRET","EW_formal","","key","j","16.68509803921573","768","428","朋友","坚持","Positive","ability","","","","","","","","","","",""
"696","","j","psychophysics","83","264020","0.0-7.0-3.0-0.69","5","6","6","5","3","4","4","4","4","4","4","1","-1","0","1","0","0","0","1","5","4","5","5","4","3","4","5","4","4","5","6","4","6","4","4","6","4","6","6","6","6","6","6","5","6","3","6","6","1","5","4","3","4","6","6","6","6","6","6","3","5","3","3","3","6","6","5","5","5","5","5","6","5","5","6","3","2","5","5","802899041120821250","潘","23","Female","[""坏她"",""好她"",""坏我"",""好我""]","[""弱她"",""强她"",""弱我"",""强我""]","","","","","","","","yes","","","","","","","","","SRET","EW_formal","","key","j","16.68509803921573","768","428","自己","文明","Positive","morality","","","","","","","","","","",""
"582","","j","psychophysics","84","265606","0.0-7.0-3.0-0.70","5","6","6","5","3","4","4","4","4","4","4","1","-1","0","1","0","0","0","1","5","4","5","5","4","3","4","5","4","4","5","6","4","6","4","4","6","4","6","6","6","6","6","6","5","6","3","6","6","1","5","4","3","4","6","6","6","6","6","6","3","5","3","3","3","6","6","5","5","5","5","5","6","5","5","6","3","2","5","5","802899041120821250","潘","23","Female","[""坏她"",""好她"",""坏我"",""好我""]","[""弱她"",""强她"",""弱我"",""强我""]","","","","","","","","yes","","","","","","","","","SRET","EW_formal","","key","j","16.685106382978972","768","428","自己","扎实","Positive","ability","","","","","","","","","","",""
"689","","f","psychophysics","85","267312","0.0-7.0-3.0-0.71","5","6","6","5","3","4","4","4","4","4","4","1","-1","0","1","0","0","0","1","5","4","5","5","4","3","4","5","4","4","5","6","4","6","4","4","6","4","6","6","6","6","6","6","5","6","3","6","6","1","5","4","3","4","6","6","6","6","6","6","3","5","3","3","3","6","6","5","5","5","5","5","6","5","5","6","3","2","5","5","802899041120821250","潘","23","Female","[""坏她"",""好她"",""坏我"",""好我""]","[""弱她"",""强她"",""弱我"",""强我""]","","","","","","","","no","","","","","","","","","SRET","EW_formal","","key","f","16.6851485148516","768","428","自己","怠惰","Negative","ability","","","","","","","","","","",""
"621","","f","psychophysics","86","268935","0.0-7.0-3.0-0.72","5","6","6","5","3","4","4","4","4","4","4","1","-1","0","1","0","0","0","1","5","4","5","5","4","3","4","5","4","4","5","6","4","6","4","4","6","4","6","6","6","6","6","6","5","6","3","6","6","1","5","4","3","4","6","6","6","6","6","6","3","5","3","3","3","6","6","5","5","5","5","5","6","5","5","6","3","2","5","5","802899041120821250","潘","23","Female","[""坏她"",""好她"",""坏我"",""好我""]","[""弱她"",""强她"",""弱我"",""强我""]","","","","","","","","no","","","","","","","","","SRET","EW_formal","","key","f","16.685208333333623","768","428","自己","刻薄","Negative","morality","","","","","","","","","","",""
"521","","f","psychophysics","87","270475","0.0-7.0-3.0-0.73","5","6","6","5","3","4","4","4","4","4","4","1","-1","0","1","0","0","0","1","5","4","5","5","4","3","4","5","4","4","5","6","4","6","4","4","6","4","6","6","6","6","6","6","5","6","3","6","6","1","5","4","3","4","6","6","6","6","6","6","3","5","3","3","3","6","6","5","5","5","5","5","6","5","5","6","3","2","5","5","802899041120821250","潘","23","Female","[""坏她"",""好她"",""坏我"",""好我""]","[""弱她"",""强她"",""弱我"",""强我""]","","","","","","","","no","","","","","","","","","SRET","EW_formal","","key","f","16.68505494505459","768","428","朋友","失信","Negative","morality","","","","","","","","","","",""
"973","","j","psychophysics","88","272467","0.0-7.0-3.0-0.74","5","6","6","5","3","4","4","4","4","4","4","1","-1","0","1","0","0","0","1","5","4","5","5","4","3","4","5","4","4","5","6","4","6","4","4","6","4","6","6","6","6","6","6","5","6","3","6","6","1","5","4","3","4","6","6","6","6","6","6","3","5","3","3","3","6","6","5","5","5","5","5","6","5","5","6","3","2","5","5","802899041120821250","潘","23","Female","[""坏她"",""好她"",""坏我"",""好我""]","[""弱她"",""强她"",""弱我"",""强我""]","","","","","","","","yes","","","","","","","","","SRET","EW_formal","","key","j","16.68504201680688","768","428","朋友","顶事","Positive","ability","","","","","","","","","","",""
"656","","j","psychophysics","89","274129","0.0-7.0-3.0-0.75","5","6","6","5","3","4","4","4","4","4","4","1","-1","0","1","0","0","0","1","5","4","5","5","4","3","4","5","4","4","5","6","4","6","4","4","6","4","6","6","6","6","6","6","5","6","3","6","6","1","5","4","3","4","6","6","6","6","6","6","3","5","3","3","3","6","6","5","5","5","5","5","6","5","5","6","3","2","5","5","802899041120821250","潘","23","Female","[""坏她"",""好她"",""坏我"",""好我""]","[""弱她"",""强她"",""弱我"",""强我""]","","","","","","","","yes","","","","","","","","","SRET","EW_formal","","key","j","16.68510204081647","768","428","朋友","精干","Positive","ability","","","","","","","","","","",""
"685","","j","psychophysics","90","275819","0.0-7.0-3.0-0.76","5","6","6","5","3","4","4","4","4","4","4","1","-1","0","1","0","0","0","1","5","4","5","5","4","3","4","5","4","4","5","6","4","6","4","4","6","4","6","6","6","6","6","6","5","6","3","6","6","1","5","4","3","4","6","6","6","6","6","6","3","5","3","3","3","6","6","5","5","5","5","5","6","5","5","6","3","2","5","5","802899041120821250","潘","23","Female","[""坏她"",""好她"",""坏我"",""好我""]","[""弱她"",""强她"",""弱我"",""强我""]","","","","","","","","yes","","","","","","","","","SRET","EW_formal","","key","j","16.6851485148516","768","428","自己","毅力","Positive","ability","","","","","","","","","","",""
"737","","j","psychophysics","91","277572","0.0-7.0-3.0-0.77","5","6","6","5","3","4","4","4","4","4","4","1","-1","0","1","0","0","0","1","5","4","5","5","4","3","4","5","4","4","5","6","4","6","4","4","6","4","6","6","6","6","6","6","5","6","3","6","6","1","5","4","3","4","6","6","6","6","6","6","3","5","3","3","3","6","6","5","5","5","5","5","6","5","5","6","3","2","5","5","802899041120821250","潘","23","Female","[""坏她"",""好她"",""坏我"",""好我""]","[""弱她"",""强她"",""弱我"",""强我""]","","","","","","","","yes","","","","","","","","","SRET","EW_formal","","key","j","16.685192307692397","768","428","朋友","慈悲","Positive","morality","","","","","","","","","","",""
"739","","j","psychophysics","92","279314","0.0-7.0-3.0-0.78","5","6","6","5","3","4","4","4","4","4","4","1","-1","0","1","0","0","0","1","5","4","5","5","4","3","4","5","4","4","5","6","4","6","4","4","6","4","6","6","6","6","6","6","5","6","3","6","6","1","5","4","3","4","6","6","6","6","6","6","3","5","3","3","3","6","6","5","5","5","5","5","6","5","5","6","3","2","5","5","802899041120821250","潘","23","Female","[""坏她"",""好她"",""坏我"",""好我""]","[""弱她"",""强她"",""弱我"",""强我""]","","","","","","","","yes","","","","","","","","","SRET","EW_formal","","key","j","16.685048543689298","768","428","自己","厚道","Positive","morality","","","","","","","","","","",""
"634","","f","psychophysics","93","280960","0.0-7.0-3.0-0.79","5","6","6","5","3","4","4","4","4","4","4","1","-1","0","1","0","0","0","1","5","4","5","5","4","3","4","5","4","4","5","6","4","6","4","4","6","4","6","6","6","6","6","6","5","6","3","6","6","1","5","4","3","4","6","6","6","6","6","6","3","5","3","3","3","6","6","5","5","5","5","5","6","5","5","6","3","2","5","5","802899041120821250","潘","23","Female","[""坏她"",""好她"",""坏我"",""好我""]","[""弱她"",""强她"",""弱我"",""强我""]","","","","","","","","no","","","","","","","","","SRET","EW_formal","","key","f","16.68510204081647","768","428","自己","小人","Negative","morality","","","","","","","","","","",""
"735","","j","psychophysics","94","282696","0.0-7.0-3.0-0.80","5","6","6","5","3","4","4","4","4","4","4","1","-1","0","1","0","0","0","1","5","4","5","5","4","3","4","5","4","4","5","6","4","6","4","4","6","4","6","6","6","6","6","6","5","6","3","6","6","1","5","4","3","4","6","6","6","6","6","6","3","5","3","3","3","6","6","5","5","5","5","5","6","5","5","6","3","2","5","5","802899041120821250","潘","23","Female","[""坏她"",""好她"",""坏我"",""好我""]","[""弱她"",""强她"",""弱我"",""强我""]","","","","","","","","yes","","","","","","","","","SRET","EW_formal","","key","j","16.685242718446194","768","428","朋友","慷慨","Positive","morality","","","","","","","","","","",""
"752","","j","psychophysics","95","284455","0.0-7.0-3.0-0.81","5","6","6","5","3","4","4","4","4","4","4","1","-1","0","1","0","0","0","1","5","4","5","5","4","3","4","5","4","4","5","6","4","6","4","4","6","4","6","6","6","6","6","6","5","6","3","6","6","1","5","4","3","4","6","6","6","6","6","6","3","5","3","3","3","6","6","5","5","5","5","5","6","5","5","6","3","2","5","5","802899041120821250","潘","23","Female","[""坏她"",""好她"",""坏我"",""好我""]","[""弱她"",""强她"",""弱我"",""强我""]","","","","","","","","yes","","","","","","","","","SRET","EW_formal","","key","j","16.68499999999991","768","428","朋友","独立","Positive","ability","","","","","","","","","","",""
"614","","f","psychophysics","96","286079","0.0-7.0-3.0-0.82","5","6","6","5","3","4","4","4","4","4","4","1","-1","0","1","0","0","0","1","5","4","5","5","4","3","4","5","4","4","5","6","4","6","4","4","6","4","6","6","6","6","6","6","5","6","3","6","6","1","5","4","3","4","6","6","6","6","6","6","3","5","3","3","3","6","6","5","5","5","5","5","6","5","5","6","3","2","5","5","802899041120821250","潘","23","Female","[""坏她"",""好她"",""坏我"",""好我""]","[""弱她"",""强她"",""弱我"",""强我""]","","","","","","","","no","","","","","","","","","SRET","EW_formal","","key","f","16.68474226804167","768","428","朋友","迂拙","Negative","ability","","","","","","","","","","",""
"681","","j","psychophysics","97","287774","0.0-7.0-3.0-0.83","5","6","6","5","3","4","4","4","4","4","4","1","-1","0","1","0","0","0","1","5","4","5","5","4","3","4","5","4","4","5","6","4","6","4","4","6","4","6","6","6","6","6","6","5","6","3","6","6","1","5","4","3","4","6","6","6","6","6","6","3","5","3","3","3","6","6","5","5","5","5","5","6","5","5","6","3","2","5","5","802899041120821250","潘","23","Female","[""坏她"",""好她"",""坏我"",""好我""]","[""弱她"",""强她"",""弱我"",""强我""]","","","","","","","","yes","","","","","","","","","SRET","EW_formal","","key","j","16.685200000000187","768","428","自己","细心","Positive","ability","","","","","","","","","","",""
"680","","j","psychophysics","98","289474","0.0-7.0-3.0-0.84","5","6","6","5","3","4","4","4","4","4","4","1","-1","0","1","0","0","0","1","5","4","5","5","4","3","4","5","4","4","5","6","4","6","4","4","6","4","6","6","6","6","6","6","5","6","3","6","6","1","5","4","3","4","6","6","6","6","6","6","3","5","3","3","3","6","6","5","5","5","5","5","6","5","5","6","3","2","5","5","802899041120821250","潘","23","Female","[""坏她"",""好她"",""坏我"",""好我""]","[""弱她"",""强她"",""弱我"",""强我""]","","","","","","","","yes","","","","","","","","","SRET","EW_formal","","key","j","16.685148514851026","768","428","自己","主见","Positive","ability","","","","","","","","","","",""
"598","","f","psychophysics","99","291091","0.0-7.0-3.0-0.85","5","6","6","5","3","4","4","4","4","4","4","1","-1","0","1","0","0","0","1","5","4","5","5","4","3","4","5","4","4","5","6","4","6","4","4","6","4","6","6","6","6","6","6","5","6","3","6","6","1","5","4","3","4","6","6","6","6","6","6","3","5","3","3","3","6","6","5","5","5","5","5","6","5","5","6","3","2","5","5","802899041120821250","潘","23","Female","[""坏她"",""好她"",""坏我"",""好我""]","[""弱她"",""强她"",""弱我"",""强我""]","","","","","","","","no","","","","","","","","","SRET","EW_formal","","key","f","16.68479166666657","768","428","朋友","低俗","Negative","morality","","","","","","","","","","",""
"949","","j","psychophysics","100","293050","0.0-7.0-3.0-0.86","5","6","6","5","3","4","4","4","4","4","4","1","-1","0","1","0","0","0","1","5","4","5","5","4","3","4","5","4","4","5","6","4","6","4","4","6","4","6","6","6","6","6","6","5","6","3","6","6","1","5","4","3","4","6","6","6","6","6","6","3","5","3","3","3","6","6","5","5","5","5","5","6","5","5","6","3","2","5","5","802899041120821250","潘","23","Female","[""坏她"",""好她"",""坏我"",""好我""]","[""弱她"",""强她"",""弱我"",""强我""]","","","","","","","","yes","","","","","","","","","SRET","EW_formal","","key","j","16.685172413792944","768","428","朋友","素养","Positive","morality","","","","","","","","","","",""
"642","","f","psychophysics","101","294696","0.0-7.0-3.0-0.87","5","6","6","5","3","4","4","4","4","4","4","1","-1","0","1","0","0","0","1","5","4","5","5","4","3","4","5","4","4","5","6","4","6","4","4","6","4","6","6","6","6","6","6","5","6","3","6","6","1","5","4","3","4","6","6","6","6","6","6","3","5","3","3","3","6","6","5","5","5","5","5","6","5","5","6","3","2","5","5","802899041120821250","潘","23","Female","[""坏她"",""好她"",""坏我"",""好我""]","[""弱她"",""强她"",""弱我"",""强我""]","","","","","","","","no","","","","","","","","","SRET","EW_formal","","key","f","16.68510204081647","768","428","自己","缓慢","Negative","ability","","","","","","","","","","",""
"26832","
    <p><div style='color:white;font-size:35px; line-height:20px;'>计算任务</div></p><br>
    <p><div style='color:red;font-size:25px; line-height:20px;'>接下来，您将看到一些四则运算题，<b>请从键盘选择 0-9 进行反应。</b></div></p>
    <p><div style='color:red;font-size:25px; line-height:20px;'>请尽可能快地进行计算，计算的速度和正确率将影响报酬的发放。</div></p>
    <p><div class='footer' style='color:white;font-size:25px; line-height:20px;'>如果对本实验还有不清楚之处，请立即向实验员咨询。</p><p style='color:white;font-size:25px; line-height:20px;'>如果您明白了规则：</p><p style='color:white;font-size:22px; line-height:20px;'>请按 继续 进入练习</p>
    </div>
    ","0","html-button-response","102","321529","0.0-7.0-4.0","5","6","6","5","3","4","4","4","4","4","4","1","-1","0","1","0","0","0","1","5","4","5","5","4","3","4","5","4","4","5","6","4","6","4","4","6","4","6","6","6","6","6","6","5","6","3","6","6","1","5","4","3","4","6","6","6","6","6","6","3","5","3","3","3","6","6","5","5","5","5","5","6","5","5","6","3","2","5","5","802899041120821250","潘","23","Female","[""坏她"",""好她"",""坏我"",""好我""]","[""弱她"",""强她"",""弱我"",""强我""]","","","","","","","","","","","","","","","","","SRET_math","math_instructions","Sun Jan 28 2024 20:49:43 GMT+0800 (中国标准时间)","","","","","","","","","","","","","","","","","","","",""
"1770","","0","psychophysics","103","323303","0.0-7.0-5.0-0.0","5","6","6","5","3","4","4","4","4","4","4","1","-1","0","1","0","0","0","1","5","4","5","5","4","3","4","5","4","4","5","6","4","6","4","4","6","4","6","6","6","6","6","6","5","6","3","6","6","1","5","4","3","4","6","6","6","6","6","6","3","5","3","3","3","6","6","5","5","5","5","5","6","5","5","6","3","2","5","5","802899041120821250","潘","23","Female","[""坏她"",""好她"",""坏我"",""好我""]","[""弱她"",""强她"",""弱我"",""强我""]","","","","","","","","0","","","","","","","","","SRET","SRET_math_calculate","","key","0","16.717924528301666","768","428","","","","","12-12= ?","0","1","","","","","","","",""
"1744","","9","psychophysics","104","325051","0.0-7.0-5.0-0.1","5","6","6","5","3","4","4","4","4","4","4","1","-1","0","1","0","0","0","1","5","4","5","5","4","3","4","5","4","4","5","6","4","6","4","4","6","4","6","6","6","6","6","6","5","6","3","6","6","1","5","4","3","4","6","6","6","6","6","6","3","5","3","3","3","6","6","5","5","5","5","5","6","5","5","6","3","2","5","5","802899041120821250","潘","23","Female","[""坏她"",""好她"",""坏我"",""好我""]","[""弱她"",""强她"",""弱我"",""强我""]","","","","","","","","9","","","","","","","","","SRET","SRET_math_calculate","","key","9","17.01544554455443","768","428","","","","","1*9= ?","9","1","","","","","","","",""
"1768","","3","psychophysics","105","326819","0.0-7.0-5.0-0.2","5","6","6","5","3","4","4","4","4","4","4","1","-1","0","1","0","0","0","1","5","4","5","5","4","3","4","5","4","4","5","6","4","6","4","4","6","4","6","6","6","6","6","6","5","6","3","6","6","1","5","4","3","4","6","6","6","6","6","6","3","5","3","3","3","6","6","5","5","5","5","5","6","5","5","6","3","2","5","5","802899041120821250","潘","23","Female","[""坏她"",""好她"",""坏我"",""好我""]","[""弱她"",""强她"",""弱我"",""强我""]","","","","","","","","3","","","","","","","","","SRET","SRET_math_calculate","","key","3","16.68495238095278","768","428","","","","","1+2= ?","3","1","","","","","","","",""
"1634","","9","psychophysics","106","328455","0.0-7.0-5.0-0.3","5","6","6","5","3","4","4","4","4","4","4","1","-1","0","1","0","0","0","1","5","4","5","5","4","3","4","5","4","4","5","6","4","6","4","4","6","4","6","6","6","6","6","6","5","6","3","6","6","1","5","4","3","4","6","6","6","6","6","6","3","5","3","3","3","6","6","5","5","5","5","5","6","5","5","6","3","2","5","5","802899041120821250","潘","23","Female","[""坏她"",""好她"",""坏我"",""好我""]","[""弱她"",""强她"",""弱我"",""强我""]","","","","","","","","9","","","","","","","","","SRET","SRET_math_calculate","","key","9","16.685154639174872","768","428","","","","","1+8= ?","9","1","","","","","","","",""
"1988","","6","psychophysics","107","330444","0.0-7.0-5.0-0.4","5","6","6","5","3","4","4","4","4","4","4","1","-1","0","1","0","0","0","1","5","4","5","5","4","3","4","5","4","4","5","6","4","6","4","4","6","4","6","6","6","6","6","6","5","6","3","6","6","1","5","4","3","4","6","6","6","6","6","6","3","5","3","3","3","6","6","5","5","5","5","5","6","5","5","6","3","2","5","5","802899041120821250","潘","23","Female","[""坏她"",""好她"",""坏我"",""好我""]","[""弱她"",""强她"",""弱我"",""强我""]","","","","","","","","6","","","","","","","","","SRET","SRET_math_calculate","","key","6","16.685210084033926","768","428","","","","","11-5= ?","6","1","","","","","","","",""
"1985","","0","psychophysics","108","332434","0.0-7.0-5.0-0.5","5","6","6","5","3","4","4","4","4","4","4","1","-1","0","1","0","0","0","1","5","4","5","5","4","3","4","5","4","4","5","6","4","6","4","4","6","4","6","6","6","6","6","6","5","6","3","6","6","1","5","4","3","4","6","6","6","6","6","6","3","5","3","3","3","6","6","5","5","5","5","5","6","5","5","6","3","2","5","5","802899041120821250","潘","23","Female","[""坏她"",""好她"",""坏我"",""好我""]","[""弱她"",""强她"",""弱我"",""强我""]","","","","","","","","0","","","","","","","","","SRET","SRET_math_calculate","","key","0","16.68508474576293","768","428","","","","","5*0= ?","0","1","","","","","","","",""
"1765","","6","psychophysics","109","334202","0.0-7.0-5.0-0.6","5","6","6","5","3","4","4","4","4","4","4","1","-1","0","1","0","0","0","1","5","4","5","5","4","3","4","5","4","4","5","6","4","6","4","4","6","4","6","6","6","6","6","6","5","6","3","6","6","1","5","4","3","4","6","6","6","6","6","6","3","5","3","3","3","6","6","5","5","5","5","5","6","5","5","6","3","2","5","5","802899041120821250","潘","23","Female","[""坏她"",""好她"",""坏我"",""好我""]","[""弱她"",""强她"",""弱我"",""强我""]","","","","","","","","6","","","","","","","","","SRET","SRET_math_calculate","","key","6","16.684952380952225","768","428","","","","","4+2= ?","6","1","","","","","","","",""
"1822","","7","psychophysics","110","336028","0.0-7.0-5.0-0.7","5","6","6","5","3","4","4","4","4","4","4","1","-1","0","1","0","0","0","1","5","4","5","5","4","3","4","5","4","4","5","6","4","6","4","4","6","4","6","6","6","6","6","6","5","6","3","6","6","1","5","4","3","4","6","6","6","6","6","6","3","5","3","3","3","6","6","5","5","5","5","5","6","5","5","6","3","2","5","5","802899041120821250","潘","23","Female","[""坏她"",""好她"",""坏我"",""好我""]","[""弱她"",""强她"",""弱我"",""强我""]","","","","","","","","7","","","","","","","","","SRET","SRET_math_calculate","","key","7","16.684999999999828","768","428","","","","","2+5= ?","7","1","","","","","","","",""
"1703","","5","psychophysics","111","337732","0.0-7.0-5.0-0.8","5","6","6","5","3","4","4","4","4","4","4","1","-1","0","1","0","0","0","1","5","4","5","5","4","3","4","5","4","4","5","6","4","6","4","4","6","4","6","6","6","6","6","6","5","6","3","6","6","1","5","4","3","4","6","6","6","6","6","6","3","5","3","3","3","6","6","5","5","5","5","5","6","5","5","6","3","2","5","5","802899041120821250","潘","23","Female","[""坏她"",""好她"",""坏我"",""好我""]","[""弱她"",""强她"",""弱我"",""强我""]","","","","","","","","5","","","","","","","","","SRET","SRET_math_calculate","","key","5","16.6851485148516","768","428","","","","","4+1= ?","5","1","","","","","","","",""
"1863","","6","psychophysics","112","339601","0.0-7.0-5.0-0.9","5","6","6","5","3","4","4","4","4","4","4","1","-1","0","1","0","0","0","1","5","4","5","5","4","3","4","5","4","4","5","6","4","6","4","4","6","4","6","6","6","6","6","6","5","6","3","6","6","1","5","4","3","4","6","6","6","6","6","6","3","5","3","3","3","6","6","5","5","5","5","5","6","5","5","6","3","2","5","5","802899041120821250","潘","23","Female","[""坏她"",""好她"",""坏我"",""好我""]","[""弱她"",""强她"",""弱我"",""强我""]","","","","","","","","6","","","","","","","","","SRET","SRET_math_calculate","","key","6","16.685225225225203","768","428","","","","","9-3= ?","6","1","","","","","","","",""
"1908","","9","psychophysics","113","341511","0.0-7.0-5.0-0.10","5","6","6","5","3","4","4","4","4","4","4","1","-1","0","1","0","0","0","1","5","4","5","5","4","3","4","5","4","4","5","6","4","6","4","4","6","4","6","6","6","6","6","6","5","6","3","6","6","1","5","4","3","4","6","6","6","6","6","6","3","5","3","3","3","6","6","5","5","5","5","5","6","5","5","6","3","2","5","5","802899041120821250","潘","23","Female","[""坏她"",""好她"",""坏我"",""好我""]","[""弱她"",""强她"",""弱我"",""强我""]","","","","","","","","9","","","","","","","","","SRET","SRET_math_calculate","","key","9","16.68508771929855","768","428","","","","","7+2= ?","9","1","","","","","","","",""
"1855","","9","psychophysics","114","343367","0.0-7.0-5.0-0.11","5","6","6","5","3","4","4","4","4","4","4","1","-1","0","1","0","0","0","1","5","4","5","5","4","3","4","5","4","4","5","6","4","6","4","4","6","4","6","6","6","6","6","6","5","6","3","6","6","1","5","4","3","4","6","6","6","6","6","6","3","5","3","3","3","6","6","5","5","5","5","5","6","5","5","6","3","2","5","5","802899041120821250","潘","23","Female","[""坏她"",""好她"",""坏我"",""好我""]","[""弱她"",""强她"",""弱我"",""强我""]","","","","","","","","9","","","","","","","","","SRET","SRET_math_calculate","","key","9","16.685090909090782","768","428","","","","","18/2= ?","9","1","","","","","","","",""
"1948","","7","psychophysics","115","345318","0.0-7.0-5.0-0.12","5","6","6","5","3","4","4","4","4","4","4","1","-1","0","1","0","0","0","1","5","4","5","5","4","3","4","5","4","4","5","6","4","6","4","4","6","4","6","6","6","6","6","6","5","6","3","6","6","1","5","4","3","4","6","6","6","6","6","6","3","5","3","3","3","6","6","5","5","5","5","5","6","5","5","6","3","2","5","5","802899041120821250","潘","23","Female","[""坏她"",""好她"",""坏我"",""好我""]","[""弱她"",""强她"",""弱我"",""强我""]","","","","","","","","7","","","","","","","","","SRET","SRET_math_calculate","","key","7","16.68499999999968","768","428","","","","","1+6= ?","7","1","","","","","","","",""
"2233","","7","psychophysics","116","347552","0.0-7.0-5.0-0.13","5","6","6","5","3","4","4","4","4","4","4","1","-1","0","1","0","0","0","1","5","4","5","5","4","3","4","5","4","4","5","6","4","6","4","4","6","4","6","6","6","6","6","6","5","6","3","6","6","1","5","4","3","4","6","6","6","6","6","6","3","5","3","3","3","6","6","5","5","5","5","5","6","5","5","6","3","2","5","5","802899041120821250","潘","23","Female","[""坏她"",""好她"",""坏我"",""好我""]","[""弱她"",""强她"",""弱我"",""强我""]","","","","","","","","7","","","","","","","","","SRET","SRET_math_calculate","","key","7","16.685112781954853","768","428","","","","","9-2= ?","7","1","","","","","","","",""
"1767","","5","psychophysics","117","349320","0.0-7.0-5.0-0.14","5","6","6","5","3","4","4","4","4","4","4","1","-1","0","1","0","0","0","1","5","4","5","5","4","3","4","5","4","4","5","6","4","6","4","4","6","4","6","6","6","6","6","6","5","6","3","6","6","1","5","4","3","4","6","6","6","6","6","6","3","5","3","3","3","6","6","5","5","5","5","5","6","5","5","6","3","2","5","5","802899041120821250","潘","23","Female","[""坏她"",""好她"",""坏我"",""好我""]","[""弱她"",""强她"",""弱我"",""强我""]","","","","","","","","5","","","","","","","","","SRET","SRET_math_calculate","","key","5","16.68495238095278","768","428","","","","","2+3= ?","5","1","","","","","","","",""
"1767","","8","psychophysics","118","351089","0.0-7.0-5.0-0.15","5","6","6","5","3","4","4","4","4","4","4","1","-1","0","1","0","0","0","1","5","4","5","5","4","3","4","5","4","4","5","6","4","6","4","4","6","4","6","6","6","6","6","6","5","6","3","6","6","1","5","4","3","4","6","6","6","6","6","6","3","5","3","3","3","6","6","5","5","5","5","5","6","5","5","6","3","2","5","5","802899041120821250","潘","23","Female","[""坏她"",""好她"",""坏我"",""好我""]","[""弱她"",""强她"",""弱我"",""强我""]","","","","","","","","8","","","","","","","","","SRET","SRET_math_calculate","","key","8","16.684952380952225","768","428","","","","","7+1= ?","8","1","","","","","","","",""
"1751","","8","psychophysics","119","352841","0.0-7.0-5.0-0.16","5","6","6","5","3","4","4","4","4","4","4","1","-1","0","1","0","0","0","1","5","4","5","5","4","3","4","5","4","4","5","6","4","6","4","4","6","4","6","6","6","6","6","6","5","6","3","6","6","1","5","4","3","4","6","6","6","6","6","6","3","5","3","3","3","6","6","5","5","5","5","5","6","5","5","6","3","2","5","5","802899041120821250","潘","23","Female","[""坏她"",""好她"",""坏我"",""好我""]","[""弱她"",""强她"",""弱我"",""强我""]","","","","","","","","8","","","","","","","","","SRET","SRET_math_calculate","","key","8","16.68499999999991","768","428","","","","","6+2= ?","8","1","","","","","","","",""
"1763","","8","psychophysics","120","354605","0.0-7.0-5.0-0.17","5","6","6","5","3","4","4","4","4","4","4","1","-1","0","1","0","0","0","1","5","4","5","5","4","3","4","5","4","4","5","6","4","6","4","4","6","4","6","6","6","6","6","6","5","6","3","6","6","1","5","4","3","4","6","6","6","6","6","6","3","5","3","3","3","6","6","5","5","5","5","5","6","5","5","6","3","2","5","5","802899041120821250","潘","23","Female","[""坏她"",""好她"",""坏我"",""好我""]","[""弱她"",""强她"",""弱我"",""强我""]","","","","","","","","8","","","","","","","","","SRET","SRET_math_calculate","","key","8","16.68514285714288","768","428","","","","","9-1= ?","8","1","","","","","","","",""
"1766","","8","psychophysics","121","356374","0.0-7.0-5.0-0.18","5","6","6","5","3","4","4","4","4","4","4","1","-1","0","1","0","0","0","1","5","4","5","5","4","3","4","5","4","4","5","6","4","6","4","4","6","4","6","6","6","6","6","6","5","6","3","6","6","1","5","4","3","4","6","6","6","6","6","6","3","5","3","3","3","6","6","5","5","5","5","5","6","5","5","6","3","2","5","5","802899041120821250","潘","23","Female","[""坏她"",""好她"",""坏我"",""好我""]","[""弱她"",""强她"",""弱我"",""强我""]","","","","","","","","8","","","","","","","","","SRET","SRET_math_calculate","","key","8","16.68514285714288","768","428","","","","","8*1= ?","8","1","","","","","","","",""
"1971","","3","psychophysics","122","358347","0.0-7.0-5.0-0.19","5","6","6","5","3","4","4","4","4","4","4","1","-1","0","1","0","0","0","1","5","4","5","5","4","3","4","5","4","4","5","6","4","6","4","4","6","4","6","6","6","6","6","6","5","6","3","6","6","1","5","4","3","4","6","6","6","6","6","6","3","5","3","3","3","6","6","5","5","5","5","5","6","5","5","6","3","2","5","5","802899041120821250","潘","23","Female","[""坏她"",""好她"",""坏我"",""好我""]","[""弱她"",""强她"",""弱我"",""强我""]","","","","","","","","3","","","","","","","","","SRET","SRET_math_calculate","","key","3","16.685128205127985","768","428","","","","","8-5= ?","3","1","","","","","","","",""
"1849","","8","psychophysics","123","360198","0.0-7.0-5.0-0.20","5","6","6","5","3","4","4","4","4","4","4","1","-1","0","1","0","0","0","1","5","4","5","5","4","3","4","5","4","4","5","6","4","6","4","4","6","4","6","6","6","6","6","6","5","6","3","6","6","1","5","4","3","4","6","6","6","6","6","6","3","5","3","3","3","6","6","5","5","5","5","5","6","5","5","6","3","2","5","5","802899041120821250","潘","23","Female","[""坏她"",""好她"",""坏我"",""好我""]","[""弱她"",""强她"",""弱我"",""强我""]","","","","","","","","8","","","","","","","","","SRET","SRET_math_calculate","","key","8","16.68509090909131","768","428","","","","","2+6= ?","8","1","","","","","","","",""
"1752","","9","psychophysics","124","361951","0.0-7.0-5.0-0.21","5","6","6","5","3","4","4","4","4","4","4","1","-1","0","1","0","0","0","1","5","4","5","5","4","3","4","5","4","4","5","6","4","6","4","4","6","4","6","6","6","6","6","6","5","6","3","6","6","1","5","4","3","4","6","6","6","6","6","6","3","5","3","3","3","6","6","5","5","5","5","5","6","5","5","6","3","2","5","5","802899041120821250","潘","23","Female","[""坏她"",""好她"",""坏我"",""好我""]","[""弱她"",""强她"",""弱我"",""强我""]","","","","","","","","9","","","","","","","","","SRET","SRET_math_calculate","","key","9","16.68499999999991","768","428","","","","","1+8= ?","9","1","","","","","","","",""
"2376","","1","psychophysics","125","364328","0.0-7.0-5.0-0.22","5","6","6","5","3","4","4","4","4","4","4","1","-1","0","1","0","0","0","1","5","4","5","5","4","3","4","5","4","4","5","6","4","6","4","4","6","4","6","6","6","6","6","6","5","6","3","6","6","1","5","4","3","4","6","6","6","6","6","6","3","5","3","3","3","6","6","5","5","5","5","5","6","5","5","6","3","2","5","5","802899041120821250","潘","23","Female","[""坏她"",""好她"",""坏我"",""好我""]","[""弱她"",""强她"",""弱我"",""强我""]","","","","","","","","1","","","","","","","","","SRET","SRET_math_calculate","","key","1","16.684822695035443","768","428","","","","","30-29= ?","1","1","","","","","","","",""
"1791","","2","psychophysics","126","366122","0.0-7.0-5.0-0.23","5","6","6","5","3","4","4","4","4","4","4","1","-1","0","1","0","0","0","1","5","4","5","5","4","3","4","5","4","4","5","6","4","6","4","4","6","4","6","6","6","6","6","6","5","6","3","6","6","1","5","4","3","4","6","6","6","6","6","6","3","5","3","3","3","6","6","5","5","5","5","5","6","5","5","6","3","2","5","5","802899041120821250","潘","23","Female","[""坏她"",""好她"",""坏我"",""好我""]","[""弱她"",""强她"",""弱我"",""强我""]","","","","","","","","2","","","","","","","","","SRET","SRET_math_calculate","","key","2","16.685046728971855","768","428","","","","","1+1= ?","2","1","","","","","","","",""
"1906","","6","psychophysics","127","368029","0.0-7.0-5.0-0.24","5","6","6","5","3","4","4","4","4","4","4","1","-1","0","1","0","0","0","1","5","4","5","5","4","3","4","5","4","4","5","6","4","6","4","4","6","4","6","6","6","6","6","6","5","6","3","6","6","1","5","4","3","4","6","6","6","6","6","6","3","5","3","3","3","6","6","5","5","5","5","5","6","5","5","6","3","2","5","5","802899041120821250","潘","23","Female","[""坏她"",""好她"",""坏我"",""好我""]","[""弱她"",""强她"",""弱我"",""强我""]","","","","","","","","6","","","","","","","","","SRET","SRET_math_calculate","","key","6","16.685132743362686","768","428","","","","","8-2= ?","6","1","","","","","","","",""
"2089","","0","psychophysics","128","370118","0.0-7.0-5.0-0.25","5","6","6","5","3","4","4","4","4","4","4","1","-1","0","1","0","0","0","1","5","4","5","5","4","3","4","5","4","4","5","6","4","6","4","4","6","4","6","6","6","6","6","6","5","6","3","6","6","1","5","4","3","4","6","6","6","6","6","6","3","5","3","3","3","6","6","5","5","5","5","5","6","5","5","6","3","2","5","5","802899041120821250","潘","23","Female","[""坏她"",""好她"",""坏我"",""好我""]","[""弱她"",""强她"",""弱我"",""强我""]","","","","","","","","0","","","","","","","","","SRET","SRET_math_calculate","","key","0","16.68516129032275","768","428","","","","","9-9= ?","0","1","","","","","","","",""
"1807","","9","psychophysics","129","371930","0.0-7.0-5.0-0.26","5","6","6","5","3","4","4","4","4","4","4","1","-1","0","1","0","0","0","1","5","4","5","5","4","3","4","5","4","4","5","6","4","6","4","4","6","4","6","6","6","6","6","6","5","6","3","6","6","1","5","4","3","4","6","6","6","6","6","6","3","5","3","3","3","6","6","5","5","5","5","5","6","5","5","6","3","2","5","5","802899041120821250","潘","23","Female","[""坏她"",""好她"",""坏我"",""好我""]","[""弱她"",""强她"",""弱我"",""强我""]","","","","","","","","9","","","","","","","","","SRET","SRET_math_calculate","","key","9","16.685185185185187","768","428","","","","","5+4= ?","9","1","","","","","","","",""
"2110","","5","psychophysics","130","374041","0.0-7.0-5.0-0.27","5","6","6","5","3","4","4","4","4","4","4","1","-1","0","1","0","0","0","1","5","4","5","5","4","3","4","5","4","4","5","6","4","6","4","4","6","4","6","6","6","6","6","6","5","6","3","6","6","1","5","4","3","4","6","6","6","6","6","6","3","5","3","3","3","6","6","5","5","5","5","5","6","5","5","6","3","2","5","5","802899041120821250","潘","23","Female","[""坏她"",""好她"",""坏我"",""好我""]","[""弱她"",""强她"",""弱我"",""强我""]","","","","","","","","5","","","","","","","","","SRET","SRET_math_calculate","","key","5","16.68507936507942","768","428","","","","","12-7= ?","5","1","","","","","","","",""
"1755","","9","psychophysics","131","375799","0.0-7.0-5.0-0.28","5","6","6","5","3","4","4","4","4","4","4","1","-1","0","1","0","0","0","1","5","4","5","5","4","3","4","5","4","4","5","6","4","6","4","4","6","4","6","6","6","6","6","6","5","6","3","6","6","1","5","4","3","4","6","6","6","6","6","6","3","5","3","3","3","6","6","5","5","5","5","5","6","5","5","6","3","2","5","5","802899041120821250","潘","23","Female","[""坏她"",""好她"",""坏我"",""好我""]","[""弱她"",""强她"",""弱我"",""强我""]","","","","","","","","9","","","","","","","","","SRET","SRET_math_calculate","","key","9","16.68499999999991","768","428","","","","","4+5= ?","9","1","","","","","","","",""
"2056","","0","psychophysics","132","377859","0.0-7.0-5.0-0.29","5","6","6","5","3","4","4","4","4","4","4","1","-1","0","1","0","0","0","1","5","4","5","5","4","3","4","5","4","4","5","6","4","6","4","4","6","4","6","6","6","6","6","6","5","6","3","6","6","1","5","4","3","4","6","6","6","6","6","6","3","5","3","3","3","6","6","5","5","5","5","5","6","5","5","6","3","2","5","5","802899041120821250","潘","23","Female","[""坏她"",""好她"",""坏我"",""好我""]","[""弱她"",""强她"",""弱我"",""强我""]","","","","","","","","0","","","","","","","","","SRET","SRET_math_calculate","","key","0","16.685081967213247","768","428","","","","","32-32= ?","0","1","","","","","","","",""
"1831","","0","psychophysics","133","379691","0.0-7.0-5.0-0.30","5","6","6","5","3","4","4","4","4","4","4","1","-1","0","1","0","0","0","1","5","4","5","5","4","3","4","5","4","4","5","6","4","6","4","4","6","4","6","6","6","6","6","6","5","6","3","6","6","1","5","4","3","4","6","6","6","6","6","6","3","5","3","3","3","6","6","5","5","5","5","5","6","5","5","6","3","2","5","5","802899041120821250","潘","23","Female","[""坏她"",""好她"",""坏我"",""好我""]","[""弱她"",""强她"",""弱我"",""强我""]","","","","","","","","0","","","","","","","","","SRET","SRET_math_calculate","","key","0","16.684954128440133","768","428","","","","","7*0= ?","0","1","","","","","","","",""
"2700","","9","psychophysics","134","382391","0.0-7.0-5.0-0.31","5","6","6","5","3","4","4","4","4","4","4","1","-1","0","1","0","0","0","1","5","4","5","5","4","3","4","5","4","4","5","6","4","6","4","4","6","4","6","6","6","6","6","6","5","6","3","6","6","1","5","4","3","4","6","6","6","6","6","6","3","5","3","3","3","6","6","5","5","5","5","5","6","5","5","6","3","2","5","5","802899041120821250","潘","23","Female","[""坏她"",""好她"",""坏我"",""好我""]","[""弱她"",""强她"",""弱我"",""强我""]","","","","","","","","9","","","","","","","","","SRET","SRET_math_calculate","","key","9","16.68509316770179","768","428","","","","","32-23= ?","9","1","","","","","","","",""
"2112","","6","psychophysics","135","384506","0.0-7.0-5.0-0.32","5","6","6","5","3","4","4","4","4","4","4","1","-1","0","1","0","0","0","1","5","4","5","5","4","3","4","5","4","4","5","6","4","6","4","4","6","4","6","6","6","6","6","6","5","6","3","6","6","1","5","4","3","4","6","6","6","6","6","6","3","5","3","3","3","6","6","5","5","5","5","5","6","5","5","6","3","2","5","5","802899041120821250","潘","23","Female","[""坏她"",""好她"",""坏我"",""好我""]","[""弱她"",""强她"",""弱我"",""强我""]","","","","","","","","6","","","","","","","","","SRET","SRET_math_calculate","","key","6","16.68507936507942","768","428","","","","","6/2= ?","3","0","","","","","","","",""
"1978","","3","psychophysics","136","386486","0.0-7.0-5.0-0.33","5","6","6","5","3","4","4","4","4","4","4","1","-1","0","1","0","0","0","1","5","4","5","5","4","3","4","5","4","4","5","6","4","6","4","4","6","4","6","6","6","6","6","6","5","6","3","6","6","1","5","4","3","4","6","6","6","6","6","6","3","5","3","3","3","6","6","5","5","5","5","5","6","5","5","6","3","2","5","5","802899041120821250","潘","23","Female","[""坏她"",""好她"",""坏我"",""好我""]","[""弱她"",""强她"",""弱我"",""强我""]","","","","","","","","3","","","","","","","","","SRET","SRET_math_calculate","","key","3","16.685128205128485","768","428","","","","","2+1= ?","3","1","","","","","","","",""
"2436","","5","psychophysics","137","388926","0.0-7.0-5.0-0.34","5","6","6","5","3","4","4","4","4","4","4","1","-1","0","1","0","0","0","1","5","4","5","5","4","3","4","5","4","4","5","6","4","6","4","4","6","4","6","6","6","6","6","6","5","6","3","6","6","1","5","4","3","4","6","6","6","6","6","6","3","5","3","3","3","6","6","5","5","5","5","5","6","5","5","6","3","2","5","5","802899041120821250","潘","23","Female","[""坏她"",""好她"",""坏我"",""好我""]","[""弱她"",""强她"",""弱我"",""强我""]","","","","","","","","5","","","","","","","","","SRET","SRET_math_calculate","","key","5","16.685068493150414","768","428","","","","","8-3= ? ","5","1","","","","","","","",""
"1975","","5","psychophysics","138","390905","0.0-7.0-5.0-0.35","5","6","6","5","3","4","4","4","4","4","4","1","-1","0","1","0","0","0","1","5","4","5","5","4","3","4","5","4","4","5","6","4","6","4","4","6","4","6","6","6","6","6","6","5","6","3","6","6","1","5","4","3","4","6","6","6","6","6","6","3","5","3","3","3","6","6","5","5","5","5","5","6","5","5","6","3","2","5","5","802899041120821250","潘","23","Female","[""坏她"",""好她"",""坏我"",""好我""]","[""弱她"",""强她"",""弱我"",""强我""]","","","","","","","","5","","","","","","","","","SRET","SRET_math_calculate","","key","5","16.685128205128485","768","428","","","","","14-9= ?","5","1","","","","","","","",""
"2115","","1","psychophysics","139","393022","0.0-7.0-5.0-0.36","5","6","6","5","3","4","4","4","4","4","4","1","-1","0","1","0","0","0","1","5","4","5","5","4","3","4","5","4","4","5","6","4","6","4","4","6","4","6","6","6","6","6","6","5","6","3","6","6","1","5","4","3","4","6","6","6","6","6","6","3","5","3","3","3","6","6","5","5","5","5","5","6","5","5","6","3","2","5","5","802899041120821250","潘","23","Female","[""坏她"",""好她"",""坏我"",""好我""]","[""弱她"",""强她"",""弱我"",""强我""]","","","","","","","","1","","","","","","","","","SRET","SRET_math_calculate","","key","1","16.68507936507942","768","428","","","","","12/12= ?","1","1","","","","","","","",""
"2054","","4","psychophysics","140","395075","0.0-7.0-5.0-0.37","5","6","6","5","3","4","4","4","4","4","4","1","-1","0","1","0","0","0","1","5","4","5","5","4","3","4","5","4","4","5","6","4","6","4","4","6","4","6","6","6","6","6","6","5","6","3","6","6","1","5","4","3","4","6","6","6","6","6","6","3","5","3","3","3","6","6","5","5","5","5","5","6","5","5","6","3","2","5","5","802899041120821250","潘","23","Female","[""坏她"",""好她"",""坏我"",""好我""]","[""弱她"",""强她"",""弱我"",""强我""]","","","","","","","","4","","","","","","","","","SRET","SRET_math_calculate","","key","4","16.685245901639153","768","428","","","","","20/5= ?","4","1","","","","","","","",""
"2532","","8","psychophysics","141","397610","0.0-7.0-5.0-0.38","5","6","6","5","3","4","4","4","4","4","4","1","-1","0","1","0","0","0","1","5","4","5","5","4","3","4","5","4","4","5","6","4","6","4","4","6","4","6","6","6","6","6","6","5","6","3","6","6","1","5","4","3","4","6","6","6","6","6","6","3","5","3","3","3","6","6","5","5","5","5","5","6","5","5","6","3","2","5","5","802899041120821250","潘","23","Female","[""坏她"",""好她"",""坏我"",""好我""]","[""弱她"",""强她"",""弱我"",""强我""]","","","","","","","","8","","","","","","","","","SRET","SRET_math_calculate","","key","8","16.68503311258241","768","428","","","","","50-42= ?","8","1","","","","","","","",""
"2127","","7","psychophysics","142","399737","0.0-7.0-5.0-0.39","5","6","6","5","3","4","4","4","4","4","4","1","-1","0","1","0","0","0","1","5","4","5","5","4","3","4","5","4","4","5","6","4","6","4","4","6","4","6","6","6","6","6","6","5","6","3","6","6","1","5","4","3","4","6","6","6","6","6","6","3","5","3","3","3","6","6","5","5","5","5","5","6","5","5","6","3","2","5","5","802899041120821250","潘","23","Female","[""坏她"",""好她"",""坏我"",""好我""]","[""弱她"",""强她"",""弱我"",""强我""]","","","","","","","","7","","","","","","","","","SRET","SRET_math_calculate","","key","7","16.68503937007874","768","428","","","","","12-5= ?","7","1","","","","","","","",""
"2010","","6","psychophysics","143","401752","0.0-7.0-5.0-0.40","5","6","6","5","3","4","4","4","4","4","4","1","-1","0","1","0","0","0","1","5","4","5","5","4","3","4","5","4","4","5","6","4","6","4","4","6","4","6","6","6","6","6","6","5","6","3","6","6","1","5","4","3","4","6","6","6","6","6","6","3","5","3","3","3","6","6","5","5","5","5","5","6","5","5","6","3","2","5","5","802899041120821250","潘","23","Female","[""坏她"",""好她"",""坏我"",""好我""]","[""弱她"",""强她"",""弱我"",""强我""]","","","","","","","","6","","","","","","","","","SRET","SRET_math_calculate","","key","6","16.68504201680688","768","428","","","","","2+4= ?","6","1","","","","","","","",""
