"rt","stimulus","response","trial_type","trial_index","time_elapsed","internal_node_id","swb_1","swb_2","swb_3","swb_4","swb_5","LOT_1","LOT_2","LOT_3","LOT_4","LOT_5","LOT_6","IPC_1","IPC_2","IPC_3","IPC_4","IPC_5","IPC_6","IPC_7","IPC_8","MorIden_1","MorIden_2","MorIden_3","MorIden_4","MorIden_5","MorIden_6","MorIden_7","MorIden_8","MorIden_9","MorIden_10","moralSeImag_1","moralSeImag_2","moralSeImag_3","moralSeImag_4","moralSeImag_5","moralSeImag_6","moralSeImag_7","moralSeImag_8","moralSeImag_9","sde_1","sde_2","sde_3","sde_4","sde_5","sde_6","sde_7","sde_8","sde_9","sde_10","trap2","sde_11","sde_12","sde_13","sde_14","sde_15","sde_16","sde_17","sde_18","sde_19","sde_20","IM_1","IM_2","IM_3","IM_4","IM_5","IM_6","IM_7","IM_8","IM_9","IM_10","IM_11","IM_12","IM_13","IM_14","IM_15","IM_16","IM_17","IM_18","IM_19","IM_20","subj_idx","friend_name","ParticipantID","Sex","Word","Word2","value","success","timeout","failed_images","failed_audio","failed_video","user_agent","responses","item_order","radio_event_ids","radio_event_times","key_event_times","mouse_event_times","straightlining","zigzagging","honeypot","view_history","response_type","key_press","avg_frame_time","center_x","center_y","correct_response","correct","identity","Image","word","condition","task_id","screen_id","time_stamp","person","valence","domain","math","status","duration","question_order","trap2_item"
"5560","
   <p><div style='color:white; font-size: 25px'>您好，欢迎参加本次实验。</div></p>
   <p><div style='color:white; font-size: 25px'>为充分保障您的权利，请确保您已经知晓并同意《参与实验同意书》以及《数据公开知情同意书》。</div></p>
   <p><div style='color:white; font-size: 25px'>如果您未见过上述内容，请咨询实验员。</div></p>
   <p style='color:white; font-size: 25px'>如果您选择继续实验，则表示您已经清楚两份知情同意书的内容并同意。</p>
   <p><div style = ""color: pink;font-size:30px;"">请确保您记得day0的实验编号，您将在本次实验输入该编号，若您忘记，请咨询实验员后作答。</div></p>
   <p><div style = ""color:lightblue;font-size:25px;"">请您尽可能认真地作答，我们将依据您在各问卷和按键任务中的作答质量发放报酬。</div></p>
   <p> <div style = ""color: green""><按空格键至下页></div> </p>
   "," ","html-keyboard-response","0","5561","0.0-0.0","7","7","7","7","6","5","5","5","5","5","5","2","1","2","1","2","2","2","2","5","5","5","5","5","5","5","5","5","5","8","8","7","8","6","7","8","9","8","7","7","7","7","7","7","7","1","7","7","1","7","7","7","7","7","7","7","7","7","7","7","7","7","7","7","7","7","7","7","7","7","6","7","7","7","7","7","7","7","7","672909992034041856","王","700","Male","[""好我"",""坏他"",""坏我"",""好他""]","[""强我"",""弱他"",""弱我"",""强他""]","","","","","","","","","","","","","","","","","","","","","","","","","","","","","","","","","","","","","","",""
"","","","call-function","1","5562","0.0-1.0-0.0","7","7","7","7","6","5","5","5","5","5","5","2","1","2","1","2","2","2","2","5","5","5","5","5","5","5","5","5","5","8","8","7","8","6","7","8","9","8","7","7","7","7","7","7","7","1","7","7","1","7","7","7","7","7","7","7","7","7","7","7","7","7","7","7","7","7","7","7","7","7","6","7","7","7","7","7","7","7","7","672909992034041856","王","700","Male","[""好我"",""坏他"",""坏我"",""好他""]","[""强我"",""弱他"",""弱我"",""强他""]","","","","","","","","","","","","","","","","","","","","","","","","","","","","","","","","","","","","","","",""
"16816","","[{""name"":""Sex"",""value"":""0""},{""name"":""friend_name"",""value"":""王""},{""name"":""ParticipantID"",""value"":""700""}]","survey-html-form","2","22379","0.0-1.0-1.0","7","7","7","7","6","5","5","5","5","5","5","2","1","2","1","2","2","2","2","5","5","5","5","5","5","5","5","5","5","8","8","7","8","6","7","8","9","8","7","7","7","7","7","7","7","1","7","7","1","7","7","7","7","7","7","7","7","7","7","7","7","7","7","7","7","7","7","7","7","7","6","7","7","7","7","7","7","7","7","672909992034041856","王","700","Male","[""好我"",""坏他"",""坏我"",""好他""]","[""强我"",""弱他"",""弱我"",""强他""]","","","","","","","","","","","","","","","","","","","","","","","","","","","","","","","","","","","","","","",""
"","","","preload","3","22892","0.0-2.0","7","7","7","7","6","5","5","5","5","5","5","2","1","2","1","2","2","2","2","5","5","5","5","5","5","5","5","5","5","8","8","7","8","6","7","8","9","8","7","7","7","7","7","7","7","1","7","7","1","7","7","7","7","7","7","7","7","7","7","7","7","7","7","7","7","7","7","7","7","7","6","7","7","7","7","7","7","7","7","672909992034041856","王","700","Male","[""好我"",""坏他"",""坏我"",""好他""]","[""强我"",""弱他"",""弱我"",""强他""]","","true","false","[]","[]","[]","","","","","","","","","","","","","","","","","","","","","","","","","","","","","","","","",""
"","","","fullscreen","4","25201","0.0-3.0","7","7","7","7","6","5","5","5","5","5","5","2","1","2","1","2","2","2","2","5","5","5","5","5","5","5","5","5","5","8","8","7","8","6","7","8","9","8","7","7","7","7","7","7","7","1","7","7","1","7","7","7","7","7","7","7","7","7","7","7","7","7","7","7","7","7","7","7","7","7","6","7","7","7","7","7","7","7","7","672909992034041856","王","700","Male","[""好我"",""坏他"",""坏我"",""好他""]","[""强我"",""弱他"",""弱我"",""强他""]","","true","","","","","{}","","","","","","","","","","","","","","","","","","","","","","","","","","","","","","","",""
"5762.200000047684","","{""Q01"":""7"",""Q02"":""7"",""Q03"":""7"",""Q04"":""7"",""Q05"":""6""}","survey-template","5","30964","0.0-4.0","7","7","7","7","6","5","5","5","5","5","5","2","1","2","1","2","2","2","2","5","5","5","5","5","5","5","5","5","5","8","8","7","8","6","7","8","9","8","7","7","7","7","7","7","7","1","7","7","1","7","7","7","7","7","7","7","7","7","7","7","7","7","7","7","7","7","7","7","7","7","6","7","7","7","7","7","7","7","7","672909992034041856","王","700","Male","[""好我"",""坏他"",""坏我"",""好他""]","[""强我"",""弱他"",""弱我"",""强他""]","","","","","","","","{""Q01"":""7"",""Q02"":""7"",""Q03"":""7"",""Q04"":""7"",""Q05"":""6""}","[0,1,2,3,4]","[""Q01"",""Q02"",""Q03"",""Q04"",""Q05""]","[2208.9000000953674,2985.2000000476837,3578.600000143051,3888.7999999523163,4696.600000143051]","[]","[2208.9000000953674,2985.2000000476837,3353.7999999523163,3578.600000143051,3888.7999999523163,4696.600000143051,5761]","0.8","0.25","0","","","","","","","","","","","","","","","","","","","","","","",""
"7444.299999952316","","{""Q01"":""5"",""Q02"":""5"",""Q03"":""5"",""Q04"":""5"",""Q05"":""5"",""Q06"":""5""}","survey-template","6","38411","0.0-5.0","7","7","7","7","6","5","5","5","5","5","5","2","1","2","1","2","2","2","2","5","5","5","5","5","5","5","5","5","5","8","8","7","8","6","7","8","9","8","7","7","7","7","7","7","7","1","7","7","1","7","7","7","7","7","7","7","7","7","7","7","7","7","7","7","7","7","7","7","7","7","6","7","7","7","7","7","7","7","7","672909992034041856","王","700","Male","[""好我"",""坏他"",""坏我"",""好他""]","[""强我"",""弱他"",""弱我"",""强他""]","","","","","","","","{""Q01"":""5"",""Q02"":""5"",""Q03"":""5"",""Q04"":""5"",""Q05"":""5"",""Q06"":""5""}","[0,1,2,3,4,5]","[""Q03"",""Q04"",""Q05"",""Q06"",""Q02"",""Q01""]","[1596,2605.2999999523163,3324.0999999046326,4092.0999999046326,5444.099999904633,6508.099999904633]","[]","[1596,2605.2999999523163,2923.7000000476837,3324.0999999046326,4092.0999999046326,4972,5444.099999904633,6508.099999904633,7443.799999952316]","0.5","0.8","0","","","","","","","","","","","","","","","","","","","","","","",""
"11455","","{""Q01"":""2"",""Q02"":""1"",""Q03"":""2"",""Q04"":""1"",""Q05"":""2"",""Q06"":""2"",""Q07"":""2"",""Q08"":""2""}","survey-template","7","49869","0.0-6.0","7","7","7","7","6","5","5","5","5","5","5","2","1","2","1","2","2","2","2","5","5","5","5","5","5","5","5","5","5","8","8","7","8","6","7","8","9","8","7","7","7","7","7","7","7","1","7","7","1","7","7","7","7","7","7","7","7","7","7","7","7","7","7","7","7","7","7","7","7","7","6","7","7","7","7","7","7","7","7","672909992034041856","王","700","Male","[""好我"",""坏他"",""坏我"",""好他""]","[""强我"",""弱他"",""弱我"",""强他""]","","","","","","","","{""Q01"":""2"",""Q02"":""1"",""Q03"":""2"",""Q04"":""1"",""Q05"":""2"",""Q06"":""2"",""Q07"":""2"",""Q08"":""2""}","[0,1,2,3,4,5,6,7]","[""Q01"",""Q02"",""Q02"",""Q01"",""Q04"",""Q03"",""Q05"",""Q06"",""Q07"",""Q08""]","[2133.2999999523163,3261.399999856949,4189.299999952316,4821.399999856949,5702.099999904633,6333.700000047684,7197.700000047684,7510.299999952316,7853.399999856949,8421.599999904633]","[]","[2133.2999999523163,3261.399999856949,4189.299999952316,4821.399999856949,5702.099999904633,6333.700000047684,7197.700000047684,7510.299999952316,7853.399999856949,8421.599999904633,11453.700000047684]","0.75","0.5714285714285714","0","","","","","","","","","","","","","","","","","","","","","","",""
"1515","","","instructions","8","51387","0.0-7.0","7","7","7","7","6","5","5","5","5","5","5","2","1","2","1","2","2","2","2","5","5","5","5","5","5","5","5","5","5","8","8","7","8","6","7","8","9","8","7","7","7","7","7","7","7","1","7","7","1","7","7","7","7","7","7","7","7","7","7","7","7","7","7","7","7","7","7","7","7","7","6","7","7","7","7","7","7","7","7","672909992034041856","王","700","Male","[""好我"",""坏他"",""坏我"",""好他""]","[""强我"",""弱他"",""弱我"",""强他""]","","","","","","","","","","","","","","","","","[{""page_index"":0,""viewing_time"":1515}]","","","","","","","","","","","","","","","","","","","","","",""
"100183","","","instructions","9","151570","0.0-8.0-1.0-0.0","7","7","7","7","6","5","5","5","5","5","5","2","1","2","1","2","2","2","2","5","5","5","5","5","5","5","5","5","5","8","8","7","8","6","7","8","9","8","7","7","7","7","7","7","7","1","7","7","1","7","7","7","7","7","7","7","7","7","7","7","7","7","7","7","7","7","7","7","7","7","6","7","7","7","7","7","7","7","7","672909992034041856","王","700","Male","[""好我"",""坏他"",""坏我"",""好他""]","[""强我"",""弱他"",""弱我"",""强他""]","","","","","","","","","","","","","","","","","[{""page_index"":0,""viewing_time"":64239},{""page_index"":1,""viewing_time"":33824},{""page_index"":2,""viewing_time"":696},{""page_index"":3,""viewing_time"":1424}]","","","","","","","","","","","","","","","","","","","","","",""
"633","","j","psychophysics","10","153206","0.0-8.0-1.0-1.0-0.0-0.0","7","7","7","7","6","5","5","5","5","5","5","2","1","2","1","2","2","2","2","5","5","5","5","5","5","5","5","5","5","8","8","7","8","6","7","8","9","8","7","7","7","7","7","7","7","1","7","7","1","7","7","7","7","7","7","7","7","7","7","7","7","7","7","7","7","7","7","7","7","7","6","7","7","7","7","7","7","7","7","672909992034041856","王","700","Male","[""好我"",""坏他"",""坏我"",""好他""]","[""强我"",""弱他"",""弱我"",""强他""]","","","","","","","","nonmatch","","","","","","","","","","key","j","16.65463917525773","768","428","j","true","nonmatch","img/square.png","强我","强他","prac_ALT2_ability","practice_ability","","","","","","","","",""
"null","<span style='color:GreenYellow; font-size: 70px;'>正确! </span>","null","html-keyboard-response","11","153707","0.0-8.0-1.0-1.0-0.0-1.0","7","7","7","7","6","5","5","5","5","5","5","2","1","2","1","2","2","2","2","5","5","5","5","5","5","5","5","5","5","8","8","7","8","6","7","8","9","8","7","7","7","7","7","7","7","1","7","7","1","7","7","7","7","7","7","7","7","7","7","7","7","7","7","7","7","7","7","7","7","7","6","7","7","7","7","7","7","7","7","672909992034041856","王","700","Male","[""好我"",""坏他"",""坏我"",""好他""]","[""强我"",""弱他"",""弱我"",""强他""]","","","","","","","","","","","","","","","","","","","","","","","","","","","","","","feedback_test","","","","","","","","",""
"613","","f","psychophysics","12","155321","0.0-8.0-1.0-1.0-0.0-0.1","7","7","7","7","6","5","5","5","5","5","5","2","1","2","1","2","2","2","2","5","5","5","5","5","5","5","5","5","5","8","8","7","8","6","7","8","9","8","7","7","7","7","7","7","7","1","7","7","1","7","7","7","7","7","7","7","7","7","7","7","7","7","7","7","7","7","7","7","7","7","6","7","7","7","7","7","7","7","7","672909992034041856","王","700","Male","[""好我"",""坏他"",""坏我"",""好他""]","[""强我"",""弱他"",""弱我"",""强他""]","","","","","","","","match","","","","","","","","","","key","f","16.63894736842087","768","428","f","true","match","img/ellipse.png","强我","强我","prac_ALT2_ability","practice_ability","","","","","","","","",""
"null","<span style='color:GreenYellow; font-size: 70px;'>正确! </span>","null","html-keyboard-response","13","155822","0.0-8.0-1.0-1.0-0.0-1.1","7","7","7","7","6","5","5","5","5","5","5","2","1","2","1","2","2","2","2","5","5","5","5","5","5","5","5","5","5","8","8","7","8","6","7","8","9","8","7","7","7","7","7","7","7","1","7","7","1","7","7","7","7","7","7","7","7","7","7","7","7","7","7","7","7","7","7","7","7","7","6","7","7","7","7","7","7","7","7","672909992034041856","王","700","Male","[""好我"",""坏他"",""坏我"",""好他""]","[""强我"",""弱他"",""弱我"",""强他""]","","","","","","","","","","","","","","","","","","","","","","","","","","","","","","feedback_test","","","","","","","","",""
"762","","j","psychophysics","14","157585","0.0-8.0-1.0-1.0-0.0-0.2","7","7","7","7","6","5","5","5","5","5","5","2","1","2","1","2","2","2","2","5","5","5","5","5","5","5","5","5","5","8","8","7","8","6","7","8","9","8","7","7","7","7","7","7","7","1","7","7","1","7","7","7","7","7","7","7","7","7","7","7","7","7","7","7","7","7","7","7","7","7","6","7","7","7","7","7","7","7","7","672909992034041856","王","700","Male","[""好我"",""坏他"",""坏我"",""好他""]","[""强我"",""弱他"",""弱我"",""强他""]","","","","","","","","nonmatch","","","","","","","","","","key","j","16.65096153846165","768","428","j","true","nonmatch","img/ellipse.png","弱他","强我","prac_ALT2_ability","practice_ability","","","","","","","","",""
"null","<span style='color:GreenYellow; font-size: 70px;'>正确! </span>","null","html-keyboard-response","15","158085","0.0-8.0-1.0-1.0-0.0-1.2","7","7","7","7","6","5","5","5","5","5","5","2","1","2","1","2","2","2","2","5","5","5","5","5","5","5","5","5","5","8","8","7","8","6","7","8","9","8","7","7","7","7","7","7","7","1","7","7","1","7","7","7","7","7","7","7","7","7","7","7","7","7","7","7","7","7","7","7","7","7","6","7","7","7","7","7","7","7","7","672909992034041856","王","700","Male","[""好我"",""坏他"",""坏我"",""好他""]","[""强我"",""弱他"",""弱我"",""强他""]","","","","","","","","","","","","","","","","","","","","","","","","","","","","","","feedback_test","","","","","","","","",""
"807","","f","psychophysics","16","159894","0.0-8.0-1.0-1.0-0.0-0.3","7","7","7","7","6","5","5","5","5","5","5","2","1","2","1","2","2","2","2","5","5","5","5","5","5","5","5","5","5","8","8","7","8","6","7","8","9","8","7","7","7","7","7","7","7","1","7","7","1","7","7","7","7","7","7","7","7","7","7","7","7","7","7","7","7","7","7","7","7","7","6","7","7","7","7","7","7","7","7","672909992034041856","王","700","Male","[""好我"",""坏他"",""坏我"",""好他""]","[""强我"",""弱他"",""弱我"",""强他""]","","","","","","","","match","","","","","","","","","","key","f","16.65370370370376","768","428","f","true","match","img/ellipse.png","强我","强我","prac_ALT2_ability","practice_ability","","","","","","","","",""
"null","<span style='color:GreenYellow; font-size: 70px;'>正确! </span>","null","html-keyboard-response","17","160395","0.0-8.0-1.0-1.0-0.0-1.3","7","7","7","7","6","5","5","5","5","5","5","2","1","2","1","2","2","2","2","5","5","5","5","5","5","5","5","5","5","8","8","7","8","6","7","8","9","8","7","7","7","7","7","7","7","1","7","7","1","7","7","7","7","7","7","7","7","7","7","7","7","7","7","7","7","7","7","7","7","7","6","7","7","7","7","7","7","7","7","672909992034041856","王","700","Male","[""好我"",""坏他"",""坏我"",""好他""]","[""强我"",""弱他"",""弱我"",""强他""]","","","","","","","","","","","","","","","","","","","","","","","","","","","","","","feedback_test","","","","","","","","",""
"676","","j","psychophysics","18","162074","0.0-8.0-1.0-1.0-0.0-0.4","7","7","7","7","6","5","5","5","5","5","5","2","1","2","1","2","2","2","2","5","5","5","5","5","5","5","5","5","5","8","8","7","8","6","7","8","9","8","7","7","7","7","7","7","7","1","7","7","1","7","7","7","7","7","7","7","7","7","7","7","7","7","7","7","7","7","7","7","7","7","6","7","7","7","7","7","7","7","7","672909992034041856","王","700","Male","[""好我"",""坏他"",""坏我"",""好他""]","[""强我"",""弱他"",""弱我"",""强他""]","","","","","","","","nonmatch","","","","","","","","","","key","j","16.64899999999994","768","428","j","true","nonmatch","img/trapezoid.png","强他","弱我","prac_ALT2_ability","practice_ability","","","","","","","","",""
"null","<span style='color:GreenYellow; font-size: 70px;'>正确! </span>","null","html-keyboard-response","19","162574","0.0-8.0-1.0-1.0-0.0-1.4","7","7","7","7","6","5","5","5","5","5","5","2","1","2","1","2","2","2","2","5","5","5","5","5","5","5","5","5","5","8","8","7","8","6","7","8","9","8","7","7","7","7","7","7","7","1","7","7","1","7","7","7","7","7","7","7","7","7","7","7","7","7","7","7","7","7","7","7","7","7","6","7","7","7","7","7","7","7","7","672909992034041856","王","700","Male","[""好我"",""坏他"",""坏我"",""好他""]","[""强我"",""弱他"",""弱我"",""强他""]","","","","","","","","","","","","","","","","","","","","","","","","","","","","","","feedback_test","","","","","","","","",""
"667","","j","psychophysics","20","164243","0.0-8.0-1.0-1.0-0.0-0.5","7","7","7","7","6","5","5","5","5","5","5","2","1","2","1","2","2","2","2","5","5","5","5","5","5","5","5","5","5","8","8","7","8","6","7","8","9","8","7","7","7","7","7","7","7","1","7","7","1","7","7","7","7","7","7","7","7","7","7","7","7","7","7","7","7","7","7","7","7","7","6","7","7","7","7","7","7","7","7","672909992034041856","王","700","Male","[""好我"",""坏他"",""坏我"",""好他""]","[""强我"",""弱他"",""弱我"",""强他""]","","","","","","","","nonmatch","","","","","","","","","","key","j","16.65252525252531","768","428","f","false","match","img/trapezoid.png","弱我","弱我","prac_ALT2_ability","practice_ability","","","","","","","","",""
"null","<span style='color:red; font-size: 70px;'>错误! </span>","null","html-keyboard-response","21","164745","0.0-8.0-1.0-1.0-0.0-1.5","7","7","7","7","6","5","5","5","5","5","5","2","1","2","1","2","2","2","2","5","5","5","5","5","5","5","5","5","5","8","8","7","8","6","7","8","9","8","7","7","7","7","7","7","7","1","7","7","1","7","7","7","7","7","7","7","7","7","7","7","7","7","7","7","7","7","7","7","7","7","6","7","7","7","7","7","7","7","7","672909992034041856","王","700","Male","[""好我"",""坏他"",""坏我"",""好他""]","[""强我"",""弱他"",""弱我"",""强他""]","","","","","","","","","","","","","","","","","","","","","","","","","","","","","","feedback_test","","","","","","","","",""
"900","","j","psychophysics","22","166648","0.0-8.0-1.0-1.0-0.0-0.6","7","7","7","7","6","5","5","5","5","5","5","2","1","2","1","2","2","2","2","5","5","5","5","5","5","5","5","5","5","8","8","7","8","6","7","8","9","8","7","7","7","7","7","7","7","1","7","7","1","7","7","7","7","7","7","7","7","7","7","7","7","7","7","7","7","7","7","7","7","7","6","7","7","7","7","7","7","7","7","672909992034041856","王","700","Male","[""好我"",""坏他"",""坏我"",""好他""]","[""强我"",""弱他"",""弱我"",""强他""]","","","","","","","","nonmatch","","","","","","","","","","key","j","16.651754385965067","768","428","f","false","match","img/square.png","强他","强他","prac_ALT2_ability","practice_ability","","","","","","","","",""
"null","<span style='color:red; font-size: 70px;'>错误! </span>","null","html-keyboard-response","23","167152","0.0-8.0-1.0-1.0-0.0-1.6","7","7","7","7","6","5","5","5","5","5","5","2","1","2","1","2","2","2","2","5","5","5","5","5","5","5","5","5","5","8","8","7","8","6","7","8","9","8","7","7","7","7","7","7","7","1","7","7","1","7","7","7","7","7","7","7","7","7","7","7","7","7","7","7","7","7","7","7","7","7","6","7","7","7","7","7","7","7","7","672909992034041856","王","700","Male","[""好我"",""坏他"",""坏我"",""好他""]","[""强我"",""弱他"",""弱我"",""强他""]","","","","","","","","","","","","","","","","","","","","","","","","","","","","","","feedback_test","","","","","","","","",""
"818","","j","psychophysics","24","168971","0.0-8.0-1.0-1.0-0.0-0.7","7","7","7","7","6","5","5","5","5","5","5","2","1","2","1","2","2","2","2","5","5","5","5","5","5","5","5","5","5","8","8","7","8","6","7","8","9","8","7","7","7","7","7","7","7","1","7","7","1","7","7","7","7","7","7","7","7","7","7","7","7","7","7","7","7","7","7","7","7","7","6","7","7","7","7","7","7","7","7","672909992034041856","王","700","Male","[""好我"",""坏他"",""坏我"",""好他""]","[""强我"",""弱他"",""弱我"",""强他""]","","","","","","","","nonmatch","","","","","","","","","","key","j","16.65277777777778","768","428","j","true","nonmatch","img/ellipse.png","弱我","强我","prac_ALT2_ability","practice_ability","","","","","","","","",""
"null","<span style='color:GreenYellow; font-size: 70px;'>正确! </span>","null","html-keyboard-response","25","169472","0.0-8.0-1.0-1.0-0.0-1.7","7","7","7","7","6","5","5","5","5","5","5","2","1","2","1","2","2","2","2","5","5","5","5","5","5","5","5","5","5","8","8","7","8","6","7","8","9","8","7","7","7","7","7","7","7","1","7","7","1","7","7","7","7","7","7","7","7","7","7","7","7","7","7","7","7","7","7","7","7","7","6","7","7","7","7","7","7","7","7","672909992034041856","王","700","Male","[""好我"",""坏他"",""坏我"",""好他""]","[""强我"",""弱他"",""弱我"",""强他""]","","","","","","","","","","","","","","","","","","","","","","","","","","","","","","feedback_test","","","","","","","","",""
"727","","f","psychophysics","26","171201","0.0-8.0-1.0-1.0-0.0-0.8","7","7","7","7","6","5","5","5","5","5","5","2","1","2","1","2","2","2","2","5","5","5","5","5","5","5","5","5","5","8","8","7","8","6","7","8","9","8","7","7","7","7","7","7","7","1","7","7","1","7","7","7","7","7","7","7","7","7","7","7","7","7","7","7","7","7","7","7","7","7","6","7","7","7","7","7","7","7","7","672909992034041856","王","700","Male","[""好我"",""坏他"",""坏我"",""好他""]","[""强我"",""弱他"",""弱我"",""强他""]","","","","","","","","match","","","","","","","","","","key","f","16.65242718446613","768","428","f","true","match","img/ellipse.png","强我","强我","prac_ALT2_ability","practice_ability","","","","","","","","",""
"null","<span style='color:GreenYellow; font-size: 70px;'>正确! </span>","null","html-keyboard-response","27","171701","0.0-8.0-1.0-1.0-0.0-1.8","7","7","7","7","6","5","5","5","5","5","5","2","1","2","1","2","2","2","2","5","5","5","5","5","5","5","5","5","5","8","8","7","8","6","7","8","9","8","7","7","7","7","7","7","7","1","7","7","1","7","7","7","7","7","7","7","7","7","7","7","7","7","7","7","7","7","7","7","7","7","6","7","7","7","7","7","7","7","7","672909992034041856","王","700","Male","[""好我"",""坏他"",""坏我"",""好他""]","[""强我"",""弱他"",""弱我"",""强他""]","","","","","","","","","","","","","","","","","","","","","","","","","","","","","","feedback_test","","","","","","","","",""
"786","","j","psychophysics","28","173490","0.0-8.0-1.0-1.0-0.0-0.9","7","7","7","7","6","5","5","5","5","5","5","2","1","2","1","2","2","2","2","5","5","5","5","5","5","5","5","5","5","8","8","7","8","6","7","8","9","8","7","7","7","7","7","7","7","1","7","7","1","7","7","7","7","7","7","7","7","7","7","7","7","7","7","7","7","7","7","7","7","7","6","7","7","7","7","7","7","7","7","672909992034041856","王","700","Male","[""好我"",""坏他"",""坏我"",""好他""]","[""强我"",""弱他"",""弱我"",""强他""]","","","","","","","","nonmatch","","","","","","","","","","key","j","16.651886792452885","768","428","j","true","nonmatch","img/hexagon.png","弱我","弱他","prac_ALT2_ability","practice_ability","","","","","","","","",""
"null","<span style='color:GreenYellow; font-size: 70px;'>正确! </span>","null","html-keyboard-response","29","173991","0.0-8.0-1.0-1.0-0.0-1.9","7","7","7","7","6","5","5","5","5","5","5","2","1","2","1","2","2","2","2","5","5","5","5","5","5","5","5","5","5","8","8","7","8","6","7","8","9","8","7","7","7","7","7","7","7","1","7","7","1","7","7","7","7","7","7","7","7","7","7","7","7","7","7","7","7","7","7","7","7","7","6","7","7","7","7","7","7","7","7","672909992034041856","王","700","Male","[""好我"",""坏他"",""坏我"",""好他""]","[""强我"",""弱他"",""弱我"",""强他""]","","","","","","","","","","","","","","","","","","","","","","","","","","","","","","feedback_test","","","","","","","","",""
"925","","f","psychophysics","30","175918","0.0-8.0-1.0-1.0-0.0-0.10","7","7","7","7","6","5","5","5","5","5","5","2","1","2","1","2","2","2","2","5","5","5","5","5","5","5","5","5","5","8","8","7","8","6","7","8","9","8","7","7","7","7","7","7","7","1","7","7","1","7","7","7","7","7","7","7","7","7","7","7","7","7","7","7","7","7","7","7","7","7","6","7","7","7","7","7","7","7","7","672909992034041856","王","700","Male","[""好我"",""坏他"",""坏我"",""好他""]","[""强我"",""弱他"",""弱我"",""强他""]","","","","","","","","match","","","","","","","","","","key","f","16.652631578947318","768","428","f","true","match","img/trapezoid.png","弱我","弱我","prac_ALT2_ability","practice_ability","","","","","","","","",""
"null","<span style='color:GreenYellow; font-size: 70px;'>正确! </span>","null","html-keyboard-response","31","176420","0.0-8.0-1.0-1.0-0.0-1.10","7","7","7","7","6","5","5","5","5","5","5","2","1","2","1","2","2","2","2","5","5","5","5","5","5","5","5","5","5","8","8","7","8","6","7","8","9","8","7","7","7","7","7","7","7","1","7","7","1","7","7","7","7","7","7","7","7","7","7","7","7","7","7","7","7","7","7","7","7","7","6","7","7","7","7","7","7","7","7","672909992034041856","王","700","Male","[""好我"",""坏他"",""坏我"",""好他""]","[""强我"",""弱他"",""弱我"",""强他""]","","","","","","","","","","","","","","","","","","","","","","","","","","","","","","feedback_test","","","","","","","","",""
"662","","j","psychophysics","32","178084","0.0-8.0-1.0-1.0-0.0-0.11","7","7","7","7","6","5","5","5","5","5","5","2","1","2","1","2","2","2","2","5","5","5","5","5","5","5","5","5","5","8","8","7","8","6","7","8","9","8","7","7","7","7","7","7","7","1","7","7","1","7","7","7","7","7","7","7","7","7","7","7","7","7","7","7","7","7","7","7","7","7","6","7","7","7","7","7","7","7","7","672909992034041856","王","700","Male","[""好我"",""坏他"",""坏我"",""好他""]","[""强我"",""弱他"",""弱我"",""强他""]","","","","","","","","nonmatch","","","","","","","","","","key","j","16.64999999999982","768","428","j","true","nonmatch","img/hexagon.png","强他","弱他","prac_ALT2_ability","practice_ability","","","","","","","","",""
"null","<span style='color:GreenYellow; font-size: 70px;'>正确! </span>","null","html-keyboard-response","33","178586","0.0-8.0-1.0-1.0-0.0-1.11","7","7","7","7","6","5","5","5","5","5","5","2","1","2","1","2","2","2","2","5","5","5","5","5","5","5","5","5","5","8","8","7","8","6","7","8","9","8","7","7","7","7","7","7","7","1","7","7","1","7","7","7","7","7","7","7","7","7","7","7","7","7","7","7","7","7","7","7","7","7","6","7","7","7","7","7","7","7","7","672909992034041856","王","700","Male","[""好我"",""坏他"",""坏我"",""好他""]","[""强我"",""弱他"",""弱我"",""强他""]","","","","","","","","","","","","","","","","","","","","","","","","","","","","","","feedback_test","","","","","","","","",""
"620","","j","psychophysics","34","180208","0.0-8.0-1.0-1.0-0.0-0.12","7","7","7","7","6","5","5","5","5","5","5","2","1","2","1","2","2","2","2","5","5","5","5","5","5","5","5","5","5","8","8","7","8","6","7","8","9","8","7","7","7","7","7","7","7","1","7","7","1","7","7","7","7","7","7","7","7","7","7","7","7","7","7","7","7","7","7","7","7","7","6","7","7","7","7","7","7","7","7","672909992034041856","王","700","Male","[""好我"",""坏他"",""坏我"",""好他""]","[""强我"",""弱他"",""弱我"",""强他""]","","","","","","","","nonmatch","","","","","","","","","","key","j","16.651041666666668","768","428","j","true","nonmatch","img/square.png","弱我","强他","prac_ALT2_ability","practice_ability","","","","","","","","",""
"null","<span style='color:GreenYellow; font-size: 70px;'>正确! </span>","null","html-keyboard-response","35","180709","0.0-8.0-1.0-1.0-0.0-1.12","7","7","7","7","6","5","5","5","5","5","5","2","1","2","1","2","2","2","2","5","5","5","5","5","5","5","5","5","5","8","8","7","8","6","7","8","9","8","7","7","7","7","7","7","7","1","7","7","1","7","7","7","7","7","7","7","7","7","7","7","7","7","7","7","7","7","7","7","7","7","6","7","7","7","7","7","7","7","7","672909992034041856","王","700","Male","[""好我"",""坏他"",""坏我"",""好他""]","[""强我"",""弱他"",""弱我"",""强他""]","","","","","","","","","","","","","","","","","","","","","","","","","","","","","","feedback_test","","","","","","","","",""
"783","","f","psychophysics","36","182493","0.0-8.0-1.0-1.0-0.0-0.13","7","7","7","7","6","5","5","5","5","5","5","2","1","2","1","2","2","2","2","5","5","5","5","5","5","5","5","5","5","8","8","7","8","6","7","8","9","8","7","7","7","7","7","7","7","1","7","7","1","7","7","7","7","7","7","7","7","7","7","7","7","7","7","7","7","7","7","7","7","7","6","7","7","7","7","7","7","7","7","672909992034041856","王","700","Male","[""好我"",""坏他"",""坏我"",""好他""]","[""强我"",""弱他"",""弱我"",""强他""]","","","","","","","","match","","","","","","","","","","key","f","16.651886792452885","768","428","f","true","match","img/square.png","强他","强他","prac_ALT2_ability","practice_ability","","","","","","","","",""
"null","<span style='color:GreenYellow; font-size: 70px;'>正确! </span>","null","html-keyboard-response","37","182995","0.0-8.0-1.0-1.0-0.0-1.13","7","7","7","7","6","5","5","5","5","5","5","2","1","2","1","2","2","2","2","5","5","5","5","5","5","5","5","5","5","8","8","7","8","6","7","8","9","8","7","7","7","7","7","7","7","1","7","7","1","7","7","7","7","7","7","7","7","7","7","7","7","7","7","7","7","7","7","7","7","7","6","7","7","7","7","7","7","7","7","672909992034041856","王","700","Male","[""好我"",""坏他"",""坏我"",""好他""]","[""强我"",""弱他"",""弱我"",""强他""]","","","","","","","","","","","","","","","","","","","","","","","","","","","","","","feedback_test","","","","","","","","",""
"785","","f","psychophysics","38","184781","0.0-8.0-1.0-1.0-0.0-0.14","7","7","7","7","6","5","5","5","5","5","5","2","1","2","1","2","2","2","2","5","5","5","5","5","5","5","5","5","5","8","8","7","8","6","7","8","9","8","7","7","7","7","7","7","7","1","7","7","1","7","7","7","7","7","7","7","7","7","7","7","7","7","7","7","7","7","7","7","7","7","6","7","7","7","7","7","7","7","7","672909992034041856","王","700","Male","[""好我"",""坏他"",""坏我"",""好他""]","[""强我"",""弱他"",""弱我"",""强他""]","","","","","","","","match","","","","","","","","","","key","f","16.65140186915899","768","428","j","false","nonmatch","img/trapezoid.png","弱他","弱我","prac_ALT2_ability","practice_ability","","","","","","","","",""
"null","<span style='color:red; font-size: 70px;'>错误! </span>","null","html-keyboard-response","39","185282","0.0-8.0-1.0-1.0-0.0-1.14","7","7","7","7","6","5","5","5","5","5","5","2","1","2","1","2","2","2","2","5","5","5","5","5","5","5","5","5","5","8","8","7","8","6","7","8","9","8","7","7","7","7","7","7","7","1","7","7","1","7","7","7","7","7","7","7","7","7","7","7","7","7","7","7","7","7","7","7","7","7","6","7","7","7","7","7","7","7","7","672909992034041856","王","700","Male","[""好我"",""坏他"",""坏我"",""好他""]","[""强我"",""弱他"",""弱我"",""强他""]","","","","","","","","","","","","","","","","","","","","","","","","","","","","","","feedback_test","","","","","","","","",""
"846","","f","psychophysics","40","187131","0.0-8.0-1.0-1.0-0.0-0.15","7","7","7","7","6","5","5","5","5","5","5","2","1","2","1","2","2","2","2","5","5","5","5","5","5","5","5","5","5","8","8","7","8","6","7","8","9","8","7","7","7","7","7","7","7","1","7","7","1","7","7","7","7","7","7","7","7","7","7","7","7","7","7","7","7","7","7","7","7","7","6","7","7","7","7","7","7","7","7","672909992034041856","王","700","Male","[""好我"",""坏他"",""坏我"",""好他""]","[""强我"",""弱他"",""弱我"",""强他""]","","","","","","","","match","","","","","","","","","","key","f","16.65","768","428","f","true","match","img/hexagon.png","弱他","弱他","prac_ALT2_ability","practice_ability","","","","","","","","",""
"null","<span style='color:GreenYellow; font-size: 70px;'>正确! </span>","null","html-keyboard-response","41","187631","0.0-8.0-1.0-1.0-0.0-1.15","7","7","7","7","6","5","5","5","5","5","5","2","1","2","1","2","2","2","2","5","5","5","5","5","5","5","5","5","5","8","8","7","8","6","7","8","9","8","7","7","7","7","7","7","7","1","7","7","1","7","7","7","7","7","7","7","7","7","7","7","7","7","7","7","7","7","7","7","7","7","6","7","7","7","7","7","7","7","7","672909992034041856","王","700","Male","[""好我"",""坏他"",""坏我"",""好他""]","[""强我"",""弱他"",""弱我"",""强他""]","","","","","","","","","","","","","","","","","","","","","","","","","","","","","","feedback_test","","","","","","","","",""
"741","","j","psychophysics","42","189374","0.0-8.0-1.0-1.0-0.0-0.16","7","7","7","7","6","5","5","5","5","5","5","2","1","2","1","2","2","2","2","5","5","5","5","5","5","5","5","5","5","8","8","7","8","6","7","8","9","8","7","7","7","7","7","7","7","1","7","7","1","7","7","7","7","7","7","7","7","7","7","7","7","7","7","7","7","7","7","7","7","7","6","7","7","7","7","7","7","7","7","672909992034041856","王","700","Male","[""好我"",""坏他"",""坏我"",""好他""]","[""强我"",""弱他"",""弱我"",""强他""]","","","","","","","","nonmatch","","","","","","","","","","key","j","16.651456310679386","768","428","j","true","nonmatch","img/trapezoid.png","强我","弱我","prac_ALT2_ability","practice_ability","","","","","","","","",""
"null","<span style='color:GreenYellow; font-size: 70px;'>正确! </span>","null","html-keyboard-response","43","189875","0.0-8.0-1.0-1.0-0.0-1.16","7","7","7","7","6","5","5","5","5","5","5","2","1","2","1","2","2","2","2","5","5","5","5","5","5","5","5","5","5","8","8","7","8","6","7","8","9","8","7","7","7","7","7","7","7","1","7","7","1","7","7","7","7","7","7","7","7","7","7","7","7","7","7","7","7","7","7","7","7","7","6","7","7","7","7","7","7","7","7","672909992034041856","王","700","Male","[""好我"",""坏他"",""坏我"",""好他""]","[""强我"",""弱他"",""弱我"",""强他""]","","","","","","","","","","","","","","","","","","","","","","","","","","","","","","feedback_test","","","","","","","","",""
"749","","j","psychophysics","44","191625","0.0-8.0-1.0-1.0-0.0-0.17","7","7","7","7","6","5","5","5","5","5","5","2","1","2","1","2","2","2","2","5","5","5","5","5","5","5","5","5","5","8","8","7","8","6","7","8","9","8","7","7","7","7","7","7","7","1","7","7","1","7","7","7","7","7","7","7","7","7","7","7","7","7","7","7","7","7","7","7","7","7","6","7","7","7","7","7","7","7","7","672909992034041856","王","700","Male","[""好我"",""坏他"",""坏我"",""好他""]","[""强我"",""弱他"",""弱我"",""强他""]","","","","","","","","nonmatch","","","","","","","","","","key","j","16.651923076922966","768","428","j","true","nonmatch","img/ellipse.png","强他","强我","prac_ALT2_ability","practice_ability","","","","","","","","",""
"null","<span style='color:GreenYellow; font-size: 70px;'>正确! </span>","null","html-keyboard-response","45","192125","0.0-8.0-1.0-1.0-0.0-1.17","7","7","7","7","6","5","5","5","5","5","5","2","1","2","1","2","2","2","2","5","5","5","5","5","5","5","5","5","5","8","8","7","8","6","7","8","9","8","7","7","7","7","7","7","7","1","7","7","1","7","7","7","7","7","7","7","7","7","7","7","7","7","7","7","7","7","7","7","7","7","6","7","7","7","7","7","7","7","7","672909992034041856","王","700","Male","[""好我"",""坏他"",""坏我"",""好他""]","[""强我"",""弱他"",""弱我"",""强他""]","","","","","","","","","","","","","","","","","","","","","","","","","","","","","","feedback_test","","","","","","","","",""
"761","","f","psychophysics","46","193889","0.0-8.0-1.0-1.0-0.0-0.18","7","7","7","7","6","5","5","5","5","5","5","2","1","2","1","2","2","2","2","5","5","5","5","5","5","5","5","5","5","8","8","7","8","6","7","8","9","8","7","7","7","7","7","7","7","1","7","7","1","7","7","7","7","7","7","7","7","7","7","7","7","7","7","7","7","7","7","7","7","7","6","7","7","7","7","7","7","7","7","672909992034041856","王","700","Male","[""好我"",""坏他"",""坏我"",""好他""]","[""强我"",""弱他"",""弱我"",""强他""]","","","","","","","","match","","","","","","","","","","key","f","16.648571428571483","768","428","f","true","match","img/hexagon.png","弱他","弱他","prac_ALT2_ability","practice_ability","","","","","","","","",""
"null","<span style='color:GreenYellow; font-size: 70px;'>正确! </span>","null","html-keyboard-response","47","194390","0.0-8.0-1.0-1.0-0.0-1.18","7","7","7","7","6","5","5","5","5","5","5","2","1","2","1","2","2","2","2","5","5","5","5","5","5","5","5","5","5","8","8","7","8","6","7","8","9","8","7","7","7","7","7","7","7","1","7","7","1","7","7","7","7","7","7","7","7","7","7","7","7","7","7","7","7","7","7","7","7","7","6","7","7","7","7","7","7","7","7","672909992034041856","王","700","Male","[""好我"",""坏他"",""坏我"",""好他""]","[""强我"",""弱他"",""弱我"",""强他""]","","","","","","","","","","","","","","","","","","","","","","","","","","","","","","feedback_test","","","","","","","","",""
"732","","f","psychophysics","48","196124","0.0-8.0-1.0-1.0-0.0-0.19","7","7","7","7","6","5","5","5","5","5","5","2","1","2","1","2","2","2","2","5","5","5","5","5","5","5","5","5","5","8","8","7","8","6","7","8","9","8","7","7","7","7","7","7","7","1","7","7","1","7","7","7","7","7","7","7","7","7","7","7","7","7","7","7","7","7","7","7","7","7","6","7","7","7","7","7","7","7","7","672909992034041856","王","700","Male","[""好我"",""坏他"",""坏我"",""好他""]","[""强我"",""弱他"",""弱我"",""强他""]","","","","","","","","match","","","","","","","","","","key","f","16.647572815534094","768","428","f","true","match","img/square.png","强他","强他","prac_ALT2_ability","practice_ability","","","","","","","","",""
"null","<span style='color:GreenYellow; font-size: 70px;'>正确! </span>","null","html-keyboard-response","49","196626","0.0-8.0-1.0-1.0-0.0-1.19","7","7","7","7","6","5","5","5","5","5","5","2","1","2","1","2","2","2","2","5","5","5","5","5","5","5","5","5","5","8","8","7","8","6","7","8","9","8","7","7","7","7","7","7","7","1","7","7","1","7","7","7","7","7","7","7","7","7","7","7","7","7","7","7","7","7","7","7","7","7","6","7","7","7","7","7","7","7","7","672909992034041856","王","700","Male","[""好我"",""坏他"",""坏我"",""好他""]","[""强我"",""弱他"",""弱我"",""强他""]","","","","","","","","","","","","","","","","","","","","","","","","","","","","","","feedback_test","","","","","","","","",""
"795","","j","psychophysics","50","198422","0.0-8.0-1.0-1.0-0.0-0.20","7","7","7","7","6","5","5","5","5","5","5","2","1","2","1","2","2","2","2","5","5","5","5","5","5","5","5","5","5","8","8","7","8","6","7","8","9","8","7","7","7","7","7","7","7","1","7","7","1","7","7","7","7","7","7","7","7","7","7","7","7","7","7","7","7","7","7","7","7","7","6","7","7","7","7","7","7","7","7","672909992034041856","王","700","Male","[""好我"",""坏他"",""坏我"",""好他""]","[""强我"",""弱他"",""弱我"",""强他""]","","","","","","","","nonmatch","","","","","","","","","","key","j","16.65140186915899","768","428","j","true","nonmatch","img/hexagon.png","强我","弱他","prac_ALT2_ability","practice_ability","","","","","","","","",""
"null","<span style='color:GreenYellow; font-size: 70px;'>正确! </span>","null","html-keyboard-response","51","198923","0.0-8.0-1.0-1.0-0.0-1.20","7","7","7","7","6","5","5","5","5","5","5","2","1","2","1","2","2","2","2","5","5","5","5","5","5","5","5","5","5","8","8","7","8","6","7","8","9","8","7","7","7","7","7","7","7","1","7","7","1","7","7","7","7","7","7","7","7","7","7","7","7","7","7","7","7","7","7","7","7","7","6","7","7","7","7","7","7","7","7","672909992034041856","王","700","Male","[""好我"",""坏他"",""坏我"",""好他""]","[""强我"",""弱他"",""弱我"",""强他""]","","","","","","","","","","","","","","","","","","","","","","","","","","","","","","feedback_test","","","","","","","","",""
"677","","j","psychophysics","52","200601","0.0-8.0-1.0-1.0-0.0-0.21","7","7","7","7","6","5","5","5","5","5","5","2","1","2","1","2","2","2","2","5","5","5","5","5","5","5","5","5","5","8","8","7","8","6","7","8","9","8","7","7","7","7","7","7","7","1","7","7","1","7","7","7","7","7","7","7","7","7","7","7","7","7","7","7","7","7","7","7","7","7","6","7","7","7","7","7","7","7","7","672909992034041856","王","700","Male","[""好我"",""坏他"",""坏我"",""好他""]","[""强我"",""弱他"",""弱我"",""强他""]","","","","","","","","nonmatch","","","","","","","","","","key","j","16.64899999999994","768","428","f","false","match","img/hexagon.png","弱他","弱他","prac_ALT2_ability","practice_ability","","","","","","","","",""
"null","<span style='color:red; font-size: 70px;'>错误! </span>","null","html-keyboard-response","53","201102","0.0-8.0-1.0-1.0-0.0-1.21","7","7","7","7","6","5","5","5","5","5","5","2","1","2","1","2","2","2","2","5","5","5","5","5","5","5","5","5","5","8","8","7","8","6","7","8","9","8","7","7","7","7","7","7","7","1","7","7","1","7","7","7","7","7","7","7","7","7","7","7","7","7","7","7","7","7","7","7","7","7","6","7","7","7","7","7","7","7","7","672909992034041856","王","700","Male","[""好我"",""坏他"",""坏我"",""好他""]","[""强我"",""弱他"",""弱我"",""强他""]","","","","","","","","","","","","","","","","","","","","","","","","","","","","","","feedback_test","","","","","","","","",""
"681","","f","psychophysics","54","202786","0.0-8.0-1.0-1.0-0.0-0.22","7","7","7","7","6","5","5","5","5","5","5","2","1","2","1","2","2","2","2","5","5","5","5","5","5","5","5","5","5","8","8","7","8","6","7","8","9","8","7","7","7","7","7","7","7","1","7","7","1","7","7","7","7","7","7","7","7","7","7","7","7","7","7","7","7","7","7","7","7","7","6","7","7","7","7","7","7","7","7","672909992034041856","王","700","Male","[""好我"",""坏他"",""坏我"",""好他""]","[""强我"",""弱他"",""弱我"",""强他""]","","","","","","","","match","","","","","","","","","","key","f","16.651000000000057","768","428","j","false","nonmatch","img/square.png","弱他","强他","prac_ALT2_ability","practice_ability","","","","","","","","",""
"null","<span style='color:red; font-size: 70px;'>错误! </span>","null","html-keyboard-response","55","203286","0.0-8.0-1.0-1.0-0.0-1.22","7","7","7","7","6","5","5","5","5","5","5","2","1","2","1","2","2","2","2","5","5","5","5","5","5","5","5","5","5","8","8","7","8","6","7","8","9","8","7","7","7","7","7","7","7","1","7","7","1","7","7","7","7","7","7","7","7","7","7","7","7","7","7","7","7","7","7","7","7","7","6","7","7","7","7","7","7","7","7","672909992034041856","王","700","Male","[""好我"",""坏他"",""坏我"",""好他""]","[""强我"",""弱他"",""弱我"",""强他""]","","","","","","","","","","","","","","","","","","","","","","","","","","","","","","feedback_test","","","","","","","","",""
"1018","","j","psychophysics","56","205305","0.0-8.0-1.0-1.0-0.0-0.23","7","7","7","7","6","5","5","5","5","5","5","2","1","2","1","2","2","2","2","5","5","5","5","5","5","5","5","5","5","8","8","7","8","6","7","8","9","8","7","7","7","7","7","7","7","1","7","7","1","7","7","7","7","7","7","7","7","7","7","7","7","7","7","7","7","7","7","7","7","7","6","7","7","7","7","7","7","7","7","672909992034041856","王","700","Male","[""好我"",""坏他"",""坏我"",""好他""]","[""强我"",""弱他"",""弱我"",""强他""]","","","","","","","","nonmatch","","","","","","","","","","key","j","16.654166666666665","768","428","f","false","match","img/trapezoid.png","弱我","弱我","prac_ALT2_ability","practice_ability","","","","","","","","",""
"null","<span style='color:red; font-size: 70px;'>错误! </span>","null","html-keyboard-response","57","205806","0.0-8.0-1.0-1.0-0.0-1.23","7","7","7","7","6","5","5","5","5","5","5","2","1","2","1","2","2","2","2","5","5","5","5","5","5","5","5","5","5","8","8","7","8","6","7","8","9","8","7","7","7","7","7","7","7","1","7","7","1","7","7","7","7","7","7","7","7","7","7","7","7","7","7","7","7","7","7","7","7","7","6","7","7","7","7","7","7","7","7","672909992034041856","王","700","Male","[""好我"",""坏他"",""坏我"",""好他""]","[""强我"",""弱他"",""弱我"",""强他""]","","","","","","","","","","","","","","","","","","","","","","","","","","","","","","feedback_test","","","","","","","","",""
"706","","f","psychophysics","58","207514","0.0-8.0-1.0-1.0-0.0-0.24","7","7","7","7","6","5","5","5","5","5","5","2","1","2","1","2","2","2","2","5","5","5","5","5","5","5","5","5","5","8","8","7","8","6","7","8","9","8","7","7","7","7","7","7","7","1","7","7","1","7","7","7","7","7","7","7","7","7","7","7","7","7","7","7","7","7","7","7","7","7","6","7","7","7","7","7","7","7","7","672909992034041856","王","700","Male","[""好我"",""坏他"",""坏我"",""好他""]","[""强我"",""弱他"",""弱我"",""强他""]","","","","","","","","match","","","","","","","","","","key","f","16.652941176470645","768","428","f","true","match","img/ellipse.png","强我","强我","prac_ALT2_ability","practice_ability","","","","","","","","",""
"null","<span style='color:GreenYellow; font-size: 70px;'>正确! </span>","null","html-keyboard-response","59","208015","0.0-8.0-1.0-1.0-0.0-1.24","7","7","7","7","6","5","5","5","5","5","5","2","1","2","1","2","2","2","2","5","5","5","5","5","5","5","5","5","5","8","8","7","8","6","7","8","9","8","7","7","7","7","7","7","7","1","7","7","1","7","7","7","7","7","7","7","7","7","7","7","7","7","7","7","7","7","7","7","7","7","6","7","7","7","7","7","7","7","7","672909992034041856","王","700","Male","[""好我"",""坏他"",""坏我"",""好他""]","[""强我"",""弱他"",""弱我"",""强他""]","","","","","","","","","","","","","","","","","","","","","","","","","","","","","","feedback_test","","","","","","","","",""
"822","","f","psychophysics","60","209838","0.0-8.0-1.0-1.0-0.0-0.25","7","7","7","7","6","5","5","5","5","5","5","2","1","2","1","2","2","2","2","5","5","5","5","5","5","5","5","5","5","8","8","7","8","6","7","8","9","8","7","7","7","7","7","7","7","1","7","7","1","7","7","7","7","7","7","7","7","7","7","7","7","7","7","7","7","7","7","7","7","7","6","7","7","7","7","7","7","7","7","672909992034041856","王","700","Male","[""好我"",""坏他"",""坏我"",""好他""]","[""强我"",""弱他"",""弱我"",""强他""]","","","","","","","","match","","","","","","","","","","key","f","16.65185185185207","768","428","f","true","match","img/ellipse.png","强我","强我","prac_ALT2_ability","practice_ability","","","","","","","","",""
"null","<span style='color:GreenYellow; font-size: 70px;'>正确! </span>","null","html-keyboard-response","61","210339","0.0-8.0-1.0-1.0-0.0-1.25","7","7","7","7","6","5","5","5","5","5","5","2","1","2","1","2","2","2","2","5","5","5","5","5","5","5","5","5","5","8","8","7","8","6","7","8","9","8","7","7","7","7","7","7","7","1","7","7","1","7","7","7","7","7","7","7","7","7","7","7","7","7","7","7","7","7","7","7","7","7","6","7","7","7","7","7","7","7","7","672909992034041856","王","700","Male","[""好我"",""坏他"",""坏我"",""好他""]","[""强我"",""弱他"",""弱我"",""强他""]","","","","","","","","","","","","","","","","","","","","","","","","","","","","","","feedback_test","","","","","","","","",""
"965","","j","psychophysics","62","212306","0.0-8.0-1.0-1.0-0.0-0.26","7","7","7","7","6","5","5","5","5","5","5","2","1","2","1","2","2","2","2","5","5","5","5","5","5","5","5","5","5","8","8","7","8","6","7","8","9","8","7","7","7","7","7","7","7","1","7","7","1","7","7","7","7","7","7","7","7","7","7","7","7","7","7","7","7","7","7","7","7","7","6","7","7","7","7","7","7","7","7","672909992034041856","王","700","Male","[""好我"",""坏他"",""坏我"",""好他""]","[""强我"",""弱他"",""弱我"",""强他""]","","","","","","","","nonmatch","","","","","","","","","","key","j","16.6487179487179","768","428","j","true","nonmatch","img/hexagon.png","强他","弱他","prac_ALT2_ability","practice_ability","","","","","","","","",""
"null","<span style='color:GreenYellow; font-size: 70px;'>正确! </span>","null","html-keyboard-response","63","212806","0.0-8.0-1.0-1.0-0.0-1.26","7","7","7","7","6","5","5","5","5","5","5","2","1","2","1","2","2","2","2","5","5","5","5","5","5","5","5","5","5","8","8","7","8","6","7","8","9","8","7","7","7","7","7","7","7","1","7","7","1","7","7","7","7","7","7","7","7","7","7","7","7","7","7","7","7","7","7","7","7","7","6","7","7","7","7","7","7","7","7","672909992034041856","王","700","Male","[""好我"",""坏他"",""坏我"",""好他""]","[""强我"",""弱他"",""弱我"",""强他""]","","","","","","","","","","","","","","","","","","","","","","","","","","","","","","feedback_test","","","","","","","","",""
"917","","f","psychophysics","64","214725","0.0-8.0-1.0-1.0-0.0-0.27","7","7","7","7","6","5","5","5","5","5","5","2","1","2","1","2","2","2","2","5","5","5","5","5","5","5","5","5","5","8","8","7","8","6","7","8","9","8","7","7","7","7","7","7","7","1","7","7","1","7","7","7","7","7","7","7","7","7","7","7","7","7","7","7","7","7","7","7","7","7","6","7","7","7","7","7","7","7","7","672909992034041856","王","700","Male","[""好我"",""坏他"",""坏我"",""好他""]","[""强我"",""弱他"",""弱我"",""强他""]","","","","","","","","match","","","","","","","","","","key","f","16.65175438596481","768","428","f","true","match","img/square.png","强他","强他","prac_ALT2_ability","practice_ability","","","","","","","","",""
"null","<span style='color:GreenYellow; font-size: 70px;'>正确! </span>","null","html-keyboard-response","65","215226","0.0-8.0-1.0-1.0-0.0-1.27","7","7","7","7","6","5","5","5","5","5","5","2","1","2","1","2","2","2","2","5","5","5","5","5","5","5","5","5","5","8","8","7","8","6","7","8","9","8","7","7","7","7","7","7","7","1","7","7","1","7","7","7","7","7","7","7","7","7","7","7","7","7","7","7","7","7","7","7","7","7","6","7","7","7","7","7","7","7","7","672909992034041856","王","700","Male","[""好我"",""坏他"",""坏我"",""好他""]","[""强我"",""弱他"",""弱我"",""强他""]","","","","","","","","","","","","","","","","","","","","","","","","","","","","","","feedback_test","","","","","","","","",""
"632","","j","psychophysics","66","216860","0.0-8.0-1.0-1.0-0.0-0.28","7","7","7","7","6","5","5","5","5","5","5","2","1","2","1","2","2","2","2","5","5","5","5","5","5","5","5","5","5","8","8","7","8","6","7","8","9","8","7","7","7","7","7","7","7","1","7","7","1","7","7","7","7","7","7","7","7","7","7","7","7","7","7","7","7","7","7","7","7","7","6","7","7","7","7","7","7","7","7","672909992034041856","王","700","Male","[""好我"",""坏他"",""坏我"",""好他""]","[""强我"",""弱他"",""弱我"",""强他""]","","","","","","","","nonmatch","","","","","","","","","","key","j","16.651546391752696","768","428","j","true","nonmatch","img/hexagon.png","弱我","弱他","prac_ALT2_ability","practice_ability","","","","","","","","",""
"null","<span style='color:GreenYellow; font-size: 70px;'>正确! </span>","null","html-keyboard-response","67","217363","0.0-8.0-1.0-1.0-0.0-1.28","7","7","7","7","6","5","5","5","5","5","5","2","1","2","1","2","2","2","2","5","5","5","5","5","5","5","5","5","5","8","8","7","8","6","7","8","9","8","7","7","7","7","7","7","7","1","7","7","1","7","7","7","7","7","7","7","7","7","7","7","7","7","7","7","7","7","7","7","7","7","6","7","7","7","7","7","7","7","7","672909992034041856","王","700","Male","[""好我"",""坏他"",""坏我"",""好他""]","[""强我"",""弱他"",""弱我"",""强他""]","","","","","","","","","","","","","","","","","","","","","","","","","","","","","","feedback_test","","","","","","","","",""
"936","","j","psychophysics","68","219300","0.0-8.0-1.0-1.0-0.0-0.29","7","7","7","7","6","5","5","5","5","5","5","2","1","2","1","2","2","2","2","5","5","5","5","5","5","5","5","5","5","8","8","7","8","6","7","8","9","8","7","7","7","7","7","7","7","1","7","7","1","7","7","7","7","7","7","7","7","7","7","7","7","7","7","7","7","7","7","7","7","7","6","7","7","7","7","7","7","7","7","672909992034041856","王","700","Male","[""好我"",""坏他"",""坏我"",""好他""]","[""强我"",""弱他"",""弱我"",""强他""]","","","","","","","","nonmatch","","","","","","","","","","key","j","16.651724137931083","768","428","j","true","nonmatch","img/ellipse.png","弱他","强我","prac_ALT2_ability","practice_ability","","","","","","","","",""
"null","<span style='color:GreenYellow; font-size: 70px;'>正确! </span>","null","html-keyboard-response","69","219801","0.0-8.0-1.0-1.0-0.0-1.29","7","7","7","7","6","5","5","5","5","5","5","2","1","2","1","2","2","2","2","5","5","5","5","5","5","5","5","5","5","8","8","7","8","6","7","8","9","8","7","7","7","7","7","7","7","1","7","7","1","7","7","7","7","7","7","7","7","7","7","7","7","7","7","7","7","7","7","7","7","7","6","7","7","7","7","7","7","7","7","672909992034041856","王","700","Male","[""好我"",""坏他"",""坏我"",""好他""]","[""强我"",""弱他"",""弱我"",""强他""]","","","","","","","","","","","","","","","","","","","","","","","","","","","","","","feedback_test","","","","","","","","",""
"670","","f","psychophysics","70","221473","0.0-8.0-1.0-1.0-0.0-0.30","7","7","7","7","6","5","5","5","5","5","5","2","1","2","1","2","2","2","2","5","5","5","5","5","5","5","5","5","5","8","8","7","8","6","7","8","9","8","7","7","7","7","7","7","7","1","7","7","1","7","7","7","7","7","7","7","7","7","7","7","7","7","7","7","7","7","7","7","7","7","6","7","7","7","7","7","7","7","7","672909992034041856","王","700","Male","[""好我"",""坏他"",""坏我"",""好他""]","[""强我"",""弱他"",""弱我"",""强他""]","","","","","","","","match","","","","","","","","","","key","f","16.65353535353547","768","428","f","true","match","img/ellipse.png","强我","强我","prac_ALT2_ability","practice_ability","","","","","","","","",""
"null","<span style='color:GreenYellow; font-size: 70px;'>正确! </span>","null","html-keyboard-response","71","221974","0.0-8.0-1.0-1.0-0.0-1.30","7","7","7","7","6","5","5","5","5","5","5","2","1","2","1","2","2","2","2","5","5","5","5","5","5","5","5","5","5","8","8","7","8","6","7","8","9","8","7","7","7","7","7","7","7","1","7","7","1","7","7","7","7","7","7","7","7","7","7","7","7","7","7","7","7","7","7","7","7","7","6","7","7","7","7","7","7","7","7","672909992034041856","王","700","Male","[""好我"",""坏他"",""坏我"",""好他""]","[""强我"",""弱他"",""弱我"",""强他""]","","","","","","","","","","","","","","","","","","","","","","","","","","","","","","feedback_test","","","","","","","","",""
"673","","j","psychophysics","72","223648","0.0-8.0-1.0-1.0-0.0-0.31","7","7","7","7","6","5","5","5","5","5","5","2","1","2","1","2","2","2","2","5","5","5","5","5","5","5","5","5","5","8","8","7","8","6","7","8","9","8","7","7","7","7","7","7","7","1","7","7","1","7","7","7","7","7","7","7","7","7","7","7","7","7","7","7","7","7","7","7","7","7","6","7","7","7","7","7","7","7","7","672909992034041856","王","700","Male","[""好我"",""坏他"",""坏我"",""好他""]","[""强我"",""弱他"",""弱我"",""强他""]","","","","","","","","nonmatch","","","","","","","","","","key","j","16.652000000000115","768","428","j","true","nonmatch","img/square.png","强我","强他","prac_ALT2_ability","practice_ability","","","","","","","","",""
"null","<span style='color:GreenYellow; font-size: 70px;'>正确! </span>","null","html-keyboard-response","73","224149","0.0-8.0-1.0-1.0-0.0-1.31","7","7","7","7","6","5","5","5","5","5","5","2","1","2","1","2","2","2","2","5","5","5","5","5","5","5","5","5","5","8","8","7","8","6","7","8","9","8","7","7","7","7","7","7","7","1","7","7","1","7","7","7","7","7","7","7","7","7","7","7","7","7","7","7","7","7","7","7","7","7","6","7","7","7","7","7","7","7","7","672909992034041856","王","700","Male","[""好我"",""坏他"",""坏我"",""好他""]","[""强我"",""弱他"",""弱我"",""强他""]","","","","","","","","","","","","","","","","","","","","","","","","","","","","","","feedback_test","","","","","","","","",""
"776","","f","psychophysics","74","225927","0.0-8.0-1.0-1.0-0.0-0.32","7","7","7","7","6","5","5","5","5","5","5","2","1","2","1","2","2","2","2","5","5","5","5","5","5","5","5","5","5","8","8","7","8","6","7","8","9","8","7","7","7","7","7","7","7","1","7","7","1","7","7","7","7","7","7","7","7","7","7","7","7","7","7","7","7","7","7","7","7","7","6","7","7","7","7","7","7","7","7","672909992034041856","王","700","Male","[""好我"",""坏他"",""坏我"",""好他""]","[""强我"",""弱他"",""弱我"",""强他""]","","","","","","","","match","","","","","","","","","","key","f","16.649056603773474","768","428","f","true","match","img/hexagon.png","弱他","弱他","prac_ALT2_ability","practice_ability","","","","","","","","",""
"null","<span style='color:GreenYellow; font-size: 70px;'>正确! </span>","null","html-keyboard-response","75","226428","0.0-8.0-1.0-1.0-0.0-1.32","7","7","7","7","6","5","5","5","5","5","5","2","1","2","1","2","2","2","2","5","5","5","5","5","5","5","5","5","5","8","8","7","8","6","7","8","9","8","7","7","7","7","7","7","7","1","7","7","1","7","7","7","7","7","7","7","7","7","7","7","7","7","7","7","7","7","7","7","7","7","6","7","7","7","7","7","7","7","7","672909992034041856","王","700","Male","[""好我"",""坏他"",""坏我"",""好他""]","[""强我"",""弱他"",""弱我"",""强他""]","","","","","","","","","","","","","","","","","","","","","","","","","","","","","","feedback_test","","","","","","","","",""
"752","","j","psychophysics","76","228181","0.0-8.0-1.0-1.0-0.0-0.33","7","7","7","7","6","5","5","5","5","5","5","2","1","2","1","2","2","2","2","5","5","5","5","5","5","5","5","5","5","8","8","7","8","6","7","8","9","8","7","7","7","7","7","7","7","1","7","7","1","7","7","7","7","7","7","7","7","7","7","7","7","7","7","7","7","7","7","7","7","7","6","7","7","7","7","7","7","7","7","672909992034041856","王","700","Male","[""好我"",""坏他"",""坏我"",""好他""]","[""强我"",""弱他"",""弱我"",""强他""]","","","","","","","","nonmatch","","","","","","","","","","key","j","16.649999999999775","768","428","f","false","match","img/square.png","强他","强他","prac_ALT2_ability","practice_ability","","","","","","","","",""
"null","<span style='color:red; font-size: 70px;'>错误! </span>","null","html-keyboard-response","77","228683","0.0-8.0-1.0-1.0-0.0-1.33","7","7","7","7","6","5","5","5","5","5","5","2","1","2","1","2","2","2","2","5","5","5","5","5","5","5","5","5","5","8","8","7","8","6","7","8","9","8","7","7","7","7","7","7","7","1","7","7","1","7","7","7","7","7","7","7","7","7","7","7","7","7","7","7","7","7","7","7","7","7","6","7","7","7","7","7","7","7","7","672909992034041856","王","700","Male","[""好我"",""坏他"",""坏我"",""好他""]","[""强我"",""弱他"",""弱我"",""强他""]","","","","","","","","","","","","","","","","","","","","","","","","","","","","","","feedback_test","","","","","","","","",""
"845","","f","psychophysics","78","230530","0.0-8.0-1.0-1.0-0.0-0.34","7","7","7","7","6","5","5","5","5","5","5","2","1","2","1","2","2","2","2","5","5","5","5","5","5","5","5","5","5","8","8","7","8","6","7","8","9","8","7","7","7","7","7","7","7","1","7","7","1","7","7","7","7","7","7","7","7","7","7","7","7","7","7","7","7","7","7","7","7","7","6","7","7","7","7","7","7","7","7","672909992034041856","王","700","Male","[""好我"",""坏他"",""坏我"",""好他""]","[""强我"",""弱他"",""弱我"",""强他""]","","","","","","","","match","","","","","","","","","","key","f","16.654545454545456","768","428","j","false","nonmatch","img/trapezoid.png","弱他","弱我","prac_ALT2_ability","practice_ability","","","","","","","","",""
"null","<span style='color:red; font-size: 70px;'>错误! </span>","null","html-keyboard-response","79","231031","0.0-8.0-1.0-1.0-0.0-1.34","7","7","7","7","6","5","5","5","5","5","5","2","1","2","1","2","2","2","2","5","5","5","5","5","5","5","5","5","5","8","8","7","8","6","7","8","9","8","7","7","7","7","7","7","7","1","7","7","1","7","7","7","7","7","7","7","7","7","7","7","7","7","7","7","7","7","7","7","7","7","6","7","7","7","7","7","7","7","7","672909992034041856","王","700","Male","[""好我"",""坏他"",""坏我"",""好他""]","[""强我"",""弱他"",""弱我"",""强他""]","","","","","","","","","","","","","","","","","","","","","","","","","","","","","","feedback_test","","","","","","","","",""
"662","","j","psychophysics","80","232694","0.0-8.0-1.0-1.0-0.0-0.35","7","7","7","7","6","5","5","5","5","5","5","2","1","2","1","2","2","2","2","5","5","5","5","5","5","5","5","5","5","8","8","7","8","6","7","8","9","8","7","7","7","7","7","7","7","1","7","7","1","7","7","7","7","7","7","7","7","7","7","7","7","7","7","7","7","7","7","7","7","7","6","7","7","7","7","7","7","7","7","672909992034041856","王","700","Male","[""好我"",""坏他"",""坏我"",""好他""]","[""强我"",""弱他"",""弱我"",""强他""]","","","","","","","","nonmatch","","","","","","","","","","key","j","16.651515151515152","768","428","j","true","nonmatch","img/square.png","弱我","强他","prac_ALT2_ability","practice_ability","","","","","","","","",""
"null","<span style='color:GreenYellow; font-size: 70px;'>正确! </span>","null","html-keyboard-response","81","233197","0.0-8.0-1.0-1.0-0.0-1.35","7","7","7","7","6","5","5","5","5","5","5","2","1","2","1","2","2","2","2","5","5","5","5","5","5","5","5","5","5","8","8","7","8","6","7","8","9","8","7","7","7","7","7","7","7","1","7","7","1","7","7","7","7","7","7","7","7","7","7","7","7","7","7","7","7","7","7","7","7","7","6","7","7","7","7","7","7","7","7","672909992034041856","王","700","Male","[""好我"",""坏他"",""坏我"",""好他""]","[""强我"",""弱他"",""弱我"",""强他""]","","","","","","","","","","","","","","","","","","","","","","","","","","","","","","feedback_test","","","","","","","","",""
"976","","f","psychophysics","82","235174","0.0-8.0-1.0-1.0-0.0-0.36","7","7","7","7","6","5","5","5","5","5","5","2","1","2","1","2","2","2","2","5","5","5","5","5","5","5","5","5","5","8","8","7","8","6","7","8","9","8","7","7","7","7","7","7","7","1","7","7","1","7","7","7","7","7","7","7","7","7","7","7","7","7","7","7","7","7","7","7","7","7","6","7","7","7","7","7","7","7","7","672909992034041856","王","700","Male","[""好我"",""坏他"",""坏我"",""好他""]","[""强我"",""弱他"",""弱我"",""强他""]","","","","","","","","match","","","","","","","","","","key","f","16.651694915254435","768","428","f","true","match","img/trapezoid.png","弱我","弱我","prac_ALT2_ability","practice_ability","","","","","","","","",""
"null","<span style='color:GreenYellow; font-size: 70px;'>正确! </span>","null","html-keyboard-response","83","235674","0.0-8.0-1.0-1.0-0.0-1.36","7","7","7","7","6","5","5","5","5","5","5","2","1","2","1","2","2","2","2","5","5","5","5","5","5","5","5","5","5","8","8","7","8","6","7","8","9","8","7","7","7","7","7","7","7","1","7","7","1","7","7","7","7","7","7","7","7","7","7","7","7","7","7","7","7","7","7","7","7","7","6","7","7","7","7","7","7","7","7","672909992034041856","王","700","Male","[""好我"",""坏他"",""坏我"",""好他""]","[""强我"",""弱他"",""弱我"",""强他""]","","","","","","","","","","","","","","","","","","","","","","","","","","","","","","feedback_test","","","","","","","","",""
"652","","j","psychophysics","84","237328","0.0-8.0-1.0-1.0-0.0-0.37","7","7","7","7","6","5","5","5","5","5","5","2","1","2","1","2","2","2","2","5","5","5","5","5","5","5","5","5","5","8","8","7","8","6","7","8","9","8","7","7","7","7","7","7","7","1","7","7","1","7","7","7","7","7","7","7","7","7","7","7","7","7","7","7","7","7","7","7","7","7","6","7","7","7","7","7","7","7","7","672909992034041856","王","700","Male","[""好我"",""坏他"",""坏我"",""好他""]","[""强我"",""弱他"",""弱我"",""强他""]","","","","","","","","nonmatch","","","","","","","","","","key","j","16.651020408163443","768","428","j","true","nonmatch","img/trapezoid.png","强我","弱我","prac_ALT2_ability","practice_ability","","","","","","","","",""
"null","<span style='color:GreenYellow; font-size: 70px;'>正确! </span>","null","html-keyboard-response","85","237830","0.0-8.0-1.0-1.0-0.0-1.37","7","7","7","7","6","5","5","5","5","5","5","2","1","2","1","2","2","2","2","5","5","5","5","5","5","5","5","5","5","8","8","7","8","6","7","8","9","8","7","7","7","7","7","7","7","1","7","7","1","7","7","7","7","7","7","7","7","7","7","7","7","7","7","7","7","7","7","7","7","7","6","7","7","7","7","7","7","7","7","672909992034041856","王","700","Male","[""好我"",""坏他"",""坏我"",""好他""]","[""强我"",""弱他"",""弱我"",""强他""]","","","","","","","","","","","","","","","","","","","","","","","","","","","","","","feedback_test","","","","","","","","",""
"591","","f","psychophysics","86","239423","0.0-8.0-1.0-1.0-0.0-0.38","7","7","7","7","6","5","5","5","5","5","5","2","1","2","1","2","2","2","2","5","5","5","5","5","5","5","5","5","5","8","8","7","8","6","7","8","9","8","7","7","7","7","7","7","7","1","7","7","1","7","7","7","7","7","7","7","7","7","7","7","7","7","7","7","7","7","7","7","7","7","6","7","7","7","7","7","7","7","7","672909992034041856","王","700","Male","[""好我"",""坏他"",""坏我"",""好他""]","[""强我"",""弱他"",""弱我"",""强他""]","","","","","","","","match","","","","","","","","","","key","f","16.651063829787358","768","428","f","true","match","img/hexagon.png","弱他","弱他","prac_ALT2_ability","practice_ability","","","","","","","","",""
"null","<span style='color:GreenYellow; font-size: 70px;'>正确! </span>","null","html-keyboard-response","87","239924","0.0-8.0-1.0-1.0-0.0-1.38","7","7","7","7","6","5","5","5","5","5","5","2","1","2","1","2","2","2","2","5","5","5","5","5","5","5","5","5","5","8","8","7","8","6","7","8","9","8","7","7","7","7","7","7","7","1","7","7","1","7","7","7","7","7","7","7","7","7","7","7","7","7","7","7","7","7","7","7","7","7","6","7","7","7","7","7","7","7","7","672909992034041856","王","700","Male","[""好我"",""坏他"",""坏我"",""好他""]","[""强我"",""弱他"",""弱我"",""强他""]","","","","","","","","","","","","","","","","","","","","","","","","","","","","","","feedback_test","","","","","","","","",""
"766","","j","psychophysics","88","241691","0.0-8.0-1.0-1.0-0.0-0.39","7","7","7","7","6","5","5","5","5","5","5","2","1","2","1","2","2","2","2","5","5","5","5","5","5","5","5","5","5","8","8","7","8","6","7","8","9","8","7","7","7","7","7","7","7","1","7","7","1","7","7","7","7","7","7","7","7","7","7","7","7","7","7","7","7","7","7","7","7","7","6","7","7","7","7","7","7","7","7","672909992034041856","王","700","Male","[""好我"",""坏他"",""坏我"",""好他""]","[""强我"",""弱他"",""弱我"",""强他""]","","","","","","","","nonmatch","","","","","","","","","","key","j","16.65333333333339","768","428","j","true","nonmatch","img/square.png","弱他","强他","prac_ALT2_ability","practice_ability","","","","","","","","",""
"null","<span style='color:GreenYellow; font-size: 70px;'>正确! </span>","null","html-keyboard-response","89","242194","0.0-8.0-1.0-1.0-0.0-1.39","7","7","7","7","6","5","5","5","5","5","5","2","1","2","1","2","2","2","2","5","5","5","5","5","5","5","5","5","5","8","8","7","8","6","7","8","9","8","7","7","7","7","7","7","7","1","7","7","1","7","7","7","7","7","7","7","7","7","7","7","7","7","7","7","7","7","7","7","7","7","6","7","7","7","7","7","7","7","7","672909992034041856","王","700","Male","[""好我"",""坏他"",""坏我"",""好他""]","[""强我"",""弱他"",""弱我"",""强他""]","","","","","","","","","","","","","","","","","","","","","","","","","","","","","","feedback_test","","","","","","","","",""
"751","","j","psychophysics","90","243945","0.0-8.0-1.0-1.0-0.0-0.40","7","7","7","7","6","5","5","5","5","5","5","2","1","2","1","2","2","2","2","5","5","5","5","5","5","5","5","5","5","8","8","7","8","6","7","8","9","8","7","7","7","7","7","7","7","1","7","7","1","7","7","7","7","7","7","7","7","7","7","7","7","7","7","7","7","7","7","7","7","7","6","7","7","7","7","7","7","7","7","672909992034041856","王","700","Male","[""好我"",""坏他"",""坏我"",""好他""]","[""强我"",""弱他"",""弱我"",""强他""]","","","","","","","","nonmatch","","","","","","","","","","key","j","16.65480769230775","768","428","j","true","nonmatch","img/ellipse.png","弱我","强我","prac_ALT2_ability","practice_ability","","","","","","","","",""
"null","<span style='color:GreenYellow; font-size: 70px;'>正确! </span>","null","html-keyboard-response","91","244446","0.0-8.0-1.0-1.0-0.0-1.40","7","7","7","7","6","5","5","5","5","5","5","2","1","2","1","2","2","2","2","5","5","5","5","5","5","5","5","5","5","8","8","7","8","6","7","8","9","8","7","7","7","7","7","7","7","1","7","7","1","7","7","7","7","7","7","7","7","7","7","7","7","7","7","7","7","7","7","7","7","7","6","7","7","7","7","7","7","7","7","672909992034041856","王","700","Male","[""好我"",""坏他"",""坏我"",""好他""]","[""强我"",""弱他"",""弱我"",""强他""]","","","","","","","","","","","","","","","","","","","","","","","","","","","","","","feedback_test","","","","","","","","",""
"906","","f","psychophysics","92","246355","0.0-8.0-1.0-1.0-0.0-0.41","7","7","7","7","6","5","5","5","5","5","5","2","1","2","1","2","2","2","2","5","5","5","5","5","5","5","5","5","5","8","8","7","8","6","7","8","9","8","7","7","7","7","7","7","7","1","7","7","1","7","7","7","7","7","7","7","7","7","7","7","7","7","7","7","7","7","7","7","7","7","6","7","7","7","7","7","7","7","7","672909992034041856","王","700","Male","[""好我"",""坏他"",""坏我"",""好他""]","[""强我"",""弱他"",""弱我"",""强他""]","","","","","","","","match","","","","","","","","","","key","f","16.65132743362837","768","428","j","false","nonmatch","img/trapezoid.png","强他","弱我","prac_ALT2_ability","practice_ability","","","","","","","","",""
"null","<span style='color:red; font-size: 70px;'>错误! </span>","null","html-keyboard-response","93","246856","0.0-8.0-1.0-1.0-0.0-1.41","7","7","7","7","6","5","5","5","5","5","5","2","1","2","1","2","2","2","2","5","5","5","5","5","5","5","5","5","5","8","8","7","8","6","7","8","9","8","7","7","7","7","7","7","7","1","7","7","1","7","7","7","7","7","7","7","7","7","7","7","7","7","7","7","7","7","7","7","7","7","6","7","7","7","7","7","7","7","7","672909992034041856","王","700","Male","[""好我"",""坏他"",""坏我"",""好他""]","[""强我"",""弱他"",""弱我"",""强他""]","","","","","","","","","","","","","","","","","","","","","","","","","","","","","","feedback_test","","","","","","","","",""
"667","","f","psychophysics","94","248524","0.0-8.0-1.0-1.0-0.0-0.42","7","7","7","7","6","5","5","5","5","5","5","2","1","2","1","2","2","2","2","5","5","5","5","5","5","5","5","5","5","8","8","7","8","6","7","8","9","8","7","7","7","7","7","7","7","1","7","7","1","7","7","7","7","7","7","7","7","7","7","7","7","7","7","7","7","7","7","7","7","7","6","7","7","7","7","7","7","7","7","672909992034041856","王","700","Male","[""好我"",""坏他"",""坏我"",""好他""]","[""强我"",""弱他"",""弱我"",""强他""]","","","","","","","","match","","","","","","","","","","key","f","16.651515151515152","768","428","f","true","match","img/trapezoid.png","弱我","弱我","prac_ALT2_ability","practice_ability","","","","","","","","",""
"null","<span style='color:GreenYellow; font-size: 70px;'>正确! </span>","null","html-keyboard-response","95","249024","0.0-8.0-1.0-1.0-0.0-1.42","7","7","7","7","6","5","5","5","5","5","5","2","1","2","1","2","2","2","2","5","5","5","5","5","5","5","5","5","5","8","8","7","8","6","7","8","9","8","7","7","7","7","7","7","7","1","7","7","1","7","7","7","7","7","7","7","7","7","7","7","7","7","7","7","7","7","7","7","7","7","6","7","7","7","7","7","7","7","7","672909992034041856","王","700","Male","[""好我"",""坏他"",""坏我"",""好他""]","[""强我"",""弱他"",""弱我"",""强他""]","","","","","","","","","","","","","","","","","","","","","","","","","","","","","","feedback_test","","","","","","","","",""
"847","","j","psychophysics","96","250873","0.0-8.0-1.0-1.0-0.0-0.43","7","7","7","7","6","5","5","5","5","5","5","2","1","2","1","2","2","2","2","5","5","5","5","5","5","5","5","5","5","8","8","7","8","6","7","8","9","8","7","7","7","7","7","7","7","1","7","7","1","7","7","7","7","7","7","7","7","7","7","7","7","7","7","7","7","7","7","7","7","7","6","7","7","7","7","7","7","7","7","672909992034041856","王","700","Male","[""好我"",""坏他"",""坏我"",""好他""]","[""强我"",""弱他"",""弱我"",""强他""]","","","","","","","","nonmatch","","","","","","","","","","key","j","16.650909090909146","768","428","j","true","nonmatch","img/ellipse.png","强他","强我","prac_ALT2_ability","practice_ability","","","","","","","","",""
"null","<span style='color:GreenYellow; font-size: 70px;'>正确! </span>","null","html-keyboard-response","97","251375","0.0-8.0-1.0-1.0-0.0-1.43","7","7","7","7","6","5","5","5","5","5","5","2","1","2","1","2","2","2","2","5","5","5","5","5","5","5","5","5","5","8","8","7","8","6","7","8","9","8","7","7","7","7","7","7","7","1","7","7","1","7","7","7","7","7","7","7","7","7","7","7","7","7","7","7","7","7","7","7","7","7","6","7","7","7","7","7","7","7","7","672909992034041856","王","700","Male","[""好我"",""坏他"",""坏我"",""好他""]","[""强我"",""弱他"",""弱我"",""强他""]","","","","","","","","","","","","","","","","","","","","","","","","","","","","","","feedback_test","","","","","","","","",""
"824","","f","psychophysics","98","253202","0.0-8.0-1.0-1.0-0.0-0.44","7","7","7","7","6","5","5","5","5","5","5","2","1","2","1","2","2","2","2","5","5","5","5","5","5","5","5","5","5","8","8","7","8","6","7","8","9","8","7","7","7","7","7","7","7","1","7","7","1","7","7","7","7","7","7","7","7","7","7","7","7","7","7","7","7","7","7","7","7","7","6","7","7","7","7","7","7","7","7","672909992034041856","王","700","Male","[""好我"",""坏他"",""坏我"",""好他""]","[""强我"",""弱他"",""弱我"",""强他""]","","","","","","","","match","","","","","","","","","","key","f","16.65412844036713","768","428","f","true","match","img/hexagon.png","弱他","弱他","prac_ALT2_ability","practice_ability","","","","","","","","",""
"null","<span style='color:GreenYellow; font-size: 70px;'>正确! </span>","null","html-keyboard-response","99","253703","0.0-8.0-1.0-1.0-0.0-1.44","7","7","7","7","6","5","5","5","5","5","5","2","1","2","1","2","2","2","2","5","5","5","5","5","5","5","5","5","5","8","8","7","8","6","7","8","9","8","7","7","7","7","7","7","7","1","7","7","1","7","7","7","7","7","7","7","7","7","7","7","7","7","7","7","7","7","7","7","7","7","6","7","7","7","7","7","7","7","7","672909992034041856","王","700","Male","[""好我"",""坏他"",""坏我"",""好他""]","[""强我"",""弱他"",""弱我"",""强他""]","","","","","","","","","","","","","","","","","","","","","","","","","","","","","","feedback_test","","","","","","","","",""
"763","","j","psychophysics","100","255466","0.0-8.0-1.0-1.0-0.0-0.45","7","7","7","7","6","5","5","5","5","5","5","2","1","2","1","2","2","2","2","5","5","5","5","5","5","5","5","5","5","8","8","7","8","6","7","8","9","8","7","7","7","7","7","7","7","1","7","7","1","7","7","7","7","7","7","7","7","7","7","7","7","7","7","7","7","7","7","7","7","7","6","7","7","7","7","7","7","7","7","672909992034041856","王","700","Male","[""好我"",""坏他"",""坏我"",""好他""]","[""强我"",""弱他"",""弱我"",""强他""]","","","","","","","","nonmatch","","","","","","","","","","key","j","16.651428571428514","768","428","f","false","match","img/square.png","强他","强他","prac_ALT2_ability","practice_ability","","","","","","","","",""
"null","<span style='color:red; font-size: 70px;'>错误! </span>","null","html-keyboard-response","101","255968","0.0-8.0-1.0-1.0-0.0-1.45","7","7","7","7","6","5","5","5","5","5","5","2","1","2","1","2","2","2","2","5","5","5","5","5","5","5","5","5","5","8","8","7","8","6","7","8","9","8","7","7","7","7","7","7","7","1","7","7","1","7","7","7","7","7","7","7","7","7","7","7","7","7","7","7","7","7","7","7","7","7","6","7","7","7","7","7","7","7","7","672909992034041856","王","700","Male","[""好我"",""坏他"",""坏我"",""好他""]","[""强我"",""弱他"",""弱我"",""强他""]","","","","","","","","","","","","","","","","","","","","","","","","","","","","","","feedback_test","","","","","","","","",""
"767","","f","psychophysics","102","257736","0.0-8.0-1.0-1.0-0.0-0.46","7","7","7","7","6","5","5","5","5","5","5","2","1","2","1","2","2","2","2","5","5","5","5","5","5","5","5","5","5","8","8","7","8","6","7","8","9","8","7","7","7","7","7","7","7","1","7","7","1","7","7","7","7","7","7","7","7","7","7","7","7","7","7","7","7","7","7","7","7","7","6","7","7","7","7","7","7","7","7","672909992034041856","王","700","Male","[""好我"",""坏他"",""坏我"",""好他""]","[""强我"",""弱他"",""弱我"",""强他""]","","","","","","","","match","","","","","","","","","","key","f","16.65428571428555","768","428","f","true","match","img/trapezoid.png","弱我","弱我","prac_ALT2_ability","practice_ability","","","","","","","","",""
"null","<span style='color:GreenYellow; font-size: 70px;'>正确! </span>","null","html-keyboard-response","103","258238","0.0-8.0-1.0-1.0-0.0-1.46","7","7","7","7","6","5","5","5","5","5","5","2","1","2","1","2","2","2","2","5","5","5","5","5","5","5","5","5","5","8","8","7","8","6","7","8","9","8","7","7","7","7","7","7","7","1","7","7","1","7","7","7","7","7","7","7","7","7","7","7","7","7","7","7","7","7","7","7","7","7","6","7","7","7","7","7","7","7","7","672909992034041856","王","700","Male","[""好我"",""坏他"",""坏我"",""好他""]","[""强我"",""弱他"",""弱我"",""强他""]","","","","","","","","","","","","","","","","","","","","","","","","","","","","","","feedback_test","","","","","","","","",""
"771","","j","psychophysics","104","260011","0.0-8.0-1.0-1.0-0.0-0.47","7","7","7","7","6","5","5","5","5","5","5","2","1","2","1","2","2","2","2","5","5","5","5","5","5","5","5","5","5","8","8","7","8","6","7","8","9","8","7","7","7","7","7","7","7","1","7","7","1","7","7","7","7","7","7","7","7","7","7","7","7","7","7","7","7","7","7","7","7","7","6","7","7","7","7","7","7","7","7","672909992034041856","王","700","Male","[""好我"",""坏他"",""坏我"",""好他""]","[""强我"",""弱他"",""弱我"",""强他""]","","","","","","","","nonmatch","","","","","","","","","","key","j","16.65283018867908","768","428","j","true","nonmatch","img/hexagon.png","强我","弱他","prac_ALT2_ability","practice_ability","","","","","","","","",""
"null","<span style='color:GreenYellow; font-size: 70px;'>正确! </span>","null","html-keyboard-response","105","260511","0.0-8.0-1.0-1.0-0.0-1.47","7","7","7","7","6","5","5","5","5","5","5","2","1","2","1","2","2","2","2","5","5","5","5","5","5","5","5","5","5","8","8","7","8","6","7","8","9","8","7","7","7","7","7","7","7","1","7","7","1","7","7","7","7","7","7","7","7","7","7","7","7","7","7","7","7","7","7","7","7","7","6","7","7","7","7","7","7","7","7","672909992034041856","王","700","Male","[""好我"",""坏他"",""坏我"",""好他""]","[""强我"",""弱他"",""弱我"",""强他""]","","","","","","","","","","","","","","","","","","","","","","","","","","","","","","feedback_test","","","","","","","","",""
"1197","<style>.context{color:white; font-size: 35px; line-height:40px}</style>                          <div><p class='context'>您正确回答了79% 的试次。</p><p class='context'>您的平均反应时为758毫秒。</p><p class='context'>恭喜您完成练习。按空格键进入正式实验。</p><p class='footer' style='color:white;font-size: 35px; line-height:40px;'>请在进入正式实验实验之前将您的<span style='color: lightgreen;'>食指</span>放在电脑键盘的相应键位上进行按键。</p>"," ","html-keyboard-response","106","261711","0.0-8.0-1.0-2.0","7","7","7","7","6","5","5","5","5","5","5","2","1","2","1","2","2","2","2","5","5","5","5","5","5","5","5","5","5","8","8","7","8","6","7","8","9","8","7","7","7","7","7","7","7","1","7","7","1","7","7","7","7","7","7","7","7","7","7","7","7","7","7","7","7","7","7","7","7","7","6","7","7","7","7","7","7","7","7","672909992034041856","王","700","Male","[""好我"",""坏他"",""坏我"",""好他""]","[""强我"",""弱他"",""弱我"",""强他""]","","","","","","","","","","","","","","","","","","","","","","","","","","","","","","","","","","","","","","",""
"994","
  <p style='color: white; font-size: 22px'>请您将手指放在按键上，准备进入正式的匹配任务。</p>
  <p> <div style = ""color: green""><按空格键进入下一阶段的匹配任务></div></p>
  "," ","html-keyboard-response","107","262709","0.0-8.0-1.0-3.0","7","7","7","7","6","5","5","5","5","5","5","2","1","2","1","2","2","2","2","5","5","5","5","5","5","5","5","5","5","8","8","7","8","6","7","8","9","8","7","7","7","7","7","7","7","1","7","7","1","7","7","7","7","7","7","7","7","7","7","7","7","7","7","7","7","7","7","7","7","7","6","7","7","7","7","7","7","7","7","672909992034041856","王","700","Male","[""好我"",""坏他"",""坏我"",""好他""]","[""强我"",""弱他"",""弱我"",""强他""]","","","","","","","","","","","","","","","","","","","","","","","","","","","","","","","","","","","","","","",""
"729","","f","psychophysics","108","264440","0.0-8.0-1.0-4.0-0.0-0.0","7","7","7","7","6","5","5","5","5","5","5","2","1","2","1","2","2","2","2","5","5","5","5","5","5","5","5","5","5","8","8","7","8","6","7","8","9","8","7","7","7","7","7","7","7","1","7","7","1","7","7","7","7","7","7","7","7","7","7","7","7","7","7","7","7","7","7","7","7","7","6","7","7","7","7","7","7","7","7","672909992034041856","王","700","Male","[""好我"",""坏他"",""坏我"",""好他""]","[""强我"",""弱他"",""弱我"",""强他""]","","","","","","","","match","","","","","","","","","","key","f","16.65242718446613","768","428","j","false","nonmatch","img/hexagon.png","强他","弱他","ALT2","ability","","","","","","","","",""
"null","<span style='color:red; font-size: 70px;'>错误! </span>","null","html-keyboard-response","109","264940","0.0-8.0-1.0-4.0-0.0-1.0","7","7","7","7","6","5","5","5","5","5","5","2","1","2","1","2","2","2","2","5","5","5","5","5","5","5","5","5","5","8","8","7","8","6","7","8","9","8","7","7","7","7","7","7","7","1","7","7","1","7","7","7","7","7","7","7","7","7","7","7","7","7","7","7","7","7","7","7","7","7","6","7","7","7","7","7","7","7","7","672909992034041856","王","700","Male","[""好我"",""坏他"",""坏我"",""好他""]","[""强我"",""弱他"",""弱我"",""强他""]","","","","","","","","","","","","","","","","","","","","","","","","","","","","","","feedback_test","","","","","","","","",""
"677","","j","psychophysics","110","266619","0.0-8.0-1.0-4.0-0.0-0.1","7","7","7","7","6","5","5","5","5","5","5","2","1","2","1","2","2","2","2","5","5","5","5","5","5","5","5","5","5","8","8","7","8","6","7","8","9","8","7","7","7","7","7","7","7","1","7","7","1","7","7","7","7","7","7","7","7","7","7","7","7","7","7","7","7","7","7","7","7","7","6","7","7","7","7","7","7","7","7","672909992034041856","王","700","Male","[""好我"",""坏他"",""坏我"",""好他""]","[""强我"",""弱他"",""弱我"",""强他""]","","","","","","","","nonmatch","","","","","","","","","","key","j","16.652525252525606","768","428","j","true","nonmatch","img/ellipse.png","弱他","强我","ALT2","ability","","","","","","","","",""
"null","<span style='color:GreenYellow; font-size: 70px;'>正确! </span>","null","html-keyboard-response","111","267120","0.0-8.0-1.0-4.0-0.0-1.1","7","7","7","7","6","5","5","5","5","5","5","2","1","2","1","2","2","2","2","5","5","5","5","5","5","5","5","5","5","8","8","7","8","6","7","8","9","8","7","7","7","7","7","7","7","1","7","7","1","7","7","7","7","7","7","7","7","7","7","7","7","7","7","7","7","7","7","7","7","7","6","7","7","7","7","7","7","7","7","672909992034041856","王","700","Male","[""好我"",""坏他"",""坏我"",""好他""]","[""强我"",""弱他"",""弱我"",""强他""]","","","","","","","","","","","","","","","","","","","","","","","","","","","","","","feedback_test","","","","","","","","",""
"757","","j","psychophysics","112","268878","0.0-8.0-1.0-4.0-0.0-0.2","7","7","7","7","6","5","5","5","5","5","5","2","1","2","1","2","2","2","2","5","5","5","5","5","5","5","5","5","5","8","8","7","8","6","7","8","9","8","7","7","7","7","7","7","7","1","7","7","1","7","7","7","7","7","7","7","7","7","7","7","7","7","7","7","7","7","7","7","7","7","6","7","7","7","7","7","7","7","7","672909992034041856","王","700","Male","[""好我"",""坏他"",""坏我"",""好他""]","[""强我"",""弱他"",""弱我"",""强他""]","","","","","","","","nonmatch","","","","","","","","","","key","j","16.650000000000336","768","428","j","true","nonmatch","img/trapezoid.png","强我","弱我","ALT2","ability","","","","","","","","",""
"null","<span style='color:GreenYellow; font-size: 70px;'>正确! </span>","null","html-keyboard-response","113","269379","0.0-8.0-1.0-4.0-0.0-1.2","7","7","7","7","6","5","5","5","5","5","5","2","1","2","1","2","2","2","2","5","5","5","5","5","5","5","5","5","5","8","8","7","8","6","7","8","9","8","7","7","7","7","7","7","7","1","7","7","1","7","7","7","7","7","7","7","7","7","7","7","7","7","7","7","7","7","7","7","7","7","6","7","7","7","7","7","7","7","7","672909992034041856","王","700","Male","[""好我"",""坏他"",""坏我"",""好他""]","[""强我"",""弱他"",""弱我"",""强他""]","","","","","","","","","","","","","","","","","","","","","","","","","","","","","","feedback_test","","","","","","","","",""
"957","","j","psychophysics","114","271337","0.0-8.0-1.0-4.0-0.0-0.3","7","7","7","7","6","5","5","5","5","5","5","2","1","2","1","2","2","2","2","5","5","5","5","5","5","5","5","5","5","8","8","7","8","6","7","8","9","8","7","7","7","7","7","7","7","1","7","7","1","7","7","7","7","7","7","7","7","7","7","7","7","7","7","7","7","7","7","7","7","7","6","7","7","7","7","7","7","7","7","672909992034041856","王","700","Male","[""好我"",""坏他"",""坏我"",""好他""]","[""强我"",""弱他"",""弱我"",""强他""]","","","","","","","","nonmatch","","","","","","","","","","key","j","16.653846153846153","768","428","j","true","nonmatch","img/square.png","弱他","强他","ALT2","ability","","","","","","","","",""
"null","<span style='color:GreenYellow; font-size: 70px;'>正确! </span>","null","html-keyboard-response","115","271838","0.0-8.0-1.0-4.0-0.0-1.3","7","7","7","7","6","5","5","5","5","5","5","2","1","2","1","2","2","2","2","5","5","5","5","5","5","5","5","5","5","8","8","7","8","6","7","8","9","8","7","7","7","7","7","7","7","1","7","7","1","7","7","7","7","7","7","7","7","7","7","7","7","7","7","7","7","7","7","7","7","7","6","7","7","7","7","7","7","7","7","672909992034041856","王","700","Male","[""好我"",""坏他"",""坏我"",""好他""]","[""强我"",""弱他"",""弱我"",""强他""]","","","","","","","","","","","","","","","","","","","","","","","","","","","","","","feedback_test","","","","","","","","",""
"814","","j","psychophysics","116","273654","0.0-8.0-1.0-4.0-0.0-0.4","7","7","7","7","6","5","5","5","5","5","5","2","1","2","1","2","2","2","2","5","5","5","5","5","5","5","5","5","5","8","8","7","8","6","7","8","9","8","7","7","7","7","7","7","7","1","7","7","1","7","7","7","7","7","7","7","7","7","7","7","7","7","7","7","7","7","7","7","7","7","6","7","7","7","7","7","7","7","7","672909992034041856","王","700","Male","[""好我"",""坏他"",""坏我"",""好他""]","[""强我"",""弱他"",""弱我"",""强他""]","","","","","","","","nonmatch","","","","","","","","","","key","j","16.64907407407386","768","428","j","true","nonmatch","img/square.png","弱我","强他","ALT2","ability","","","","","","","","",""
"null","<span style='color:GreenYellow; font-size: 70px;'>正确! </span>","null","html-keyboard-response","117","274155","0.0-8.0-1.0-4.0-0.0-1.4","7","7","7","7","6","5","5","5","5","5","5","2","1","2","1","2","2","2","2","5","5","5","5","5","5","5","5","5","5","8","8","7","8","6","7","8","9","8","7","7","7","7","7","7","7","1","7","7","1","7","7","7","7","7","7","7","7","7","7","7","7","7","7","7","7","7","7","7","7","7","6","7","7","7","7","7","7","7","7","672909992034041856","王","700","Male","[""好我"",""坏他"",""坏我"",""好他""]","[""强我"",""弱他"",""弱我"",""强他""]","","","","","","","","","","","","","","","","","","","","","","","","","","","","","","feedback_test","","","","","","","","",""
"958","","f","psychophysics","118","276115","0.0-8.0-1.0-4.0-0.0-0.5","7","7","7","7","6","5","5","5","5","5","5","2","1","2","1","2","2","2","2","5","5","5","5","5","5","5","5","5","5","8","8","7","8","6","7","8","9","8","7","7","7","7","7","7","7","1","7","7","1","7","7","7","7","7","7","7","7","7","7","7","7","7","7","7","7","7","7","7","7","7","6","7","7","7","7","7","7","7","7","672909992034041856","王","700","Male","[""好我"",""坏他"",""坏我"",""好他""]","[""强我"",""弱他"",""弱我"",""强他""]","","","","","","","","match","","","","","","","","","","key","f","16.651282051282152","768","428","f","true","match","img/hexagon.png","弱他","弱他","ALT2","ability","","","","","","","","",""
"null","<span style='color:GreenYellow; font-size: 70px;'>正确! </span>","null","html-keyboard-response","119","276616","0.0-8.0-1.0-4.0-0.0-1.5","7","7","7","7","6","5","5","5","5","5","5","2","1","2","1","2","2","2","2","5","5","5","5","5","5","5","5","5","5","8","8","7","8","6","7","8","9","8","7","7","7","7","7","7","7","1","7","7","1","7","7","7","7","7","7","7","7","7","7","7","7","7","7","7","7","7","7","7","7","7","6","7","7","7","7","7","7","7","7","672909992034041856","王","700","Male","[""好我"",""坏他"",""坏我"",""好他""]","[""强我"",""弱他"",""弱我"",""强他""]","","","","","","","","","","","","","","","","","","","","","","","","","","","","","","feedback_test","","","","","","","","",""
"1088","","j","psychophysics","120","278704","0.0-8.0-1.0-4.0-0.0-0.6","7","7","7","7","6","5","5","5","5","5","5","2","1","2","1","2","2","2","2","5","5","5","5","5","5","5","5","5","5","8","8","7","8","6","7","8","9","8","7","7","7","7","7","7","7","1","7","7","1","7","7","7","7","7","7","7","7","7","7","7","7","7","7","7","7","7","7","7","7","7","6","7","7","7","7","7","7","7","7","672909992034041856","王","700","Male","[""好我"",""坏他"",""坏我"",""好他""]","[""强我"",""弱他"",""弱我"",""强他""]","","","","","","","","nonmatch","","","","","","","","","","key","j","16.65161290322571","768","428","j","true","nonmatch","img/trapezoid.png","弱他","弱我","ALT2","ability","","","","","","","","",""
"null","<span style='color:GreenYellow; font-size: 70px;'>正确! </span>","null","html-keyboard-response","121","279205","0.0-8.0-1.0-4.0-0.0-1.6","7","7","7","7","6","5","5","5","5","5","5","2","1","2","1","2","2","2","2","5","5","5","5","5","5","5","5","5","5","8","8","7","8","6","7","8","9","8","7","7","7","7","7","7","7","1","7","7","1","7","7","7","7","7","7","7","7","7","7","7","7","7","7","7","7","7","7","7","7","7","6","7","7","7","7","7","7","7","7","672909992034041856","王","700","Male","[""好我"",""坏他"",""坏我"",""好他""]","[""强我"",""弱他"",""弱我"",""强他""]","","","","","","","","","","","","","","","","","","","","","","","","","","","","","","feedback_test","","","","","","","","",""
"1042","","f","psychophysics","122","281248","0.0-8.0-1.0-4.0-0.0-0.7","7","7","7","7","6","5","5","5","5","5","5","2","1","2","1","2","2","2","2","5","5","5","5","5","5","5","5","5","5","8","8","7","8","6","7","8","9","8","7","7","7","7","7","7","7","1","7","7","1","7","7","7","7","7","7","7","7","7","7","7","7","7","7","7","7","7","7","7","7","7","6","7","7","7","7","7","7","7","7","672909992034041856","王","700","Male","[""好我"",""坏他"",""坏我"",""好他""]","[""强我"",""弱他"",""弱我"",""强他""]","","","","","","","","match","","","","","","","","","","key","f","16.65409836065564","768","428","f","true","match","img/hexagon.png","弱他","弱他","ALT2","ability","","","","","","","","",""
"null","<span style='color:GreenYellow; font-size: 70px;'>正确! </span>","null","html-keyboard-response","123","281749","0.0-8.0-1.0-4.0-0.0-1.7","7","7","7","7","6","5","5","5","5","5","5","2","1","2","1","2","2","2","2","5","5","5","5","5","5","5","5","5","5","8","8","7","8","6","7","8","9","8","7","7","7","7","7","7","7","1","7","7","1","7","7","7","7","7","7","7","7","7","7","7","7","7","7","7","7","7","7","7","7","7","6","7","7","7","7","7","7","7","7","672909992034041856","王","700","Male","[""好我"",""坏他"",""坏我"",""好他""]","[""强我"",""弱他"",""弱我"",""强他""]","","","","","","","","","","","","","","","","","","","","","","","","","","","","","","feedback_test","","","","","","","","",""
"781","","j","psychophysics","124","283533","0.0-8.0-1.0-4.0-0.0-0.8","7","7","7","7","6","5","5","5","5","5","5","2","1","2","1","2","2","2","2","5","5","5","5","5","5","5","5","5","5","8","8","7","8","6","7","8","9","8","7","7","7","7","7","7","7","1","7","7","1","7","7","7","7","7","7","7","7","7","7","7","7","7","7","7","7","7","7","7","7","7","6","7","7","7","7","7","7","7","7","672909992034041856","王","700","Male","[""好我"",""坏他"",""坏我"",""好他""]","[""强我"",""弱他"",""弱我"",""强他""]","","","","","","","","nonmatch","","","","","","","","","","key","j","16.650943396226417","768","428","f","false","match","img/square.png","强他","强他","ALT2","ability","","","","","","","","",""
"null","<span style='color:red; font-size: 70px;'>错误! </span>","null","html-keyboard-response","125","284034","0.0-8.0-1.0-4.0-0.0-1.8","7","7","7","7","6","5","5","5","5","5","5","2","1","2","1","2","2","2","2","5","5","5","5","5","5","5","5","5","5","8","8","7","8","6","7","8","9","8","7","7","7","7","7","7","7","1","7","7","1","7","7","7","7","7","7","7","7","7","7","7","7","7","7","7","7","7","7","7","7","7","6","7","7","7","7","7","7","7","7","672909992034041856","王","700","Male","[""好我"",""坏他"",""坏我"",""好他""]","[""强我"",""弱他"",""弱我"",""强他""]","","","","","","","","","","","","","","","","","","","","","","","","","","","","","","feedback_test","","","","","","","","",""
"567","","f","psychophysics","126","285602","0.0-8.0-1.0-4.0-0.0-0.9","7","7","7","7","6","5","5","5","5","5","5","2","1","2","1","2","2","2","2","5","5","5","5","5","5","5","5","5","5","8","8","7","8","6","7","8","9","8","7","7","7","7","7","7","7","1","7","7","1","7","7","7","7","7","7","7","7","7","7","7","7","7","7","7","7","7","7","7","7","7","6","7","7","7","7","7","7","7","7","672909992034041856","王","700","Male","[""好我"",""坏他"",""坏我"",""好他""]","[""强我"",""弱他"",""弱我"",""强他""]","","","","","","","","match","","","","","","","","","","key","f","16.646236559139535","768","428","j","false","nonmatch","img/square.png","强我","强他","ALT2","ability","","","","","","","","",""
"null","<span style='color:red; font-size: 70px;'>错误! </span>","null","html-keyboard-response","127","286104","0.0-8.0-1.0-4.0-0.0-1.9","7","7","7","7","6","5","5","5","5","5","5","2","1","2","1","2","2","2","2","5","5","5","5","5","5","5","5","5","5","8","8","7","8","6","7","8","9","8","7","7","7","7","7","7","7","1","7","7","1","7","7","7","7","7","7","7","7","7","7","7","7","7","7","7","7","7","7","7","7","7","6","7","7","7","7","7","7","7","7","672909992034041856","王","700","Male","[""好我"",""坏他"",""坏我"",""好他""]","[""强我"",""弱他"",""弱我"",""强他""]","","","","","","","","","","","","","","","","","","","","","","","","","","","","","","feedback_test","","","","","","","","",""
"1097","","j","psychophysics","128","288201","0.0-8.0-1.0-4.0-0.0-0.10","7","7","7","7","6","5","5","5","5","5","5","2","1","2","1","2","2","2","2","5","5","5","5","5","5","5","5","5","5","8","8","7","8","6","7","8","9","8","7","7","7","7","7","7","7","1","7","7","1","7","7","7","7","7","7","7","7","7","7","7","7","7","7","7","7","7","7","7","7","7","6","7","7","7","7","7","7","7","7","672909992034041856","王","700","Male","[""好我"",""坏他"",""坏我"",""好他""]","[""强我"",""弱他"",""弱我"",""强他""]","","","","","","","","nonmatch","","","","","","","","","","key","j","16.64880000000028","768","428","j","true","nonmatch","img/hexagon.png","弱我","弱他","ALT2","ability","","","","","","","","",""
"null","<span style='color:GreenYellow; font-size: 70px;'>正确! </span>","null","html-keyboard-response","129","288703","0.0-8.0-1.0-4.0-0.0-1.10","7","7","7","7","6","5","5","5","5","5","5","2","1","2","1","2","2","2","2","5","5","5","5","5","5","5","5","5","5","8","8","7","8","6","7","8","9","8","7","7","7","7","7","7","7","1","7","7","1","7","7","7","7","7","7","7","7","7","7","7","7","7","7","7","7","7","7","7","7","7","6","7","7","7","7","7","7","7","7","672909992034041856","王","700","Male","[""好我"",""坏他"",""坏我"",""好他""]","[""强我"",""弱他"",""弱我"",""强他""]","","","","","","","","","","","","","","","","","","","","","","","","","","","","","","feedback_test","","","","","","","","",""
"872","","f","psychophysics","130","290576","0.0-8.0-1.0-4.0-0.0-0.11","7","7","7","7","6","5","5","5","5","5","5","2","1","2","1","2","2","2","2","5","5","5","5","5","5","5","5","5","5","8","8","7","8","6","7","8","9","8","7","7","7","7","7","7","7","1","7","7","1","7","7","7","7","7","7","7","7","7","7","7","7","7","7","7","7","7","7","7","7","7","6","7","7","7","7","7","7","7","7","672909992034041856","王","700","Male","[""好我"",""坏他"",""坏我"",""好他""]","[""强我"",""弱他"",""弱我"",""强他""]","","","","","","","","match","","","","","","","","","","key","f","16.650450450450556","768","428","f","true","match","img/square.png","强他","强他","ALT2","ability","","","","","","","","",""
"null","<span style='color:GreenYellow; font-size: 70px;'>正确! </span>","null","html-keyboard-response","131","291076","0.0-8.0-1.0-4.0-0.0-1.11","7","7","7","7","6","5","5","5","5","5","5","2","1","2","1","2","2","2","2","5","5","5","5","5","5","5","5","5","5","8","8","7","8","6","7","8","9","8","7","7","7","7","7","7","7","1","7","7","1","7","7","7","7","7","7","7","7","7","7","7","7","7","7","7","7","7","7","7","7","7","6","7","7","7","7","7","7","7","7","672909992034041856","王","700","Male","[""好我"",""坏他"",""坏我"",""好他""]","[""强我"",""弱他"",""弱我"",""强他""]","","","","","","","","","","","","","","","","","","","","","","","","","","","","","","feedback_test","","","","","","","","",""
"638","","f","psychophysics","132","292716","0.0-8.0-1.0-4.0-0.0-0.12","7","7","7","7","6","5","5","5","5","5","5","2","1","2","1","2","2","2","2","5","5","5","5","5","5","5","5","5","5","8","8","7","8","6","7","8","9","8","7","7","7","7","7","7","7","1","7","7","1","7","7","7","7","7","7","7","7","7","7","7","7","7","7","7","7","7","7","7","7","7","6","7","7","7","7","7","7","7","7","672909992034041856","王","700","Male","[""好我"",""坏他"",""坏我"",""好他""]","[""强我"",""弱他"",""弱我"",""强他""]","","","","","","","","match","","","","","","","","","","key","f","16.65408163265342","768","428","f","true","match","img/ellipse.png","强我","强我","ALT2","ability","","","","","","","","",""
"null","<span style='color:GreenYellow; font-size: 70px;'>正确! </span>","null","html-keyboard-response","133","293218","0.0-8.0-1.0-4.0-0.0-1.12","7","7","7","7","6","5","5","5","5","5","5","2","1","2","1","2","2","2","2","5","5","5","5","5","5","5","5","5","5","8","8","7","8","6","7","8","9","8","7","7","7","7","7","7","7","1","7","7","1","7","7","7","7","7","7","7","7","7","7","7","7","7","7","7","7","7","7","7","7","7","6","7","7","7","7","7","7","7","7","672909992034041856","王","700","Male","[""好我"",""坏他"",""坏我"",""好他""]","[""强我"",""弱他"",""弱我"",""强他""]","","","","","","","","","","","","","","","","","","","","","","","","","","","","","","feedback_test","","","","","","","","",""
"776","","j","psychophysics","134","294995","0.0-8.0-1.0-4.0-0.0-0.13","7","7","7","7","6","5","5","5","5","5","5","2","1","2","1","2","2","2","2","5","5","5","5","5","5","5","5","5","5","8","8","7","8","6","7","8","9","8","7","7","7","7","7","7","7","1","7","7","1","7","7","7","7","7","7","7","7","7","7","7","7","7","7","7","7","7","7","7","7","7","6","7","7","7","7","7","7","7","7","672909992034041856","王","700","Male","[""好我"",""坏他"",""坏我"",""好他""]","[""强我"",""弱他"",""弱我"",""强他""]","","","","","","","","nonmatch","","","","","","","","","","key","j","16.64811320754728","768","428","j","true","nonmatch","img/trapezoid.png","强他","弱我","ALT2","ability","","","","","","","","",""
"null","<span style='color:GreenYellow; font-size: 70px;'>正确! </span>","null","html-keyboard-response","135","295496","0.0-8.0-1.0-4.0-0.0-1.13","7","7","7","7","6","5","5","5","5","5","5","2","1","2","1","2","2","2","2","5","5","5","5","5","5","5","5","5","5","8","8","7","8","6","7","8","9","8","7","7","7","7","7","7","7","1","7","7","1","7","7","7","7","7","7","7","7","7","7","7","7","7","7","7","7","7","7","7","7","7","6","7","7","7","7","7","7","7","7","672909992034041856","王","700","Male","[""好我"",""坏他"",""坏我"",""好他""]","[""强我"",""弱他"",""弱我"",""强他""]","","","","","","","","","","","","","","","","","","","","","","","","","","","","","","feedback_test","","","","","","","","",""
"716","","f","psychophysics","136","297215","0.0-8.0-1.0-4.0-0.0-0.14","7","7","7","7","6","5","5","5","5","5","5","2","1","2","1","2","2","2","2","5","5","5","5","5","5","5","5","5","5","8","8","7","8","6","7","8","9","8","7","7","7","7","7","7","7","1","7","7","1","7","7","7","7","7","7","7","7","7","7","7","7","7","7","7","7","7","7","7","7","7","6","7","7","7","7","7","7","7","7","672909992034041856","王","700","Male","[""好我"",""坏他"",""坏我"",""好他""]","[""强我"",""弱他"",""弱我"",""强他""]","","","","","","","","match","","","","","","","","","","key","f","16.648039215686616","768","428","f","true","match","img/square.png","强他","强他","ALT2","ability","","","","","","","","",""
"null","<span style='color:GreenYellow; font-size: 70px;'>正确! </span>","null","html-keyboard-response","137","297715","0.0-8.0-1.0-4.0-0.0-1.14","7","7","7","7","6","5","5","5","5","5","5","2","1","2","1","2","2","2","2","5","5","5","5","5","5","5","5","5","5","8","8","7","8","6","7","8","9","8","7","7","7","7","7","7","7","1","7","7","1","7","7","7","7","7","7","7","7","7","7","7","7","7","7","7","7","7","7","7","7","7","6","7","7","7","7","7","7","7","7","672909992034041856","王","700","Male","[""好我"",""坏他"",""坏我"",""好他""]","[""强我"",""弱他"",""弱我"",""强他""]","","","","","","","","","","","","","","","","","","","","","","","","","","","","","","feedback_test","","","","","","","","",""
"787","","f","psychophysics","138","299503","0.0-8.0-1.0-4.0-0.0-0.15","7","7","7","7","6","5","5","5","5","5","5","2","1","2","1","2","2","2","2","5","5","5","5","5","5","5","5","5","5","8","8","7","8","6","7","8","9","8","7","7","7","7","7","7","7","1","7","7","1","7","7","7","7","7","7","7","7","7","7","7","7","7","7","7","7","7","7","7","7","7","6","7","7","7","7","7","7","7","7","672909992034041856","王","700","Male","[""好我"",""坏他"",""坏我"",""好他""]","[""强我"",""弱他"",""弱我"",""强他""]","","","","","","","","match","","","","","","","","","","key","f","16.65188679245316","768","428","f","true","match","img/ellipse.png","强我","强我","ALT2","ability","","","","","","","","",""
