"rt","stimulus","response","trial_type","trial_index","time_elapsed","internal_node_id","swb_1","swb_2","swb_3","swb_4","swb_5","LOT_1","LOT_2","LOT_3","LOT_4","LOT_5","LOT_6","IPC_1","IPC_2","IPC_3","IPC_4","IPC_5","IPC_6","IPC_7","IPC_8","MorIden_1","MorIden_2","MorIden_3","MorIden_4","MorIden_5","MorIden_6","MorIden_7","MorIden_8","MorIden_9","MorIden_10","moralSeImag_1","moralSeImag_2","moralSeImag_3","moralSeImag_4","moralSeImag_5","moralSeImag_6","moralSeImag_7","moralSeImag_8","moralSeImag_9","sde_1","sde_2","sde_3","sde_4","sde_5","sde_6","sde_7","sde_8","sde_9","sde_10","trap2","sde_11","sde_12","sde_13","sde_14","sde_15","sde_16","sde_17","sde_18","sde_19","sde_20","IM_1","IM_2","IM_3","IM_4","IM_5","IM_6","IM_7","IM_8","IM_9","IM_10","IM_11","IM_12","IM_13","IM_14","IM_15","IM_16","IM_17","IM_18","IM_19","IM_20","subj_idx","friend_name","ParticipantID","Sex","Word","Word2","value","success","timeout","failed_images","failed_audio","failed_video","user_agent","responses","item_order","radio_event_ids","radio_event_times","key_event_times","mouse_event_times","straightlining","zigzagging","honeypot","view_history","response_type","key_press","avg_frame_time","center_x","center_y","correct_response","correct","identity","Image","word","condition","task_id","screen_id","time_stamp","person","valence","domain","math","status","duration","question_order","trap2_item"
"3104","
   <p><div style='color:white; font-size: 25px'>您好，欢迎参加本次实验。</div></p>
   <p><div style='color:white; font-size: 25px'>为充分保障您的权利，请确保您已经知晓并同意《参与实验同意书》以及《数据公开知情同意书》。</div></p>
   <p><div style='color:white; font-size: 25px'>如果您未见过上述内容，请咨询实验员。</div></p>
   <p style='color:white; font-size: 25px'>如果您选择继续实验，则表示您已经清楚两份知情同意书的内容并同意。</p>
   <p><div style = ""color: pink;font-size:30px;"">请确保您记得day0的实验编号，您将在本次实验输入该编号，若您忘记，请咨询实验员后作答。</div></p>
   <p><div style = ""color:lightblue;font-size:25px;"">请您尽可能认真地作答，我们将依据您在各问卷和按键任务中的作答质量发放报酬。</div></p>
   <p> <div style = ""color: green""><按空格键至下页></div> </p>
   "," ","html-keyboard-response","0","3107","0.0-0.0","7","7","7","7","6","5","5","5","5","5","5","2","2","2","2","2","2","2","2","5","5","5","5","5","5","5","4","5","5","8","7","7","8","7","8","7","9","7","7","7","7","7","7","7","6","1","7","7","1","6","6","7","7","7","7","7","7","7","7","7","7","7","7","7","7","7","7","7","7","7","7","7","7","7","7","7","7","6","7","634653479763181568","朱","380","Male","[""坏他"",""坏我"",""好我"",""好他""]","[""弱他"",""弱我"",""强我"",""强他""]","","","","","","","","","","","","","","","","","","","","","","","","","","","","","","","","","","","","","","",""
"","","","call-function","1","3109","0.0-1.0-0.0","7","7","7","7","6","5","5","5","5","5","5","2","2","2","2","2","2","2","2","5","5","5","5","5","5","5","4","5","5","8","7","7","8","7","8","7","9","7","7","7","7","7","7","7","6","1","7","7","1","6","6","7","7","7","7","7","7","7","7","7","7","7","7","7","7","7","7","7","7","7","7","7","7","7","7","7","7","6","7","634653479763181568","朱","380","Male","[""坏他"",""坏我"",""好我"",""好他""]","[""弱他"",""弱我"",""强我"",""强他""]","","","","","","","","","","","","","","","","","","","","","","","","","","","","","","","","","","","","","","",""
"31794","","[{""name"":""Sex"",""value"":""0""},{""name"":""friend_name"",""value"":""朱""},{""name"":""ParticipantID"",""value"":""380""}]","survey-html-form","2","34905","0.0-1.0-1.0","7","7","7","7","6","5","5","5","5","5","5","2","2","2","2","2","2","2","2","5","5","5","5","5","5","5","4","5","5","8","7","7","8","7","8","7","9","7","7","7","7","7","7","7","6","1","7","7","1","6","6","7","7","7","7","7","7","7","7","7","7","7","7","7","7","7","7","7","7","7","7","7","7","7","7","7","7","6","7","634653479763181568","朱","380","Male","[""坏他"",""坏我"",""好我"",""好他""]","[""弱他"",""弱我"",""强我"",""强他""]","","","","","","","","","","","","","","","","","","","","","","","","","","","","","","","","","","","","","","",""
"","","","preload","3","35408","0.0-2.0","7","7","7","7","6","5","5","5","5","5","5","2","2","2","2","2","2","2","2","5","5","5","5","5","5","5","4","5","5","8","7","7","8","7","8","7","9","7","7","7","7","7","7","7","6","1","7","7","1","6","6","7","7","7","7","7","7","7","7","7","7","7","7","7","7","7","7","7","7","7","7","7","7","7","7","7","7","6","7","634653479763181568","朱","380","Male","[""坏他"",""坏我"",""好我"",""好他""]","[""弱他"",""弱我"",""强我"",""强他""]","","true","false","[]","[]","[]","","","","","","","","","","","","","","","","","","","","","","","","","","","","","","","","",""
"","","","fullscreen","4","36300","0.0-3.0","7","7","7","7","6","5","5","5","5","5","5","2","2","2","2","2","2","2","2","5","5","5","5","5","5","5","4","5","5","8","7","7","8","7","8","7","9","7","7","7","7","7","7","7","6","1","7","7","1","6","6","7","7","7","7","7","7","7","7","7","7","7","7","7","7","7","7","7","7","7","7","7","7","7","7","7","7","6","7","634653479763181568","朱","380","Male","[""坏他"",""坏我"",""好我"",""好他""]","[""弱他"",""弱我"",""强我"",""强他""]","","true","","","","","{}","","","","","","","","","","","","","","","","","","","","","","","","","","","","","","","",""
"5679.599999964237","","{""Q01"":""7"",""Q02"":""7"",""Q03"":""7"",""Q04"":""7"",""Q05"":""6""}","survey-template","5","41984","0.0-4.0","7","7","7","7","6","5","5","5","5","5","5","2","2","2","2","2","2","2","2","5","5","5","5","5","5","5","4","5","5","8","7","7","8","7","8","7","9","7","7","7","7","7","7","7","6","1","7","7","1","6","6","7","7","7","7","7","7","7","7","7","7","7","7","7","7","7","7","7","7","7","7","7","7","7","7","7","7","6","7","634653479763181568","朱","380","Male","[""坏他"",""坏我"",""好我"",""好他""]","[""弱他"",""弱我"",""强我"",""强他""]","","","","","","","","{""Q01"":""7"",""Q02"":""7"",""Q03"":""7"",""Q04"":""7"",""Q05"":""6""}","[0,1,2,3,4]","[""Q01"",""Q02"",""Q03"",""Q04"",""Q05""]","[1911.0999999642372,2422.7999999523163,3303.2999999523163,3743.899999976158,4976.199999988079]","[]","[1504.199999988079,1911.0999999642372,2422.7999999523163,2791.2999999523163,3303.2999999523163,3743.899999976158,4976.199999988079,5678.799999952316]","0.8","0.25","0","","","","","","","","","","","","","","","","","","","","","","",""
"7485.199999988079","","{""Q01"":""5"",""Q02"":""5"",""Q03"":""5"",""Q04"":""5"",""Q05"":""5"",""Q06"":""5""}","survey-template","6","49472","0.0-5.0","7","7","7","7","6","5","5","5","5","5","5","2","2","2","2","2","2","2","2","5","5","5","5","5","5","5","4","5","5","8","7","7","8","7","8","7","9","7","7","7","7","7","7","7","6","1","7","7","1","6","6","7","7","7","7","7","7","7","7","7","7","7","7","7","7","7","7","7","7","7","7","7","7","7","7","7","7","6","7","634653479763181568","朱","380","Male","[""坏他"",""坏我"",""好我"",""好他""]","[""弱他"",""弱我"",""强我"",""强他""]","","","","","","","","{""Q01"":""5"",""Q02"":""5"",""Q03"":""5"",""Q04"":""5"",""Q05"":""5"",""Q06"":""5""}","[0,1,2,3,4,5]","[""Q01"",""Q03"",""Q06"",""Q04"",""Q02"",""Q05""]","[1182.199999988079,2284.599999964237,3036.899999976158,4053.099999964237,5612.599999964237,6540.199999988079]","[]","[1182.199999988079,2284.599999964237,3036.899999976158,3853.399999976158,4053.099999964237,4524.399999976158,4725.899999976158,5612.599999964237,6540.199999988079,7484.599999964237]","0.5","0.8","0","","","","","","","","","","","","","","","","","","","","","","",""
"13734","","{""Q01"":""2"",""Q02"":""2"",""Q03"":""2"",""Q04"":""2"",""Q05"":""2"",""Q06"":""2"",""Q07"":""2"",""Q08"":""2""}","survey-template","7","63209","0.0-6.0","7","7","7","7","6","5","5","5","5","5","5","2","2","2","2","2","2","2","2","5","5","5","5","5","5","5","4","5","5","8","7","7","8","7","8","7","9","7","7","7","7","7","7","7","6","1","7","7","1","6","6","7","7","7","7","7","7","7","7","7","7","7","7","7","7","7","7","7","7","7","7","7","7","7","7","7","7","6","7","634653479763181568","朱","380","Male","[""坏他"",""坏我"",""好我"",""好他""]","[""弱他"",""弱我"",""强我"",""强他""]","","","","","","","","{""Q01"":""2"",""Q02"":""2"",""Q03"":""2"",""Q04"":""2"",""Q05"":""2"",""Q06"":""2"",""Q07"":""2"",""Q08"":""2""}","[0,1,2,3,4,5,6,7]","[""Q01"",""Q02"",""Q03"",""Q04"",""Q06"",""Q07"",""Q07"",""Q08"",""Q05"",""Q04"",""Q04""]","[1213.1000000238419,1605,2661.800000011921,3749.400000035763,4684.900000035763,5741.800000011921,5925,6573.300000011921,7325.100000023842,8405,12164.800000011921]","[]","[1213.1000000238419,1605,2125.2000000476837,2317,2661.800000011921,3197.100000023842,3749.400000035763,4181.900000035763,4684.900000035763,5167.400000035763,5741.800000011921,5925,6573.300000011921,7325.100000023842,8405,11444.600000023842,12164.800000011921,13732.900000035763]","1","0","0","","","","","","","","","","","","","","","","","","","","","","",""
"32303","","","instructions","8","95514","0.0-7.0","7","7","7","7","6","5","5","5","5","5","5","2","2","2","2","2","2","2","2","5","5","5","5","5","5","5","4","5","5","8","7","7","8","7","8","7","9","7","7","7","7","7","7","7","6","1","7","7","1","6","6","7","7","7","7","7","7","7","7","7","7","7","7","7","7","7","7","7","7","7","7","7","7","7","7","7","7","6","7","634653479763181568","朱","380","Male","[""坏他"",""坏我"",""好我"",""好他""]","[""弱他"",""弱我"",""强我"",""强他""]","","","","","","","","","","","","","","","","","[{""page_index"":0,""viewing_time"":32302}]","","","","","","","","","","","","","","","","","","","","","",""
"137199","","","instructions","9","232714","0.0-8.0-0.0-0.0","7","7","7","7","6","5","5","5","5","5","5","2","2","2","2","2","2","2","2","5","5","5","5","5","5","5","4","5","5","8","7","7","8","7","8","7","9","7","7","7","7","7","7","7","6","1","7","7","1","6","6","7","7","7","7","7","7","7","7","7","7","7","7","7","7","7","7","7","7","7","7","7","7","7","7","7","7","6","7","634653479763181568","朱","380","Male","[""坏他"",""坏我"",""好我"",""好他""]","[""弱他"",""弱我"",""强我"",""强他""]","","","","","","","","","","","","","","","","","[{""page_index"":0,""viewing_time"":24844},{""page_index"":1,""viewing_time"":110384},{""page_index"":2,""viewing_time"":1112},{""page_index"":3,""viewing_time"":858}]","","","","","","","","","","","","","","","","","","","","","",""
"940","","f","psychophysics","10","234656","0.0-8.0-0.0-1.0-0.0-0.0","7","7","7","7","6","5","5","5","5","5","5","2","2","2","2","2","2","2","2","5","5","5","5","5","5","5","4","5","5","8","7","7","8","7","8","7","9","7","7","7","7","7","7","7","6","1","7","7","1","6","6","7","7","7","7","7","7","7","7","7","7","7","7","7","7","7","7","7","7","7","7","7","7","7","7","7","7","6","7","634653479763181568","朱","380","Male","[""坏他"",""坏我"",""好我"",""好他""]","[""弱他"",""弱我"",""强我"",""强他""]","","","","","","","","match","","","","","","","","","","key","f","16.81140350877193","768","428","j","false","nonmatch","img/trapezoid.png","好他","坏他","prac_ALT2_moral","practice_moral","","","","","","","","",""
"null","<span style='color:red; font-size: 70px;'>错误! </span>","null","html-keyboard-response","11","235158","0.0-8.0-0.0-1.0-0.0-1.0","7","7","7","7","6","5","5","5","5","5","5","2","2","2","2","2","2","2","2","5","5","5","5","5","5","5","4","5","5","8","7","7","8","7","8","7","9","7","7","7","7","7","7","7","6","1","7","7","1","6","6","7","7","7","7","7","7","7","7","7","7","7","7","7","7","7","7","7","7","7","7","7","7","7","7","7","7","6","7","634653479763181568","朱","380","Male","[""坏他"",""坏我"",""好我"",""好他""]","[""弱他"",""弱我"",""强我"",""强他""]","","","","","","","","","","","","","","","","","","","","","","","","","","","","","","feedback_test","","","","","","","","",""
"955","","j","psychophysics","12","237114","0.0-8.0-0.0-1.0-0.0-0.1","7","7","7","7","6","5","5","5","5","5","5","2","2","2","2","2","2","2","2","5","5","5","5","5","5","5","4","5","5","8","7","7","8","7","8","7","9","7","7","7","7","7","7","7","6","1","7","7","1","6","6","7","7","7","7","7","7","7","7","7","7","7","7","7","7","7","7","7","7","7","7","7","7","7","7","7","7","6","7","634653479763181568","朱","380","Male","[""坏他"",""坏我"",""好我"",""好他""]","[""弱他"",""弱我"",""强我"",""强他""]","","","","","","","","nonmatch","","","","","","","","","","key","j","16.66206896551714","768","428","j","true","nonmatch","img/hexagon.png","好他","坏我","prac_ALT2_moral","practice_moral","","","","","","","","",""
"null","<span style='color:GreenYellow; font-size: 70px;'>正确! </span>","null","html-keyboard-response","13","237616","0.0-8.0-0.0-1.0-0.0-1.1","7","7","7","7","6","5","5","5","5","5","5","2","2","2","2","2","2","2","2","5","5","5","5","5","5","5","4","5","5","8","7","7","8","7","8","7","9","7","7","7","7","7","7","7","6","1","7","7","1","6","6","7","7","7","7","7","7","7","7","7","7","7","7","7","7","7","7","7","7","7","7","7","7","7","7","7","7","6","7","634653479763181568","朱","380","Male","[""坏他"",""坏我"",""好我"",""好他""]","[""弱他"",""弱我"",""强我"",""强他""]","","","","","","","","","","","","","","","","","","","","","","","","","","","","","","feedback_test","","","","","","","","",""
"954","","f","psychophysics","14","239572","0.0-8.0-0.0-1.0-0.0-0.2","7","7","7","7","6","5","5","5","5","5","5","2","2","2","2","2","2","2","2","5","5","5","5","5","5","5","4","5","5","8","7","7","8","7","8","7","9","7","7","7","7","7","7","7","6","1","7","7","1","6","6","7","7","7","7","7","7","7","7","7","7","7","7","7","7","7","7","7","7","7","7","7","7","7","7","7","7","6","7","634653479763181568","朱","380","Male","[""坏他"",""坏我"",""好我"",""好他""]","[""弱他"",""弱我"",""强我"",""强他""]","","","","","","","","match","","","","","","","","","","key","f","16.665517241379412","768","428","f","true","match","img/hexagon.png","坏我","坏我","prac_ALT2_moral","practice_moral","","","","","","","","",""
"null","<span style='color:GreenYellow; font-size: 70px;'>正确! </span>","null","html-keyboard-response","15","240073","0.0-8.0-0.0-1.0-0.0-1.2","7","7","7","7","6","5","5","5","5","5","5","2","2","2","2","2","2","2","2","5","5","5","5","5","5","5","4","5","5","8","7","7","8","7","8","7","9","7","7","7","7","7","7","7","6","1","7","7","1","6","6","7","7","7","7","7","7","7","7","7","7","7","7","7","7","7","7","7","7","7","7","7","7","7","7","7","7","6","7","634653479763181568","朱","380","Male","[""坏他"",""坏我"",""好我"",""好他""]","[""弱他"",""弱我"",""强我"",""强他""]","","","","","","","","","","","","","","","","","","","","","","","","","","","","","","feedback_test","","","","","","","","",""
"1011","","j","psychophysics","16","242085","0.0-8.0-0.0-1.0-0.0-0.3","7","7","7","7","6","5","5","5","5","5","5","2","2","2","2","2","2","2","2","5","5","5","5","5","5","5","4","5","5","8","7","7","8","7","8","7","9","7","7","7","7","7","7","7","6","1","7","7","1","6","6","7","7","7","7","7","7","7","7","7","7","7","7","7","7","7","7","7","7","7","7","7","7","7","7","7","7","6","7","634653479763181568","朱","380","Male","[""坏他"",""坏我"",""好我"",""好他""]","[""弱他"",""弱我"",""强我"",""强他""]","","","","","","","","nonmatch","","","","","","","","","","key","j","16.666666666666668","768","428","j","true","nonmatch","img/trapezoid.png","好我","坏他","prac_ALT2_moral","practice_moral","","","","","","","","",""
"null","<span style='color:GreenYellow; font-size: 70px;'>正确! </span>","null","html-keyboard-response","17","242587","0.0-8.0-0.0-1.0-0.0-1.3","7","7","7","7","6","5","5","5","5","5","5","2","2","2","2","2","2","2","2","5","5","5","5","5","5","5","4","5","5","8","7","7","8","7","8","7","9","7","7","7","7","7","7","7","6","1","7","7","1","6","6","7","7","7","7","7","7","7","7","7","7","7","7","7","7","7","7","7","7","7","7","7","7","7","7","7","7","6","7","634653479763181568","朱","380","Male","[""坏他"",""坏我"",""好我"",""好他""]","[""弱他"",""弱我"",""强我"",""强他""]","","","","","","","","","","","","","","","","","","","","","","","","","","","","","","feedback_test","","","","","","","","",""
"996","","j","psychophysics","18","244585","0.0-8.0-0.0-1.0-0.0-0.4","7","7","7","7","6","5","5","5","5","5","5","2","2","2","2","2","2","2","2","5","5","5","5","5","5","5","4","5","5","8","7","7","8","7","8","7","9","7","7","7","7","7","7","7","6","1","7","7","1","6","6","7","7","7","7","7","7","7","7","7","7","7","7","7","7","7","7","7","7","7","7","7","7","7","7","7","7","6","7","634653479763181568","朱","380","Male","[""坏他"",""坏我"",""好我"",""好他""]","[""弱他"",""弱我"",""强我"",""强他""]","","","","","","","","nonmatch","","","","","","","","","","key","j","16.6672268907565","768","428","j","true","nonmatch","img/diamond.png","好我","好他","prac_ALT2_moral","practice_moral","","","","","","","","",""
"null","<span style='color:GreenYellow; font-size: 70px;'>正确! </span>","null","html-keyboard-response","19","245086","0.0-8.0-0.0-1.0-0.0-1.4","7","7","7","7","6","5","5","5","5","5","5","2","2","2","2","2","2","2","2","5","5","5","5","5","5","5","4","5","5","8","7","7","8","7","8","7","9","7","7","7","7","7","7","7","6","1","7","7","1","6","6","7","7","7","7","7","7","7","7","7","7","7","7","7","7","7","7","7","7","7","7","7","7","7","7","7","7","6","7","634653479763181568","朱","380","Male","[""坏他"",""坏我"",""好我"",""好他""]","[""弱他"",""弱我"",""强我"",""强他""]","","","","","","","","","","","","","","","","","","","","","","","","","","","","","","feedback_test","","","","","","","","",""
"950","","f","psychophysics","20","247037","0.0-8.0-0.0-1.0-0.0-0.5","7","7","7","7","6","5","5","5","5","5","5","2","2","2","2","2","2","2","2","5","5","5","5","5","5","5","4","5","5","8","7","7","8","7","8","7","9","7","7","7","7","7","7","7","6","1","7","7","1","6","6","7","7","7","7","7","7","7","7","7","7","7","7","7","7","7","7","7","7","7","7","7","7","7","7","7","7","6","7","634653479763181568","朱","380","Male","[""坏他"",""坏我"",""好我"",""好他""]","[""弱他"",""弱我"",""强我"",""强他""]","","","","","","","","match","","","","","","","","","","key","f","16.666379310344727","768","428","f","true","match","img/trapezoid.png","坏他","坏他","prac_ALT2_moral","practice_moral","","","","","","","","",""
"null","<span style='color:GreenYellow; font-size: 70px;'>正确! </span>","null","html-keyboard-response","21","247547","0.0-8.0-0.0-1.0-0.0-1.5","7","7","7","7","6","5","5","5","5","5","5","2","2","2","2","2","2","2","2","5","5","5","5","5","5","5","4","5","5","8","7","7","8","7","8","7","9","7","7","7","7","7","7","7","6","1","7","7","1","6","6","7","7","7","7","7","7","7","7","7","7","7","7","7","7","7","7","7","7","7","7","7","7","7","7","7","7","6","7","634653479763181568","朱","380","Male","[""坏他"",""坏我"",""好我"",""好他""]","[""弱他"",""弱我"",""强我"",""强他""]","","","","","","","","","","","","","","","","","","","","","","","","","","","","","","feedback_test","","","","","","","","",""
"1069","","j","psychophysics","22","249618","0.0-8.0-0.0-1.0-0.0-0.6","7","7","7","7","6","5","5","5","5","5","5","2","2","2","2","2","2","2","2","5","5","5","5","5","5","5","4","5","5","8","7","7","8","7","8","7","9","7","7","7","7","7","7","7","6","1","7","7","1","6","6","7","7","7","7","7","7","7","7","7","7","7","7","7","7","7","7","7","7","7","7","7","7","7","7","7","7","6","7","634653479763181568","朱","380","Male","[""坏他"",""坏我"",""好我"",""好他""]","[""弱他"",""弱我"",""强我"",""强他""]","","","","","","","","nonmatch","","","","","","","","","","key","j","16.66422764227652","768","428","f","false","match","img/diamond.png","好他","好他","prac_ALT2_moral","practice_moral","","","","","","","","",""
"null","<span style='color:red; font-size: 70px;'>错误! </span>","null","html-keyboard-response","23","250119","0.0-8.0-0.0-1.0-0.0-1.6","7","7","7","7","6","5","5","5","5","5","5","2","2","2","2","2","2","2","2","5","5","5","5","5","5","5","4","5","5","8","7","7","8","7","8","7","9","7","7","7","7","7","7","7","6","1","7","7","1","6","6","7","7","7","7","7","7","7","7","7","7","7","7","7","7","7","7","7","7","7","7","7","7","7","7","7","7","6","7","634653479763181568","朱","380","Male","[""坏他"",""坏我"",""好我"",""好他""]","[""弱他"",""弱我"",""强我"",""强他""]","","","","","","","","","","","","","","","","","","","","","","","","","","","","","","feedback_test","","","","","","","","",""
"852","","j","psychophysics","24","251972","0.0-8.0-0.0-1.0-0.0-0.7","7","7","7","7","6","5","5","5","5","5","5","2","2","2","2","2","2","2","2","5","5","5","5","5","5","5","4","5","5","8","7","7","8","7","8","7","9","7","7","7","7","7","7","7","6","1","7","7","1","6","6","7","7","7","7","7","7","7","7","7","7","7","7","7","7","7","7","7","7","7","7","7","7","7","7","7","7","6","7","634653479763181568","朱","380","Male","[""坏他"",""坏我"",""好我"",""好他""]","[""弱他"",""弱我"",""强我"",""强他""]","","","","","","","","nonmatch","","","","","","","","","","key","j","16.66636363636353","768","428","j","true","nonmatch","img/ellipse.png","坏他","好我","prac_ALT2_moral","practice_moral","","","","","","","","",""
"null","<span style='color:GreenYellow; font-size: 70px;'>正确! </span>","null","html-keyboard-response","25","252473","0.0-8.0-0.0-1.0-0.0-1.7","7","7","7","7","6","5","5","5","5","5","5","2","2","2","2","2","2","2","2","5","5","5","5","5","5","5","4","5","5","8","7","7","8","7","8","7","9","7","7","7","7","7","7","7","6","1","7","7","1","6","6","7","7","7","7","7","7","7","7","7","7","7","7","7","7","7","7","7","7","7","7","7","7","7","7","7","7","6","7","634653479763181568","朱","380","Male","[""坏他"",""坏我"",""好我"",""好他""]","[""弱他"",""弱我"",""强我"",""强他""]","","","","","","","","","","","","","","","","","","","","","","","","","","","","","","feedback_test","","","","","","","","",""
"992","","f","psychophysics","26","254466","0.0-8.0-0.0-1.0-0.0-0.8","7","7","7","7","6","5","5","5","5","5","5","2","2","2","2","2","2","2","2","5","5","5","5","5","5","5","4","5","5","8","7","7","8","7","8","7","9","7","7","7","7","7","7","7","6","1","7","7","1","6","6","7","7","7","7","7","7","7","7","7","7","7","7","7","7","7","7","7","7","7","7","7","7","7","7","7","7","6","7","634653479763181568","朱","380","Male","[""坏他"",""坏我"",""好我"",""好他""]","[""弱他"",""弱我"",""强我"",""强他""]","","","","","","","","match","","","","","","","","","","key","f","16.666949152542227","768","428","f","true","match","img/hexagon.png","坏我","坏我","prac_ALT2_moral","practice_moral","","","","","","","","",""
"null","<span style='color:GreenYellow; font-size: 70px;'>正确! </span>","null","html-keyboard-response","27","254968","0.0-8.0-0.0-1.0-0.0-1.8","7","7","7","7","6","5","5","5","5","5","5","2","2","2","2","2","2","2","2","5","5","5","5","5","5","5","4","5","5","8","7","7","8","7","8","7","9","7","7","7","7","7","7","7","6","1","7","7","1","6","6","7","7","7","7","7","7","7","7","7","7","7","7","7","7","7","7","7","7","7","7","7","7","7","7","7","7","6","7","634653479763181568","朱","380","Male","[""坏他"",""坏我"",""好我"",""好他""]","[""弱他"",""弱我"",""强我"",""强他""]","","","","","","","","","","","","","","","","","","","","","","","","","","","","","","feedback_test","","","","","","","","",""
"640","","j","psychophysics","28","256610","0.0-8.0-0.0-1.0-0.0-0.9","7","7","7","7","6","5","5","5","5","5","5","2","2","2","2","2","2","2","2","5","5","5","5","5","5","5","4","5","5","8","7","7","8","7","8","7","9","7","7","7","7","7","7","7","6","1","7","7","1","6","6","7","7","7","7","7","7","7","7","7","7","7","7","7","7","7","7","7","7","7","7","7","7","7","7","7","7","6","7","634653479763181568","朱","380","Male","[""坏他"",""坏我"",""好我"",""好他""]","[""弱他"",""弱我"",""强我"",""强他""]","","","","","","","","nonmatch","","","","","","","","","","key","j","16.666326530612125","768","428","j","true","nonmatch","img/hexagon.png","坏他","坏我","prac_ALT2_moral","practice_moral","","","","","","","","",""
"null","<span style='color:GreenYellow; font-size: 70px;'>正确! </span>","null","html-keyboard-response","29","257112","0.0-8.0-0.0-1.0-0.0-1.9","7","7","7","7","6","5","5","5","5","5","5","2","2","2","2","2","2","2","2","5","5","5","5","5","5","5","4","5","5","8","7","7","8","7","8","7","9","7","7","7","7","7","7","7","6","1","7","7","1","6","6","7","7","7","7","7","7","7","7","7","7","7","7","7","7","7","7","7","7","7","7","7","7","7","7","7","7","6","7","634653479763181568","朱","380","Male","[""坏他"",""坏我"",""好我"",""好他""]","[""弱他"",""弱我"",""强我"",""强他""]","","","","","","","","","","","","","","","","","","","","","","","","","","","","","","feedback_test","","","","","","","","",""
"835","","f","psychophysics","30","258949","0.0-8.0-0.0-1.0-0.0-0.10","7","7","7","7","6","5","5","5","5","5","5","2","2","2","2","2","2","2","2","5","5","5","5","5","5","5","4","5","5","8","7","7","8","7","8","7","9","7","7","7","7","7","7","7","6","1","7","7","1","6","6","7","7","7","7","7","7","7","7","7","7","7","7","7","7","7","7","7","7","7","7","7","7","7","7","7","7","6","7","634653479763181568","朱","380","Male","[""坏他"",""坏我"",""好我"",""好他""]","[""弱他"",""弱我"",""强我"",""强他""]","","","","","","","","match","","","","","","","","","","key","f","16.67522935779822","768","428","j","false","nonmatch","img/ellipse.png","坏我","好我","prac_ALT2_moral","practice_moral","","","","","","","","",""
"null","<span style='color:red; font-size: 70px;'>错误! </span>","null","html-keyboard-response","31","259450","0.0-8.0-0.0-1.0-0.0-1.10","7","7","7","7","6","5","5","5","5","5","5","2","2","2","2","2","2","2","2","5","5","5","5","5","5","5","4","5","5","8","7","7","8","7","8","7","9","7","7","7","7","7","7","7","6","1","7","7","1","6","6","7","7","7","7","7","7","7","7","7","7","7","7","7","7","7","7","7","7","7","7","7","7","7","7","7","7","6","7","634653479763181568","朱","380","Male","[""坏他"",""坏我"",""好我"",""好他""]","[""弱他"",""弱我"",""强我"",""强他""]","","","","","","","","","","","","","","","","","","","","","","","","","","","","","","feedback_test","","","","","","","","",""
"769","","j","psychophysics","32","261223","0.0-8.0-0.0-1.0-0.0-0.11","7","7","7","7","6","5","5","5","5","5","5","2","2","2","2","2","2","2","2","5","5","5","5","5","5","5","4","5","5","8","7","7","8","7","8","7","9","7","7","7","7","7","7","7","6","1","7","7","1","6","6","7","7","7","7","7","7","7","7","7","7","7","7","7","7","7","7","7","7","7","7","7","7","7","7","7","7","6","7","634653479763181568","朱","380","Male","[""坏他"",""坏我"",""好我"",""好他""]","[""弱他"",""弱我"",""强我"",""强他""]","","","","","","","","nonmatch","","","","","","","","","","key","j","16.66285714285692","768","428","j","true","nonmatch","img/diamond.png","坏我","好他","prac_ALT2_moral","practice_moral","","","","","","","","",""
"null","<span style='color:GreenYellow; font-size: 70px;'>正确! </span>","null","html-keyboard-response","33","261723","0.0-8.0-0.0-1.0-0.0-1.11","7","7","7","7","6","5","5","5","5","5","5","2","2","2","2","2","2","2","2","5","5","5","5","5","5","5","4","5","5","8","7","7","8","7","8","7","9","7","7","7","7","7","7","7","6","1","7","7","1","6","6","7","7","7","7","7","7","7","7","7","7","7","7","7","7","7","7","7","7","7","7","7","7","7","7","7","7","6","7","634653479763181568","朱","380","Male","[""坏他"",""坏我"",""好我"",""好他""]","[""弱他"",""弱我"",""强我"",""强他""]","","","","","","","","","","","","","","","","","","","","","","","","","","","","","","feedback_test","","","","","","","","",""
"853","","j","psychophysics","34","263579","0.0-8.0-0.0-1.0-0.0-0.12","7","7","7","7","6","5","5","5","5","5","5","2","2","2","2","2","2","2","2","5","5","5","5","5","5","5","4","5","5","8","7","7","8","7","8","7","9","7","7","7","7","7","7","7","6","1","7","7","1","6","6","7","7","7","7","7","7","7","7","7","7","7","7","7","7","7","7","7","7","7","7","7","7","7","7","7","7","6","7","634653479763181568","朱","380","Male","[""坏他"",""坏我"",""好我"",""好他""]","[""弱他"",""弱我"",""强我"",""强他""]","","","","","","","","nonmatch","","","","","","","","","","key","j","16.66545454545465","768","428","f","false","match","img/diamond.png","好他","好他","prac_ALT2_moral","practice_moral","","","","","","","","",""
"null","<span style='color:red; font-size: 70px;'>错误! </span>","null","html-keyboard-response","35","264080","0.0-8.0-0.0-1.0-0.0-1.12","7","7","7","7","6","5","5","5","5","5","5","2","2","2","2","2","2","2","2","5","5","5","5","5","5","5","4","5","5","8","7","7","8","7","8","7","9","7","7","7","7","7","7","7","6","1","7","7","1","6","6","7","7","7","7","7","7","7","7","7","7","7","7","7","7","7","7","7","7","7","7","7","7","7","7","7","7","6","7","634653479763181568","朱","380","Male","[""坏他"",""坏我"",""好我"",""好他""]","[""弱他"",""弱我"",""强我"",""强他""]","","","","","","","","","","","","","","","","","","","","","","","","","","","","","","feedback_test","","","","","","","","",""
"998","","f","psychophysics","36","266079","0.0-8.0-0.0-1.0-0.0-0.13","7","7","7","7","6","5","5","5","5","5","5","2","2","2","2","2","2","2","2","5","5","5","5","5","5","5","4","5","5","8","7","7","8","7","8","7","9","7","7","7","7","7","7","7","6","1","7","7","1","6","6","7","7","7","7","7","7","7","7","7","7","7","7","7","7","7","7","7","7","7","7","7","7","7","7","7","7","6","7","634653479763181568","朱","380","Male","[""坏他"",""坏我"",""好我"",""好他""]","[""弱他"",""弱我"",""强我"",""强他""]","","","","","","","","match","","","","","","","","","","key","f","16.666386554621752","768","428","f","true","match","img/trapezoid.png","坏他","坏他","prac_ALT2_moral","practice_moral","","","","","","","","",""
"null","<span style='color:GreenYellow; font-size: 70px;'>正确! </span>","null","html-keyboard-response","37","266581","0.0-8.0-0.0-1.0-0.0-1.13","7","7","7","7","6","5","5","5","5","5","5","2","2","2","2","2","2","2","2","5","5","5","5","5","5","5","4","5","5","8","7","7","8","7","8","7","9","7","7","7","7","7","7","7","6","1","7","7","1","6","6","7","7","7","7","7","7","7","7","7","7","7","7","7","7","7","7","7","7","7","7","7","7","7","7","7","7","6","7","634653479763181568","朱","380","Male","[""坏他"",""坏我"",""好我"",""好他""]","[""弱他"",""弱我"",""强我"",""强他""]","","","","","","","","","","","","","","","","","","","","","","","","","","","","","","feedback_test","","","","","","","","",""
"842","","f","psychophysics","38","268426","0.0-8.0-0.0-1.0-0.0-0.14","7","7","7","7","6","5","5","5","5","5","5","2","2","2","2","2","2","2","2","5","5","5","5","5","5","5","4","5","5","8","7","7","8","7","8","7","9","7","7","7","7","7","7","7","6","1","7","7","1","6","6","7","7","7","7","7","7","7","7","7","7","7","7","7","7","7","7","7","7","7","7","7","7","7","7","7","7","6","7","634653479763181568","朱","380","Male","[""坏他"",""坏我"",""好我"",""好他""]","[""弱他"",""弱我"",""强我"",""强他""]","","","","","","","","match","","","","","","","","","","key","f","17.29622641509456","768","428","f","true","match","img/ellipse.png","好我","好我","prac_ALT2_moral","practice_moral","","","","","","","","",""
"null","<span style='color:GreenYellow; font-size: 70px;'>正确! </span>","null","html-keyboard-response","39","268927","0.0-8.0-0.0-1.0-0.0-1.14","7","7","7","7","6","5","5","5","5","5","5","2","2","2","2","2","2","2","2","5","5","5","5","5","5","5","4","5","5","8","7","7","8","7","8","7","9","7","7","7","7","7","7","7","6","1","7","7","1","6","6","7","7","7","7","7","7","7","7","7","7","7","7","7","7","7","7","7","7","7","7","7","7","7","7","7","7","6","7","634653479763181568","朱","380","Male","[""坏他"",""坏我"",""好我"",""好他""]","[""弱他"",""弱我"",""强我"",""强他""]","","","","","","","","","","","","","","","","","","","","","","","","","","","","","","feedback_test","","","","","","","","",""
"1103","","j","psychophysics","40","271032","0.0-8.0-0.0-1.0-0.0-0.15","7","7","7","7","6","5","5","5","5","5","5","2","2","2","2","2","2","2","2","5","5","5","5","5","5","5","4","5","5","8","7","7","8","7","8","7","9","7","7","7","7","7","7","7","6","1","7","7","1","6","6","7","7","7","7","7","7","7","7","7","7","7","7","7","7","7","7","7","7","7","7","7","7","7","7","7","7","6","7","634653479763181568","朱","380","Male","[""坏他"",""坏我"",""好我"",""好他""]","[""弱他"",""弱我"",""强我"",""强他""]","","","","","","","","nonmatch","","","","","","","","","","key","j","16.66559999999963","768","428","f","false","match","img/trapezoid.png","坏他","坏他","prac_ALT2_moral","practice_moral","","","","","","","","",""
"null","<span style='color:red; font-size: 70px;'>错误! </span>","null","html-keyboard-response","41","271548","0.0-8.0-0.0-1.0-0.0-1.15","7","7","7","7","6","5","5","5","5","5","5","2","2","2","2","2","2","2","2","5","5","5","5","5","5","5","4","5","5","8","7","7","8","7","8","7","9","7","7","7","7","7","7","7","6","1","7","7","1","6","6","7","7","7","7","7","7","7","7","7","7","7","7","7","7","7","7","7","7","7","7","7","7","7","7","7","7","6","7","634653479763181568","朱","380","Male","[""坏他"",""坏我"",""好我"",""好他""]","[""弱他"",""弱我"",""强我"",""强他""]","","","","","","","","","","","","","","","","","","","","","","","","","","","","","","feedback_test","","","","","","","","",""
"641","","j","psychophysics","42","273191","0.0-8.0-0.0-1.0-0.0-0.16","7","7","7","7","6","5","5","5","5","5","5","2","2","2","2","2","2","2","2","5","5","5","5","5","5","5","4","5","5","8","7","7","8","7","8","7","9","7","7","7","7","7","7","7","6","1","7","7","1","6","6","7","7","7","7","7","7","7","7","7","7","7","7","7","7","7","7","7","7","7","7","7","7","7","7","7","7","6","7","634653479763181568","朱","380","Male","[""坏他"",""坏我"",""好我"",""好他""]","[""弱他"",""弱我"",""强我"",""强他""]","","","","","","","","nonmatch","","","","","","","","","","key","j","16.667346938775747","768","428","j","true","nonmatch","img/trapezoid.png","坏我","坏他","prac_ALT2_moral","practice_moral","","","","","","","","",""
"null","<span style='color:GreenYellow; font-size: 70px;'>正确! </span>","null","html-keyboard-response","43","273692","0.0-8.0-0.0-1.0-0.0-1.16","7","7","7","7","6","5","5","5","5","5","5","2","2","2","2","2","2","2","2","5","5","5","5","5","5","5","4","5","5","8","7","7","8","7","8","7","9","7","7","7","7","7","7","7","6","1","7","7","1","6","6","7","7","7","7","7","7","7","7","7","7","7","7","7","7","7","7","7","7","7","7","7","7","7","7","7","7","6","7","634653479763181568","朱","380","Male","[""坏他"",""坏我"",""好我"",""好他""]","[""弱他"",""弱我"",""强我"",""强他""]","","","","","","","","","","","","","","","","","","","","","","","","","","","","","","feedback_test","","","","","","","","",""
"1035","","j","psychophysics","44","275730","0.0-8.0-0.0-1.0-0.0-0.17","7","7","7","7","6","5","5","5","5","5","5","2","2","2","2","2","2","2","2","5","5","5","5","5","5","5","4","5","5","8","7","7","8","7","8","7","9","7","7","7","7","7","7","7","6","1","7","7","1","6","6","7","7","7","7","7","7","7","7","7","7","7","7","7","7","7","7","7","7","7","7","7","7","7","7","7","7","6","7","634653479763181568","朱","380","Male","[""坏他"",""坏我"",""好我"",""好他""]","[""弱他"",""弱我"",""强我"",""强他""]","","","","","","","","nonmatch","","","","","","","","","","key","j","16.666942148760427","768","428","j","true","nonmatch","img/hexagon.png","好我","坏我","prac_ALT2_moral","practice_moral","","","","","","","","",""
"null","<span style='color:GreenYellow; font-size: 70px;'>正确! </span>","null","html-keyboard-response","45","276235","0.0-8.0-0.0-1.0-0.0-1.17","7","7","7","7","6","5","5","5","5","5","5","2","2","2","2","2","2","2","2","5","5","5","5","5","5","5","4","5","5","8","7","7","8","7","8","7","9","7","7","7","7","7","7","7","6","1","7","7","1","6","6","7","7","7","7","7","7","7","7","7","7","7","7","7","7","7","7","7","7","7","7","7","7","7","7","7","7","6","7","634653479763181568","朱","380","Male","[""坏他"",""坏我"",""好我"",""好他""]","[""弱他"",""弱我"",""强我"",""强他""]","","","","","","","","","","","","","","","","","","","","","","","","","","","","","","feedback_test","","","","","","","","",""
"993","","f","psychophysics","46","278231","0.0-8.0-0.0-1.0-0.0-0.18","7","7","7","7","6","5","5","5","5","5","5","2","2","2","2","2","2","2","2","5","5","5","5","5","5","5","4","5","5","8","7","7","8","7","8","7","9","7","7","7","7","7","7","7","6","1","7","7","1","6","6","7","7","7","7","7","7","7","7","7","7","7","7","7","7","7","7","7","7","7","7","7","7","7","7","7","7","6","7","634653479763181568","朱","380","Male","[""坏他"",""坏我"",""好我"",""好他""]","[""弱他"",""弱我"",""强我"",""强他""]","","","","","","","","match","","","","","","","","","","key","f","16.66722689075601","768","428","f","true","match","img/ellipse.png","好我","好我","prac_ALT2_moral","practice_moral","","","","","","","","",""
"null","<span style='color:GreenYellow; font-size: 70px;'>正确! </span>","null","html-keyboard-response","47","278732","0.0-8.0-0.0-1.0-0.0-1.18","7","7","7","7","6","5","5","5","5","5","5","2","2","2","2","2","2","2","2","5","5","5","5","5","5","5","4","5","5","8","7","7","8","7","8","7","9","7","7","7","7","7","7","7","6","1","7","7","1","6","6","7","7","7","7","7","7","7","7","7","7","7","7","7","7","7","7","7","7","7","7","7","7","7","7","7","7","6","7","634653479763181568","朱","380","Male","[""坏他"",""坏我"",""好我"",""好他""]","[""弱他"",""弱我"",""强我"",""强他""]","","","","","","","","","","","","","","","","","","","","","","","","","","","","","","feedback_test","","","","","","","","",""
"1059","","f","psychophysics","48","280794","0.0-8.0-0.0-1.0-0.0-0.19","7","7","7","7","6","5","5","5","5","5","5","2","2","2","2","2","2","2","2","5","5","5","5","5","5","5","4","5","5","8","7","7","8","7","8","7","9","7","7","7","7","7","7","7","6","1","7","7","1","6","6","7","7","7","7","7","7","7","7","7","7","7","7","7","7","7","7","7","7","7","7","7","7","7","7","7","7","6","7","634653479763181568","朱","380","Male","[""坏他"",""坏我"",""好我"",""好他""]","[""弱他"",""弱我"",""强我"",""强他""]","","","","","","","","match","","","","","","","","","","key","f","16.666666666666668","768","428","f","true","match","img/diamond.png","好他","好他","prac_ALT2_moral","practice_moral","","","","","","","","",""
"null","<span style='color:GreenYellow; font-size: 70px;'>正确! </span>","null","html-keyboard-response","49","281296","0.0-8.0-0.0-1.0-0.0-1.19","7","7","7","7","6","5","5","5","5","5","5","2","2","2","2","2","2","2","2","5","5","5","5","5","5","5","4","5","5","8","7","7","8","7","8","7","9","7","7","7","7","7","7","7","6","1","7","7","1","6","6","7","7","7","7","7","7","7","7","7","7","7","7","7","7","7","7","7","7","7","7","7","7","7","7","7","7","6","7","634653479763181568","朱","380","Male","[""坏他"",""坏我"",""好我"",""好他""]","[""弱他"",""弱我"",""强我"",""强他""]","","","","","","","","","","","","","","","","","","","","","","","","","","","","","","feedback_test","","","","","","","","",""
"1089","","j","psychophysics","50","283386","0.0-8.0-0.0-1.0-0.0-0.20","7","7","7","7","6","5","5","5","5","5","5","2","2","2","2","2","2","2","2","5","5","5","5","5","5","5","4","5","5","8","7","7","8","7","8","7","9","7","7","7","7","7","7","7","6","1","7","7","1","6","6","7","7","7","7","7","7","7","7","7","7","7","7","7","7","7","7","7","7","7","7","7","7","7","7","7","7","6","7","634653479763181568","朱","380","Male","[""坏他"",""坏我"",""好我"",""好他""]","[""弱他"",""弱我"",""强我"",""强他""]","","","","","","","","nonmatch","","","","","","","","","","key","j","16.666129032258347","768","428","f","false","match","img/hexagon.png","坏我","坏我","prac_ALT2_moral","practice_moral","","","","","","","","",""
"null","<span style='color:red; font-size: 70px;'>错误! </span>","null","html-keyboard-response","51","283889","0.0-8.0-0.0-1.0-0.0-1.20","7","7","7","7","6","5","5","5","5","5","5","2","2","2","2","2","2","2","2","5","5","5","5","5","5","5","4","5","5","8","7","7","8","7","8","7","9","7","7","7","7","7","7","7","6","1","7","7","1","6","6","7","7","7","7","7","7","7","7","7","7","7","7","7","7","7","7","7","7","7","7","7","7","7","7","7","7","6","7","634653479763181568","朱","380","Male","[""坏他"",""坏我"",""好我"",""好他""]","[""弱他"",""弱我"",""强我"",""强他""]","","","","","","","","","","","","","","","","","","","","","","","","","","","","","","feedback_test","","","","","","","","",""
"970","","j","psychophysics","52","285861","0.0-8.0-0.0-1.0-0.0-0.21","7","7","7","7","6","5","5","5","5","5","5","2","2","2","2","2","2","2","2","5","5","5","5","5","5","5","4","5","5","8","7","7","8","7","8","7","9","7","7","7","7","7","7","7","6","1","7","7","1","6","6","7","7","7","7","7","7","7","7","7","7","7","7","7","7","7","7","7","7","7","7","7","7","7","7","7","7","6","7","634653479763181568","朱","380","Male","[""坏他"",""坏我"",""好我"",""好他""]","[""弱他"",""弱我"",""强我"",""强他""]","","","","","","","","nonmatch","","","","","","","","","","key","j","16.666666666666668","768","428","j","true","nonmatch","img/diamond.png","坏他","好他","prac_ALT2_moral","practice_moral","","","","","","","","",""
"null","<span style='color:GreenYellow; font-size: 70px;'>正确! </span>","null","html-keyboard-response","53","286362","0.0-8.0-0.0-1.0-0.0-1.21","7","7","7","7","6","5","5","5","5","5","5","2","2","2","2","2","2","2","2","5","5","5","5","5","5","5","4","5","5","8","7","7","8","7","8","7","9","7","7","7","7","7","7","7","6","1","7","7","1","6","6","7","7","7","7","7","7","7","7","7","7","7","7","7","7","7","7","7","7","7","7","7","7","7","7","7","7","6","7","634653479763181568","朱","380","Male","[""坏他"",""坏我"",""好我"",""好他""]","[""弱他"",""弱我"",""强我"",""强他""]","","","","","","","","","","","","","","","","","","","","","","","","","","","","","","feedback_test","","","","","","","","",""
"773","","f","psychophysics","54","288137","0.0-8.0-0.0-1.0-0.0-0.22","7","7","7","7","6","5","5","5","5","5","5","2","2","2","2","2","2","2","2","5","5","5","5","5","5","5","4","5","5","8","7","7","8","7","8","7","9","7","7","7","7","7","7","7","6","1","7","7","1","6","6","7","7","7","7","7","7","7","7","7","7","7","7","7","7","7","7","7","7","7","7","7","7","7","7","7","7","6","7","634653479763181568","朱","380","Male","[""坏他"",""坏我"",""好我"",""好他""]","[""弱他"",""弱我"",""强我"",""强他""]","","","","","","","","match","","","","","","","","","","key","f","16.665714285713953","768","428","f","true","match","img/ellipse.png","好我","好我","prac_ALT2_moral","practice_moral","","","","","","","","",""
"null","<span style='color:GreenYellow; font-size: 70px;'>正确! </span>","null","html-keyboard-response","55","288638","0.0-8.0-0.0-1.0-0.0-1.22","7","7","7","7","6","5","5","5","5","5","5","2","2","2","2","2","2","2","2","5","5","5","5","5","5","5","4","5","5","8","7","7","8","7","8","7","9","7","7","7","7","7","7","7","6","1","7","7","1","6","6","7","7","7","7","7","7","7","7","7","7","7","7","7","7","7","7","7","7","7","7","7","7","7","7","7","7","6","7","634653479763181568","朱","380","Male","[""坏他"",""坏我"",""好我"",""好他""]","[""弱他"",""弱我"",""强我"",""强他""]","","","","","","","","","","","","","","","","","","","","","","","","","","","","","","feedback_test","","","","","","","","",""
"787","","j","psychophysics","56","290429","0.0-8.0-0.0-1.0-0.0-0.23","7","7","7","7","6","5","5","5","5","5","5","2","2","2","2","2","2","2","2","5","5","5","5","5","5","5","4","5","5","8","7","7","8","7","8","7","9","7","7","7","7","7","7","7","6","1","7","7","1","6","6","7","7","7","7","7","7","7","7","7","7","7","7","7","7","7","7","7","7","7","7","7","7","7","7","7","7","6","7","634653479763181568","朱","380","Male","[""坏他"",""坏我"",""好我"",""好他""]","[""弱他"",""弱我"",""强我"",""强他""]","","","","","","","","nonmatch","","","","","","","","","","key","j","16.666037735848835","768","428","j","true","nonmatch","img/ellipse.png","好他","好我","prac_ALT2_moral","practice_moral","","","","","","","","",""
"null","<span style='color:GreenYellow; font-size: 70px;'>正确! </span>","null","html-keyboard-response","57","290931","0.0-8.0-0.0-1.0-0.0-1.23","7","7","7","7","6","5","5","5","5","5","5","2","2","2","2","2","2","2","2","5","5","5","5","5","5","5","4","5","5","8","7","7","8","7","8","7","9","7","7","7","7","7","7","7","6","1","7","7","1","6","6","7","7","7","7","7","7","7","7","7","7","7","7","7","7","7","7","7","7","7","7","7","7","7","7","7","7","6","7","634653479763181568","朱","380","Male","[""坏他"",""坏我"",""好我"",""好他""]","[""弱他"",""弱我"",""强我"",""强他""]","","","","","","","","","","","","","","","","","","","","","","","","","","","","","","feedback_test","","","","","","","","",""
"909","","j","psychophysics","58","292844","0.0-8.0-0.0-1.0-0.0-0.24","7","7","7","7","6","5","5","5","5","5","5","2","2","2","2","2","2","2","2","5","5","5","5","5","5","5","4","5","5","8","7","7","8","7","8","7","9","7","7","7","7","7","7","7","6","1","7","7","1","6","6","7","7","7","7","7","7","7","7","7","7","7","7","7","7","7","7","7","7","7","7","7","7","7","7","7","7","6","7","634653479763181568","朱","380","Male","[""坏他"",""坏我"",""好我"",""好他""]","[""弱他"",""弱我"",""强我"",""强他""]","","","","","","","","nonmatch","","","","","","","","","","key","j","16.668421052631682","768","428","j","true","nonmatch","img/hexagon.png","坏他","坏我","prac_ALT2_moral","practice_moral","","","","","","","","",""
"null","<span style='color:GreenYellow; font-size: 70px;'>正确! </span>","null","html-keyboard-response","59","293350","0.0-8.0-0.0-1.0-0.0-1.24","7","7","7","7","6","5","5","5","5","5","5","2","2","2","2","2","2","2","2","5","5","5","5","5","5","5","4","5","5","8","7","7","8","7","8","7","9","7","7","7","7","7","7","7","6","1","7","7","1","6","6","7","7","7","7","7","7","7","7","7","7","7","7","7","7","7","7","7","7","7","7","7","7","7","7","7","7","6","7","634653479763181568","朱","380","Male","[""坏他"",""坏我"",""好我"",""好他""]","[""弱他"",""弱我"",""强我"",""强他""]","","","","","","","","","","","","","","","","","","","","","","","","","","","","","","feedback_test","","","","","","","","",""
"961","","f","psychophysics","60","295314","0.0-8.0-0.0-1.0-0.0-0.25","7","7","7","7","6","5","5","5","5","5","5","2","2","2","2","2","2","2","2","5","5","5","5","5","5","5","4","5","5","8","7","7","8","7","8","7","9","7","7","7","7","7","7","7","6","1","7","7","1","6","6","7","7","7","7","7","7","7","7","7","7","7","7","7","7","7","7","7","7","7","7","7","7","7","7","7","7","6","7","634653479763181568","朱","380","Male","[""坏他"",""坏我"",""好我"",""好他""]","[""弱他"",""弱我"",""强我"",""强他""]","","","","","","","","match","","","","","","","","","","key","f","16.663247863247665","768","428","f","true","match","img/hexagon.png","坏我","坏我","prac_ALT2_moral","practice_moral","","","","","","","","",""
"null","<span style='color:GreenYellow; font-size: 70px;'>正确! </span>","null","html-keyboard-response","61","295815","0.0-8.0-0.0-1.0-0.0-1.25","7","7","7","7","6","5","5","5","5","5","5","2","2","2","2","2","2","2","2","5","5","5","5","5","5","5","4","5","5","8","7","7","8","7","8","7","9","7","7","7","7","7","7","7","6","1","7","7","1","6","6","7","7","7","7","7","7","7","7","7","7","7","7","7","7","7","7","7","7","7","7","7","7","7","7","7","7","6","7","634653479763181568","朱","380","Male","[""坏他"",""坏我"",""好我"",""好他""]","[""弱他"",""弱我"",""强我"",""强他""]","","","","","","","","","","","","","","","","","","","","","","","","","","","","","","feedback_test","","","","","","","","",""
"1111","","j","psychophysics","62","297926","0.0-8.0-0.0-1.0-0.0-0.26","7","7","7","7","6","5","5","5","5","5","5","2","2","2","2","2","2","2","2","5","5","5","5","5","5","5","4","5","5","8","7","7","8","7","8","7","9","7","7","7","7","7","7","7","6","1","7","7","1","6","6","7","7","7","7","7","7","7","7","7","7","7","7","7","7","7","7","7","7","7","7","7","7","7","7","7","7","6","7","634653479763181568","朱","380","Male","[""坏他"",""坏我"",""好我"",""好他""]","[""弱他"",""弱我"",""强我"",""强他""]","","","","","","","","nonmatch","","","","","","","","","","key","j","16.667460317460133","768","428","j","true","nonmatch","img/diamond.png","坏他","好他","prac_ALT2_moral","practice_moral","","","","","","","","",""
"null","<span style='color:GreenYellow; font-size: 70px;'>正确! </span>","null","html-keyboard-response","63","298427","0.0-8.0-0.0-1.0-0.0-1.26","7","7","7","7","6","5","5","5","5","5","5","2","2","2","2","2","2","2","2","5","5","5","5","5","5","5","4","5","5","8","7","7","8","7","8","7","9","7","7","7","7","7","7","7","6","1","7","7","1","6","6","7","7","7","7","7","7","7","7","7","7","7","7","7","7","7","7","7","7","7","7","7","7","7","7","7","7","6","7","634653479763181568","朱","380","Male","[""坏他"",""坏我"",""好我"",""好他""]","[""弱他"",""弱我"",""强我"",""强他""]","","","","","","","","","","","","","","","","","","","","","","","","","","","","","","feedback_test","","","","","","","","",""
"1004","","f","psychophysics","64","300432","0.0-8.0-0.0-1.0-0.0-0.27","7","7","7","7","6","5","5","5","5","5","5","2","2","2","2","2","2","2","2","5","5","5","5","5","5","5","4","5","5","8","7","7","8","7","8","7","9","7","7","7","7","7","7","7","6","1","7","7","1","6","6","7","7","7","7","7","7","7","7","7","7","7","7","7","7","7","7","7","7","7","7","7","7","7","7","7","7","6","7","634653479763181568","朱","380","Male","[""坏他"",""坏我"",""好我"",""好他""]","[""弱他"",""弱我"",""强我"",""强他""]","","","","","","","","match","","","","","","","","","","key","f","16.6672268907565","768","428","f","true","match","img/trapezoid.png","坏他","坏他","prac_ALT2_moral","practice_moral","","","","","","","","",""
"null","<span style='color:GreenYellow; font-size: 70px;'>正确! </span>","null","html-keyboard-response","65","300933","0.0-8.0-0.0-1.0-0.0-1.27","7","7","7","7","6","5","5","5","5","5","5","2","2","2","2","2","2","2","2","5","5","5","5","5","5","5","4","5","5","8","7","7","8","7","8","7","9","7","7","7","7","7","7","7","6","1","7","7","1","6","6","7","7","7","7","7","7","7","7","7","7","7","7","7","7","7","7","7","7","7","7","7","7","7","7","7","7","6","7","634653479763181568","朱","380","Male","[""坏他"",""坏我"",""好我"",""好他""]","[""弱他"",""弱我"",""强我"",""强他""]","","","","","","","","","","","","","","","","","","","","","","","","","","","","","","feedback_test","","","","","","","","",""
"732","","j","psychophysics","66","302668","0.0-8.0-0.0-1.0-0.0-0.28","7","7","7","7","6","5","5","5","5","5","5","2","2","2","2","2","2","2","2","5","5","5","5","5","5","5","4","5","5","8","7","7","8","7","8","7","9","7","7","7","7","7","7","7","6","1","7","7","1","6","6","7","7","7","7","7","7","7","7","7","7","7","7","7","7","7","7","7","7","7","7","7","7","7","7","7","7","6","7","634653479763181568","朱","380","Male","[""坏他"",""坏我"",""好我"",""好他""]","[""弱他"",""弱我"",""强我"",""强他""]","","","","","","","","nonmatch","","","","","","","","","","key","j","16.657843137254673","768","428","j","true","nonmatch","img/ellipse.png","好他","好我","prac_ALT2_moral","practice_moral","","","","","","","","",""
"null","<span style='color:GreenYellow; font-size: 70px;'>正确! </span>","null","html-keyboard-response","67","303170","0.0-8.0-0.0-1.0-0.0-1.28","7","7","7","7","6","5","5","5","5","5","5","2","2","2","2","2","2","2","2","5","5","5","5","5","5","5","4","5","5","8","7","7","8","7","8","7","9","7","7","7","7","7","7","7","6","1","7","7","1","6","6","7","7","7","7","7","7","7","7","7","7","7","7","7","7","7","7","7","7","7","7","7","7","7","7","7","7","6","7","634653479763181568","朱","380","Male","[""坏他"",""坏我"",""好我"",""好他""]","[""弱他"",""弱我"",""强我"",""强他""]","","","","","","","","","","","","","","","","","","","","","","","","","","","","","","feedback_test","","","","","","","","",""
"1095","","f","psychophysics","68","305266","0.0-8.0-0.0-1.0-0.0-0.29","7","7","7","7","6","5","5","5","5","5","5","2","2","2","2","2","2","2","2","5","5","5","5","5","5","5","4","5","5","8","7","7","8","7","8","7","9","7","7","7","7","7","7","7","6","1","7","7","1","6","6","7","7","7","7","7","7","7","7","7","7","7","7","7","7","7","7","7","7","7","7","7","7","7","7","7","7","6","7","634653479763181568","朱","380","Male","[""坏他"",""坏我"",""好我"",""好他""]","[""弱他"",""弱我"",""强我"",""强他""]","","","","","","","","match","","","","","","","","","","key","f","16.664516129032446","768","428","f","true","match","img/trapezoid.png","坏他","坏他","prac_ALT2_moral","practice_moral","","","","","","","","",""
"null","<span style='color:GreenYellow; font-size: 70px;'>正确! </span>","null","html-keyboard-response","69","305767","0.0-8.0-0.0-1.0-0.0-1.29","7","7","7","7","6","5","5","5","5","5","5","2","2","2","2","2","2","2","2","5","5","5","5","5","5","5","4","5","5","8","7","7","8","7","8","7","9","7","7","7","7","7","7","7","6","1","7","7","1","6","6","7","7","7","7","7","7","7","7","7","7","7","7","7","7","7","7","7","7","7","7","7","7","7","7","7","7","6","7","634653479763181568","朱","380","Male","[""坏他"",""坏我"",""好我"",""好他""]","[""弱他"",""弱我"",""强我"",""强他""]","","","","","","","","","","","","","","","","","","","","","","","","","","","","","","feedback_test","","","","","","","","",""
"880","","f","psychophysics","70","307649","0.0-8.0-0.0-1.0-0.0-0.30","7","7","7","7","6","5","5","5","5","5","5","2","2","2","2","2","2","2","2","5","5","5","5","5","5","5","4","5","5","8","7","7","8","7","8","7","9","7","7","7","7","7","7","7","6","1","7","7","1","6","6","7","7","7","7","7","7","7","7","7","7","7","7","7","7","7","7","7","7","7","7","7","7","7","7","7","7","6","7","634653479763181568","朱","380","Male","[""坏他"",""坏我"",""好我"",""好他""]","[""弱他"",""弱我"",""强我"",""强他""]","","","","","","","","match","","","","","","","","","","key","f","16.66486486486476","768","428","f","true","match","img/trapezoid.png","坏他","坏他","prac_ALT2_moral","practice_moral","","","","","","","","",""
"null","<span style='color:GreenYellow; font-size: 70px;'>正确! </span>","null","html-keyboard-response","71","308151","0.0-8.0-0.0-1.0-0.0-1.30","7","7","7","7","6","5","5","5","5","5","5","2","2","2","2","2","2","2","2","5","5","5","5","5","5","5","4","5","5","8","7","7","8","7","8","7","9","7","7","7","7","7","7","7","6","1","7","7","1","6","6","7","7","7","7","7","7","7","7","7","7","7","7","7","7","7","7","7","7","7","7","7","7","7","7","7","7","6","7","634653479763181568","朱","380","Male","[""坏他"",""坏我"",""好我"",""好他""]","[""弱他"",""弱我"",""强我"",""强他""]","","","","","","","","","","","","","","","","","","","","","","","","","","","","","","feedback_test","","","","","","","","",""
"666","","j","psychophysics","72","309820","0.0-8.0-0.0-1.0-0.0-0.31","7","7","7","7","6","5","5","5","5","5","5","2","2","2","2","2","2","2","2","5","5","5","5","5","5","5","4","5","5","8","7","7","8","7","8","7","9","7","7","7","7","7","7","7","6","1","7","7","1","6","6","7","7","7","7","7","7","7","7","7","7","7","7","7","7","7","7","7","7","7","7","7","7","7","7","7","7","6","7","634653479763181568","朱","380","Male","[""坏他"",""坏我"",""好我"",""好他""]","[""弱他"",""弱我"",""强我"",""强他""]","","","","","","","","nonmatch","","","","","","","","","","key","j","16.664646464646346","768","428","f","false","match","img/diamond.png","好他","好他","prac_ALT2_moral","practice_moral","","","","","","","","",""
"null","<span style='color:red; font-size: 70px;'>错误! </span>","null","html-keyboard-response","73","310320","0.0-8.0-0.0-1.0-0.0-1.31","7","7","7","7","6","5","5","5","5","5","5","2","2","2","2","2","2","2","2","5","5","5","5","5","5","5","4","5","5","8","7","7","8","7","8","7","9","7","7","7","7","7","7","7","6","1","7","7","1","6","6","7","7","7","7","7","7","7","7","7","7","7","7","7","7","7","7","7","7","7","7","7","7","7","7","7","7","6","7","634653479763181568","朱","380","Male","[""坏他"",""坏我"",""好我"",""好他""]","[""弱他"",""弱我"",""强我"",""强他""]","","","","","","","","","","","","","","","","","","","","","","","","","","","","","","feedback_test","","","","","","","","",""
"941","","j","psychophysics","74","312264","0.0-8.0-0.0-1.0-0.0-0.32","7","7","7","7","6","5","5","5","5","5","5","2","2","2","2","2","2","2","2","5","5","5","5","5","5","5","4","5","5","8","7","7","8","7","8","7","9","7","7","7","7","7","7","7","6","1","7","7","1","6","6","7","7","7","7","7","7","7","7","7","7","7","7","7","7","7","7","7","7","7","7","7","7","7","7","7","7","6","7","634653479763181568","朱","380","Male","[""坏他"",""坏我"",""好我"",""好他""]","[""弱他"",""弱我"",""强我"",""强他""]","","","","","","","","nonmatch","","","","","","","","","","key","j","16.66521739130435","768","428","j","true","nonmatch","img/ellipse.png","坏我","好我","prac_ALT2_moral","practice_moral","","","","","","","","",""
"null","<span style='color:GreenYellow; font-size: 70px;'>正确! </span>","null","html-keyboard-response","75","312765","0.0-8.0-0.0-1.0-0.0-1.32","7","7","7","7","6","5","5","5","5","5","5","2","2","2","2","2","2","2","2","5","5","5","5","5","5","5","4","5","5","8","7","7","8","7","8","7","9","7","7","7","7","7","7","7","6","1","7","7","1","6","6","7","7","7","7","7","7","7","7","7","7","7","7","7","7","7","7","7","7","7","7","7","7","7","7","7","7","6","7","634653479763181568","朱","380","Male","[""坏他"",""坏我"",""好我"",""好他""]","[""弱他"",""弱我"",""强我"",""强他""]","","","","","","","","","","","","","","","","","","","","","","","","","","","","","","feedback_test","","","","","","","","",""
"922","","f","psychophysics","76","314691","0.0-8.0-0.0-1.0-0.0-0.33","7","7","7","7","6","5","5","5","5","5","5","2","2","2","2","2","2","2","2","5","5","5","5","5","5","5","4","5","5","8","7","7","8","7","8","7","9","7","7","7","7","7","7","7","6","1","7","7","1","6","6","7","7","7","7","7","7","7","7","7","7","7","7","7","7","7","7","7","7","7","7","7","7","7","7","7","7","6","7","634653479763181568","朱","380","Male","[""坏他"",""坏我"",""好我"",""好他""]","[""弱他"",""弱我"",""强我"",""强他""]","","","","","","","","match","","","","","","","","","","key","f","16.66260869565177","768","428","f","true","match","img/diamond.png","好他","好他","prac_ALT2_moral","practice_moral","","","","","","","","",""
"null","<span style='color:GreenYellow; font-size: 70px;'>正确! </span>","null","html-keyboard-response","77","315191","0.0-8.0-0.0-1.0-0.0-1.33","7","7","7","7","6","5","5","5","5","5","5","2","2","2","2","2","2","2","2","5","5","5","5","5","5","5","4","5","5","8","7","7","8","7","8","7","9","7","7","7","7","7","7","7","6","1","7","7","1","6","6","7","7","7","7","7","7","7","7","7","7","7","7","7","7","7","7","7","7","7","7","7","7","7","7","7","7","6","7","634653479763181568","朱","380","Male","[""坏他"",""坏我"",""好我"",""好他""]","[""弱他"",""弱我"",""强我"",""强他""]","","","","","","","","","","","","","","","","","","","","","","","","","","","","","","feedback_test","","","","","","","","",""
"927","","j","psychophysics","78","317123","0.0-8.0-0.0-1.0-0.0-0.34","7","7","7","7","6","5","5","5","5","5","5","2","2","2","2","2","2","2","2","5","5","5","5","5","5","5","4","5","5","8","7","7","8","7","8","7","9","7","7","7","7","7","7","7","6","1","7","7","1","6","6","7","7","7","7","7","7","7","7","7","7","7","7","7","7","7","7","7","7","7","7","7","7","7","7","7","7","6","7","634653479763181568","朱","380","Male","[""坏他"",""坏我"",""好我"",""好他""]","[""弱他"",""弱我"",""强我"",""强他""]","","","","","","","","nonmatch","","","","","","","","","","key","j","16.66521739130435","768","428","j","true","nonmatch","img/diamond.png","坏我","好他","prac_ALT2_moral","practice_moral","","","","","","","","",""
"null","<span style='color:GreenYellow; font-size: 70px;'>正确! </span>","null","html-keyboard-response","79","317636","0.0-8.0-0.0-1.0-0.0-1.34","7","7","7","7","6","5","5","5","5","5","5","2","2","2","2","2","2","2","2","5","5","5","5","5","5","5","4","5","5","8","7","7","8","7","8","7","9","7","7","7","7","7","7","7","6","1","7","7","1","6","6","7","7","7","7","7","7","7","7","7","7","7","7","7","7","7","7","7","7","7","7","7","7","7","7","7","7","6","7","634653479763181568","朱","380","Male","[""坏他"",""坏我"",""好我"",""好他""]","[""弱他"",""弱我"",""强我"",""强他""]","","","","","","","","","","","","","","","","","","","","","","","","","","","","","","feedback_test","","","","","","","","",""
"968","","j","psychophysics","80","319605","0.0-8.0-0.0-1.0-0.0-0.35","7","7","7","7","6","5","5","5","5","5","5","2","2","2","2","2","2","2","2","5","5","5","5","5","5","5","4","5","5","8","7","7","8","7","8","7","9","7","7","7","7","7","7","7","6","1","7","7","1","6","6","7","7","7","7","7","7","7","7","7","7","7","7","7","7","7","7","7","7","7","7","7","7","7","7","7","7","6","7","634653479763181568","朱","380","Male","[""坏他"",""坏我"",""好我"",""好他""]","[""弱他"",""弱我"",""强我"",""强他""]","","","","","","","","nonmatch","","","","","","","","","","key","j","16.663247863248163","768","428","j","true","nonmatch","img/hexagon.png","好我","坏我","prac_ALT2_moral","practice_moral","","","","","","","","",""
"null","<span style='color:GreenYellow; font-size: 70px;'>正确! </span>","null","html-keyboard-response","81","320107","0.0-8.0-0.0-1.0-0.0-1.35","7","7","7","7","6","5","5","5","5","5","5","2","2","2","2","2","2","2","2","5","5","5","5","5","5","5","4","5","5","8","7","7","8","7","8","7","9","7","7","7","7","7","7","7","6","1","7","7","1","6","6","7","7","7","7","7","7","7","7","7","7","7","7","7","7","7","7","7","7","7","7","7","7","7","7","7","7","6","7","634653479763181568","朱","380","Male","[""坏他"",""坏我"",""好我"",""好他""]","[""弱他"",""弱我"",""强我"",""强他""]","","","","","","","","","","","","","","","","","","","","","","","","","","","","","","feedback_test","","","","","","","","",""
"827","","f","psychophysics","82","321936","0.0-8.0-0.0-1.0-0.0-0.36","7","7","7","7","6","5","5","5","5","5","5","2","2","2","2","2","2","2","2","5","5","5","5","5","5","5","4","5","5","8","7","7","8","7","8","7","9","7","7","7","7","7","7","7","6","1","7","7","1","6","6","7","7","7","7","7","7","7","7","7","7","7","7","7","7","7","7","7","7","7","7","7","7","7","7","7","7","6","7","634653479763181568","朱","380","Male","[""坏他"",""坏我"",""好我"",""好他""]","[""弱他"",""弱我"",""强我"",""强他""]","","","","","","","","match","","","","","","","","","","key","f","16.665137614678898","768","428","f","true","match","img/ellipse.png","好我","好我","prac_ALT2_moral","practice_moral","","","","","","","","",""
"null","<span style='color:GreenYellow; font-size: 70px;'>正确! </span>","null","html-keyboard-response","83","322438","0.0-8.0-0.0-1.0-0.0-1.36","7","7","7","7","6","5","5","5","5","5","5","2","2","2","2","2","2","2","2","5","5","5","5","5","5","5","4","5","5","8","7","7","8","7","8","7","9","7","7","7","7","7","7","7","6","1","7","7","1","6","6","7","7","7","7","7","7","7","7","7","7","7","7","7","7","7","7","7","7","7","7","7","7","7","7","7","7","6","7","634653479763181568","朱","380","Male","[""坏他"",""坏我"",""好我"",""好他""]","[""弱他"",""弱我"",""强我"",""强他""]","","","","","","","","","","","","","","","","","","","","","","","","","","","","","","feedback_test","","","","","","","","",""
"713","","f","psychophysics","84","324152","0.0-8.0-0.0-1.0-0.0-0.37","7","7","7","7","6","5","5","5","5","5","5","2","2","2","2","2","2","2","2","5","5","5","5","5","5","5","4","5","5","8","7","7","8","7","8","7","9","7","7","7","7","7","7","7","6","1","7","7","1","6","6","7","7","7","7","7","7","7","7","7","7","7","7","7","7","7","7","7","7","7","7","7","7","7","7","7","7","6","7","634653479763181568","朱","380","Male","[""坏他"",""坏我"",""好我"",""好他""]","[""弱他"",""弱我"",""强我"",""强他""]","","","","","","","","match","","","","","","","","","","key","f","16.664705882352827","768","428","j","false","nonmatch","img/trapezoid.png","坏我","坏他","prac_ALT2_moral","practice_moral","","","","","","","","",""
"null","<span style='color:red; font-size: 70px;'>错误! </span>","null","html-keyboard-response","85","324653","0.0-8.0-0.0-1.0-0.0-1.37","7","7","7","7","6","5","5","5","5","5","5","2","2","2","2","2","2","2","2","5","5","5","5","5","5","5","4","5","5","8","7","7","8","7","8","7","9","7","7","7","7","7","7","7","6","1","7","7","1","6","6","7","7","7","7","7","7","7","7","7","7","7","7","7","7","7","7","7","7","7","7","7","7","7","7","7","7","6","7","634653479763181568","朱","380","Male","[""坏他"",""坏我"",""好我"",""好他""]","[""弱他"",""弱我"",""强我"",""强他""]","","","","","","","","","","","","","","","","","","","","","","","","","","","","","","feedback_test","","","","","","","","",""
"768","","f","psychophysics","86","326423","0.0-8.0-0.0-1.0-0.0-0.38","7","7","7","7","6","5","5","5","5","5","5","2","2","2","2","2","2","2","2","5","5","5","5","5","5","5","4","5","5","8","7","7","8","7","8","7","9","7","7","7","7","7","7","7","6","1","7","7","1","6","6","7","7","7","7","7","7","7","7","7","7","7","7","7","7","7","7","7","7","7","7","7","7","7","7","7","7","6","7","634653479763181568","朱","380","Male","[""坏他"",""坏我"",""好我"",""好他""]","[""弱他"",""弱我"",""强我"",""强他""]","","","","","","","","match","","","","","","","","","","key","f","16.664761904761793","768","428","f","true","match","img/ellipse.png","好我","好我","prac_ALT2_moral","practice_moral","","","","","","","","",""
"null","<span style='color:GreenYellow; font-size: 70px;'>正确! </span>","null","html-keyboard-response","87","326926","0.0-8.0-0.0-1.0-0.0-1.38","7","7","7","7","6","5","5","5","5","5","5","2","2","2","2","2","2","2","2","5","5","5","5","5","5","5","4","5","5","8","7","7","8","7","8","7","9","7","7","7","7","7","7","7","6","1","7","7","1","6","6","7","7","7","7","7","7","7","7","7","7","7","7","7","7","7","7","7","7","7","7","7","7","7","7","7","7","6","7","634653479763181568","朱","380","Male","[""坏他"",""坏我"",""好我"",""好他""]","[""弱他"",""弱我"",""强我"",""强他""]","","","","","","","","","","","","","","","","","","","","","","","","","","","","","","feedback_test","","","","","","","","",""
"673","","f","psychophysics","88","328600","0.0-8.0-0.0-1.0-0.0-0.39","7","7","7","7","6","5","5","5","5","5","5","2","2","2","2","2","2","2","2","5","5","5","5","5","5","5","4","5","5","8","7","7","8","7","8","7","9","7","7","7","7","7","7","7","6","1","7","7","1","6","6","7","7","7","7","7","7","7","7","7","7","7","7","7","7","7","7","7","7","7","7","7","7","7","7","7","7","6","7","634653479763181568","朱","380","Male","[""坏他"",""坏我"",""好我"",""好他""]","[""弱他"",""弱我"",""强我"",""强他""]","","","","","","","","match","","","","","","","","","","key","f","16.667000000000115","768","428","f","true","match","img/ellipse.png","好我","好我","prac_ALT2_moral","practice_moral","","","","","","","","",""
"null","<span style='color:GreenYellow; font-size: 70px;'>正确! </span>","null","html-keyboard-response","89","329101","0.0-8.0-0.0-1.0-0.0-1.39","7","7","7","7","6","5","5","5","5","5","5","2","2","2","2","2","2","2","2","5","5","5","5","5","5","5","4","5","5","8","7","7","8","7","8","7","9","7","7","7","7","7","7","7","6","1","7","7","1","6","6","7","7","7","7","7","7","7","7","7","7","7","7","7","7","7","7","7","7","7","7","7","7","7","7","7","7","6","7","634653479763181568","朱","380","Male","[""坏他"",""坏我"",""好我"",""好他""]","[""弱他"",""弱我"",""强我"",""强他""]","","","","","","","","","","","","","","","","","","","","","","","","","","","","","","feedback_test","","","","","","","","",""
"711","","j","psychophysics","90","330813","0.0-8.0-0.0-1.0-0.0-0.40","7","7","7","7","6","5","5","5","5","5","5","2","2","2","2","2","2","2","2","5","5","5","5","5","5","5","4","5","5","8","7","7","8","7","8","7","9","7","7","7","7","7","7","7","6","1","7","7","1","6","6","7","7","7","7","7","7","7","7","7","7","7","7","7","7","7","7","7","7","7","7","7","7","7","7","7","7","6","7","634653479763181568","朱","380","Male","[""坏他"",""坏我"",""好我"",""好他""]","[""弱他"",""弱我"",""强我"",""强他""]","","","","","","","","nonmatch","","","","","","","","","","key","j","16.66435643564391","768","428","j","true","nonmatch","img/trapezoid.png","好我","坏他","prac_ALT2_moral","practice_moral","","","","","","","","",""
"null","<span style='color:GreenYellow; font-size: 70px;'>正确! </span>","null","html-keyboard-response","91","331315","0.0-8.0-0.0-1.0-0.0-1.40","7","7","7","7","6","5","5","5","5","5","5","2","2","2","2","2","2","2","2","5","5","5","5","5","5","5","4","5","5","8","7","7","8","7","8","7","9","7","7","7","7","7","7","7","6","1","7","7","1","6","6","7","7","7","7","7","7","7","7","7","7","7","7","7","7","7","7","7","7","7","7","7","7","7","7","7","7","6","7","634653479763181568","朱","380","Male","[""坏他"",""坏我"",""好我"",""好他""]","[""弱他"",""弱我"",""强我"",""强他""]","","","","","","","","","","","","","","","","","","","","","","","","","","","","","","feedback_test","","","","","","","","",""
"879","","f","psychophysics","92","333196","0.0-8.0-0.0-1.0-0.0-0.41","7","7","7","7","6","5","5","5","5","5","5","2","2","2","2","2","2","2","2","5","5","5","5","5","5","5","4","5","5","8","7","7","8","7","8","7","9","7","7","7","7","7","7","7","6","1","7","7","1","6","6","7","7","7","7","7","7","7","7","7","7","7","7","7","7","7","7","7","7","7","7","7","7","7","7","7","7","6","7","634653479763181568","朱","380","Male","[""坏他"",""坏我"",""好我"",""好他""]","[""弱他"",""弱我"",""强我"",""强他""]","","","","","","","","match","","","","","","","","","","key","f","16.66486486486476","768","428","f","true","match","img/hexagon.png","坏我","坏我","prac_ALT2_moral","practice_moral","","","","","","","","",""
"null","<span style='color:GreenYellow; font-size: 70px;'>正确! </span>","null","html-keyboard-response","93","333697","0.0-8.0-0.0-1.0-0.0-1.41","7","7","7","7","6","5","5","5","5","5","5","2","2","2","2","2","2","2","2","5","5","5","5","5","5","5","4","5","5","8","7","7","8","7","8","7","9","7","7","7","7","7","7","7","6","1","7","7","1","6","6","7","7","7","7","7","7","7","7","7","7","7","7","7","7","7","7","7","7","7","7","7","7","7","7","7","7","6","7","634653479763181568","朱","380","Male","[""坏他"",""坏我"",""好我"",""好他""]","[""弱他"",""弱我"",""强我"",""强他""]","","","","","","","","","","","","","","","","","","","","","","","","","","","","","","feedback_test","","","","","","","","",""
"717","","j","psychophysics","94","335415","0.0-8.0-0.0-1.0-0.0-0.42","7","7","7","7","6","5","5","5","5","5","5","2","2","2","2","2","2","2","2","5","5","5","5","5","5","5","4","5","5","8","7","7","8","7","8","7","9","7","7","7","7","7","7","7","6","1","7","7","1","6","6","7","7","7","7","7","7","7","7","7","7","7","7","7","7","7","7","7","7","7","7","7","7","7","7","7","7","6","7","634653479763181568","朱","380","Male","[""坏他"",""坏我"",""好我"",""好他""]","[""弱他"",""弱我"",""强我"",""强他""]","","","","","","","","nonmatch","","","","","","","","","","key","j","16.664705882352827","768","428","j","true","nonmatch","img/hexagon.png","好他","坏我","prac_ALT2_moral","practice_moral","","","","","","","","",""
"null","<span style='color:GreenYellow; font-size: 70px;'>正确! </span>","null","html-keyboard-response","95","335916","0.0-8.0-0.0-1.0-0.0-1.42","7","7","7","7","6","5","5","5","5","5","5","2","2","2","2","2","2","2","2","5","5","5","5","5","5","5","4","5","5","8","7","7","8","7","8","7","9","7","7","7","7","7","7","7","6","1","7","7","1","6","6","7","7","7","7","7","7","7","7","7","7","7","7","7","7","7","7","7","7","7","7","7","7","7","7","7","7","6","7","634653479763181568","朱","380","Male","[""坏他"",""坏我"",""好我"",""好他""]","[""弱他"",""弱我"",""强我"",""强他""]","","","","","","","","","","","","","","","","","","","","","","","","","","","","","","feedback_test","","","","","","","","",""
"730","","f","psychophysics","96","337646","0.0-8.0-0.0-1.0-0.0-0.43","7","7","7","7","6","5","5","5","5","5","5","2","2","2","2","2","2","2","2","5","5","5","5","5","5","5","4","5","5","8","7","7","8","7","8","7","9","7","7","7","7","7","7","7","6","1","7","7","1","6","6","7","7","7","7","7","7","7","7","7","7","7","7","7","7","7","7","7","7","7","7","7","7","7","7","7","7","6","7","634653479763181568","朱","380","Male","[""坏他"",""坏我"",""好我"",""好他""]","[""弱他"",""弱我"",""强我"",""强他""]","","","","","","","","match","","","","","","","","","","key","f","16.666666666666668","768","428","f","true","match","img/hexagon.png","坏我","坏我","prac_ALT2_moral","practice_moral","","","","","","","","",""
"null","<span style='color:GreenYellow; font-size: 70px;'>正确! </span>","null","html-keyboard-response","97","338148","0.0-8.0-0.0-1.0-0.0-1.43","7","7","7","7","6","5","5","5","5","5","5","2","2","2","2","2","2","2","2","5","5","5","5","5","5","5","4","5","5","8","7","7","8","7","8","7","9","7","7","7","7","7","7","7","6","1","7","7","1","6","6","7","7","7","7","7","7","7","7","7","7","7","7","7","7","7","7","7","7","7","7","7","7","7","7","7","7","6","7","634653479763181568","朱","380","Male","[""坏他"",""坏我"",""好我"",""好他""]","[""弱他"",""弱我"",""强我"",""强他""]","","","","","","","","","","","","","","","","","","","","","","","","","","","","","","feedback_test","","","","","","","","",""
"819","","j","psychophysics","98","339967","0.0-8.0-0.0-1.0-0.0-0.44","7","7","7","7","6","5","5","5","5","5","5","2","2","2","2","2","2","2","2","5","5","5","5","5","5","5","4","5","5","8","7","7","8","7","8","7","9","7","7","7","7","7","7","7","6","1","7","7","1","6","6","7","7","7","7","7","7","7","7","7","7","7","7","7","7","7","7","7","7","7","7","7","7","7","7","7","7","6","7","634653479763181568","朱","380","Male","[""坏他"",""坏我"",""好我"",""好他""]","[""弱他"",""弱我"",""强我"",""强他""]","","","","","","","","nonmatch","","","","","","","","","","key","j","16.663888888888998","768","428","j","true","nonmatch","img/trapezoid.png","好他","坏他","prac_ALT2_moral","practice_moral","","","","","","","","",""
"null","<span style='color:GreenYellow; font-size: 70px;'>正确! </span>","null","html-keyboard-response","99","340469","0.0-8.0-0.0-1.0-0.0-1.44","7","7","7","7","6","5","5","5","5","5","5","2","2","2","2","2","2","2","2","5","5","5","5","5","5","5","4","5","5","8","7","7","8","7","8","7","9","7","7","7","7","7","7","7","6","1","7","7","1","6","6","7","7","7","7","7","7","7","7","7","7","7","7","7","7","7","7","7","7","7","7","7","7","7","7","7","7","6","7","634653479763181568","朱","380","Male","[""坏他"",""坏我"",""好我"",""好他""]","[""弱他"",""弱我"",""强我"",""强他""]","","","","","","","","","","","","","","","","","","","","","","","","","","","","","","feedback_test","","","","","","","","",""
"657","","j","psychophysics","100","342126","0.0-8.0-0.0-1.0-0.0-0.45","7","7","7","7","6","5","5","5","5","5","5","2","2","2","2","2","2","2","2","5","5","5","5","5","5","5","4","5","5","8","7","7","8","7","8","7","9","7","7","7","7","7","7","7","6","1","7","7","1","6","6","7","7","7","7","7","7","7","7","7","7","7","7","7","7","7","7","7","7","7","7","7","7","7","7","7","7","6","7","634653479763181568","朱","380","Male","[""坏他"",""坏我"",""好我"",""好他""]","[""弱他"",""弱我"",""强我"",""强他""]","","","","","","","","nonmatch","","","","","","","","","","key","j","16.6653061224491","768","428","j","true","nonmatch","img/ellipse.png","坏他","好我","prac_ALT2_moral","practice_moral","","","","","","","","",""
"null","<span style='color:GreenYellow; font-size: 70px;'>正确! </span>","null","html-keyboard-response","101","342627","0.0-8.0-0.0-1.0-0.0-1.45","7","7","7","7","6","5","5","5","5","5","5","2","2","2","2","2","2","2","2","5","5","5","5","5","5","5","4","5","5","8","7","7","8","7","8","7","9","7","7","7","7","7","7","7","6","1","7","7","1","6","6","7","7","7","7","7","7","7","7","7","7","7","7","7","7","7","7","7","7","7","7","7","7","7","7","7","7","6","7","634653479763181568","朱","380","Male","[""坏他"",""坏我"",""好我"",""好他""]","[""弱他"",""弱我"",""强我"",""强他""]","","","","","","","","","","","","","","","","","","","","","","","","","","","","","","feedback_test","","","","","","","","",""
"751","","j","psychophysics","102","344381","0.0-8.0-0.0-1.0-0.0-0.46","7","7","7","7","6","5","5","5","5","5","5","2","2","2","2","2","2","2","2","5","5","5","5","5","5","5","4","5","5","8","7","7","8","7","8","7","9","7","7","7","7","7","7","7","6","1","7","7","1","6","6","7","7","7","7","7","7","7","7","7","7","7","7","7","7","7","7","7","7","7","7","7","7","7","7","7","7","6","7","634653479763181568","朱","380","Male","[""坏他"",""坏我"",""好我"",""好他""]","[""弱他"",""弱我"",""强我"",""强他""]","","","","","","","","nonmatch","","","","","","","","","","key","j","16.663809523809636","768","428","j","true","nonmatch","img/diamond.png","好我","好他","prac_ALT2_moral","practice_moral","","","","","","","","",""
"null","<span style='color:GreenYellow; font-size: 70px;'>正确! </span>","null","html-keyboard-response","103","344881","0.0-8.0-0.0-1.0-0.0-1.46","7","7","7","7","6","5","5","5","5","5","5","2","2","2","2","2","2","2","2","5","5","5","5","5","5","5","4","5","5","8","7","7","8","7","8","7","9","7","7","7","7","7","7","7","6","1","7","7","1","6","6","7","7","7","7","7","7","7","7","7","7","7","7","7","7","7","7","7","7","7","7","7","7","7","7","7","7","6","7","634653479763181568","朱","380","Male","[""坏他"",""坏我"",""好我"",""好他""]","[""弱他"",""弱我"",""强我"",""强他""]","","","","","","","","","","","","","","","","","","","","","","","","","","","","","","feedback_test","","","","","","","","",""
"825","","f","psychophysics","104","346707","0.0-8.0-0.0-1.0-0.0-0.47","7","7","7","7","6","5","5","5","5","5","5","2","2","2","2","2","2","2","2","5","5","5","5","5","5","5","4","5","5","8","7","7","8","7","8","7","9","7","7","7","7","7","7","7","6","1","7","7","1","6","6","7","7","7","7","7","7","7","7","7","7","7","7","7","7","7","7","7","7","7","7","7","7","7","7","7","7","6","7","634653479763181568","朱","380","Male","[""坏他"",""坏我"",""好我"",""好他""]","[""弱他"",""弱我"",""强我"",""强他""]","","","","","","","","match","","","","","","","","","","key","f","16.666666666666668","768","428","f","true","match","img/diamond.png","好他","好他","prac_ALT2_moral","practice_moral","","","","","","","","",""
"null","<span style='color:GreenYellow; font-size: 70px;'>正确! </span>","null","html-keyboard-response","105","347210","0.0-8.0-0.0-1.0-0.0-1.47","7","7","7","7","6","5","5","5","5","5","5","2","2","2","2","2","2","2","2","5","5","5","5","5","5","5","4","5","5","8","7","7","8","7","8","7","9","7","7","7","7","7","7","7","6","1","7","7","1","6","6","7","7","7","7","7","7","7","7","7","7","7","7","7","7","7","7","7","7","7","7","7","7","7","7","7","7","6","7","634653479763181568","朱","380","Male","[""坏他"",""坏我"",""好我"",""好他""]","[""弱他"",""弱我"",""强我"",""强他""]","","","","","","","","","","","","","","","","","","","","","","","","","","","","","","feedback_test","","","","","","","","",""
"1288","<style>.context{color:white; font-size: 35px; line-height:40px}</style>                            <div><p class='context'>您正确回答了83% 的试次。</p><p class='context'>您的平均反应时为876毫秒。</p><p class='context'>恭喜您完成练习。按空格键进入正式实验。</p><p class='footer' style='font-size: 35px; line-height:40px;'>请在进入正式实验实验之前将您的<span style='color: lightgreen;'>食指</span>放在电脑键盘的相应键位上进行按键。</p>"," ","html-keyboard-response","106","348505","0.0-8.0-0.0-2.0","7","7","7","7","6","5","5","5","5","5","5","2","2","2","2","2","2","2","2","5","5","5","5","5","5","5","4","5","5","8","7","7","8","7","8","7","9","7","7","7","7","7","7","7","6","1","7","7","1","6","6","7","7","7","7","7","7","7","7","7","7","7","7","7","7","7","7","7","7","7","7","7","7","7","7","7","7","6","7","634653479763181568","朱","380","Male","[""坏他"",""坏我"",""好我"",""好他""]","[""弱他"",""弱我"",""强我"",""强他""]","","","","","","","","","","","","","","","","","","","","","","","","","","","","","","","","","","","","","","",""
"446","
    <p style='color: white; font-size: 22px'>请您将手指放在按键上，准备进入正式的匹配任务。</p>
    <p> <div style = ""color: green""><按空格键进入下一阶段的匹配任务></div></p>
    "," ","html-keyboard-response","107","348952","0.0-8.0-0.0-3.0","7","7","7","7","6","5","5","5","5","5","5","2","2","2","2","2","2","2","2","5","5","5","5","5","5","5","4","5","5","8","7","7","8","7","8","7","9","7","7","7","7","7","7","7","6","1","7","7","1","6","6","7","7","7","7","7","7","7","7","7","7","7","7","7","7","7","7","7","7","7","7","7","7","7","7","7","7","6","7","634653479763181568","朱","380","Male","[""坏他"",""坏我"",""好我"",""好他""]","[""弱他"",""弱我"",""强我"",""强他""]","","","","","","","","","","","","","","","","","","","","","","","","","","","","","","","","","","","","","","",""
"792","","f","psychophysics","108","350747","0.0-8.0-0.0-4.0-0.0-0.0","7","7","7","7","6","5","5","5","5","5","5","2","2","2","2","2","2","2","2","5","5","5","5","5","5","5","4","5","5","8","7","7","8","7","8","7","9","7","7","7","7","7","7","7","6","1","7","7","1","6","6","7","7","7","7","7","7","7","7","7","7","7","7","7","7","7","7","7","7","7","7","7","7","7","7","7","7","6","7","634653479763181568","朱","380","Male","[""坏他"",""坏我"",""好我"",""好他""]","[""弱他"",""弱我"",""强我"",""强他""]","","","","","","","","match","","","","","","","","","","key","f","16.666355140186806","768","428","f","true","match","img/diamond.png","好他","好他","ALT2","moral","","","","","","","","",""
"null","<span style='color:GreenYellow; font-size: 70px;'>正确! </span>","null","html-keyboard-response","109","351248","0.0-8.0-0.0-4.0-0.0-1.0","7","7","7","7","6","5","5","5","5","5","5","2","2","2","2","2","2","2","2","5","5","5","5","5","5","5","4","5","5","8","7","7","8","7","8","7","9","7","7","7","7","7","7","7","6","1","7","7","1","6","6","7","7","7","7","7","7","7","7","7","7","7","7","7","7","7","7","7","7","7","7","7","7","7","7","7","7","6","7","634653479763181568","朱","380","Male","[""坏他"",""坏我"",""好我"",""好他""]","[""弱他"",""弱我"",""强我"",""强他""]","","","","","","","","","","","","","","","","","","","","","","","","","","","","","","feedback_test","","","","","","","","",""
"850","","f","psychophysics","110","353099","0.0-8.0-0.0-4.0-0.0-0.1","7","7","7","7","6","5","5","5","5","5","5","2","2","2","2","2","2","2","2","5","5","5","5","5","5","5","4","5","5","8","7","7","8","7","8","7","9","7","7","7","7","7","7","7","6","1","7","7","1","6","6","7","7","7","7","7","7","7","7","7","7","7","7","7","7","7","7","7","7","7","7","7","7","7","7","7","7","6","7","634653479763181568","朱","380","Male","[""坏他"",""坏我"",""好我"",""好他""]","[""弱他"",""弱我"",""强我"",""强他""]","","","","","","","","match","","","","","","","","","","key","f","16.660909090909197","768","428","j","false","nonmatch","img/trapezoid.png","坏我","坏他","ALT2","moral","","","","","","","","",""
"null","<span style='color:red; font-size: 70px;'>错误! </span>","null","html-keyboard-response","111","353599","0.0-8.0-0.0-4.0-0.0-1.1","7","7","7","7","6","5","5","5","5","5","5","2","2","2","2","2","2","2","2","5","5","5","5","5","5","5","4","5","5","8","7","7","8","7","8","7","9","7","7","7","7","7","7","7","6","1","7","7","1","6","6","7","7","7","7","7","7","7","7","7","7","7","7","7","7","7","7","7","7","7","7","7","7","7","7","7","7","6","7","634653479763181568","朱","380","Male","[""坏他"",""坏我"",""好我"",""好他""]","[""弱他"",""弱我"",""强我"",""强他""]","","","","","","","","","","","","","","","","","","","","","","","","","","","","","","feedback_test","","","","","","","","",""
"794","","j","psychophysics","112","355396","0.0-8.0-0.0-4.0-0.0-0.2","7","7","7","7","6","5","5","5","5","5","5","2","2","2","2","2","2","2","2","5","5","5","5","5","5","5","4","5","5","8","7","7","8","7","8","7","9","7","7","7","7","7","7","7","6","1","7","7","1","6","6","7","7","7","7","7","7","7","7","7","7","7","7","7","7","7","7","7","7","7","7","7","7","7","7","7","7","6","7","634653479763181568","朱","380","Male","[""坏他"",""坏我"",""好我"",""好他""]","[""弱他"",""弱我"",""强我"",""强他""]","","","","","","","","nonmatch","","","","","","","","","","key","j","16.670754716980912","768","428","f","false","match","img/hexagon.png","坏我","坏我","ALT2","moral","","","","","","","","",""
"null","<span style='color:red; font-size: 70px;'>错误! </span>","null","html-keyboard-response","113","355898","0.0-8.0-0.0-4.0-0.0-1.2","7","7","7","7","6","5","5","5","5","5","5","2","2","2","2","2","2","2","2","5","5","5","5","5","5","5","4","5","5","8","7","7","8","7","8","7","9","7","7","7","7","7","7","7","6","1","7","7","1","6","6","7","7","7","7","7","7","7","7","7","7","7","7","7","7","7","7","7","7","7","7","7","7","7","7","7","7","6","7","634653479763181568","朱","380","Male","[""坏他"",""坏我"",""好我"",""好他""]","[""弱他"",""弱我"",""强我"",""强他""]","","","","","","","","","","","","","","","","","","","","","","","","","","","","","","feedback_test","","","","","","","","",""
"940","","f","psychophysics","114","357840","0.0-8.0-0.0-4.0-0.0-0.3","7","7","7","7","6","5","5","5","5","5","5","2","2","2","2","2","2","2","2","5","5","5","5","5","5","5","4","5","5","8","7","7","8","7","8","7","9","7","7","7","7","7","7","7","6","1","7","7","1","6","6","7","7","7","7","7","7","7","7","7","7","7","7","7","7","7","7","7","7","7","7","7","7","7","7","7","7","6","7","634653479763181568","朱","380","Male","[""坏他"",""坏我"",""好我"",""好他""]","[""弱他"",""弱我"",""强我"",""强他""]","","","","","","","","match","","","","","","","","","","key","f","16.66521739130435","768","428","j","false","nonmatch","img/diamond.png","坏他","好他","ALT2","moral","","","","","","","","",""
"null","<span style='color:red; font-size: 70px;'>错误! </span>","null","html-keyboard-response","115","358341","0.0-8.0-0.0-4.0-0.0-1.3","7","7","7","7","6","5","5","5","5","5","5","2","2","2","2","2","2","2","2","5","5","5","5","5","5","5","4","5","5","8","7","7","8","7","8","7","9","7","7","7","7","7","7","7","6","1","7","7","1","6","6","7","7","7","7","7","7","7","7","7","7","7","7","7","7","7","7","7","7","7","7","7","7","7","7","7","7","6","7","634653479763181568","朱","380","Male","[""坏他"",""坏我"",""好我"",""好他""]","[""弱他"",""弱我"",""强我"",""强他""]","","","","","","","","","","","","","","","","","","","","","","","","","","","","","","feedback_test","","","","","","","","",""
"1016","","j","psychophysics","116","360359","0.0-8.0-0.0-4.0-0.0-0.4","7","7","7","7","6","5","5","5","5","5","5","2","2","2","2","2","2","2","2","5","5","5","5","5","5","5","4","5","5","8","7","7","8","7","8","7","9","7","7","7","7","7","7","7","6","1","7","7","1","6","6","7","7","7","7","7","7","7","7","7","7","7","7","7","7","7","7","7","7","7","7","7","7","7","7","7","7","6","7","634653479763181568","朱","380","Male","[""坏他"",""坏我"",""好我"",""好他""]","[""弱他"",""弱我"",""强我"",""强他""]","","","","","","","","nonmatch","","","","","","","","","","key","j","16.664999999999903","768","428","j","true","nonmatch","img/diamond.png","坏我","好他","ALT2","moral","","","","","","","","",""
"null","<span style='color:GreenYellow; font-size: 70px;'>正确! </span>","null","html-keyboard-response","117","360860","0.0-8.0-0.0-4.0-0.0-1.4","7","7","7","7","6","5","5","5","5","5","5","2","2","2","2","2","2","2","2","5","5","5","5","5","5","5","4","5","5","8","7","7","8","7","8","7","9","7","7","7","7","7","7","7","6","1","7","7","1","6","6","7","7","7","7","7","7","7","7","7","7","7","7","7","7","7","7","7","7","7","7","7","7","7","7","7","7","6","7","634653479763181568","朱","380","Male","[""坏他"",""坏我"",""好我"",""好他""]","[""弱他"",""弱我"",""强我"",""强他""]","","","","","","","","","","","","","","","","","","","","","","","","","","","","","","feedback_test","","","","","","","","",""
"1030","","f","psychophysics","118","362891","0.0-8.0-0.0-4.0-0.0-0.5","7","7","7","7","6","5","5","5","5","5","5","2","2","2","2","2","2","2","2","5","5","5","5","5","5","5","4","5","5","8","7","7","8","7","8","7","9","7","7","7","7","7","7","7","6","1","7","7","1","6","6","7","7","7","7","7","7","7","7","7","7","7","7","7","7","7","7","7","7","7","7","7","7","7","7","7","7","6","7","634653479763181568","朱","380","Male","[""坏他"",""坏我"",""好我"",""好他""]","[""弱他"",""弱我"",""强我"",""强他""]","","","","","","","","match","","","","","","","","","","key","f","16.665833333333527","768","428","f","true","match","img/trapezoid.png","坏他","坏他","ALT2","moral","","","","","","","","",""
"null","<span style='color:GreenYellow; font-size: 70px;'>正确! </span>","null","html-keyboard-response","119","363407","0.0-8.0-0.0-4.0-0.0-1.5","7","7","7","7","6","5","5","5","5","5","5","2","2","2","2","2","2","2","2","5","5","5","5","5","5","5","4","5","5","8","7","7","8","7","8","7","9","7","7","7","7","7","7","7","6","1","7","7","1","6","6","7","7","7","7","7","7","7","7","7","7","7","7","7","7","7","7","7","7","7","7","7","7","7","7","7","7","6","7","634653479763181568","朱","380","Male","[""坏他"",""坏我"",""好我"",""好他""]","[""弱他"",""弱我"",""强我"",""强他""]","","","","","","","","","","","","","","","","","","","","","","","","","","","","","","feedback_test","","","","","","","","",""
"944","","j","psychophysics","120","365354","0.0-8.0-0.0-4.0-0.0-0.6","7","7","7","7","6","5","5","5","5","5","5","2","2","2","2","2","2","2","2","5","5","5","5","5","5","5","4","5","5","8","7","7","8","7","8","7","9","7","7","7","7","7","7","7","6","1","7","7","1","6","6","7","7","7","7","7","7","7","7","7","7","7","7","7","7","7","7","7","7","7","7","7","7","7","7","7","7","6","7","634653479763181568","朱","380","Male","[""坏他"",""坏我"",""好我"",""好他""]","[""弱他"",""弱我"",""强我"",""强他""]","","","","","","","","nonmatch","","","","","","","","","","key","j","16.66896551724168","768","428","j","true","nonmatch","img/diamond.png","好我","好他","ALT2","moral","","","","","","","","",""
"null","<span style='color:GreenYellow; font-size: 70px;'>正确! </span>","null","html-keyboard-response","121","365855","0.0-8.0-0.0-4.0-0.0-1.6","7","7","7","7","6","5","5","5","5","5","5","2","2","2","2","2","2","2","2","5","5","5","5","5","5","5","4","5","5","8","7","7","8","7","8","7","9","7","7","7","7","7","7","7","6","1","7","7","1","6","6","7","7","7","7","7","7","7","7","7","7","7","7","7","7","7","7","7","7","7","7","7","7","7","7","7","7","6","7","634653479763181568","朱","380","Male","[""坏他"",""坏我"",""好我"",""好他""]","[""弱他"",""弱我"",""强我"",""强他""]","","","","","","","","","","","","","","","","","","","","","","","","","","","","","","feedback_test","","","","","","","","",""
"958","","f","psychophysics","122","367815","0.0-8.0-0.0-4.0-0.0-0.7","7","7","7","7","6","5","5","5","5","5","5","2","2","2","2","2","2","2","2","5","5","5","5","5","5","5","4","5","5","8","7","7","8","7","8","7","9","7","7","7","7","7","7","7","6","1","7","7","1","6","6","7","7","7","7","7","7","7","7","7","7","7","7","7","7","7","7","7","7","7","7","7","7","7","7","7","7","6","7","634653479763181568","朱","380","Male","[""坏他"",""坏我"",""好我"",""好他""]","[""弱他"",""弱我"",""强我"",""强他""]","","","","","","","","match","","","","","","","","","","key","f","16.665811965811667","768","428","f","true","match","img/trapezoid.png","坏他","坏他","ALT2","moral","","","","","","","","",""
"null","<span style='color:GreenYellow; font-size: 70px;'>正确! </span>","null","html-keyboard-response","123","368317","0.0-8.0-0.0-4.0-0.0-1.7","7","7","7","7","6","5","5","5","5","5","5","2","2","2","2","2","2","2","2","5","5","5","5","5","5","5","4","5","5","8","7","7","8","7","8","7","9","7","7","7","7","7","7","7","6","1","7","7","1","6","6","7","7","7","7","7","7","7","7","7","7","7","7","7","7","7","7","7","7","7","7","7","7","7","7","7","7","6","7","634653479763181568","朱","380","Male","[""坏他"",""坏我"",""好我"",""好他""]","[""弱他"",""弱我"",""强我"",""强他""]","","","","","","","","","","","","","","","","","","","","","","","","","","","","","","feedback_test","","","","","","","","",""
"1000","","j","psychophysics","124","370317","0.0-8.0-0.0-4.0-0.0-0.8","7","7","7","7","6","5","5","5","5","5","5","2","2","2","2","2","2","2","2","5","5","5","5","5","5","5","4","5","5","8","7","7","8","7","8","7","9","7","7","7","7","7","7","7","6","1","7","7","1","6","6","7","7","7","7","7","7","7","7","7","7","7","7","7","7","7","7","7","7","7","7","7","7","7","7","7","7","6","7","634653479763181568","朱","380","Male","[""坏他"",""坏我"",""好我"",""好他""]","[""弱他"",""弱我"",""强我"",""强他""]","","","","","","","","nonmatch","","","","","","","","","","key","j","16.671428571428766","768","428","f","false","match","img/diamond.png","好他","好他","ALT2","moral","","","","","","","","",""
"null","<span style='color:red; font-size: 70px;'>错误! </span>","null","html-keyboard-response","125","370819","0.0-8.0-0.0-4.0-0.0-1.8","7","7","7","7","6","5","5","5","5","5","5","2","2","2","2","2","2","2","2","5","5","5","5","5","5","5","4","5","5","8","7","7","8","7","8","7","9","7","7","7","7","7","7","7","6","1","7","7","1","6","6","7","7","7","7","7","7","7","7","7","7","7","7","7","7","7","7","7","7","7","7","7","7","7","7","7","7","6","7","634653479763181568","朱","380","Male","[""坏他"",""坏我"",""好我"",""好他""]","[""弱他"",""弱我"",""强我"",""强他""]","","","","","","","","","","","","","","","","","","","","","","","","","","","","","","feedback_test","","","","","","","","",""
"876","","f","psychophysics","126","372698","0.0-8.0-0.0-4.0-0.0-0.9","7","7","7","7","6","5","5","5","5","5","5","2","2","2","2","2","2","2","2","5","5","5","5","5","5","5","4","5","5","8","7","7","8","7","8","7","9","7","7","7","7","7","7","7","6","1","7","7","1","6","6","7","7","7","7","7","7","7","7","7","7","7","7","7","7","7","7","7","7","7","7","7","7","7","7","7","7","6","7","634653479763181568","朱","380","Male","[""坏他"",""坏我"",""好我"",""好他""]","[""弱他"",""弱我"",""强我"",""强他""]","","","","","","","","match","","","","","","","","","","key","f","16.66696428571439","768","428","f","true","match","img/hexagon.png","坏我","坏我","ALT2","moral","","","","","","","","",""
"null","<span style='color:GreenYellow; font-size: 70px;'>正确! </span>","null","html-keyboard-response","127","373199","0.0-8.0-0.0-4.0-0.0-1.9","7","7","7","7","6","5","5","5","5","5","5","2","2","2","2","2","2","2","2","5","5","5","5","5","5","5","4","5","5","8","7","7","8","7","8","7","9","7","7","7","7","7","7","7","6","1","7","7","1","6","6","7","7","7","7","7","7","7","7","7","7","7","7","7","7","7","7","7","7","7","7","7","7","7","7","7","7","6","7","634653479763181568","朱","380","Male","[""坏他"",""坏我"",""好我"",""好他""]","[""弱他"",""弱我"",""强我"",""强他""]","","","","","","","","","","","","","","","","","","","","","","","","","","","","","","feedback_test","","","","","","","","",""
"645","","f","psychophysics","128","374845","0.0-8.0-0.0-4.0-0.0-0.10","7","7","7","7","6","5","5","5","5","5","5","2","2","2","2","2","2","2","2","5","5","5","5","5","5","5","4","5","5","8","7","7","8","7","8","7","9","7","7","7","7","7","7","7","6","1","7","7","1","6","6","7","7","7","7","7","7","7","7","7","7","7","7","7","7","7","7","7","7","7","7","7","7","7","7","7","7","6","7","634653479763181568","朱","380","Male","[""坏他"",""坏我"",""好我"",""好他""]","[""弱他"",""弱我"",""强我"",""强他""]","","","","","","","","match","","","","","","","","","","key","f","16.663265306122447","768","428","f","true","match","img/ellipse.png","好我","好我","ALT2","moral","","","","","","","","",""
"null","<span style='color:GreenYellow; font-size: 70px;'>正确! </span>","null","html-keyboard-response","129","375347","0.0-8.0-0.0-4.0-0.0-1.10","7","7","7","7","6","5","5","5","5","5","5","2","2","2","2","2","2","2","2","5","5","5","5","5","5","5","4","5","5","8","7","7","8","7","8","7","9","7","7","7","7","7","7","7","6","1","7","7","1","6","6","7","7","7","7","7","7","7","7","7","7","7","7","7","7","7","7","7","7","7","7","7","7","7","7","7","7","6","7","634653479763181568","朱","380","Male","[""坏他"",""坏我"",""好我"",""好他""]","[""弱他"",""弱我"",""强我"",""强他""]","","","","","","","","","","","","","","","","","","","","","","","","","","","","","","feedback_test","","","","","","","","",""
"759","","j","psychophysics","130","377107","0.0-8.0-0.0-4.0-0.0-0.11","7","7","7","7","6","5","5","5","5","5","5","2","2","2","2","2","2","2","2","5","5","5","5","5","5","5","4","5","5","8","7","7","8","7","8","7","9","7","7","7","7","7","7","7","6","1","7","7","1","6","6","7","7","7","7","7","7","7","7","7","7","7","7","7","7","7","7","7","7","7","7","7","7","7","7","7","7","6","7","634653479763181568","朱","380","Male","[""坏他"",""坏我"",""好我"",""好他""]","[""弱他"",""弱我"",""强我"",""强他""]","","","","","","","","nonmatch","","","","","","","","","","key","j","16.66346153846154","768","428","j","true","nonmatch","img/trapezoid.png","好他","坏他","ALT2","moral","","","","","","","","",""
"null","<span style='color:GreenYellow; font-size: 70px;'>正确! </span>","null","html-keyboard-response","131","377608","0.0-8.0-0.0-4.0-0.0-1.11","7","7","7","7","6","5","5","5","5","5","5","2","2","2","2","2","2","2","2","5","5","5","5","5","5","5","4","5","5","8","7","7","8","7","8","7","9","7","7","7","7","7","7","7","6","1","7","7","1","6","6","7","7","7","7","7","7","7","7","7","7","7","7","7","7","7","7","7","7","7","7","7","7","7","7","7","7","6","7","634653479763181568","朱","380","Male","[""坏他"",""坏我"",""好我"",""好他""]","[""弱他"",""弱我"",""强我"",""强他""]","","","","","","","","","","","","","","","","","","","","","","","","","","","","","","feedback_test","","","","","","","","",""
"898","","j","psychophysics","132","379510","0.0-8.0-0.0-4.0-0.0-0.12","7","7","7","7","6","5","5","5","5","5","5","2","2","2","2","2","2","2","2","5","5","5","5","5","5","5","4","5","5","8","7","7","8","7","8","7","9","7","7","7","7","7","7","7","6","1","7","7","1","6","6","7","7","7","7","7","7","7","7","7","7","7","7","7","7","7","7","7","7","7","7","7","7","7","7","7","7","6","7","634653479763181568","朱","380","Male","[""坏他"",""坏我"",""好我"",""好他""]","[""弱他"",""弱我"",""强我"",""强他""]","","","","","","","","nonmatch","","","","","","","","","","key","j","16.662831858406772","768","428","f","false","match","img/hexagon.png","坏我","坏我","ALT2","moral","","","","","","","","",""
"null","<span style='color:red; font-size: 70px;'>错误! </span>","null","html-keyboard-response","133","380010","0.0-8.0-0.0-4.0-0.0-1.12","7","7","7","7","6","5","5","5","5","5","5","2","2","2","2","2","2","2","2","5","5","5","5","5","5","5","4","5","5","8","7","7","8","7","8","7","9","7","7","7","7","7","7","7","6","1","7","7","1","6","6","7","7","7","7","7","7","7","7","7","7","7","7","7","7","7","7","7","7","7","7","7","7","7","7","7","7","6","7","634653479763181568","朱","380","Male","[""坏他"",""坏我"",""好我"",""好他""]","[""弱他"",""弱我"",""强我"",""强他""]","","","","","","","","","","","","","","","","","","","","","","","","","","","","","","feedback_test","","","","","","","","",""
"665","","f","psychophysics","134","381678","0.0-8.0-0.0-4.0-0.0-0.13","7","7","7","7","6","5","5","5","5","5","5","2","2","2","2","2","2","2","2","5","5","5","5","5","5","5","4","5","5","8","7","7","8","7","8","7","9","7","7","7","7","7","7","7","6","1","7","7","1","6","6","7","7","7","7","7","7","7","7","7","7","7","7","7","7","7","7","7","7","7","7","7","7","7","7","7","7","6","7","634653479763181568","朱","380","Male","[""坏他"",""坏我"",""好我"",""好他""]","[""弱他"",""弱我"",""强我"",""强他""]","","","","","","","","match","","","","","","","","","","key","f","16.66363636363589","768","428","f","true","match","img/ellipse.png","好我","好我","ALT2","moral","","","","","","","","",""
"null","<span style='color:GreenYellow; font-size: 70px;'>正确! </span>","null","html-keyboard-response","135","382178","0.0-8.0-0.0-4.0-0.0-1.13","7","7","7","7","6","5","5","5","5","5","5","2","2","2","2","2","2","2","2","5","5","5","5","5","5","5","4","5","5","8","7","7","8","7","8","7","9","7","7","7","7","7","7","7","6","1","7","7","1","6","6","7","7","7","7","7","7","7","7","7","7","7","7","7","7","7","7","7","7","7","7","7","7","7","7","7","7","6","7","634653479763181568","朱","380","Male","[""坏他"",""坏我"",""好我"",""好他""]","[""弱他"",""弱我"",""强我"",""强他""]","","","","","","","","","","","","","","","","","","","","","","","","","","","","","","feedback_test","","","","","","","","",""
"868","","j","psychophysics","136","384049","0.0-8.0-0.0-4.0-0.0-0.14","7","7","7","7","6","5","5","5","5","5","5","2","2","2","2","2","2","2","2","5","5","5","5","5","5","5","4","5","5","8","7","7","8","7","8","7","9","7","7","7","7","7","7","7","6","1","7","7","1","6","6","7","7","7","7","7","7","7","7","7","7","7","7","7","7","7","7","7","7","7","7","7","7","7","7","7","7","6","7","634653479763181568","朱","380","Male","[""坏他"",""坏我"",""好我"",""好他""]","[""弱他"",""弱我"",""强我"",""强他""]","","","","","","","","nonmatch","","","","","","","","","","key","j","16.667567567567882","768","428","j","true","nonmatch","img/hexagon.png","坏他","坏我","ALT2","moral","","","","","","","","",""
"null","<span style='color:GreenYellow; font-size: 70px;'>正确! </span>","null","html-keyboard-response","137","384551","0.0-8.0-0.0-4.0-0.0-1.14","7","7","7","7","6","5","5","5","5","5","5","2","2","2","2","2","2","2","2","5","5","5","5","5","5","5","4","5","5","8","7","7","8","7","8","7","9","7","7","7","7","7","7","7","6","1","7","7","1","6","6","7","7","7","7","7","7","7","7","7","7","7","7","7","7","7","7","7","7","7","7","7","7","7","7","7","7","6","7","634653479763181568","朱","380","Male","[""坏他"",""坏我"",""好我"",""好他""]","[""弱他"",""弱我"",""强我"",""强他""]","","","","","","","","","","","","","","","","","","","","","","","","","","","","","","feedback_test","","","","","","","","",""
"805","","j","psychophysics","138","386358","0.0-8.0-0.0-4.0-0.0-0.15","7","7","7","7","6","5","5","5","5","5","5","2","2","2","2","2","2","2","2","5","5","5","5","5","5","5","4","5","5","8","7","7","8","7","8","7","9","7","7","7","7","7","7","7","6","1","7","7","1","6","6","7","7","7","7","7","7","7","7","7","7","7","7","7","7","7","7","7","7","7","7","7","7","7","7","7","7","6","7","634653479763181568","朱","380","Male","[""坏他"",""坏我"",""好我"",""好他""]","[""弱他"",""弱我"",""强我"",""强他""]","","","","","","","","nonmatch","","","","","","","","","","key","j","16.66822429906542","768","428","j","true","nonmatch","img/ellipse.png","坏他","好我","ALT2","moral","","","","","","","","",""
