"rt","stimulus","response","trial_type","trial_index","time_elapsed","internal_node_id","swb_1","swb_2","swb_3","swb_4","swb_5","LOT_1","LOT_2","LOT_3","LOT_4","LOT_5","LOT_6","IPC_1","IPC_2","IPC_3","IPC_4","IPC_5","IPC_6","IPC_7","IPC_8","MorIden_1","MorIden_2","MorIden_3","MorIden_4","MorIden_5","MorIden_6","MorIden_7","MorIden_8","MorIden_9","MorIden_10","moralSeImag_1","moralSeImag_2","moralSeImag_3","moralSeImag_4","moralSeImag_5","moralSeImag_6","moralSeImag_7","moralSeImag_8","moralSeImag_9","sde_1","sde_2","sde_3","sde_4","sde_5","sde_6","sde_7","sde_8","sde_9","sde_10","trap2","sde_11","sde_12","sde_13","sde_14","sde_15","sde_16","sde_17","sde_18","sde_19","sde_20","IM_1","IM_2","IM_3","IM_4","IM_5","IM_6","IM_7","IM_8","IM_9","IM_10","IM_11","IM_12","IM_13","IM_14","IM_15","IM_16","IM_17","IM_18","IM_19","IM_20","subj_idx","friend_name","ParticipantID","Sex","Word","Word2","value","success","timeout","failed_images","failed_audio","failed_video","user_agent","responses","item_order","radio_event_ids","radio_event_times","key_event_times","mouse_event_times","straightlining","zigzagging","honeypot","view_history","response_type","key_press","avg_frame_time","center_x","center_y","correct_response","correct","identity","Image","word","condition","task_id","screen_id","time_stamp","person","valence","domain","math","status","duration","question_order","trap2_item"
"8961","
   <p><div style='color:white; font-size: 25px'>您好，欢迎参加本次实验。</div></p>
   <p><div style='color:white; font-size: 25px'>为充分保障您的权利，请确保您已经知晓并同意《参与实验同意书》以及《数据公开知情同意书》。</div></p>
   <p><div style='color:white; font-size: 25px'>如果您未见过上述内容，请咨询实验员。</div></p>
   <p style='color:white; font-size: 25px'>如果您选择继续实验，则表示您已经清楚两份知情同意书的内容并同意。</p>
   <p><div style = ""color: pink;font-size:30px;"">请确保您记得day0的实验编号，您将在本次实验输入该编号，若您忘记，请咨询实验员后作答。</div></p>
   <p><div style = ""color:lightblue;font-size:25px;"">请您尽可能认真地作答，我们将依据您在各问卷和按键任务中的作答质量发放报酬。</div></p>
   <p> <div style = ""color: green""><按空格键至下页></div> </p>
   "," ","html-keyboard-response","0","8963","0.0-0.0","6","6","7","6","5","4","5","4","5","5","5","1","0","1","1","1","2","1","1","5","4","5","4","4","4","4","4","5","4","6","6","7","7","4","7","7","6","8","4","6","4","7","5","6","6","6","6","5","1","6","5","5","6","6","7","5","7","6","6","2","6","3","6","5","6","7","6","6","6","6","7","6","6","3","7","7","6","6","7","790000811211104258","张","672","Male","[""好我"",""坏我"",""好他"",""坏他""]","[""强我"",""弱我"",""强他"",""弱他""]","","","","","","","","","","","","","","","","","","","","","","","","","","","","","","","","","","","","","","",""
"","","","call-function","1","8964","0.0-1.0-0.0","6","6","7","6","5","4","5","4","5","5","5","1","0","1","1","1","2","1","1","5","4","5","4","4","4","4","4","5","4","6","6","7","7","4","7","7","6","8","4","6","4","7","5","6","6","6","6","5","1","6","5","5","6","6","7","5","7","6","6","2","6","3","6","5","6","7","6","6","6","6","7","6","6","3","7","7","6","6","7","790000811211104258","张","672","Male","[""好我"",""坏我"",""好他"",""坏他""]","[""强我"",""弱我"",""强他"",""弱他""]","","","","","","","","","","","","","","","","","","","","","","","","","","","","","","","","","","","","","","",""
"54857","","[{""name"":""Sex"",""value"":""0""},{""name"":""friend_name"",""value"":""张""},{""name"":""ParticipantID"",""value"":""672""}]","survey-html-form","2","63822","0.0-1.0-1.0","6","6","7","6","5","4","5","4","5","5","5","1","0","1","1","1","2","1","1","5","4","5","4","4","4","4","4","5","4","6","6","7","7","4","7","7","6","8","4","6","4","7","5","6","6","6","6","5","1","6","5","5","6","6","7","5","7","6","6","2","6","3","6","5","6","7","6","6","6","6","7","6","6","3","7","7","6","6","7","790000811211104258","张","672","Male","[""好我"",""坏我"",""好他"",""坏他""]","[""强我"",""弱我"",""强他"",""弱他""]","","","","","","","","","","","","","","","","","","","","","","","","","","","","","","","","","","","","","","",""
"","","","preload","3","64063","0.0-2.0","6","6","7","6","5","4","5","4","5","5","5","1","0","1","1","1","2","1","1","5","4","5","4","4","4","4","4","5","4","6","6","7","7","4","7","7","6","8","4","6","4","7","5","6","6","6","6","5","1","6","5","5","6","6","7","5","7","6","6","2","6","3","6","5","6","7","6","6","6","6","7","6","6","3","7","7","6","6","7","790000811211104258","张","672","Male","[""好我"",""坏我"",""好他"",""坏他""]","[""强我"",""弱我"",""强他"",""弱他""]","","true","false","[]","[]","[]","","","","","","","","","","","","","","","","","","","","","","","","","","","","","","","","",""
"","","","fullscreen","4","115050","0.0-3.0","6","6","7","6","5","4","5","4","5","5","5","1","0","1","1","1","2","1","1","5","4","5","4","4","4","4","4","5","4","6","6","7","7","4","7","7","6","8","4","6","4","7","5","6","6","6","6","5","1","6","5","5","6","6","7","5","7","6","6","2","6","3","6","5","6","7","6","6","6","6","7","6","6","3","7","7","6","6","7","790000811211104258","张","672","Male","[""好我"",""坏我"",""好他"",""坏他""]","[""强我"",""弱我"",""强他"",""弱他""]","","true","","","","","{}","","","","","","","","","","","","","","","","","","","","","","","","","","","","","","","",""
"19511.200000047684","","{""Q01"":""6"",""Q02"":""6"",""Q03"":""7"",""Q04"":""6"",""Q05"":""5""}","survey-template","5","134563","0.0-4.0","6","6","7","6","5","4","5","4","5","5","5","1","0","1","1","1","2","1","1","5","4","5","4","4","4","4","4","5","4","6","6","7","7","4","7","7","6","8","4","6","4","7","5","6","6","6","6","5","1","6","5","5","6","6","7","5","7","6","6","2","6","3","6","5","6","7","6","6","6","6","7","6","6","3","7","7","6","6","7","790000811211104258","张","672","Male","[""好我"",""坏我"",""好他"",""坏他""]","[""强我"",""弱我"",""强他"",""弱他""]","","","","","","","","{""Q01"":""6"",""Q02"":""6"",""Q03"":""7"",""Q04"":""6"",""Q05"":""5""}","[0,1,2,3,4]","[""Q01"",""Q02"",""Q02"",""Q03"",""Q04"",""Q05""]","[2368.600000023842,4270.5,6786.900000095367,8247.900000095367,11469.800000071526,15622.300000071526]","[]","[2368.600000023842,4270.5,5488.300000071526,6786.900000095367,8247.900000095367,11469.800000071526,15622.300000071526,19510.300000071526]","0.6","0.75","0","","","","","","","","","","","","","","","","","","","","","","",""
"31709.5","","{""Q01"":""4"",""Q02"":""5"",""Q03"":""4"",""Q04"":""5"",""Q05"":""5"",""Q06"":""5""}","survey-template","6","166277","0.0-5.0","6","6","7","6","5","4","5","4","5","5","5","1","0","1","1","1","2","1","1","5","4","5","4","4","4","4","4","5","4","6","6","7","7","4","7","7","6","8","4","6","4","7","5","6","6","6","6","5","1","6","5","5","6","6","7","5","7","6","6","2","6","3","6","5","6","7","6","6","6","6","7","6","6","3","7","7","6","6","7","790000811211104258","张","672","Male","[""好我"",""坏我"",""好他"",""坏他""]","[""强我"",""弱我"",""强他"",""弱他""]","","","","","","","","{""Q01"":""4"",""Q02"":""5"",""Q03"":""4"",""Q04"":""5"",""Q05"":""5"",""Q06"":""5""}","[0,1,2,3,4,5]","[""Q01"",""Q02"",""Q02"",""Q03"",""Q04"",""Q04"",""Q05"",""Q06""]","[7244.100000023842,15667.299999952316,16980.399999976158,18132.299999952316,22557.399999976158,23620.399999976158,25500.899999976158,29461.299999952316]","[]","[7244.100000023842,15667.299999952316,16980.399999976158,18132.299999952316,22557.399999976158,23620.399999976158,25500.899999976158,29461.299999952316,31708.799999952316]","0.5","0.2","0","","","","","","","","","","","","","","","","","","","","","","",""
"30898.299999952316","","{""Q01"":""1"",""Q02"":""0"",""Q03"":""1"",""Q04"":""1"",""Q05"":""1"",""Q06"":""2"",""Q07"":""1"",""Q08"":""1""}","survey-template","7","197179","0.0-6.0","6","6","7","6","5","4","5","4","5","5","5","1","0","1","1","1","2","1","1","5","4","5","4","4","4","4","4","5","4","6","6","7","7","4","7","7","6","8","4","6","4","7","5","6","6","6","6","5","1","6","5","5","6","6","7","5","7","6","6","2","6","3","6","5","6","7","6","6","6","6","7","6","6","3","7","7","6","6","7","790000811211104258","张","672","Male","[""好我"",""坏我"",""好他"",""坏他""]","[""强我"",""弱我"",""强他"",""弱他""]","","","","","","","","{""Q01"":""1"",""Q02"":""0"",""Q03"":""1"",""Q04"":""1"",""Q05"":""1"",""Q06"":""2"",""Q07"":""1"",""Q08"":""1""}","[0,1,2,3,4,5,6,7]","[""Q01"",""Q02"",""Q03"",""Q04"",""Q05"",""Q06"",""Q07"",""Q08""]","[3436.2000000476837,9379.299999952316,12835.600000023842,18251.600000023842,21889.299999952316,24236.200000047684,27387.899999976158,30184.100000023842]","[]","[3436.2000000476837,9379.299999952316,12835.600000023842,18251.600000023842,21889.299999952316,24236.200000047684,27387.899999976158,30184.100000023842,30897.200000047684]","0.75","0.5714285714285714","0","","","","","","","","","","","","","","","","","","","","","","",""
"23060","","","instructions","8","220242","0.0-7.0","6","6","7","6","5","4","5","4","5","5","5","1","0","1","1","1","2","1","1","5","4","5","4","4","4","4","4","5","4","6","6","7","7","4","7","7","6","8","4","6","4","7","5","6","6","6","6","5","1","6","5","5","6","6","7","5","7","6","6","2","6","3","6","5","6","7","6","6","6","6","7","6","6","3","7","7","6","6","7","790000811211104258","张","672","Male","[""好我"",""坏我"",""好他"",""坏他""]","[""强我"",""弱我"",""强他"",""弱他""]","","","","","","","","","","","","","","","","","[{""page_index"":0,""viewing_time"":23060}]","","","","","","","","","","","","","","","","","","","","","",""
"103782","","","instructions","9","324025","0.0-8.0-1.0-0.0","6","6","7","6","5","4","5","4","5","5","5","1","0","1","1","1","2","1","1","5","4","5","4","4","4","4","4","5","4","6","6","7","7","4","7","7","6","8","4","6","4","7","5","6","6","6","6","5","1","6","5","5","6","6","7","5","7","6","6","2","6","3","6","5","6","7","6","6","6","6","7","6","6","3","7","7","6","6","7","790000811211104258","张","672","Male","[""好我"",""坏我"",""好他"",""坏他""]","[""强我"",""弱我"",""强他"",""弱他""]","","","","","","","","","","","","","","","","","[{""page_index"":0,""viewing_time"":11356},{""page_index"":1,""viewing_time"":84347},{""page_index"":2,""viewing_time"":6272},{""page_index"":3,""viewing_time"":1807}]","","","","","","","","","","","","","","","","","","","","","",""
"874","","j","psychophysics","10","325903","0.0-8.0-1.0-1.0-0.0-0.0","6","6","7","6","5","4","5","4","5","5","5","1","0","1","1","1","2","1","1","5","4","5","4","4","4","4","4","5","4","6","6","7","7","4","7","7","6","8","4","6","4","7","5","6","6","6","6","5","1","6","5","5","6","6","7","5","7","6","6","2","6","3","6","5","6","7","6","6","6","6","7","6","6","3","7","7","6","6","7","790000811211104258","张","672","Male","[""好我"",""坏我"",""好他"",""坏他""]","[""强我"",""弱我"",""强他"",""弱他""]","","","","","","","","nonmatch","","","","","","","","","","key","j","16.669423423423265","768","428","f","false","match","img/hexagon.png","弱他","弱他","prac_ALT2_ability","practice_ability","","","","","","","","",""
"null","<span style='color:red; font-size: 70px;'>错误! </span>","null","html-keyboard-response","11","326404","0.0-8.0-1.0-1.0-0.0-1.0","6","6","7","6","5","4","5","4","5","5","5","1","0","1","1","1","2","1","1","5","4","5","4","4","4","4","4","5","4","6","6","7","7","4","7","7","6","8","4","6","4","7","5","6","6","6","6","5","1","6","5","5","6","6","7","5","7","6","6","2","6","3","6","5","6","7","6","6","6","6","7","6","6","3","7","7","6","6","7","790000811211104258","张","672","Male","[""好我"",""坏我"",""好他"",""坏他""]","[""强我"",""弱我"",""强他"",""弱他""]","","","","","","","","","","","","","","","","","","","","","","","","","","","","","","feedback_test","","","","","","","","",""
"1144","","f","psychophysics","12","328551","0.0-8.0-1.0-1.0-0.0-0.1","6","6","7","6","5","4","5","4","5","5","5","1","0","1","1","1","2","1","1","5","4","5","4","4","4","4","4","5","4","6","6","7","7","4","7","7","6","8","4","6","4","7","5","6","6","6","6","5","1","6","5","5","6","6","7","5","7","6","6","2","6","3","6","5","6","7","6","6","6","6","7","6","6","3","7","7","6","6","7","790000811211104258","张","672","Male","[""好我"",""坏我"",""好他"",""坏他""]","[""强我"",""弱我"",""强他"",""弱他""]","","","","","","","","match","","","","","","","","","","key","f","16.666578124999887","768","428","f","true","match","img/triangle.png","弱我","弱我","prac_ALT2_ability","practice_ability","","","","","","","","",""
"null","<span style='color:GreenYellow; font-size: 70px;'>正确! </span>","null","html-keyboard-response","13","329052","0.0-8.0-1.0-1.0-0.0-1.1","6","6","7","6","5","4","5","4","5","5","5","1","0","1","1","1","2","1","1","5","4","5","4","4","4","4","4","5","4","6","6","7","7","4","7","7","6","8","4","6","4","7","5","6","6","6","6","5","1","6","5","5","6","6","7","5","7","6","6","2","6","3","6","5","6","7","6","6","6","6","7","6","6","3","7","7","6","6","7","790000811211104258","张","672","Male","[""好我"",""坏我"",""好他"",""坏他""]","[""强我"",""弱我"",""强他"",""弱他""]","","","","","","","","","","","","","","","","","","","","","","","","","","","","","","feedback_test","","","","","","","","",""
"867","","j","psychophysics","14","330921","0.0-8.0-1.0-1.0-0.0-0.2","6","6","7","6","5","4","5","4","5","5","5","1","0","1","1","1","2","1","1","5","4","5","4","4","4","4","4","5","4","6","6","7","7","4","7","7","6","8","4","6","4","7","5","6","6","6","6","5","1","6","5","5","6","6","7","5","7","6","6","2","6","3","6","5","6","7","6","6","6","6","7","6","6","3","7","7","6","6","7","790000811211104258","张","672","Male","[""好我"",""坏我"",""好他"",""坏他""]","[""强我"",""弱我"",""强他"",""弱他""]","","","","","","","","nonmatch","","","","","","","","","","key","j","16.66678378378358","768","428","f","false","match","img/ellipse.png","强他","强他","prac_ALT2_ability","practice_ability","","","","","","","","",""
"null","<span style='color:red; font-size: 70px;'>错误! </span>","null","html-keyboard-response","15","331422","0.0-8.0-1.0-1.0-0.0-1.2","6","6","7","6","5","4","5","4","5","5","5","1","0","1","1","1","2","1","1","5","4","5","4","4","4","4","4","5","4","6","6","7","7","4","7","7","6","8","4","6","4","7","5","6","6","6","6","5","1","6","5","5","6","6","7","5","7","6","6","2","6","3","6","5","6","7","6","6","6","6","7","6","6","3","7","7","6","6","7","790000811211104258","张","672","Male","[""好我"",""坏我"",""好他"",""坏他""]","[""强我"",""弱我"",""强他"",""弱他""]","","","","","","","","","","","","","","","","","","","","","","","","","","","","","","feedback_test","","","","","","","","",""
"677","","j","psychophysics","16","333101","0.0-8.0-1.0-1.0-0.0-0.3","6","6","7","6","5","4","5","4","5","5","5","1","0","1","1","1","2","1","1","5","4","5","4","4","4","4","4","5","4","6","6","7","7","4","7","7","6","8","4","6","4","7","5","6","6","6","6","5","1","6","5","5","6","6","7","5","7","6","6","2","6","3","6","5","6","7","6","6","6","6","7","6","6","3","7","7","6","6","7","790000811211104258","张","672","Male","[""好我"",""坏我"",""好他"",""坏他""]","[""强我"",""弱我"",""强他"",""弱他""]","","","","","","","","nonmatch","","","","","","","","","","key","j","16.67210000000021","768","428","f","false","match","img/trapezoid.png","强我","强我","prac_ALT2_ability","practice_ability","","","","","","","","",""
"null","<span style='color:red; font-size: 70px;'>错误! </span>","null","html-keyboard-response","17","333603","0.0-8.0-1.0-1.0-0.0-1.3","6","6","7","6","5","4","5","4","5","5","5","1","0","1","1","1","2","1","1","5","4","5","4","4","4","4","4","5","4","6","6","7","7","4","7","7","6","8","4","6","4","7","5","6","6","6","6","5","1","6","5","5","6","6","7","5","7","6","6","2","6","3","6","5","6","7","6","6","6","6","7","6","6","3","7","7","6","6","7","790000811211104258","张","672","Male","[""好我"",""坏我"",""好他"",""坏他""]","[""强我"",""弱我"",""强他"",""弱他""]","","","","","","","","","","","","","","","","","","","","","","","","","","","","","","feedback_test","","","","","","","","",""
"689","","f","psychophysics","18","335293","0.0-8.0-1.0-1.0-0.0-0.4","6","6","7","6","5","4","5","4","5","5","5","1","0","1","1","1","2","1","1","5","4","5","4","4","4","4","4","5","4","6","6","7","7","4","7","7","6","8","4","6","4","7","5","6","6","6","6","5","1","6","5","5","6","6","7","5","7","6","6","2","6","3","6","5","6","7","6","6","6","6","7","6","6","3","7","7","6","6","7","790000811211104258","张","672","Male","[""好我"",""坏我"",""好他"",""坏他""]","[""强我"",""弱我"",""强他"",""弱他""]","","","","","","","","match","","","","","","","","","","key","f","16.66655445544598","768","428","j","false","nonmatch","img/trapezoid.png","弱他","强我","prac_ALT2_ability","practice_ability","","","","","","","","",""
"null","<span style='color:red; font-size: 70px;'>错误! </span>","null","html-keyboard-response","19","335794","0.0-8.0-1.0-1.0-0.0-1.4","6","6","7","6","5","4","5","4","5","5","5","1","0","1","1","1","2","1","1","5","4","5","4","4","4","4","4","5","4","6","6","7","7","4","7","7","6","8","4","6","4","7","5","6","6","6","6","5","1","6","5","5","6","6","7","5","7","6","6","2","6","3","6","5","6","7","6","6","6","6","7","6","6","3","7","7","6","6","7","790000811211104258","张","672","Male","[""好我"",""坏我"",""好他"",""坏他""]","[""强我"",""弱我"",""强他"",""弱他""]","","","","","","","","","","","","","","","","","","","","","","","","","","","","","","feedback_test","","","","","","","","",""
"789","","j","psychophysics","20","337585","0.0-8.0-1.0-1.0-0.0-0.5","6","6","7","6","5","4","5","4","5","5","5","1","0","1","1","1","2","1","1","5","4","5","4","4","4","4","4","5","4","6","6","7","7","4","7","7","6","8","4","6","4","7","5","6","6","6","6","5","1","6","5","5","6","6","7","5","7","6","6","2","6","3","6","5","6","7","6","6","6","6","7","6","6","3","7","7","6","6","7","790000811211104258","张","672","Male","[""好我"",""坏我"",""好他"",""坏他""]","[""强我"",""弱我"",""强他"",""弱他""]","","","","","","","","nonmatch","","","","","","","","","","key","j","16.66668867924523","768","428","f","false","match","img/triangle.png","弱我","弱我","prac_ALT2_ability","practice_ability","","","","","","","","",""
"null","<span style='color:red; font-size: 70px;'>错误! </span>","null","html-keyboard-response","21","338087","0.0-8.0-1.0-1.0-0.0-1.5","6","6","7","6","5","4","5","4","5","5","5","1","0","1","1","1","2","1","1","5","4","5","4","4","4","4","4","5","4","6","6","7","7","4","7","7","6","8","4","6","4","7","5","6","6","6","6","5","1","6","5","5","6","6","7","5","7","6","6","2","6","3","6","5","6","7","6","6","6","6","7","6","6","3","7","7","6","6","7","790000811211104258","张","672","Male","[""好我"",""坏我"",""好他"",""坏他""]","[""强我"",""弱我"",""强他"",""弱他""]","","","","","","","","","","","","","","","","","","","","","","","","","","","","","","feedback_test","","","","","","","","",""
"820","","f","psychophysics","22","339909","0.0-8.0-1.0-1.0-0.0-0.6","6","6","7","6","5","4","5","4","5","5","5","1","0","1","1","1","2","1","1","5","4","5","4","4","4","4","4","5","4","6","6","7","7","4","7","7","6","8","4","6","4","7","5","6","6","6","6","5","1","6","5","5","6","6","7","5","7","6","6","2","6","3","6","5","6","7","6","6","6","6","7","6","6","3","7","7","6","6","7","790000811211104258","张","672","Male","[""好我"",""坏我"",""好他"",""坏他""]","[""强我"",""弱我"",""强他"",""弱他""]","","","","","","","","match","","","","","","","","","","key","f","16.666761467889604","768","428","f","true","match","img/hexagon.png","弱他","弱他","prac_ALT2_ability","practice_ability","","","","","","","","",""
"null","<span style='color:GreenYellow; font-size: 70px;'>正确! </span>","null","html-keyboard-response","23","340410","0.0-8.0-1.0-1.0-0.0-1.6","6","6","7","6","5","4","5","4","5","5","5","1","0","1","1","1","2","1","1","5","4","5","4","4","4","4","4","5","4","6","6","7","7","4","7","7","6","8","4","6","4","7","5","6","6","6","6","5","1","6","5","5","6","6","7","5","7","6","6","2","6","3","6","5","6","7","6","6","6","6","7","6","6","3","7","7","6","6","7","790000811211104258","张","672","Male","[""好我"",""坏我"",""好他"",""坏他""]","[""强我"",""弱我"",""强他"",""弱他""]","","","","","","","","","","","","","","","","","","","","","","","","","","","","","","feedback_test","","","","","","","","",""
"789","","j","psychophysics","24","342201","0.0-8.0-1.0-1.0-0.0-0.7","6","6","7","6","5","4","5","4","5","5","5","1","0","1","1","1","2","1","1","5","4","5","4","4","4","4","4","5","4","6","6","7","7","4","7","7","6","8","4","6","4","7","5","6","6","6","6","5","1","6","5","5","6","6","7","5","7","6","6","2","6","3","6","5","6","7","6","6","6","6","7","6","6","3","7","7","6","6","7","790000811211104258","张","672","Male","[""好我"",""坏我"",""好他"",""坏他""]","[""强我"",""弱我"",""强他"",""弱他""]","","","","","","","","nonmatch","","","","","","","","","","key","j","16.669103773585345","768","428","j","true","nonmatch","img/hexagon.png","强我","弱他","prac_ALT2_ability","practice_ability","","","","","","","","",""
"null","<span style='color:GreenYellow; font-size: 70px;'>正确! </span>","null","html-keyboard-response","25","342702","0.0-8.0-1.0-1.0-0.0-1.7","6","6","7","6","5","4","5","4","5","5","5","1","0","1","1","1","2","1","1","5","4","5","4","4","4","4","4","5","4","6","6","7","7","4","7","7","6","8","4","6","4","7","5","6","6","6","6","5","1","6","5","5","6","6","7","5","7","6","6","2","6","3","6","5","6","7","6","6","6","6","7","6","6","3","7","7","6","6","7","790000811211104258","张","672","Male","[""好我"",""坏我"",""好他"",""坏他""]","[""强我"",""弱我"",""强他"",""弱他""]","","","","","","","","","","","","","","","","","","","","","","","","","","","","","","feedback_test","","","","","","","","",""
"1060","","f","psychophysics","26","344763","0.0-8.0-1.0-1.0-0.0-0.8","6","6","7","6","5","4","5","4","5","5","5","1","0","1","1","1","2","1","1","5","4","5","4","4","4","4","4","5","4","6","6","7","7","4","7","7","6","8","4","6","4","7","5","6","6","6","6","5","1","6","5","5","6","6","7","5","7","6","6","2","6","3","6","5","6","7","6","6","6","6","7","6","6","3","7","7","6","6","7","790000811211104258","张","672","Male","[""好我"",""坏我"",""好他"",""坏他""]","[""强我"",""弱我"",""强他"",""弱他""]","","","","","","","","match","","","","","","","","","","key","f","16.667178861788813","768","428","j","false","nonmatch","img/triangle.png","弱他","弱我","prac_ALT2_ability","practice_ability","","","","","","","","",""
"null","<span style='color:red; font-size: 70px;'>错误! </span>","null","html-keyboard-response","27","345264","0.0-8.0-1.0-1.0-0.0-1.8","6","6","7","6","5","4","5","4","5","5","5","1","0","1","1","1","2","1","1","5","4","5","4","4","4","4","4","5","4","6","6","7","7","4","7","7","6","8","4","6","4","7","5","6","6","6","6","5","1","6","5","5","6","6","7","5","7","6","6","2","6","3","6","5","6","7","6","6","6","6","7","6","6","3","7","7","6","6","7","790000811211104258","张","672","Male","[""好我"",""坏我"",""好他"",""坏他""]","[""强我"",""弱我"",""强他"",""弱他""]","","","","","","","","","","","","","","","","","","","","","","","","","","","","","","feedback_test","","","","","","","","",""
"1012","","f","psychophysics","28","347279","0.0-8.0-1.0-1.0-0.0-0.9","6","6","7","6","5","4","5","4","5","5","5","1","0","1","1","1","2","1","1","5","4","5","4","4","4","4","4","5","4","6","6","7","7","4","7","7","6","8","4","6","4","7","5","6","6","6","6","5","1","6","5","5","6","6","7","5","7","6","6","2","6","3","6","5","6","7","6","6","6","6","7","6","6","3","7","7","6","6","7","790000811211104258","张","672","Male","[""好我"",""坏我"",""好他"",""坏他""]","[""强我"",""弱我"",""强他"",""弱他""]","","","","","","","","match","","","","","","","","","","key","f","16.6709083333335","768","428","f","true","match","img/hexagon.png","弱他","弱他","prac_ALT2_ability","practice_ability","","","","","","","","",""
"null","<span style='color:GreenYellow; font-size: 70px;'>正确! </span>","null","html-keyboard-response","29","347781","0.0-8.0-1.0-1.0-0.0-1.9","6","6","7","6","5","4","5","4","5","5","5","1","0","1","1","1","2","1","1","5","4","5","4","4","4","4","4","5","4","6","6","7","7","4","7","7","6","8","4","6","4","7","5","6","6","6","6","5","1","6","5","5","6","6","7","5","7","6","6","2","6","3","6","5","6","7","6","6","6","6","7","6","6","3","7","7","6","6","7","790000811211104258","张","672","Male","[""好我"",""坏我"",""好他"",""坏他""]","[""强我"",""弱我"",""强他"",""弱他""]","","","","","","","","","","","","","","","","","","","","","","","","","","","","","","feedback_test","","","","","","","","",""
"785","","j","psychophysics","30","349567","0.0-8.0-1.0-1.0-0.0-0.10","6","6","7","6","5","4","5","4","5","5","5","1","0","1","1","1","2","1","1","5","4","5","4","4","4","4","4","5","4","6","6","7","7","4","7","7","6","8","4","6","4","7","5","6","6","6","6","5","1","6","5","5","6","6","7","5","7","6","6","2","6","3","6","5","6","7","6","6","6","6","7","6","6","3","7","7","6","6","7","790000811211104258","张","672","Male","[""好我"",""坏我"",""好他"",""坏他""]","[""强我"",""弱我"",""强他"",""弱他""]","","","","","","","","nonmatch","","","","","","","","","","key","j","16.667566037736282","768","428","j","true","nonmatch","img/hexagon.png","弱我","弱他","prac_ALT2_ability","practice_ability","","","","","","","","",""
"null","<span style='color:GreenYellow; font-size: 70px;'>正确! </span>","null","html-keyboard-response","31","350069","0.0-8.0-1.0-1.0-0.0-1.10","6","6","7","6","5","4","5","4","5","5","5","1","0","1","1","1","2","1","1","5","4","5","4","4","4","4","4","5","4","6","6","7","7","4","7","7","6","8","4","6","4","7","5","6","6","6","6","5","1","6","5","5","6","6","7","5","7","6","6","2","6","3","6","5","6","7","6","6","6","6","7","6","6","3","7","7","6","6","7","790000811211104258","张","672","Male","[""好我"",""坏我"",""好他"",""坏他""]","[""强我"",""弱我"",""强他"",""弱他""]","","","","","","","","","","","","","","","","","","","","","","","","","","","","","","feedback_test","","","","","","","","",""
"893","","j","psychophysics","32","351965","0.0-8.0-1.0-1.0-0.0-0.11","6","6","7","6","5","4","5","4","5","5","5","1","0","1","1","1","2","1","1","5","4","5","4","4","4","4","4","5","4","6","6","7","7","4","7","7","6","8","4","6","4","7","5","6","6","6","6","5","1","6","5","5","6","6","7","5","7","6","6","2","6","3","6","5","6","7","6","6","6","6","7","6","6","3","7","7","6","6","7","790000811211104258","张","672","Male","[""好我"",""坏我"",""好他"",""坏他""]","[""强我"",""弱我"",""强他"",""弱他""]","","","","","","","","nonmatch","","","","","","","","","","key","j","16.66951327433653","768","428","j","true","nonmatch","img/ellipse.png","弱他","强他","prac_ALT2_ability","practice_ability","","","","","","","","",""
"null","<span style='color:GreenYellow; font-size: 70px;'>正确! </span>","null","html-keyboard-response","33","352466","0.0-8.0-1.0-1.0-0.0-1.11","6","6","7","6","5","4","5","4","5","5","5","1","0","1","1","1","2","1","1","5","4","5","4","4","4","4","4","5","4","6","6","7","7","4","7","7","6","8","4","6","4","7","5","6","6","6","6","5","1","6","5","5","6","6","7","5","7","6","6","2","6","3","6","5","6","7","6","6","6","6","7","6","6","3","7","7","6","6","7","790000811211104258","张","672","Male","[""好我"",""坏我"",""好他"",""坏他""]","[""强我"",""弱我"",""强他"",""弱他""]","","","","","","","","","","","","","","","","","","","","","","","","","","","","","","feedback_test","","","","","","","","",""
"731","","j","psychophysics","34","354198","0.0-8.0-1.0-1.0-0.0-0.12","6","6","7","6","5","4","5","4","5","5","5","1","0","1","1","1","2","1","1","5","4","5","4","4","4","4","4","5","4","6","6","7","7","4","7","7","6","8","4","6","4","7","5","6","6","6","6","5","1","6","5","5","6","6","7","5","7","6","6","2","6","3","6","5","6","7","6","6","6","6","7","6","6","3","7","7","6","6","7","790000811211104258","张","672","Male","[""好我"",""坏我"",""好他"",""坏他""]","[""强我"",""弱我"",""强他"",""弱他""]","","","","","","","","nonmatch","","","","","","","","","","key","j","16.66690291262128","768","428","f","false","match","img/ellipse.png","强他","强他","prac_ALT2_ability","practice_ability","","","","","","","","",""
"null","<span style='color:red; font-size: 70px;'>错误! </span>","null","html-keyboard-response","35","354710","0.0-8.0-1.0-1.0-0.0-1.12","6","6","7","6","5","4","5","4","5","5","5","1","0","1","1","1","2","1","1","5","4","5","4","4","4","4","4","5","4","6","6","7","7","4","7","7","6","8","4","6","4","7","5","6","6","6","6","5","1","6","5","5","6","6","7","5","7","6","6","2","6","3","6","5","6","7","6","6","6","6","7","6","6","3","7","7","6","6","7","790000811211104258","张","672","Male","[""好我"",""坏我"",""好他"",""坏他""]","[""强我"",""弱我"",""强他"",""弱他""]","","","","","","","","","","","","","","","","","","","","","","","","","","","","","","feedback_test","","","","","","","","",""
"850","","f","psychophysics","36","356560","0.0-8.0-1.0-1.0-0.0-0.13","6","6","7","6","5","4","5","4","5","5","5","1","0","1","1","1","2","1","1","5","4","5","4","4","4","4","4","5","4","6","6","7","7","4","7","7","6","8","4","6","4","7","5","6","6","6","6","5","1","6","5","5","6","6","7","5","7","6","6","2","6","3","6","5","6","7","6","6","6","6","7","6","6","3","7","7","6","6","7","790000811211104258","张","672","Male","[""好我"",""坏我"",""好他"",""坏他""]","[""强我"",""弱我"",""强他"",""弱他""]","","","","","","","","match","","","","","","","","","","key","f","16.66666363636349","768","428","j","false","nonmatch","img/ellipse.png","弱我","强他","prac_ALT2_ability","practice_ability","","","","","","","","",""
"null","<span style='color:red; font-size: 70px;'>错误! </span>","null","html-keyboard-response","37","357062","0.0-8.0-1.0-1.0-0.0-1.13","6","6","7","6","5","4","5","4","5","5","5","1","0","1","1","1","2","1","1","5","4","5","4","4","4","4","4","5","4","6","6","7","7","4","7","7","6","8","4","6","4","7","5","6","6","6","6","5","1","6","5","5","6","6","7","5","7","6","6","2","6","3","6","5","6","7","6","6","6","6","7","6","6","3","7","7","6","6","7","790000811211104258","张","672","Male","[""好我"",""坏我"",""好他"",""坏他""]","[""强我"",""弱我"",""强他"",""弱他""]","","","","","","","","","","","","","","","","","","","","","","","","","","","","","","feedback_test","","","","","","","","",""
"763","","f","psychophysics","38","358827","0.0-8.0-1.0-1.0-0.0-0.14","6","6","7","6","5","4","5","4","5","5","5","1","0","1","1","1","2","1","1","5","4","5","4","4","4","4","4","5","4","6","6","7","7","4","7","7","6","8","4","6","4","7","5","6","6","6","6","5","1","6","5","5","6","6","7","5","7","6","6","2","6","3","6","5","6","7","6","6","6","6","7","6","6","3","7","7","6","6","7","790000811211104258","张","672","Male","[""好我"",""坏我"",""好他"",""坏他""]","[""强我"",""弱我"",""强他"",""弱他""]","","","","","","","","match","","","","","","","","","","key","f","16.669628571428447","768","428","j","false","nonmatch","img/triangle.png","强他","弱我","prac_ALT2_ability","practice_ability","","","","","","","","",""
"null","<span style='color:red; font-size: 70px;'>错误! </span>","null","html-keyboard-response","39","359328","0.0-8.0-1.0-1.0-0.0-1.14","6","6","7","6","5","4","5","4","5","5","5","1","0","1","1","1","2","1","1","5","4","5","4","4","4","4","4","5","4","6","6","7","7","4","7","7","6","8","4","6","4","7","5","6","6","6","6","5","1","6","5","5","6","6","7","5","7","6","6","2","6","3","6","5","6","7","6","6","6","6","7","6","6","3","7","7","6","6","7","790000811211104258","张","672","Male","[""好我"",""坏我"",""好他"",""坏他""]","[""强我"",""弱我"",""强他"",""弱他""]","","","","","","","","","","","","","","","","","","","","","","","","","","","","","","feedback_test","","","","","","","","",""
"927","","j","psychophysics","40","361257","0.0-8.0-1.0-1.0-0.0-0.15","6","6","7","6","5","4","5","4","5","5","5","1","0","1","1","1","2","1","1","5","4","5","4","4","4","4","4","5","4","6","6","7","7","4","7","7","6","8","4","6","4","7","5","6","6","6","6","5","1","6","5","5","6","6","7","5","7","6","6","2","6","3","6","5","6","7","6","6","6","6","7","6","6","3","7","7","6","6","7","790000811211104258","张","672","Male","[""好我"",""坏我"",""好他"",""坏他""]","[""强我"",""弱我"",""强他"",""弱他""]","","","","","","","","nonmatch","","","","","","","","","","key","j","16.666991228070273","768","428","f","false","match","img/trapezoid.png","强我","强我","prac_ALT2_ability","practice_ability","","","","","","","","",""
"null","<span style='color:red; font-size: 70px;'>错误! </span>","null","html-keyboard-response","41","361759","0.0-8.0-1.0-1.0-0.0-1.15","6","6","7","6","5","4","5","4","5","5","5","1","0","1","1","1","2","1","1","5","4","5","4","4","4","4","4","5","4","6","6","7","7","4","7","7","6","8","4","6","4","7","5","6","6","6","6","5","1","6","5","5","6","6","7","5","7","6","6","2","6","3","6","5","6","7","6","6","6","6","7","6","6","3","7","7","6","6","7","790000811211104258","张","672","Male","[""好我"",""坏我"",""好他"",""坏他""]","[""强我"",""弱我"",""强他"",""弱他""]","","","","","","","","","","","","","","","","","","","","","","","","","","","","","","feedback_test","","","","","","","","",""
"743","","j","psychophysics","42","363503","0.0-8.0-1.0-1.0-0.0-0.16","6","6","7","6","5","4","5","4","5","5","5","1","0","1","1","1","2","1","1","5","4","5","4","4","4","4","4","5","4","6","6","7","7","4","7","7","6","8","4","6","4","7","5","6","6","6","6","5","1","6","5","5","6","6","7","5","7","6","6","2","6","3","6","5","6","7","6","6","6","6","7","6","6","3","7","7","6","6","7","790000811211104258","张","672","Male","[""好我"",""坏我"",""好他"",""坏他""]","[""强我"",""弱我"",""强他"",""弱他""]","","","","","","","","nonmatch","","","","","","","","","","key","j","16.668980582524544","768","428","f","false","match","img/triangle.png","弱我","弱我","prac_ALT2_ability","practice_ability","","","","","","","","",""
"null","<span style='color:red; font-size: 70px;'>错误! </span>","null","html-keyboard-response","43","364005","0.0-8.0-1.0-1.0-0.0-1.16","6","6","7","6","5","4","5","4","5","5","5","1","0","1","1","1","2","1","1","5","4","5","4","4","4","4","4","5","4","6","6","7","7","4","7","7","6","8","4","6","4","7","5","6","6","6","6","5","1","6","5","5","6","6","7","5","7","6","6","2","6","3","6","5","6","7","6","6","6","6","7","6","6","3","7","7","6","6","7","790000811211104258","张","672","Male","[""好我"",""坏我"",""好他"",""坏他""]","[""强我"",""弱我"",""强他"",""弱他""]","","","","","","","","","","","","","","","","","","","","","","","","","","","","","","feedback_test","","","","","","","","",""
"977","","j","psychophysics","44","365983","0.0-8.0-1.0-1.0-0.0-0.17","6","6","7","6","5","4","5","4","5","5","5","1","0","1","1","1","2","1","1","5","4","5","4","4","4","4","4","5","4","6","6","7","7","4","7","7","6","8","4","6","4","7","5","6","6","6","6","5","1","6","5","5","6","6","7","5","7","6","6","2","6","3","6","5","6","7","6","6","6","6","7","6","6","3","7","7","6","6","7","790000811211104258","张","672","Male","[""好我"",""坏我"",""好他"",""坏他""]","[""强我"",""弱我"",""强他"",""弱他""]","","","","","","","","nonmatch","","","","","","","","","","key","j","16.666669491525557","768","428","f","false","match","img/ellipse.png","强他","强他","prac_ALT2_ability","practice_ability","","","","","","","","",""
"null","<span style='color:red; font-size: 70px;'>错误! </span>","null","html-keyboard-response","45","366484","0.0-8.0-1.0-1.0-0.0-1.17","6","6","7","6","5","4","5","4","5","5","5","1","0","1","1","1","2","1","1","5","4","5","4","4","4","4","4","5","4","6","6","7","7","4","7","7","6","8","4","6","4","7","5","6","6","6","6","5","1","6","5","5","6","6","7","5","7","6","6","2","6","3","6","5","6","7","6","6","6","6","7","6","6","3","7","7","6","6","7","790000811211104258","张","672","Male","[""好我"",""坏我"",""好他"",""坏他""]","[""强我"",""弱我"",""强他"",""弱他""]","","","","","","","","","","","","","","","","","","","","","","","","","","","","","","feedback_test","","","","","","","","",""
"542","","f","psychophysics","46","368027","0.0-8.0-1.0-1.0-0.0-0.18","6","6","7","6","5","4","5","4","5","5","5","1","0","1","1","1","2","1","1","5","4","5","4","4","4","4","4","5","4","6","6","7","7","4","7","7","6","8","4","6","4","7","5","6","6","6","6","5","1","6","5","5","6","6","7","5","7","6","6","2","6","3","6","5","6","7","6","6","6","6","7","6","6","3","7","7","6","6","7","790000811211104258","张","672","Male","[""好我"",""坏我"",""好他"",""坏他""]","[""强我"",""弱我"",""强他"",""弱他""]","","","","","","","","match","","","","","","","","","","key","f","16.667489130435253","768","428","j","false","nonmatch","img/ellipse.png","强我","强他","prac_ALT2_ability","practice_ability","","","","","","","","",""
"null","<span style='color:red; font-size: 70px;'>错误! </span>","null","html-keyboard-response","47","368528","0.0-8.0-1.0-1.0-0.0-1.18","6","6","7","6","5","4","5","4","5","5","5","1","0","1","1","1","2","1","1","5","4","5","4","4","4","4","4","5","4","6","6","7","7","4","7","7","6","8","4","6","4","7","5","6","6","6","6","5","1","6","5","5","6","6","7","5","7","6","6","2","6","3","6","5","6","7","6","6","6","6","7","6","6","3","7","7","6","6","7","790000811211104258","张","672","Male","[""好我"",""坏我"",""好他"",""坏他""]","[""强我"",""弱我"",""强他"",""弱他""]","","","","","","","","","","","","","","","","","","","","","","","","","","","","","","feedback_test","","","","","","","","",""
"493","","f","psychophysics","48","370023","0.0-8.0-1.0-1.0-0.0-0.19","6","6","7","6","5","4","5","4","5","5","5","1","0","1","1","1","2","1","1","5","4","5","4","4","4","4","4","5","4","6","6","7","7","4","7","7","6","8","4","6","4","7","5","6","6","6","6","5","1","6","5","5","6","6","7","5","7","6","6","2","6","3","6","5","6","7","6","6","6","6","7","6","6","3","7","7","6","6","7","790000811211104258","张","672","Male","[""好我"",""坏我"",""好他"",""坏他""]","[""强我"",""弱我"",""强他"",""弱他""]","","","","","","","","match","","","","","","","","","","key","f","16.667079545454975","768","428","j","false","nonmatch","img/trapezoid.png","强他","强我","prac_ALT2_ability","practice_ability","","","","","","","","",""
"null","<span style='color:red; font-size: 70px;'>错误! </span>","null","html-keyboard-response","49","370524","0.0-8.0-1.0-1.0-0.0-1.19","6","6","7","6","5","4","5","4","5","5","5","1","0","1","1","1","2","1","1","5","4","5","4","4","4","4","4","5","4","6","6","7","7","4","7","7","6","8","4","6","4","7","5","6","6","6","6","5","1","6","5","5","6","6","7","5","7","6","6","2","6","3","6","5","6","7","6","6","6","6","7","6","6","3","7","7","6","6","7","790000811211104258","张","672","Male","[""好我"",""坏我"",""好他"",""坏他""]","[""强我"",""弱我"",""强他"",""弱他""]","","","","","","","","","","","","","","","","","","","","","","","","","","","","","","feedback_test","","","","","","","","",""
"470","","f","psychophysics","50","371995","0.0-8.0-1.0-1.0-0.0-0.20","6","6","7","6","5","4","5","4","5","5","5","1","0","1","1","1","2","1","1","5","4","5","4","4","4","4","4","5","4","6","6","7","7","4","7","7","6","8","4","6","4","7","5","6","6","6","6","5","1","6","5","5","6","6","7","5","7","6","6","2","6","3","6","5","6","7","6","6","6","6","7","6","6","3","7","7","6","6","7","790000811211104258","张","672","Male","[""好我"",""坏我"",""好他"",""坏他""]","[""强我"",""弱我"",""强他"",""弱他""]","","","","","","","","match","","","","","","","","","","key","f","16.672620689654963","768","428","f","true","match","img/trapezoid.png","强我","强我","prac_ALT2_ability","practice_ability","","","","","","","","",""
"null","<span style='color:GreenYellow; font-size: 70px;'>正确! </span>","null","html-keyboard-response","51","372496","0.0-8.0-1.0-1.0-0.0-1.20","6","6","7","6","5","4","5","4","5","5","5","1","0","1","1","1","2","1","1","5","4","5","4","4","4","4","4","5","4","6","6","7","7","4","7","7","6","8","4","6","4","7","5","6","6","6","6","5","1","6","5","5","6","6","7","5","7","6","6","2","6","3","6","5","6","7","6","6","6","6","7","6","6","3","7","7","6","6","7","790000811211104258","张","672","Male","[""好我"",""坏我"",""好他"",""坏他""]","[""强我"",""弱我"",""强他"",""弱他""]","","","","","","","","","","","","","","","","","","","","","","","","","","","","","","feedback_test","","","","","","","","",""
"508","","j","psychophysics","52","374005","0.0-8.0-1.0-1.0-0.0-0.21","6","6","7","6","5","4","5","4","5","5","5","1","0","1","1","1","2","1","1","5","4","5","4","4","4","4","4","5","4","6","6","7","7","4","7","7","6","8","4","6","4","7","5","6","6","6","6","5","1","6","5","5","6","6","7","5","7","6","6","2","6","3","6","5","6","7","6","6","6","6","7","6","6","3","7","7","6","6","7","790000811211104258","张","672","Male","[""好我"",""坏我"",""好他"",""坏他""]","[""强我"",""弱我"",""强他"",""弱他""]","","","","","","","","nonmatch","","","","","","","","","","key","j","16.66657303370734","768","428","j","true","nonmatch","img/trapezoid.png","弱我","强我","prac_ALT2_ability","practice_ability","","","","","","","","",""
"null","<span style='color:GreenYellow; font-size: 70px;'>正确! </span>","null","html-keyboard-response","53","374507","0.0-8.0-1.0-1.0-0.0-1.21","6","6","7","6","5","4","5","4","5","5","5","1","0","1","1","1","2","1","1","5","4","5","4","4","4","4","4","5","4","6","6","7","7","4","7","7","6","8","4","6","4","7","5","6","6","6","6","5","1","6","5","5","6","6","7","5","7","6","6","2","6","3","6","5","6","7","6","6","6","6","7","6","6","3","7","7","6","6","7","790000811211104258","张","672","Male","[""好我"",""坏我"",""好他"",""坏他""]","[""强我"",""弱我"",""强他"",""弱他""]","","","","","","","","","","","","","","","","","","","","","","","","","","","","","","feedback_test","","","","","","","","",""
"672","","f","psychophysics","54","376181","0.0-8.0-1.0-1.0-0.0-0.22","6","6","7","6","5","4","5","4","5","5","5","1","0","1","1","1","2","1","1","5","4","5","4","4","4","4","4","5","4","6","6","7","7","4","7","7","6","8","4","6","4","7","5","6","6","6","6","5","1","6","5","5","6","6","7","5","7","6","6","2","6","3","6","5","6","7","6","6","6","6","7","6","6","3","7","7","6","6","7","790000811211104258","张","672","Male","[""好我"",""坏我"",""好他"",""坏他""]","[""强我"",""弱我"",""强他"",""弱他""]","","","","","","","","match","","","","","","","","","","key","f","16.66696969696998","768","428","j","false","nonmatch","img/triangle.png","强我","弱我","prac_ALT2_ability","practice_ability","","","","","","","","",""
"null","<span style='color:red; font-size: 70px;'>错误! </span>","null","html-keyboard-response","55","376682","0.0-8.0-1.0-1.0-0.0-1.22","6","6","7","6","5","4","5","4","5","5","5","1","0","1","1","1","2","1","1","5","4","5","4","4","4","4","4","5","4","6","6","7","7","4","7","7","6","8","4","6","4","7","5","6","6","6","6","5","1","6","5","5","6","6","7","5","7","6","6","2","6","3","6","5","6","7","6","6","6","6","7","6","6","3","7","7","6","6","7","790000811211104258","张","672","Male","[""好我"",""坏我"",""好他"",""坏他""]","[""强我"",""弱我"",""强他"",""弱他""]","","","","","","","","","","","","","","","","","","","","","","","","","","","","","","feedback_test","","","","","","","","",""
"791","","j","psychophysics","56","378475","0.0-8.0-1.0-1.0-0.0-0.23","6","6","7","6","5","4","5","4","5","5","5","1","0","1","1","1","2","1","1","5","4","5","4","4","4","4","4","5","4","6","6","7","7","4","7","7","6","8","4","6","4","7","5","6","6","6","6","5","1","6","5","5","6","6","7","5","7","6","6","2","6","3","6","5","6","7","6","6","6","6","7","6","6","3","7","7","6","6","7","790000811211104258","张","672","Male","[""好我"",""坏我"",""好他"",""坏他""]","[""强我"",""弱我"",""强他"",""弱他""]","","","","","","","","nonmatch","","","","","","","","","","key","j","16.66678504672861","768","428","j","true","nonmatch","img/hexagon.png","强他","弱他","prac_ALT2_ability","practice_ability","","","","","","","","",""
"null","<span style='color:GreenYellow; font-size: 70px;'>正确! </span>","null","html-keyboard-response","57","378976","0.0-8.0-1.0-1.0-0.0-1.23","6","6","7","6","5","4","5","4","5","5","5","1","0","1","1","1","2","1","1","5","4","5","4","4","4","4","4","5","4","6","6","7","7","4","7","7","6","8","4","6","4","7","5","6","6","6","6","5","1","6","5","5","6","6","7","5","7","6","6","2","6","3","6","5","6","7","6","6","6","6","7","6","6","3","7","7","6","6","7","790000811211104258","张","672","Male","[""好我"",""坏我"",""好他"",""坏他""]","[""强我"",""弱我"",""强他"",""弱他""]","","","","","","","","","","","","","","","","","","","","","","","","","","","","","","feedback_test","","","","","","","","",""
"874","","f","psychophysics","58","380851","0.0-8.0-1.0-1.0-0.0-0.24","6","6","7","6","5","4","5","4","5","5","5","1","0","1","1","1","2","1","1","5","4","5","4","4","4","4","4","5","4","6","6","7","7","4","7","7","6","8","4","6","4","7","5","6","6","6","6","5","1","6","5","5","6","6","7","5","7","6","6","2","6","3","6","5","6","7","6","6","6","6","7","6","6","3","7","7","6","6","7","790000811211104258","张","672","Male","[""好我"",""坏我"",""好他"",""坏他""]","[""强我"",""弱我"",""强他"",""弱他""]","","","","","","","","match","","","","","","","","","","key","f","16.66663963963993","768","428","j","false","nonmatch","img/trapezoid.png","强他","强我","prac_ALT2_ability","practice_ability","","","","","","","","",""
"null","<span style='color:red; font-size: 70px;'>错误! </span>","null","html-keyboard-response","59","381352","0.0-8.0-1.0-1.0-0.0-1.24","6","6","7","6","5","4","5","4","5","5","5","1","0","1","1","1","2","1","1","5","4","5","4","4","4","4","4","5","4","6","6","7","7","4","7","7","6","8","4","6","4","7","5","6","6","6","6","5","1","6","5","5","6","6","7","5","7","6","6","2","6","3","6","5","6","7","6","6","6","6","7","6","6","3","7","7","6","6","7","790000811211104258","张","672","Male","[""好我"",""坏我"",""好他"",""坏他""]","[""强我"",""弱我"",""强他"",""弱他""]","","","","","","","","","","","","","","","","","","","","","","","","","","","","","","feedback_test","","","","","","","","",""
"782","","j","psychophysics","60","383135","0.0-8.0-1.0-1.0-0.0-0.25","6","6","7","6","5","4","5","4","5","5","5","1","0","1","1","1","2","1","1","5","4","5","4","4","4","4","4","5","4","6","6","7","7","4","7","7","6","8","4","6","4","7","5","6","6","6","6","5","1","6","5","5","6","6","7","5","7","6","6","2","6","3","6","5","6","7","6","6","6","6","7","6","6","3","7","7","6","6","7","790000811211104258","张","672","Male","[""好我"",""坏我"",""好他"",""坏他""]","[""强我"",""弱我"",""强他"",""弱他""]","","","","","","","","nonmatch","","","","","","","","","","key","j","16.666632075471703","768","428","j","true","nonmatch","img/triangle.png","弱他","弱我","prac_ALT2_ability","practice_ability","","","","","","","","",""
"null","<span style='color:GreenYellow; font-size: 70px;'>正确! </span>","null","html-keyboard-response","61","383636","0.0-8.0-1.0-1.0-0.0-1.25","6","6","7","6","5","4","5","4","5","5","5","1","0","1","1","1","2","1","1","5","4","5","4","4","4","4","4","5","4","6","6","7","7","4","7","7","6","8","4","6","4","7","5","6","6","6","6","5","1","6","5","5","6","6","7","5","7","6","6","2","6","3","6","5","6","7","6","6","6","6","7","6","6","3","7","7","6","6","7","790000811211104258","张","672","Male","[""好我"",""坏我"",""好他"",""坏他""]","[""强我"",""弱我"",""强他"",""弱他""]","","","","","","","","","","","","","","","","","","","","","","","","","","","","","","feedback_test","","","","","","","","",""
"794","","j","psychophysics","62","385431","0.0-8.0-1.0-1.0-0.0-0.26","6","6","7","6","5","4","5","4","5","5","5","1","0","1","1","1","2","1","1","5","4","5","4","4","4","4","4","5","4","6","6","7","7","4","7","7","6","8","4","6","4","7","5","6","6","6","6","5","1","6","5","5","6","6","7","5","7","6","6","2","6","3","6","5","6","7","6","6","6","6","7","6","6","3","7","7","6","6","7","790000811211104258","张","672","Male","[""好我"",""坏我"",""好他"",""坏他""]","[""强我"",""弱我"",""强他"",""弱他""]","","","","","","","","nonmatch","","","","","","","","","","key","j","16.666485981308533","768","428","j","true","nonmatch","img/triangle.png","强他","弱我","prac_ALT2_ability","practice_ability","","","","","","","","",""
"null","<span style='color:GreenYellow; font-size: 70px;'>正确! </span>","null","html-keyboard-response","63","385933","0.0-8.0-1.0-1.0-0.0-1.26","6","6","7","6","5","4","5","4","5","5","5","1","0","1","1","1","2","1","1","5","4","5","4","4","4","4","4","5","4","6","6","7","7","4","7","7","6","8","4","6","4","7","5","6","6","6","6","5","1","6","5","5","6","6","7","5","7","6","6","2","6","3","6","5","6","7","6","6","6","6","7","6","6","3","7","7","6","6","7","790000811211104258","张","672","Male","[""好我"",""坏我"",""好他"",""坏他""]","[""强我"",""弱我"",""强他"",""弱他""]","","","","","","","","","","","","","","","","","","","","","","","","","","","","","","feedback_test","","","","","","","","",""
"798","","f","psychophysics","64","387733","0.0-8.0-1.0-1.0-0.0-0.27","6","6","7","6","5","4","5","4","5","5","5","1","0","1","1","1","2","1","1","5","4","5","4","4","4","4","4","5","4","6","6","7","7","4","7","7","6","8","4","6","4","7","5","6","6","6","6","5","1","6","5","5","6","6","7","5","7","6","6","2","6","3","6","5","6","7","6","6","6","6","7","6","6","3","7","7","6","6","7","790000811211104258","张","672","Male","[""好我"",""坏我"",""好他"",""坏他""]","[""强我"",""弱我"",""强他"",""弱他""]","","","","","","","","match","","","","","","","","","","key","f","16.666859813084038","768","428","f","true","match","img/hexagon.png","弱他","弱他","prac_ALT2_ability","practice_ability","","","","","","","","",""
"null","<span style='color:GreenYellow; font-size: 70px;'>正确! </span>","null","html-keyboard-response","65","388234","0.0-8.0-1.0-1.0-0.0-1.27","6","6","7","6","5","4","5","4","5","5","5","1","0","1","1","1","2","1","1","5","4","5","4","4","4","4","4","5","4","6","6","7","7","4","7","7","6","8","4","6","4","7","5","6","6","6","6","5","1","6","5","5","6","6","7","5","7","6","6","2","6","3","6","5","6","7","6","6","6","6","7","6","6","3","7","7","6","6","7","790000811211104258","张","672","Male","[""好我"",""坏我"",""好他"",""坏他""]","[""强我"",""弱我"",""强他"",""弱他""]","","","","","","","","","","","","","","","","","","","","","","","","","","","","","","feedback_test","","","","","","","","",""
"845","","j","psychophysics","66","390081","0.0-8.0-1.0-1.0-0.0-0.28","6","6","7","6","5","4","5","4","5","5","5","1","0","1","1","1","2","1","1","5","4","5","4","4","4","4","4","5","4","6","6","7","7","4","7","7","6","8","4","6","4","7","5","6","6","6","6","5","1","6","5","5","6","6","7","5","7","6","6","2","6","3","6","5","6","7","6","6","6","6","7","6","6","3","7","7","6","6","7","790000811211104258","张","672","Male","[""好我"",""坏我"",""好他"",""坏他""]","[""强我"",""弱我"",""强他"",""弱他""]","","","","","","","","nonmatch","","","","","","","","","","key","j","16.666472727272513","768","428","f","false","match","img/ellipse.png","强他","强他","prac_ALT2_ability","practice_ability","","","","","","","","",""
"null","<span style='color:red; font-size: 70px;'>错误! </span>","null","html-keyboard-response","67","390582","0.0-8.0-1.0-1.0-0.0-1.28","6","6","7","6","5","4","5","4","5","5","5","1","0","1","1","1","2","1","1","5","4","5","4","4","4","4","4","5","4","6","6","7","7","4","7","7","6","8","4","6","4","7","5","6","6","6","6","5","1","6","5","5","6","6","7","5","7","6","6","2","6","3","6","5","6","7","6","6","6","6","7","6","6","3","7","7","6","6","7","790000811211104258","张","672","Male","[""好我"",""坏我"",""好他"",""坏他""]","[""强我"",""弱我"",""强他"",""弱他""]","","","","","","","","","","","","","","","","","","","","","","","","","","","","","","feedback_test","","","","","","","","",""
"802","","j","psychophysics","68","392385","0.0-8.0-1.0-1.0-0.0-0.29","6","6","7","6","5","4","5","4","5","5","5","1","0","1","1","1","2","1","1","5","4","5","4","4","4","4","4","5","4","6","6","7","7","4","7","7","6","8","4","6","4","7","5","6","6","6","6","5","1","6","5","5","6","6","7","5","7","6","6","2","6","3","6","5","6","7","6","6","6","6","7","6","6","3","7","7","6","6","7","790000811211104258","张","672","Male","[""好我"",""坏我"",""好他"",""坏他""]","[""强我"",""弱我"",""强他"",""弱他""]","","","","","","","","nonmatch","","","","","","","","","","key","j","16.66684112149545","768","428","f","false","match","img/hexagon.png","弱他","弱他","prac_ALT2_ability","practice_ability","","","","","","","","",""
"null","<span style='color:red; font-size: 70px;'>错误! </span>","null","html-keyboard-response","69","392886","0.0-8.0-1.0-1.0-0.0-1.29","6","6","7","6","5","4","5","4","5","5","5","1","0","1","1","1","2","1","1","5","4","5","4","4","4","4","4","5","4","6","6","7","7","4","7","7","6","8","4","6","4","7","5","6","6","6","6","5","1","6","5","5","6","6","7","5","7","6","6","2","6","3","6","5","6","7","6","6","6","6","7","6","6","3","7","7","6","6","7","790000811211104258","张","672","Male","[""好我"",""坏我"",""好他"",""坏他""]","[""强我"",""弱我"",""强他"",""弱他""]","","","","","","","","","","","","","","","","","","","","","","","","","","","","","","feedback_test","","","","","","","","",""
"933","","j","psychophysics","70","394821","0.0-8.0-1.0-1.0-0.0-0.30","6","6","7","6","5","4","5","4","5","5","5","1","0","1","1","1","2","1","1","5","4","5","4","4","4","4","4","5","4","6","6","7","7","4","7","7","6","8","4","6","4","7","5","6","6","6","6","5","1","6","5","5","6","6","7","5","7","6","6","2","6","3","6","5","6","7","6","6","6","6","7","6","6","3","7","7","6","6","7","790000811211104258","张","672","Male","[""好我"",""坏我"",""好他"",""坏他""]","[""强我"",""弱我"",""强他"",""弱他""]","","","","","","","","nonmatch","","","","","","","","","","key","j","16.66685217391325","768","428","j","true","nonmatch","img/trapezoid.png","弱他","强我","prac_ALT2_ability","practice_ability","","","","","","","","",""
"null","<span style='color:GreenYellow; font-size: 70px;'>正确! </span>","null","html-keyboard-response","71","395322","0.0-8.0-1.0-1.0-0.0-1.30","6","6","7","6","5","4","5","4","5","5","5","1","0","1","1","1","2","1","1","5","4","5","4","4","4","4","4","5","4","6","6","7","7","4","7","7","6","8","4","6","4","7","5","6","6","6","6","5","1","6","5","5","6","6","7","5","7","6","6","2","6","3","6","5","6","7","6","6","6","6","7","6","6","3","7","7","6","6","7","790000811211104258","张","672","Male","[""好我"",""坏我"",""好他"",""坏他""]","[""强我"",""弱我"",""强他"",""弱他""]","","","","","","","","","","","","","","","","","","","","","","","","","","","","","","feedback_test","","","","","","","","",""
"900","","f","psychophysics","72","397223","0.0-8.0-1.0-1.0-0.0-0.31","6","6","7","6","5","4","5","4","5","5","5","1","0","1","1","1","2","1","1","5","4","5","4","4","4","4","4","5","4","6","6","7","7","4","7","7","6","8","4","6","4","7","5","6","6","6","6","5","1","6","5","5","6","6","7","5","7","6","6","2","6","3","6","5","6","7","6","6","6","6","7","6","6","3","7","7","6","6","7","790000811211104258","张","672","Male","[""好我"",""坏我"",""好他"",""坏他""]","[""强我"",""弱我"",""强他"",""弱他""]","","","","","","","","match","","","","","","","","","","key","f","16.666504424778783","768","428","j","false","nonmatch","img/ellipse.png","弱他","强他","prac_ALT2_ability","practice_ability","","","","","","","","",""
"null","<span style='color:red; font-size: 70px;'>错误! </span>","null","html-keyboard-response","73","397725","0.0-8.0-1.0-1.0-0.0-1.31","6","6","7","6","5","4","5","4","5","5","5","1","0","1","1","1","2","1","1","5","4","5","4","4","4","4","4","5","4","6","6","7","7","4","7","7","6","8","4","6","4","7","5","6","6","6","6","5","1","6","5","5","6","6","7","5","7","6","6","2","6","3","6","5","6","7","6","6","6","6","7","6","6","3","7","7","6","6","7","790000811211104258","张","672","Male","[""好我"",""坏我"",""好他"",""坏他""]","[""强我"",""弱我"",""强他"",""弱他""]","","","","","","","","","","","","","","","","","","","","","","","","","","","","","","feedback_test","","","","","","","","",""
"855","","f","psychophysics","74","399582","0.0-8.0-1.0-1.0-0.0-0.32","6","6","7","6","5","4","5","4","5","5","5","1","0","1","1","1","2","1","1","5","4","5","4","4","4","4","4","5","4","6","6","7","7","4","7","7","6","8","4","6","4","7","5","6","6","6","6","5","1","6","5","5","6","6","7","5","7","6","6","2","6","3","6","5","6","7","6","6","6","6","7","6","6","3","7","7","6","6","7","790000811211104258","张","672","Male","[""好我"",""坏我"",""好他"",""坏他""]","[""强我"",""弱我"",""强他"",""弱他""]","","","","","","","","match","","","","","","","","","","key","f","16.667036363636463","768","428","f","true","match","img/trapezoid.png","强我","强我","prac_ALT2_ability","practice_ability","","","","","","","","",""
"null","<span style='color:GreenYellow; font-size: 70px;'>正确! </span>","null","html-keyboard-response","75","400084","0.0-8.0-1.0-1.0-0.0-1.32","6","6","7","6","5","4","5","4","5","5","5","1","0","1","1","1","2","1","1","5","4","5","4","4","4","4","4","5","4","6","6","7","7","4","7","7","6","8","4","6","4","7","5","6","6","6","6","5","1","6","5","5","6","6","7","5","7","6","6","2","6","3","6","5","6","7","6","6","6","6","7","6","6","3","7","7","6","6","7","790000811211104258","张","672","Male","[""好我"",""坏我"",""好他"",""坏他""]","[""强我"",""弱我"",""强他"",""弱他""]","","","","","","","","","","","","","","","","","","","","","","","","","","","","","","feedback_test","","","","","","","","",""
"935","","j","psychophysics","76","402021","0.0-8.0-1.0-1.0-0.0-0.33","6","6","7","6","5","4","5","4","5","5","5","1","0","1","1","1","2","1","1","5","4","5","4","4","4","4","4","5","4","6","6","7","7","4","7","7","6","8","4","6","4","7","5","6","6","6","6","5","1","6","5","5","6","6","7","5","7","6","6","2","6","3","6","5","6","7","6","6","6","6","7","6","6","3","7","7","6","6","7","790000811211104258","张","672","Male","[""好我"",""坏我"",""好他"",""坏他""]","[""强我"",""弱我"",""强他"",""弱他""]","","","","","","","","nonmatch","","","","","","","","","","key","j","16.66651304347805","768","428","f","false","match","img/ellipse.png","强他","强他","prac_ALT2_ability","practice_ability","","","","","","","","",""
"null","<span style='color:red; font-size: 70px;'>错误! </span>","null","html-keyboard-response","77","402522","0.0-8.0-1.0-1.0-0.0-1.33","6","6","7","6","5","4","5","4","5","5","5","1","0","1","1","1","2","1","1","5","4","5","4","4","4","4","4","5","4","6","6","7","7","4","7","7","6","8","4","6","4","7","5","6","6","6","6","5","1","6","5","5","6","6","7","5","7","6","6","2","6","3","6","5","6","7","6","6","6","6","7","6","6","3","7","7","6","6","7","790000811211104258","张","672","Male","[""好我"",""坏我"",""好他"",""坏他""]","[""强我"",""弱我"",""强他"",""弱他""]","","","","","","","","","","","","","","","","","","","","","","","","","","","","","","feedback_test","","","","","","","","",""
"891","","f","psychophysics","78","404415","0.0-8.0-1.0-1.0-0.0-0.34","6","6","7","6","5","4","5","4","5","5","5","1","0","1","1","1","2","1","1","5","4","5","4","4","4","4","4","5","4","6","6","7","7","4","7","7","6","8","4","6","4","7","5","6","6","6","6","5","1","6","5","5","6","6","7","5","7","6","6","2","6","3","6","5","6","7","6","6","6","6","7","6","6","3","7","7","6","6","7","790000811211104258","张","672","Male","[""好我"",""坏我"",""好他"",""坏他""]","[""强我"",""弱我"",""强他"",""弱他""]","","","","","","","","match","","","","","","","","","","key","f","16.666637168141737","768","428","f","true","match","img/triangle.png","弱我","弱我","prac_ALT2_ability","practice_ability","","","","","","","","",""
"null","<span style='color:GreenYellow; font-size: 70px;'>正确! </span>","null","html-keyboard-response","79","404917","0.0-8.0-1.0-1.0-0.0-1.34","6","6","7","6","5","4","5","4","5","5","5","1","0","1","1","1","2","1","1","5","4","5","4","4","4","4","4","5","4","6","6","7","7","4","7","7","6","8","4","6","4","7","5","6","6","6","6","5","1","6","5","5","6","6","7","5","7","6","6","2","6","3","6","5","6","7","6","6","6","6","7","6","6","3","7","7","6","6","7","790000811211104258","张","672","Male","[""好我"",""坏我"",""好他"",""坏他""]","[""强我"",""弱我"",""强他"",""弱他""]","","","","","","","","","","","","","","","","","","","","","","","","","","","","","","feedback_test","","","","","","","","",""
"963","","f","psychophysics","80","406881","0.0-8.0-1.0-1.0-0.0-0.35","6","6","7","6","5","4","5","4","5","5","5","1","0","1","1","1","2","1","1","5","4","5","4","4","4","4","4","5","4","6","6","7","7","4","7","7","6","8","4","6","4","7","5","6","6","6","6","5","1","6","5","5","6","6","7","5","7","6","6","2","6","3","6","5","6","7","6","6","6","6","7","6","6","3","7","7","6","6","7","790000811211104258","张","672","Male","[""好我"",""坏我"",""好他"",""坏他""]","[""强我"",""弱我"",""强他"",""弱他""]","","","","","","","","match","","","","","","","","","","key","f","16.668487179487084","768","428","j","false","nonmatch","img/hexagon.png","强他","弱他","prac_ALT2_ability","practice_ability","","","","","","","","",""
"null","<span style='color:red; font-size: 70px;'>错误! </span>","null","html-keyboard-response","81","407382","0.0-8.0-1.0-1.0-0.0-1.35","6","6","7","6","5","4","5","4","5","5","5","1","0","1","1","1","2","1","1","5","4","5","4","4","4","4","4","5","4","6","6","7","7","4","7","7","6","8","4","6","4","7","5","6","6","6","6","5","1","6","5","5","6","6","7","5","7","6","6","2","6","3","6","5","6","7","6","6","6","6","7","6","6","3","7","7","6","6","7","790000811211104258","张","672","Male","[""好我"",""坏我"",""好他"",""坏他""]","[""强我"",""弱我"",""强他"",""弱他""]","","","","","","","","","","","","","","","","","","","","","","","","","","","","","","feedback_test","","","","","","","","",""
"801","","f","psychophysics","82","409185","0.0-8.0-1.0-1.0-0.0-0.36","6","6","7","6","5","4","5","4","5","5","5","1","0","1","1","1","2","1","1","5","4","5","4","4","4","4","4","5","4","6","6","7","7","4","7","7","6","8","4","6","4","7","5","6","6","6","6","5","1","6","5","5","6","6","7","5","7","6","6","2","6","3","6","5","6","7","6","6","6","6","7","6","6","3","7","7","6","6","7","790000811211104258","张","672","Male","[""好我"",""坏我"",""好他"",""坏他""]","[""强我"",""弱我"",""强他"",""弱他""]","","","","","","","","match","","","","","","","","","","key","f","16.66689719626175","768","428","f","true","match","img/trapezoid.png","强我","强我","prac_ALT2_ability","practice_ability","","","","","","","","",""
"null","<span style='color:GreenYellow; font-size: 70px;'>正确! </span>","null","html-keyboard-response","83","409686","0.0-8.0-1.0-1.0-0.0-1.36","6","6","7","6","5","4","5","4","5","5","5","1","0","1","1","1","2","1","1","5","4","5","4","4","4","4","4","5","4","6","6","7","7","4","7","7","6","8","4","6","4","7","5","6","6","6","6","5","1","6","5","5","6","6","7","5","7","6","6","2","6","3","6","5","6","7","6","6","6","6","7","6","6","3","7","7","6","6","7","790000811211104258","张","672","Male","[""好我"",""坏我"",""好他"",""坏他""]","[""强我"",""弱我"",""强他"",""弱他""]","","","","","","","","","","","","","","","","","","","","","","","","","","","","","","feedback_test","","","","","","","","",""
"1013","","f","psychophysics","84","411701","0.0-8.0-1.0-1.0-0.0-0.37","6","6","7","6","5","4","5","4","5","5","5","1","0","1","1","1","2","1","1","5","4","5","4","4","4","4","4","5","4","6","6","7","7","4","7","7","6","8","4","6","4","7","5","6","6","6","6","5","1","6","5","5","6","6","7","5","7","6","6","2","6","3","6","5","6","7","6","6","6","6","7","6","6","3","7","7","6","6","7","790000811211104258","张","672","Male","[""好我"",""坏我"",""好他"",""坏他""]","[""强我"",""弱我"",""强他"",""弱他""]","","","","","","","","match","","","","","","","","","","key","f","16.666533333333305","768","428","f","true","match","img/triangle.png","弱我","弱我","prac_ALT2_ability","practice_ability","","","","","","","","",""
"null","<span style='color:GreenYellow; font-size: 70px;'>正确! </span>","null","html-keyboard-response","85","412202","0.0-8.0-1.0-1.0-0.0-1.37","6","6","7","6","5","4","5","4","5","5","5","1","0","1","1","1","2","1","1","5","4","5","4","4","4","4","4","5","4","6","6","7","7","4","7","7","6","8","4","6","4","7","5","6","6","6","6","5","1","6","5","5","6","6","7","5","7","6","6","2","6","3","6","5","6","7","6","6","6","6","7","6","6","3","7","7","6","6","7","790000811211104258","张","672","Male","[""好我"",""坏我"",""好他"",""坏他""]","[""强我"",""弱我"",""强他"",""弱他""]","","","","","","","","","","","","","","","","","","","","","","","","","","","","","","feedback_test","","","","","","","","",""
"846","","f","psychophysics","86","414049","0.0-8.0-1.0-1.0-0.0-0.38","6","6","7","6","5","4","5","4","5","5","5","1","0","1","1","1","2","1","1","5","4","5","4","4","4","4","4","5","4","6","6","7","7","4","7","7","6","8","4","6","4","7","5","6","6","6","6","5","1","6","5","5","6","6","7","5","7","6","6","2","6","3","6","5","6","7","6","6","6","6","7","6","6","3","7","7","6","6","7","790000811211104258","张","672","Male","[""好我"",""坏我"",""好他"",""坏他""]","[""强我"",""弱我"",""强他"",""弱他""]","","","","","","","","match","","","","","","","","","","key","f","16.669200000000206","768","428","j","false","nonmatch","img/trapezoid.png","弱我","强我","prac_ALT2_ability","practice_ability","","","","","","","","",""
"null","<span style='color:red; font-size: 70px;'>错误! </span>","null","html-keyboard-response","87","414561","0.0-8.0-1.0-1.0-0.0-1.38","6","6","7","6","5","4","5","4","5","5","5","1","0","1","1","1","2","1","1","5","4","5","4","4","4","4","4","5","4","6","6","7","7","4","7","7","6","8","4","6","4","7","5","6","6","6","6","5","1","6","5","5","6","6","7","5","7","6","6","2","6","3","6","5","6","7","6","6","6","6","7","6","6","3","7","7","6","6","7","790000811211104258","张","672","Male","[""好我"",""坏我"",""好他"",""坏他""]","[""强我"",""弱我"",""强他"",""弱他""]","","","","","","","","","","","","","","","","","","","","","","","","","","","","","","feedback_test","","","","","","","","",""
"805","","j","psychophysics","88","416367","0.0-8.0-1.0-1.0-0.0-0.39","6","6","7","6","5","4","5","4","5","5","5","1","0","1","1","1","2","1","1","5","4","5","4","4","4","4","4","5","4","6","6","7","7","4","7","7","6","8","4","6","4","7","5","6","6","6","6","5","1","6","5","5","6","6","7","5","7","6","6","2","6","3","6","5","6","7","6","6","6","6","7","6","6","3","7","7","6","6","7","790000811211104258","张","672","Male","[""好我"",""坏我"",""好他"",""坏他""]","[""强我"",""弱我"",""强他"",""弱他""]","","","","","","","","nonmatch","","","","","","","","","","key","j","16.66692523364463","768","428","j","true","nonmatch","img/ellipse.png","弱我","强他","prac_ALT2_ability","practice_ability","","","","","","","","",""
"null","<span style='color:GreenYellow; font-size: 70px;'>正确! </span>","null","html-keyboard-response","89","416868","0.0-8.0-1.0-1.0-0.0-1.39","6","6","7","6","5","4","5","4","5","5","5","1","0","1","1","1","2","1","1","5","4","5","4","4","4","4","4","5","4","6","6","7","7","4","7","7","6","8","4","6","4","7","5","6","6","6","6","5","1","6","5","5","6","6","7","5","7","6","6","2","6","3","6","5","6","7","6","6","6","6","7","6","6","3","7","7","6","6","7","790000811211104258","张","672","Male","[""好我"",""坏我"",""好他"",""坏他""]","[""强我"",""弱我"",""强他"",""弱他""]","","","","","","","","","","","","","","","","","","","","","","","","","","","","","","feedback_test","","","","","","","","",""
"835","","f","psychophysics","90","418705","0.0-8.0-1.0-1.0-0.0-0.40","6","6","7","6","5","4","5","4","5","5","5","1","0","1","1","1","2","1","1","5","4","5","4","4","4","4","4","5","4","6","6","7","7","4","7","7","6","8","4","6","4","7","5","6","6","6","6","5","1","6","5","5","6","6","7","5","7","6","6","2","6","3","6","5","6","7","6","6","6","6","7","6","6","3","7","7","6","6","7","790000811211104258","张","672","Male","[""好我"",""坏我"",""好他"",""坏他""]","[""强我"",""弱我"",""强他"",""弱他""]","","","","","","","","match","","","","","","","","","","key","f","16.66662385321111","768","428","j","false","nonmatch","img/hexagon.png","强我","弱他","prac_ALT2_ability","practice_ability","","","","","","","","",""
"null","<span style='color:red; font-size: 70px;'>错误! </span>","null","html-keyboard-response","91","419206","0.0-8.0-1.0-1.0-0.0-1.40","6","6","7","6","5","4","5","4","5","5","5","1","0","1","1","1","2","1","1","5","4","5","4","4","4","4","4","5","4","6","6","7","7","4","7","7","6","8","4","6","4","7","5","6","6","6","6","5","1","6","5","5","6","6","7","5","7","6","6","2","6","3","6","5","6","7","6","6","6","6","7","6","6","3","7","7","6","6","7","790000811211104258","张","672","Male","[""好我"",""坏我"",""好他"",""坏他""]","[""强我"",""弱我"",""强他"",""弱他""]","","","","","","","","","","","","","","","","","","","","","","","","","","","","","","feedback_test","","","","","","","","",""
"895","","f","psychophysics","92","421103","0.0-8.0-1.0-1.0-0.0-0.41","6","6","7","6","5","4","5","4","5","5","5","1","0","1","1","1","2","1","1","5","4","5","4","4","4","4","4","5","4","6","6","7","7","4","7","7","6","8","4","6","4","7","5","6","6","6","6","5","1","6","5","5","6","6","7","5","7","6","6","2","6","3","6","5","6","7","6","6","6","6","7","6","6","3","7","7","6","6","7","790000811211104258","张","672","Male","[""好我"",""坏我"",""好他"",""坏他""]","[""强我"",""弱我"",""强他"",""弱他""]","","","","","","","","match","","","","","","","","","","key","f","16.66872566371674","768","428","f","true","match","img/trapezoid.png","强我","强我","prac_ALT2_ability","practice_ability","","","","","","","","",""
"null","<span style='color:GreenYellow; font-size: 70px;'>正确! </span>","null","html-keyboard-response","93","421604","0.0-8.0-1.0-1.0-0.0-1.41","6","6","7","6","5","4","5","4","5","5","5","1","0","1","1","1","2","1","1","5","4","5","4","4","4","4","4","5","4","6","6","7","7","4","7","7","6","8","4","6","4","7","5","6","6","6","6","5","1","6","5","5","6","6","7","5","7","6","6","2","6","3","6","5","6","7","6","6","6","6","7","6","6","3","7","7","6","6","7","790000811211104258","张","672","Male","[""好我"",""坏我"",""好他"",""坏他""]","[""强我"",""弱我"",""强他"",""弱他""]","","","","","","","","","","","","","","","","","","","","","","","","","","","","","","feedback_test","","","","","","","","",""
"972","","j","psychophysics","94","423576","0.0-8.0-1.0-1.0-0.0-0.42","6","6","7","6","5","4","5","4","5","5","5","1","0","1","1","1","2","1","1","5","4","5","4","4","4","4","4","5","4","6","6","7","7","4","7","7","6","8","4","6","4","7","5","6","6","6","6","5","1","6","5","5","6","6","7","5","7","6","6","2","6","3","6","5","6","7","6","6","6","6","7","6","6","3","7","7","6","6","7","790000811211104258","张","672","Male","[""好我"",""坏我"",""好他"",""坏他""]","[""强我"",""弱我"",""强他"",""弱他""]","","","","","","","","nonmatch","","","","","","","","","","key","j","16.6668559322035","768","428","f","false","match","img/hexagon.png","弱他","弱他","prac_ALT2_ability","practice_ability","","","","","","","","",""
"null","<span style='color:red; font-size: 70px;'>错误! </span>","null","html-keyboard-response","95","424080","0.0-8.0-1.0-1.0-0.0-1.42","6","6","7","6","5","4","5","4","5","5","5","1","0","1","1","1","2","1","1","5","4","5","4","4","4","4","4","5","4","6","6","7","7","4","7","7","6","8","4","6","4","7","5","6","6","6","6","5","1","6","5","5","6","6","7","5","7","6","6","2","6","3","6","5","6","7","6","6","6","6","7","6","6","3","7","7","6","6","7","790000811211104258","张","672","Male","[""好我"",""坏我"",""好他"",""坏他""]","[""强我"",""弱我"",""强他"",""弱他""]","","","","","","","","","","","","","","","","","","","","","","","","","","","","","","feedback_test","","","","","","","","",""
"837","","j","psychophysics","96","425918","0.0-8.0-1.0-1.0-0.0-0.43","6","6","7","6","5","4","5","4","5","5","5","1","0","1","1","1","2","1","1","5","4","5","4","4","4","4","4","5","4","6","6","7","7","4","7","7","6","8","4","6","4","7","5","6","6","6","6","5","1","6","5","5","6","6","7","5","7","6","6","2","6","3","6","5","6","7","6","6","6","6","7","6","6","3","7","7","6","6","7","790000811211104258","张","672","Male","[""好我"",""坏我"",""好他"",""坏他""]","[""强我"",""弱我"",""强他"",""弱他""]","","","","","","","","nonmatch","","","","","","","","","","key","j","16.667009174312174","768","428","j","true","nonmatch","img/ellipse.png","强我","强他","prac_ALT2_ability","practice_ability","","","","","","","","",""
"null","<span style='color:GreenYellow; font-size: 70px;'>正确! </span>","null","html-keyboard-response","97","426420","0.0-8.0-1.0-1.0-0.0-1.43","6","6","7","6","5","4","5","4","5","5","5","1","0","1","1","1","2","1","1","5","4","5","4","4","4","4","4","5","4","6","6","7","7","4","7","7","6","8","4","6","4","7","5","6","6","6","6","5","1","6","5","5","6","6","7","5","7","6","6","2","6","3","6","5","6","7","6","6","6","6","7","6","6","3","7","7","6","6","7","790000811211104258","张","672","Male","[""好我"",""坏我"",""好他"",""坏他""]","[""强我"",""弱我"",""强他"",""弱他""]","","","","","","","","","","","","","","","","","","","","","","","","","","","","","","feedback_test","","","","","","","","",""
"851","","j","psychophysics","98","428273","0.0-8.0-1.0-1.0-0.0-0.44","6","6","7","6","5","4","5","4","5","5","5","1","0","1","1","1","2","1","1","5","4","5","4","4","4","4","4","5","4","6","6","7","7","4","7","7","6","8","4","6","4","7","5","6","6","6","6","5","1","6","5","5","6","6","7","5","7","6","6","2","6","3","6","5","6","7","6","6","6","6","7","6","6","3","7","7","6","6","7","790000811211104258","张","672","Male","[""好我"",""坏我"",""好他"",""坏他""]","[""强我"",""弱我"",""强他"",""弱他""]","","","","","","","","nonmatch","","","","","","","","","","key","j","16.666618181817995","768","428","j","true","nonmatch","img/hexagon.png","弱我","弱他","prac_ALT2_ability","practice_ability","","","","","","","","",""
"null","<span style='color:GreenYellow; font-size: 70px;'>正确! </span>","null","html-keyboard-response","99","428774","0.0-8.0-1.0-1.0-0.0-1.44","6","6","7","6","5","4","5","4","5","5","5","1","0","1","1","1","2","1","1","5","4","5","4","4","4","4","4","5","4","6","6","7","7","4","7","7","6","8","4","6","4","7","5","6","6","6","6","5","1","6","5","5","6","6","7","5","7","6","6","2","6","3","6","5","6","7","6","6","6","6","7","6","6","3","7","7","6","6","7","790000811211104258","张","672","Male","[""好我"",""坏我"",""好他"",""坏他""]","[""强我"",""弱我"",""强他"",""弱他""]","","","","","","","","","","","","","","","","","","","","","","","","","","","","","","feedback_test","","","","","","","","",""
"1020","","f","psychophysics","100","430794","0.0-8.0-1.0-1.0-0.0-0.45","6","6","7","6","5","4","5","4","5","5","5","1","0","1","1","1","2","1","1","5","4","5","4","4","4","4","4","5","4","6","6","7","7","4","7","7","6","8","4","6","4","7","5","6","6","6","6","5","1","6","5","5","6","6","7","5","7","6","6","2","6","3","6","5","6","7","6","6","6","6","7","6","6","3","7","7","6","6","7","790000811211104258","张","672","Male","[""好我"",""坏我"",""好他"",""坏他""]","[""强我"",""弱我"",""强他"",""弱他""]","","","","","","","","match","","","","","","","","","","key","f","16.666416666666432","768","428","f","true","match","img/ellipse.png","强他","强他","prac_ALT2_ability","practice_ability","","","","","","","","",""
"null","<span style='color:GreenYellow; font-size: 70px;'>正确! </span>","null","html-keyboard-response","101","431295","0.0-8.0-1.0-1.0-0.0-1.45","6","6","7","6","5","4","5","4","5","5","5","1","0","1","1","1","2","1","1","5","4","5","4","4","4","4","4","5","4","6","6","7","7","4","7","7","6","8","4","6","4","7","5","6","6","6","6","5","1","6","5","5","6","6","7","5","7","6","6","2","6","3","6","5","6","7","6","6","6","6","7","6","6","3","7","7","6","6","7","790000811211104258","张","672","Male","[""好我"",""坏我"",""好他"",""坏他""]","[""强我"",""弱我"",""强他"",""弱他""]","","","","","","","","","","","","","","","","","","","","","","","","","","","","","","feedback_test","","","","","","","","",""
"null","","null","psychophysics","102","433498","0.0-8.0-1.0-1.0-0.0-0.46","6","6","7","6","5","4","5","4","5","5","5","1","0","1","1","1","2","1","1","5","4","5","4","4","4","4","4","5","4","6","6","7","7","4","7","7","6","8","4","6","4","7","5","6","6","6","6","5","1","6","5","5","6","6","7","5","7","6","6","2","6","3","6","5","6","7","6","6","6","6","7","6","6","3","7","7","6","6","7","790000811211104258","张","672","Male","[""好我"",""坏我"",""好他"",""坏他""]","[""强我"",""弱我"",""强他"",""弱他""]","","","","","","","","null","","","","","","","","","","key","null","16.666656488550025","768","428","f","false","match","img/triangle.png","弱我","弱我","prac_ALT2_ability","practice_ability","","","","","","","","",""
"null","<span class='add_' style='color:yellow; font-size: 70px;'> 太慢! </span>","null","html-keyboard-response","103","434000","0.0-8.0-1.0-1.0-0.0-1.46","6","6","7","6","5","4","5","4","5","5","5","1","0","1","1","1","2","1","1","5","4","5","4","4","4","4","4","5","4","6","6","7","7","4","7","7","6","8","4","6","4","7","5","6","6","6","6","5","1","6","5","5","6","6","7","5","7","6","6","2","6","3","6","5","6","7","6","6","6","6","7","6","6","3","7","7","6","6","7","790000811211104258","张","672","Male","[""好我"",""坏我"",""好他"",""坏他""]","[""强我"",""弱我"",""强他"",""弱他""]","","","","","","","","","","","","","","","","","","","","","","","","","","","","","","feedback_test","","","","","","","","",""
"897","","f","psychophysics","104","435898","0.0-8.0-1.0-1.0-0.0-0.47","6","6","7","6","5","4","5","4","5","5","5","1","0","1","1","1","2","1","1","5","4","5","4","4","4","4","4","5","4","6","6","7","7","4","7","7","6","8","4","6","4","7","5","6","6","6","6","5","1","6","5","5","6","6","7","5","7","6","6","2","6","3","6","5","6","7","6","6","6","6","7","6","6","3","7","7","6","6","7","790000811211104258","张","672","Male","[""好我"",""坏我"",""好他"",""坏他""]","[""强我"",""弱我"",""强他"",""弱他""]","","","","","","","","match","","","","","","","","","","key","f","16.666371681415825","768","428","j","false","nonmatch","img/triangle.png","强我","弱我","prac_ALT2_ability","practice_ability","","","","","","","","",""
"null","<span style='color:red; font-size: 70px;'>错误! </span>","null","html-keyboard-response","105","436399","0.0-8.0-1.0-1.0-0.0-1.47","6","6","7","6","5","4","5","4","5","5","5","1","0","1","1","1","2","1","1","5","4","5","4","4","4","4","4","5","4","6","6","7","7","4","7","7","6","8","4","6","4","7","5","6","6","6","6","5","1","6","5","5","6","6","7","5","7","6","6","2","6","3","6","5","6","7","6","6","6","6","7","6","6","3","7","7","6","6","7","790000811211104258","张","672","Male","[""好我"",""坏我"",""好他"",""坏他""]","[""强我"",""弱我"",""强他"",""弱他""]","","","","","","","","","","","","","","","","","","","","","","","","","","","","","","feedback_test","","","","","","","","",""
"2679","<style>.context{color:white; font-size: 35px; line-height:40px}</style>                          <div><p class='context'>您正确回答了46% 的试次。</p><p class='context'>您的平均反应时为840毫秒。</p><p class='context'>恭喜您完成练习。按空格键继续。</p></div>"," ","html-keyboard-response","106","439080","0.0-8.0-1.0-1.0-1.0-0.0","6","6","7","6","5","4","5","4","5","5","5","1","0","1","1","1","2","1","1","5","4","5","4","4","4","4","4","5","4","6","6","7","7","4","7","7","6","8","4","6","4","7","5","6","6","6","6","5","1","6","5","5","6","6","7","5","7","6","6","2","6","3","6","5","6","7","6","6","6","6","7","6","6","3","7","7","6","6","7","790000811211104258","张","672","Male","[""好我"",""坏我"",""好他"",""坏他""]","[""强我"",""弱我"",""强他"",""弱他""]","","","","","","","","","","","","","","","","","","","","","","","","","","","","","","","","","","","","","","",""
"66035","","","instructions","107","505117","0.0-8.0-1.0-1.0-1.0-1.0","6","6","7","6","5","4","5","4","5","5","5","1","0","1","1","1","2","1","1","5","4","5","4","4","4","4","4","5","4","6","6","7","7","4","7","7","6","8","4","6","4","7","5","6","6","6","6","5","1","6","5","5","6","6","7","5","7","6","6","2","6","3","6","5","6","7","6","6","6","6","7","6","6","3","7","7","6","6","7","790000811211104258","张","672","Male","[""好我"",""坏我"",""好他"",""坏他""]","[""强我"",""弱我"",""强他"",""弱他""]","","","","","","","","","","","","","","","","","[{""page_index"":0,""viewing_time"":6845},{""page_index"":1,""viewing_time"":57773},{""page_index"":2,""viewing_time"":1416}]","","","","","","","","","","","","","","","","","","","","","",""
"849","","f","psychophysics","108","506968","0.0-8.0-1.0-1.1-0.1-0.48","6","6","7","6","5","4","5","4","5","5","5","1","0","1","1","1","2","1","1","5","4","5","4","4","4","4","4","5","4","6","6","7","7","4","7","7","6","8","4","6","4","7","5","6","6","6","6","5","1","6","5","5","6","6","7","5","7","6","6","2","6","3","6","5","6","7","6","6","6","6","7","6","6","3","7","7","6","6","7","790000811211104258","张","672","Male","[""好我"",""坏我"",""好他"",""坏他""]","[""强我"",""弱我"",""强他"",""弱他""]","","","","","","","","match","","","","","","","","","","key","f","16.669190909090684","768","428","f","true","match","img/trapezoid.png","强我","强我","prac_ALT2_ability","practice_ability","","","","","","","","",""
"null","<span style='color:GreenYellow; font-size: 70px;'>正确! </span>","null","html-keyboard-response","109","507469","0.0-8.0-1.0-1.1-0.1-1.48","6","6","7","6","5","4","5","4","5","5","5","1","0","1","1","1","2","1","1","5","4","5","4","4","4","4","4","5","4","6","6","7","7","4","7","7","6","8","4","6","4","7","5","6","6","6","6","5","1","6","5","5","6","6","7","5","7","6","6","2","6","3","6","5","6","7","6","6","6","6","7","6","6","3","7","7","6","6","7","790000811211104258","张","672","Male","[""好我"",""坏我"",""好他"",""坏他""]","[""强我"",""弱我"",""强他"",""弱他""]","","","","","","","","","","","","","","","","","","","","","","","","","","","","","","feedback_test","","","","","","","","",""
"805","","j","psychophysics","110","509276","0.0-8.0-1.0-1.1-0.1-0.49","6","6","7","6","5","4","5","4","5","5","5","1","0","1","1","1","2","1","1","5","4","5","4","4","4","4","4","5","4","6","6","7","7","4","7","7","6","8","4","6","4","7","5","6","6","6","6","5","1","6","5","5","6","6","7","5","7","6","6","2","6","3","6","5","6","7","6","6","6","6","7","6","6","3","7","7","6","6","7","790000811211104258","张","672","Male","[""好我"",""坏我"",""好他"",""坏他""]","[""强我"",""弱我"",""强他"",""弱他""]","","","","","","","","nonmatch","","","","","","","","","","key","j","16.669472222221817","768","428","j","true","nonmatch","img/trapezoid.png","强他","强我","prac_ALT2_ability","practice_ability","","","","","","","","",""
"null","<span style='color:GreenYellow; font-size: 70px;'>正确! </span>","null","html-keyboard-response","111","509777","0.0-8.0-1.0-1.1-0.1-1.49","6","6","7","6","5","4","5","4","5","5","5","1","0","1","1","1","2","1","1","5","4","5","4","4","4","4","4","5","4","6","6","7","7","4","7","7","6","8","4","6","4","7","5","6","6","6","6","5","1","6","5","5","6","6","7","5","7","6","6","2","6","3","6","5","6","7","6","6","6","6","7","6","6","3","7","7","6","6","7","790000811211104258","张","672","Male","[""好我"",""坏我"",""好他"",""坏他""]","[""强我"",""弱我"",""强他"",""弱他""]","","","","","","","","","","","","","","","","","","","","","","","","","","","","","","feedback_test","","","","","","","","",""
"846","","j","psychophysics","112","511625","0.0-8.0-1.0-1.1-0.1-0.50","6","6","7","6","5","4","5","4","5","5","5","1","0","1","1","1","2","1","1","5","4","5","4","4","4","4","4","5","4","6","6","7","7","4","7","7","6","8","4","6","4","7","5","6","6","6","6","5","1","6","5","5","6","6","7","5","7","6","6","2","6","3","6","5","6","7","6","6","6","6","7","6","6","3","7","7","6","6","7","790000811211104258","张","672","Male","[""好我"",""坏我"",""好他"",""坏他""]","[""强我"",""弱我"",""强他"",""弱他""]","","","","","","","","nonmatch","","","","","","","","","","key","j","16.669290909090673","768","428","j","true","nonmatch","img/triangle.png","强我","弱我","prac_ALT2_ability","practice_ability","","","","","","","","",""
"null","<span style='color:GreenYellow; font-size: 70px;'>正确! </span>","null","html-keyboard-response","113","512126","0.0-8.0-1.0-1.1-0.1-1.50","6","6","7","6","5","4","5","4","5","5","5","1","0","1","1","1","2","1","1","5","4","5","4","4","4","4","4","5","4","6","6","7","7","4","7","7","6","8","4","6","4","7","5","6","6","6","6","5","1","6","5","5","6","6","7","5","7","6","6","2","6","3","6","5","6","7","6","6","6","6","7","6","6","3","7","7","6","6","7","790000811211104258","张","672","Male","[""好我"",""坏我"",""好他"",""坏他""]","[""强我"",""弱我"",""强他"",""弱他""]","","","","","","","","","","","","","","","","","","","","","","","","","","","","","","feedback_test","","","","","","","","",""
"null","","null","psychophysics","114","514329","0.0-8.0-1.0-1.1-0.1-0.51","6","6","7","6","5","4","5","4","5","5","5","1","0","1","1","1","2","1","1","5","4","5","4","4","4","4","4","5","4","6","6","7","7","4","7","7","6","8","4","6","4","7","5","6","6","6","6","5","1","6","5","5","6","6","7","5","7","6","6","2","6","3","6","5","6","7","6","6","6","6","7","6","6","3","7","7","6","6","7","790000811211104258","张","672","Male","[""好我"",""坏我"",""好他"",""坏他""]","[""强我"",""弱我"",""强他"",""弱他""]","","","","","","","","null","","","","","","","","","","key","null","16.667183206106966","768","428","j","false","nonmatch","img/triangle.png","弱他","弱我","prac_ALT2_ability","practice_ability","","","","","","","","",""
"null","<span class='add_' style='color:yellow; font-size: 70px;'> 太慢! </span>","null","html-keyboard-response","115","514830","0.0-8.0-1.0-1.1-0.1-1.51","6","6","7","6","5","4","5","4","5","5","5","1","0","1","1","1","2","1","1","5","4","5","4","4","4","4","4","5","4","6","6","7","7","4","7","7","6","8","4","6","4","7","5","6","6","6","6","5","1","6","5","5","6","6","7","5","7","6","6","2","6","3","6","5","6","7","6","6","6","6","7","6","6","3","7","7","6","6","7","790000811211104258","张","672","Male","[""好我"",""坏我"",""好他"",""坏他""]","[""强我"",""弱我"",""强他"",""弱他""]","","","","","","","","","","","","","","","","","","","","","","","","","","","","","","feedback_test","","","","","","","","",""
"749","","f","psychophysics","116","516580","0.0-8.0-1.0-1.1-0.1-0.52","6","6","7","6","5","4","5","4","5","5","5","1","0","1","1","1","2","1","1","5","4","5","4","4","4","4","4","5","4","6","6","7","7","4","7","7","6","8","4","6","4","7","5","6","6","6","6","5","1","6","5","5","6","6","7","5","7","6","6","2","6","3","6","5","6","7","6","6","6","6","7","6","6","3","7","7","6","6","7","790000811211104258","张","672","Male","[""好我"",""坏我"",""好他"",""坏他""]","[""强我"",""弱我"",""强他"",""弱他""]","","","","","","","","match","","","","","","","","","","key","f","16.668442307692132","768","428","f","true","match","img/trapezoid.png","强我","强我","prac_ALT2_ability","practice_ability","","","","","","","","",""
"null","<span style='color:GreenYellow; font-size: 70px;'>正确! </span>","null","html-keyboard-response","117","517081","0.0-8.0-1.0-1.1-0.1-1.52","6","6","7","6","5","4","5","4","5","5","5","1","0","1","1","1","2","1","1","5","4","5","4","4","4","4","4","5","4","6","6","7","7","4","7","7","6","8","4","6","4","7","5","6","6","6","6","5","1","6","5","5","6","6","7","5","7","6","6","2","6","3","6","5","6","7","6","6","6","6","7","6","6","3","7","7","6","6","7","790000811211104258","张","672","Male","[""好我"",""坏我"",""好他"",""坏他""]","[""强我"",""弱我"",""强他"",""弱他""]","","","","","","","","","","","","","","","","","","","","","","","","","","","","","","feedback_test","","","","","","","","",""
"890","","f","psychophysics","118","518973","0.0-8.0-1.0-1.1-0.1-0.53","6","6","7","6","5","4","5","4","5","5","5","1","0","1","1","1","2","1","1","5","4","5","4","4","4","4","4","5","4","6","6","7","7","4","7","7","6","8","4","6","4","7","5","6","6","6","6","5","1","6","5","5","6","6","7","5","7","6","6","2","6","3","6","5","6","7","6","6","6","6","7","6","6","3","7","7","6","6","7","790000811211104258","张","672","Male","[""好我"",""坏我"",""好他"",""坏他""]","[""强我"",""弱我"",""强他"",""弱他""]","","","","","","","","match","","","","","","","","","","key","f","16.66666071428595","768","428","f","true","match","img/triangle.png","弱我","弱我","prac_ALT2_ability","practice_ability","","","","","","","","",""
"null","<span style='color:GreenYellow; font-size: 70px;'>正确! </span>","null","html-keyboard-response","119","519474","0.0-8.0-1.0-1.1-0.1-1.53","6","6","7","6","5","4","5","4","5","5","5","1","0","1","1","1","2","1","1","5","4","5","4","4","4","4","4","5","4","6","6","7","7","4","7","7","6","8","4","6","4","7","5","6","6","6","6","5","1","6","5","5","6","6","7","5","7","6","6","2","6","3","6","5","6","7","6","6","6","6","7","6","6","3","7","7","6","6","7","790000811211104258","张","672","Male","[""好我"",""坏我"",""好他"",""坏他""]","[""强我"",""弱我"",""强他"",""弱他""]","","","","","","","","","","","","","","","","","","","","","","","","","","","","","","feedback_test","","","","","","","","",""
"854","","j","psychophysics","120","521328","0.0-8.0-1.0-1.1-0.1-0.54","6","6","7","6","5","4","5","4","5","5","5","1","0","1","1","1","2","1","1","5","4","5","4","4","4","4","4","5","4","6","6","7","7","4","7","7","6","8","4","6","4","7","5","6","6","6","6","5","1","6","5","5","6","6","7","5","7","6","6","2","6","3","6","5","6","7","6","6","6","6","7","6","6","3","7","7","6","6","7","790000811211104258","张","672","Male","[""好我"",""坏我"",""好他"",""坏他""]","[""强我"",""弱我"",""强他"",""弱他""]","","","","","","","","nonmatch","","","","","","","","","","key","j","16.667199999999934","768","428","j","true","nonmatch","img/trapezoid.png","弱我","强我","prac_ALT2_ability","practice_ability","","","","","","","","",""
"null","<span style='color:GreenYellow; font-size: 70px;'>正确! </span>","null","html-keyboard-response","121","521844","0.0-8.0-1.0-1.1-0.1-1.54","6","6","7","6","5","4","5","4","5","5","5","1","0","1","1","1","2","1","1","5","4","5","4","4","4","4","4","5","4","6","6","7","7","4","7","7","6","8","4","6","4","7","5","6","6","6","6","5","1","6","5","5","6","6","7","5","7","6","6","2","6","3","6","5","6","7","6","6","6","6","7","6","6","3","7","7","6","6","7","790000811211104258","张","672","Male","[""好我"",""坏我"",""好他"",""坏他""]","[""强我"",""弱我"",""强他"",""弱他""]","","","","","","","","","","","","","","","","","","","","","","","","","","","","","","feedback_test","","","","","","","","",""
"804","","j","psychophysics","122","523650","0.0-8.0-1.0-1.1-0.1-0.55","6","6","7","6","5","4","5","4","5","5","5","1","0","1","1","1","2","1","1","5","4","5","4","4","4","4","4","5","4","6","6","7","7","4","7","7","6","8","4","6","4","7","5","6","6","6","6","5","1","6","5","5","6","6","7","5","7","6","6","2","6","3","6","5","6","7","6","6","6","6","7","6","6","3","7","7","6","6","7","790000811211104258","张","672","Male","[""好我"",""坏我"",""好他"",""坏他""]","[""强我"",""弱我"",""强他"",""弱他""]","","","","","","","","nonmatch","","","","","","","","","","key","j","16.66669158878514","768","428","j","true","nonmatch","img/hexagon.png","强他","弱他","prac_ALT2_ability","practice_ability","","","","","","","","",""
"null","<span style='color:GreenYellow; font-size: 70px;'>正确! </span>","null","html-keyboard-response","123","524152","0.0-8.0-1.0-1.1-0.1-1.55","6","6","7","6","5","4","5","4","5","5","5","1","0","1","1","1","2","1","1","5","4","5","4","4","4","4","4","5","4","6","6","7","7","4","7","7","6","8","4","6","4","7","5","6","6","6","6","5","1","6","5","5","6","6","7","5","7","6","6","2","6","3","6","5","6","7","6","6","6","6","7","6","6","3","7","7","6","6","7","790000811211104258","张","672","Male","[""好我"",""坏我"",""好他"",""坏他""]","[""强我"",""弱我"",""强他"",""弱他""]","","","","","","","","","","","","","","","","","","","","","","","","","","","","","","feedback_test","","","","","","","","",""
"873","","f","psychophysics","124","526026","0.0-8.0-1.0-1.1-0.1-0.56","6","6","7","6","5","4","5","4","5","5","5","1","0","1","1","1","2","1","1","5","4","5","4","4","4","4","4","5","4","6","6","7","7","4","7","7","6","8","4","6","4","7","5","6","6","6","6","5","1","6","5","5","6","6","7","5","7","6","6","2","6","3","6","5","6","7","6","6","6","6","7","6","6","3","7","7","6","6","7","790000811211104258","张","672","Male","[""好我"",""坏我"",""好他"",""坏他""]","[""强我"",""弱我"",""强他"",""弱他""]","","","","","","","","match","","","","","","","","","","key","f","16.666794642856985","768","428","f","true","match","img/hexagon.png","弱他","弱他","prac_ALT2_ability","practice_ability","","","","","","","","",""
"null","<span style='color:GreenYellow; font-size: 70px;'>正确! </span>","null","html-keyboard-response","125","526527","0.0-8.0-1.0-1.1-0.1-1.56","6","6","7","6","5","4","5","4","5","5","5","1","0","1","1","1","2","1","1","5","4","5","4","4","4","4","4","5","4","6","6","7","7","4","7","7","6","8","4","6","4","7","5","6","6","6","6","5","1","6","5","5","6","6","7","5","7","6","6","2","6","3","6","5","6","7","6","6","6","6","7","6","6","3","7","7","6","6","7","790000811211104258","张","672","Male","[""好我"",""坏我"",""好他"",""坏他""]","[""强我"",""弱我"",""强他"",""弱他""]","","","","","","","","","","","","","","","","","","","","","","","","","","","","","","feedback_test","","","","","","","","",""
"829","","j","psychophysics","126","528357","0.0-8.0-1.0-1.1-0.1-0.57","6","6","7","6","5","4","5","4","5","5","5","1","0","1","1","1","2","1","1","5","4","5","4","4","4","4","4","5","4","6","6","7","7","4","7","7","6","8","4","6","4","7","5","6","6","6","6","5","1","6","5","5","6","6","7","5","7","6","6","2","6","3","6","5","6","7","6","6","6","6","7","6","6","3","7","7","6","6","7","790000811211104258","张","672","Male","[""好我"",""坏我"",""好他"",""坏他""]","[""强我"",""弱我"",""强他"",""弱他""]","","","","","","","","nonmatch","","","","","","","","","","key","j","16.66699082568745","768","428","j","true","nonmatch","img/trapezoid.png","弱他","强我","prac_ALT2_ability","practice_ability","","","","","","","","",""
"null","<span style='color:GreenYellow; font-size: 70px;'>正确! </span>","null","html-keyboard-response","127","528858","0.0-8.0-1.0-1.1-0.1-1.57","6","6","7","6","5","4","5","4","5","5","5","1","0","1","1","1","2","1","1","5","4","5","4","4","4","4","4","5","4","6","6","7","7","4","7","7","6","8","4","6","4","7","5","6","6","6","6","5","1","6","5","5","6","6","7","5","7","6","6","2","6","3","6","5","6","7","6","6","6","6","7","6","6","3","7","7","6","6","7","790000811211104258","张","672","Male","[""好我"",""坏我"",""好他"",""坏他""]","[""强我"",""弱我"",""强他"",""弱他""]","","","","","","","","","","","","","","","","","","","","","","","","","","","","","","feedback_test","","","","","","","","",""
"862","","j","psychophysics","128","530723","0.0-8.0-1.0-1.1-0.1-0.58","6","6","7","6","5","4","5","4","5","5","5","1","0","1","1","1","2","1","1","5","4","5","4","4","4","4","4","5","4","6","6","7","7","4","7","7","6","8","4","6","4","7","5","6","6","6","6","5","1","6","5","5","6","6","7","5","7","6","6","2","6","3","6","5","6","7","6","6","6","6","7","6","6","3","7","7","6","6","7","790000811211104258","张","672","Male","[""好我"",""坏我"",""好他"",""坏他""]","[""强我"",""弱我"",""强他"",""弱他""]","","","","","","","","nonmatch","","","","","","","","","","key","j","16.66907272727271","768","428","j","true","nonmatch","img/triangle.png","强他","弱我","prac_ALT2_ability","practice_ability","","","","","","","","",""
"null","<span style='color:GreenYellow; font-size: 70px;'>正确! </span>","null","html-keyboard-response","129","531225","0.0-8.0-1.0-1.1-0.1-1.58","6","6","7","6","5","4","5","4","5","5","5","1","0","1","1","1","2","1","1","5","4","5","4","4","4","4","4","5","4","6","6","7","7","4","7","7","6","8","4","6","4","7","5","6","6","6","6","5","1","6","5","5","6","6","7","5","7","6","6","2","6","3","6","5","6","7","6","6","6","6","7","6","6","3","7","7","6","6","7","790000811211104258","张","672","Male","[""好我"",""坏我"",""好他"",""坏他""]","[""强我"",""弱我"",""强他"",""弱他""]","","","","","","","","","","","","","","","","","","","","","","","","","","","","","","feedback_test","","","","","","","","",""
"902","","f","psychophysics","130","533128","0.0-8.0-1.0-1.1-0.1-0.59","6","6","7","6","5","4","5","4","5","5","5","1","0","1","1","1","2","1","1","5","4","5","4","4","4","4","4","5","4","6","6","7","7","4","7","7","6","8","4","6","4","7","5","6","6","6","6","5","1","6","5","5","6","6","7","5","7","6","6","2","6","3","6","5","6","7","6","6","6","6","7","6","6","3","7","7","6","6","7","790000811211104258","张","672","Male","[""好我"",""坏我"",""好他"",""坏他""]","[""强我"",""弱我"",""强他"",""弱他""]","","","","","","","","match","","","","","","","","","","key","f","16.666902654867133","768","428","j","false","nonmatch","img/hexagon.png","强我","弱他","prac_ALT2_ability","practice_ability","","","","","","","","",""
"null","<span style='color:red; font-size: 70px;'>错误! </span>","null","html-keyboard-response","131","533629","0.0-8.0-1.0-1.1-0.1-1.59","6","6","7","6","5","4","5","4","5","5","5","1","0","1","1","1","2","1","1","5","4","5","4","4","4","4","4","5","4","6","6","7","7","4","7","7","6","8","4","6","4","7","5","6","6","6","6","5","1","6","5","5","6","6","7","5","7","6","6","2","6","3","6","5","6","7","6","6","6","6","7","6","6","3","7","7","6","6","7","790000811211104258","张","672","Male","[""好我"",""坏我"",""好他"",""坏他""]","[""强我"",""弱我"",""强他"",""弱他""]","","","","","","","","","","","","","","","","","","","","","","","","","","","","","","feedback_test","","","","","","","","",""
"840","","j","psychophysics","132","535470","0.0-8.0-1.0-1.1-0.1-0.60","6","6","7","6","5","4","5","4","5","5","5","1","0","1","1","1","2","1","1","5","4","5","4","4","4","4","4","5","4","6","6","7","7","4","7","7","6","8","4","6","4","7","5","6","6","6","6","5","1","6","5","5","6","6","7","5","7","6","6","2","6","3","6","5","6","7","6","6","6","6","7","6","6","3","7","7","6","6","7","790000811211104258","张","672","Male","[""好我"",""坏我"",""好他"",""坏他""]","[""强我"",""弱我"",""强他"",""弱他""]","","","","","","","","nonmatch","","","","","","","","","","key","j","16.6665871559638","768","428","j","true","nonmatch","img/hexagon.png","弱我","弱他","prac_ALT2_ability","practice_ability","","","","","","","","",""
"null","<span style='color:GreenYellow; font-size: 70px;'>正确! </span>","null","html-keyboard-response","133","535971","0.0-8.0-1.0-1.1-0.1-1.60","6","6","7","6","5","4","5","4","5","5","5","1","0","1","1","1","2","1","1","5","4","5","4","4","4","4","4","5","4","6","6","7","7","4","7","7","6","8","4","6","4","7","5","6","6","6","6","5","1","6","5","5","6","6","7","5","7","6","6","2","6","3","6","5","6","7","6","6","6","6","7","6","6","3","7","7","6","6","7","790000811211104258","张","672","Male","[""好我"",""坏我"",""好他"",""坏他""]","[""强我"",""弱我"",""强他"",""弱他""]","","","","","","","","","","","","","","","","","","","","","","","","","","","","","","feedback_test","","","","","","","","",""
"996","","f","psychophysics","134","537969","0.0-8.0-1.0-1.1-0.1-0.61","6","6","7","6","5","4","5","4","5","5","5","1","0","1","1","1","2","1","1","5","4","5","4","4","4","4","4","5","4","6","6","7","7","4","7","7","6","8","4","6","4","7","5","6","6","6","6","5","1","6","5","5","6","6","7","5","7","6","6","2","6","3","6","5","6","7","6","6","6","6","7","6","6","3","7","7","6","6","7","790000811211104258","张","672","Male","[""好我"",""坏我"",""好他"",""坏他""]","[""强我"",""弱我"",""强他"",""弱他""]","","","","","","","","match","","","","","","","","","","key","f","16.66680672268986","768","428","j","false","nonmatch","img/ellipse.png","弱他","强他","prac_ALT2_ability","practice_ability","","","","","","","","",""
"null","<span style='color:red; font-size: 70px;'>错误! </span>","null","html-keyboard-response","135","538473","0.0-8.0-1.0-1.1-0.1-1.61","6","6","7","6","5","4","5","4","5","5","5","1","0","1","1","1","2","1","1","5","4","5","4","4","4","4","4","5","4","6","6","7","7","4","7","7","6","8","4","6","4","7","5","6","6","6","6","5","1","6","5","5","6","6","7","5","7","6","6","2","6","3","6","5","6","7","6","6","6","6","7","6","6","3","7","7","6","6","7","790000811211104258","张","672","Male","[""好我"",""坏我"",""好他"",""坏他""]","[""强我"",""弱我"",""强他"",""弱他""]","","","","","","","","","","","","","","","","","","","","","","","","","","","","","","feedback_test","","","","","","","","",""
"896","","j","psychophysics","136","540370","0.0-8.0-1.0-1.1-0.1-0.62","6","6","7","6","5","4","5","4","5","5","5","1","0","1","1","1","2","1","1","5","4","5","4","4","4","4","4","5","4","6","6","7","7","4","7","7","6","8","4","6","4","7","5","6","6","6","6","5","1","6","5","5","6","6","7","5","7","6","6","2","6","3","6","5","6","7","6","6","6","6","7","6","6","3","7","7","6","6","7","790000811211104258","张","672","Male","[""好我"",""坏我"",""好他"",""坏他""]","[""强我"",""弱我"",""强他"",""弱他""]","","","","","","","","nonmatch","","","","","","","","","","key","j","16.666758928570612","768","428","f","false","match","img/hexagon.png","弱他","弱他","prac_ALT2_ability","practice_ability","","","","","","","","",""
"null","<span style='color:red; font-size: 70px;'>错误! </span>","null","html-keyboard-response","137","540871","0.0-8.0-1.0-1.1-0.1-1.62","6","6","7","6","5","4","5","4","5","5","5","1","0","1","1","1","2","1","1","5","4","5","4","4","4","4","4","5","4","6","6","7","7","4","7","7","6","8","4","6","4","7","5","6","6","6","6","5","1","6","5","5","6","6","7","5","7","6","6","2","6","3","6","5","6","7","6","6","6","6","7","6","6","3","7","7","6","6","7","790000811211104258","张","672","Male","[""好我"",""坏我"",""好他"",""坏他""]","[""强我"",""弱我"",""强他"",""弱他""]","","","","","","","","","","","","","","","","","","","","","","","","","","","","","","feedback_test","","","","","","","","",""
"1086","","j","psychophysics","138","542958","0.0-8.0-1.0-1.1-0.1-0.63","6","6","7","6","5","4","5","4","5","5","5","1","0","1","1","1","2","1","1","5","4","5","4","4","4","4","4","5","4","6","6","7","7","4","7","7","6","8","4","6","4","7","5","6","6","6","6","5","1","6","5","5","6","6","7","5","7","6","6","2","6","3","6","5","6","7","6","6","6","6","7","6","6","3","7","7","6","6","7","790000811211104258","张","672","Male","[""好我"",""坏我"",""好他"",""坏他""]","[""强我"",""弱我"",""强他"",""弱他""]","","","","","","","","nonmatch","","","","","","","","","","key","j","16.66671999999974","768","428","f","false","match","img/ellipse.png","强他","强他","prac_ALT2_ability","practice_ability","","","","","","","","",""
