"rt","stimulus","response","trial_type","trial_index","time_elapsed","internal_node_id","swb_1","swb_2","swb_3","swb_4","swb_5","LOT_1","LOT_2","LOT_3","LOT_4","LOT_5","LOT_6","IPC_1","IPC_2","IPC_3","IPC_4","IPC_5","IPC_6","IPC_7","IPC_8","MorIden_1","MorIden_2","MorIden_3","MorIden_4","MorIden_5","MorIden_6","MorIden_7","MorIden_8","MorIden_9","MorIden_10","moralSeImag_1","moralSeImag_2","moralSeImag_3","moralSeImag_4","moralSeImag_5","moralSeImag_6","moralSeImag_7","moralSeImag_8","moralSeImag_9","sde_1","sde_2","sde_3","sde_4","sde_5","sde_6","sde_7","sde_8","sde_9","sde_10","trap2","sde_11","sde_12","sde_13","sde_14","sde_15","sde_16","sde_17","sde_18","sde_19","sde_20","IM_1","IM_2","IM_3","IM_4","IM_5","IM_6","IM_7","IM_8","IM_9","IM_10","IM_11","IM_12","IM_13","IM_14","IM_15","IM_16","IM_17","IM_18","IM_19","IM_20","subj_idx","friend_name","ParticipantID","Sex","Word","Word2","value","success","timeout","failed_images","failed_audio","failed_video","user_agent","responses","item_order","radio_event_ids","radio_event_times","key_event_times","mouse_event_times","straightlining","zigzagging","honeypot","task_id","screen_id","time_stamp","response_type","key_press","avg_frame_time","center_x","center_y","person","word","valence","domain","math","correct_response","correct","status","view_history","identity","duration","Image","condition","question_order","trap2_item"
"43202","
   <p><div style='color:white; font-size: 25px'>您好，欢迎参加本次实验。</div></p>
   <p><div style='color:white; font-size: 25px'>为充分保障您的权利，请确保您已经知晓并同意《参与实验同意书》以及《数据公开知情同意书》。</div></p>
   <p><div style='color:white; font-size: 25px'>如果您未见过上述内容，请咨询实验员。</div></p>
   <p style='color:white; font-size: 25px'>如果您选择继续实验，则表示您已经清楚两份知情同意书的内容并同意。</p>
   <p><div style = ""color: pink;font-size:30px;"">请确保您记得day0的实验编号，您将在本次实验输入该编号，若您忘记，请咨询实验员后作答。</div></p>
   <p><div style = ""color:lightblue;font-size:25px;"">请您尽可能认真地作答，我们将依据您在各问卷和按键任务中的作答质量发放报酬。</div></p>
   <p> <div style = ""color: green""><按空格键至下页></div> </p>
   "," ","html-keyboard-response","0","43207","0.0-0.0","6","6","6","4","3","4","3","4","4","4","5","2","1","1","1","0","1","1","1","5","5","5","5","5","4","4","4","4","4","4","5","5","6","6","5","6","7","7","6","6","4","6","5","3","6","1","6","5","1","4","5","5","3","5","3","6","3","5","5","1","4","3","6","1","7","1","4","1","7","7","2","1","1","6","5","1","2","1","2","751465309353021442","何","223","Male","[""坏我"",""好我"",""坏他"",""好他""]","[""弱我"",""强我"",""弱他"",""强他""]","","","","","","","","","","","","","","","","","","","","","","","","","","","","","","","","","","","","","","",""
"","","","call-function","1","43209","0.0-1.0-0.0","6","6","6","4","3","4","3","4","4","4","5","2","1","1","1","0","1","1","1","5","5","5","5","5","4","4","4","4","4","4","5","5","6","6","5","6","7","7","6","6","4","6","5","3","6","1","6","5","1","4","5","5","3","5","3","6","3","5","5","1","4","3","6","1","7","1","4","1","7","7","2","1","1","6","5","1","2","1","2","751465309353021442","何","223","Male","[""坏我"",""好我"",""坏他"",""好他""]","[""弱我"",""强我"",""弱他"",""强他""]","","","","","","","","","","","","","","","","","","","","","","","","","","","","","","","","","","","","","","",""
"24876","","[{""name"":""Sex"",""value"":""0""},{""name"":""friend_name"",""value"":""何""},{""name"":""ParticipantID"",""value"":""223""}]","survey-html-form","2","68085","0.0-1.0-1.0","6","6","6","4","3","4","3","4","4","4","5","2","1","1","1","0","1","1","1","5","5","5","5","5","4","4","4","4","4","4","5","5","6","6","5","6","7","7","6","6","4","6","5","3","6","1","6","5","1","4","5","5","3","5","3","6","3","5","5","1","4","3","6","1","7","1","4","1","7","7","2","1","1","6","5","1","2","1","2","751465309353021442","何","223","Male","[""坏我"",""好我"",""坏他"",""好他""]","[""弱我"",""强我"",""弱他"",""强他""]","","","","","","","","","","","","","","","","","","","","","","","","","","","","","","","","","","","","","","",""
"","","","preload","3","68457","0.0-2.0","6","6","6","4","3","4","3","4","4","4","5","2","1","1","1","0","1","1","1","5","5","5","5","5","4","4","4","4","4","4","5","5","6","6","5","6","7","7","6","6","4","6","5","3","6","1","6","5","1","4","5","5","3","5","3","6","3","5","5","1","4","3","6","1","7","1","4","1","7","7","2","1","1","6","5","1","2","1","2","751465309353021442","何","223","Male","[""坏我"",""好我"",""坏他"",""好他""]","[""弱我"",""强我"",""弱他"",""强他""]","","true","false","[]","[]","[]","","","","","","","","","","","","","","","","","","","","","","","","","","","","","","","","",""
"","","","fullscreen","4","72488","0.0-3.0","6","6","6","4","3","4","3","4","4","4","5","2","1","1","1","0","1","1","1","5","5","5","5","5","4","4","4","4","4","4","5","5","6","6","5","6","7","7","6","6","4","6","5","3","6","1","6","5","1","4","5","5","3","5","3","6","3","5","5","1","4","3","6","1","7","1","4","1","7","7","2","1","1","6","5","1","2","1","2","751465309353021442","何","223","Male","[""坏我"",""好我"",""坏他"",""好他""]","[""弱我"",""强我"",""弱他"",""强他""]","","true","","","","","{}","","","","","","","","","","","","","","","","","","","","","","","","","","","","","","","",""
"37124.799999952316","","{""Q01"":""6"",""Q02"":""6"",""Q03"":""6"",""Q04"":""4"",""Q05"":""3""}","survey-template","5","109616","0.0-4.0","6","6","6","4","3","4","3","4","4","4","5","2","1","1","1","0","1","1","1","5","5","5","5","5","4","4","4","4","4","4","5","5","6","6","5","6","7","7","6","6","4","6","5","3","6","1","6","5","1","4","5","5","3","5","3","6","3","5","5","1","4","3","6","1","7","1","4","1","7","7","2","1","1","6","5","1","2","1","2","751465309353021442","何","223","Male","[""坏我"",""好我"",""坏他"",""好他""]","[""弱我"",""强我"",""弱他"",""强他""]","","","","","","","","{""Q01"":""6"",""Q02"":""6"",""Q03"":""6"",""Q04"":""4"",""Q05"":""3""}","[0,1,2,3,4]","[""Q01"",""Q02"",""Q03"",""Q04"",""Q05""]","[9305.5,11352.899999976158,13857.799999952316,24928.600000023842,30531.399999976158]","[]","[9305.5,11352.899999976158,13857.799999952316,24928.600000023842,30531.399999976158,37123.5]","0.6","0.25","0","","","","","","","","","","","","","","","","","","","","","","",""
"43795.60000002384","","{""Q01"":""4"",""Q02"":""3"",""Q03"":""4"",""Q04"":""4"",""Q05"":""4"",""Q06"":""5""}","survey-template","6","153417","0.0-5.0","6","6","6","4","3","4","3","4","4","4","5","2","1","1","1","0","1","1","1","5","5","5","5","5","4","4","4","4","4","4","5","5","6","6","5","6","7","7","6","6","4","6","5","3","6","1","6","5","1","4","5","5","3","5","3","6","3","5","5","1","4","3","6","1","7","1","4","1","7","7","2","1","1","6","5","1","2","1","2","751465309353021442","何","223","Male","[""坏我"",""好我"",""坏他"",""好他""]","[""弱我"",""强我"",""弱他"",""强他""]","","","","","","","","{""Q01"":""4"",""Q02"":""3"",""Q03"":""4"",""Q04"":""4"",""Q05"":""4"",""Q06"":""5""}","[0,1,2,3,4,5]","[""Q01"",""Q02"",""Q03"",""Q04"",""Q05"",""Q06""]","[9502.899999976158,13898.5,16335.600000023842,23162,28067.299999952316,35889]","[]","[9502.899999976158,13898.5,16335.600000023842,23162,28067.299999952316,35889,43794.699999928474]","0.3333333333333333","0.4","0","","","","","","","","","","","","","","","","","","","","","","",""
"48095.09999990463","","{""Q01"":""2"",""Q02"":""1"",""Q03"":""1"",""Q04"":""1"",""Q05"":""0"",""Q06"":""1"",""Q07"":""1"",""Q08"":""1""}","survey-template","7","201517","0.0-6.0","6","6","6","4","3","4","3","4","4","4","5","2","1","1","1","0","1","1","1","5","5","5","5","5","4","4","4","4","4","4","5","5","6","6","5","6","7","7","6","6","4","6","5","3","6","1","6","5","1","4","5","5","3","5","3","6","3","5","5","1","4","3","6","1","7","1","4","1","7","7","2","1","1","6","5","1","2","1","2","751465309353021442","何","223","Male","[""坏我"",""好我"",""坏他"",""好他""]","[""弱我"",""强我"",""弱他"",""强他""]","","","","","","","","{""Q01"":""2"",""Q02"":""1"",""Q03"":""1"",""Q04"":""1"",""Q05"":""0"",""Q06"":""1"",""Q07"":""1"",""Q08"":""1""}","[0,1,2,3,4,5,6,7]","[""Q01"",""Q02"",""Q03"",""Q04"",""Q05"",""Q06"",""Q07"",""Q08""]","[11447.899999976158,16742.899999976158,21280.599999904633,25023,30160.399999976158,33618.39999997616,38718.199999928474,43323.59999990463]","[]","[11447.899999976158,16742.899999976158,21280.599999904633,25023,30160.399999976158,33618.39999997616,38718.199999928474,43323.59999990463,48093.799999952316]","0.75","0.42857142857142855","0","","","","","","","","","","","","","","","","","","","","","","",""
"54503","
    <p><div style='color:white;font-size:35px; line-height:20px;'>词汇评估任务</div></p><br>
    <p><div style='color:white;font-size:25px; line-height:20px;'>请再次回忆该亲密的朋友，你们至少2年前就认识了，并且最近2年经常见面。</div></p>
    <p><div style='color:white;font-size:25px; line-height:20px;'>在本实验中，您将会看到一些形容词。</div></p>
    <p><div style='color:yellow;font-size:25px; line-height:20px;'>您的任务是判断这些形容词是否符合对您自己或您的朋友的描述。</div></p><p style='font-size:35px'>符合按<span style=""color:lightgreen""> j 键</span>，不符合按<span style=""color:red""> f 键</span></p>","0","html-button-response","8","256024","0.0-7.0-0.0","6","6","6","4","3","4","3","4","4","4","5","2","1","1","1","0","1","1","1","5","5","5","5","5","4","4","4","4","4","4","5","5","6","6","5","6","7","7","6","6","4","6","5","3","6","1","6","5","1","4","5","5","3","5","3","6","3","5","5","1","4","3","6","1","7","1","4","1","7","7","2","1","1","6","5","1","2","1","2","751465309353021442","何","223","Male","[""坏我"",""好我"",""坏他"",""好他""]","[""弱我"",""强我"",""弱他"",""强他""]","","","","","","","","","","","","","","","","","SRET_EW","EW_instructions","Wed Jan 31 2024 15:51:29 GMT+0800 (中国标准时间)","","","","","","","","","","","","","","","","","","","",""
"1948","","f","psychophysics","9","258984","0.0-7.0-1.0-0.0","6","6","6","4","3","4","3","4","4","4","5","2","1","1","1","0","1","1","1","5","5","5","5","5","4","4","4","4","4","4","5","5","6","6","5","6","7","7","6","6","4","6","5","3","6","1","6","5","1","4","5","5","3","5","3","6","3","5","5","1","4","3","6","1","7","1","4","1","7","7","2","1","1","6","5","1","2","1","2","751465309353021442","何","223","Male","[""坏我"",""好我"",""坏他"",""好他""]","[""弱我"",""强我"",""弱他"",""强他""]","","","","","","","","no","","","","","","","","","SRET_EW","EW_practice","","key","f","16.665536723163775","853.3333333333334","476","自己","刻板","Negative","ability","","","","","","","","","","",""
"1421","","j","psychophysics","10","261408","0.0-7.0-1.0-0.1","6","6","6","4","3","4","3","4","4","4","5","2","1","1","1","0","1","1","1","5","5","5","5","5","4","4","4","4","4","4","5","5","6","6","5","6","7","7","6","6","4","6","5","3","6","1","6","5","1","4","5","5","3","5","3","6","3","5","5","1","4","3","6","1","7","1","4","1","7","7","2","1","1","6","5","1","2","1","2","751465309353021442","何","223","Male","[""坏我"",""好我"",""坏他"",""好他""]","[""弱我"",""强我"",""弱他"",""强他""]","","","","","","","","yes","","","","","","","","","SRET_EW","EW_practice","","key","j","16.66551724137931","853.3333333333334","476","朋友","忠实","Positive","morality","","","","","","","","","","",""
"1609","","f","psychophysics","11","264024","0.0-7.0-1.0-0.2","6","6","6","4","3","4","3","4","4","4","5","2","1","1","1","0","1","1","1","5","5","5","5","5","4","4","4","4","4","4","5","5","6","6","5","6","7","7","6","6","4","6","5","3","6","1","6","5","1","4","5","5","3","5","3","6","3","5","5","1","4","3","6","1","7","1","4","1","7","7","2","1","1","6","5","1","2","1","2","751465309353021442","何","223","Male","[""坏我"",""好我"",""坏他"",""好他""]","[""弱我"",""强我"",""弱他"",""强他""]","","","","","","","","no","","","","","","","","","SRET_EW","EW_practice","","key","f","16.651282051282276","853.3333333333334","476","朋友","徇私","Negative","morality","","","","","","","","","","",""
"1355","","j","psychophysics","12","266384","0.0-7.0-1.0-0.3","6","6","6","4","3","4","3","4","4","4","5","2","1","1","1","0","1","1","1","5","5","5","5","5","4","4","4","4","4","4","5","5","6","6","5","6","7","7","6","6","4","6","5","3","6","1","6","5","1","4","5","5","3","5","3","6","3","5","5","1","4","3","6","1","7","1","4","1","7","7","2","1","1","6","5","1","2","1","2","751465309353021442","何","223","Male","[""坏我"",""好我"",""坏他"",""好他""]","[""弱我"",""强我"",""弱他"",""强他""]","","","","","","","","yes","","","","","","","","","SRET_EW","EW_practice","","key","j","16.65785714285739","853.3333333333334","476","自己","严谨","Positive","ability","","","","","","","","","","",""
"20910","
    <p><div style='color:white;font-size:35px; line-height:20px;'>请您再次阅读实验要求</div></p><br>
    <p><div style='color:white;font-size:25px; line-height:20px;'>请回忆某一个亲密的朋友，你们至少2年前就认识了，并且最近2年经常见面。</div></p>
    <p><div style='color:white;font-size:25px; line-height:20px;'>在本实验中，您将会看到一些形容词。</div></p>
    <p><div style='color:yellow;font-size:25px; line-height:20px;'>您的任务是判断这些形容词是否符合对您自己或您的朋友的描述。</div></p>
    <p><div class='footer' style='font-size:25px; line-height:20px;'>如果对本实验还有不清楚之处，请立即向实验员咨询。</p><p style='font-size:25px; line-height:20px;'>如果您明白了规则：</p><p style='font-size:22px; line-height:20px;'>请按 继续 进入正式实验</p>
    </div>
    <p style='font-size:35px'>符合按<span style=""color:lightgreen""> j 键</span>，不符合按<span style=""color:red""> f 键</span></p>","0","html-button-response","13","287294","0.0-7.0-2.0","6","6","6","4","3","4","3","4","4","4","5","2","1","1","1","0","1","1","1","5","5","5","5","5","4","4","4","4","4","4","5","5","6","6","5","6","7","7","6","6","4","6","5","3","6","1","6","5","1","4","5","5","3","5","3","6","3","5","5","1","4","3","6","1","7","1","4","1","7","7","2","1","1","6","5","1","2","1","2","751465309353021442","何","223","Male","[""坏我"",""好我"",""坏他"",""好他""]","[""弱我"",""强我"",""弱他"",""强他""]","","","","","","","","","","","","","","","","","SRET_EW","prac_instructions","Wed Jan 31 2024 15:51:29 GMT+0800 (中国标准时间)","","","","","","","","","","","","","","","","","","","",""
"1001","","f","psychophysics","14","289303","0.0-7.0-3.0-0.0","6","6","6","4","3","4","3","4","4","4","5","2","1","1","1","0","1","1","1","5","5","5","5","5","4","4","4","4","4","4","5","5","6","6","5","6","7","7","6","6","4","6","5","3","6","1","6","5","1","4","5","5","3","5","3","6","3","5","5","1","4","3","6","1","7","1","4","1","7","7","2","1","1","6","5","1","2","1","2","751465309353021442","何","223","Male","[""坏我"",""好我"",""坏他"",""好他""]","[""弱我"",""强我"",""弱他"",""强他""]","","","","","","","","no","","","","","","","","","SRET","EW_formal","","key","f","16.6654545454547","853.3333333333334","476","自己","说谎","Negative","morality","","","","","","","","","","",""
"1179","","f","psychophysics","15","291484","0.0-7.0-3.0-0.1","6","6","6","4","3","4","3","4","4","4","5","2","1","1","1","0","1","1","1","5","5","5","5","5","4","4","4","4","4","4","5","5","6","6","5","6","7","7","6","6","4","6","5","3","6","1","6","5","1","4","5","5","3","5","3","6","3","5","5","1","4","3","6","1","7","1","4","1","7","7","2","1","1","6","5","1","2","1","2","751465309353021442","何","223","Male","[""坏我"",""好我"",""坏他"",""好他""]","[""弱我"",""强我"",""弱他"",""强他""]","","","","","","","","no","","","","","","","","","SRET","EW_formal","","key","f","16.6658914728684","853.3333333333334","476","朋友","迷糊","Negative","ability","","","","","","","","","","",""
"1219","","j","psychophysics","16","293706","0.0-7.0-3.0-0.2","6","6","6","4","3","4","3","4","4","4","5","2","1","1","1","0","1","1","1","5","5","5","5","5","4","4","4","4","4","4","5","5","6","6","5","6","7","7","6","6","4","6","5","3","6","1","6","5","1","4","5","5","3","5","3","6","3","5","5","1","4","3","6","1","7","1","4","1","7","7","2","1","1","6","5","1","2","1","2","751465309353021442","何","223","Male","[""坏我"",""好我"",""坏他"",""好他""]","[""弱我"",""强我"",""弱他"",""强他""]","","","","","","","","yes","","","","","","","","","SRET","EW_formal","","key","j","16.665413533834588","853.3333333333334","476","自己","坚贞","Positive","morality","","","","","","","","","","",""
"1017","","j","psychophysics","17","295726","0.0-7.0-3.0-0.3","6","6","6","4","3","4","3","4","4","4","5","2","1","1","1","0","1","1","1","5","5","5","5","5","4","4","4","4","4","4","5","5","6","6","5","6","7","7","6","6","4","6","5","3","6","1","6","5","1","4","5","5","3","5","3","6","3","5","5","1","4","3","6","1","7","1","4","1","7","7","2","1","1","6","5","1","2","1","2","751465309353021442","何","223","Male","[""坏我"",""好我"",""坏他"",""好他""]","[""弱我"",""强我"",""弱他"",""强他""]","","","","","","","","yes","","","","","","","","","SRET","EW_formal","","key","j","16.666666666666668","853.3333333333334","476","朋友","务实","Positive","ability","","","","","","","","","","",""
"1185","","f","psychophysics","18","297920","0.0-7.0-3.0-0.4","6","6","6","4","3","4","3","4","4","4","5","2","1","1","1","0","1","1","1","5","5","5","5","5","4","4","4","4","4","4","5","5","6","6","5","6","7","7","6","6","4","6","5","3","6","1","6","5","1","4","5","5","3","5","3","6","3","5","5","1","4","3","6","1","7","1","4","1","7","7","2","1","1","6","5","1","2","1","2","751465309353021442","何","223","Male","[""坏我"",""好我"",""坏他"",""好他""]","[""弱我"",""强我"",""弱他"",""强他""]","","","","","","","","no","","","","","","","","","SRET","EW_formal","","key","f","16.628244274809514","853.3333333333334","476","朋友","新手","Negative","ability","","","","","","","","","","",""
"1179","","f","psychophysics","19","300117","0.0-7.0-3.0-0.5","6","6","6","4","3","4","3","4","4","4","5","2","1","1","1","0","1","1","1","5","5","5","5","5","4","4","4","4","4","4","5","5","6","6","5","6","7","7","6","6","4","6","5","3","6","1","6","5","1","4","5","5","3","5","3","6","3","5","5","1","4","3","6","1","7","1","4","1","7","7","2","1","1","6","5","1","2","1","2","751465309353021442","何","223","Male","[""坏我"",""好我"",""坏他"",""好他""]","[""弱我"",""强我"",""弱他"",""强他""]","","","","","","","","no","","","","","","","","","SRET","EW_formal","","key","f","16.666923076923165","853.3333333333334","476","朋友","盲目","Negative","ability","","","","","","","","","","",""
"1074","","f","psychophysics","20","302192","0.0-7.0-3.0-0.6","6","6","6","4","3","4","3","4","4","4","5","2","1","1","1","0","1","1","1","5","5","5","5","5","4","4","4","4","4","4","5","5","6","6","5","6","7","7","6","6","4","6","5","3","6","1","6","5","1","4","5","5","3","5","3","6","3","5","5","1","4","3","6","1","7","1","4","1","7","7","2","1","1","6","5","1","2","1","2","751465309353021442","何","223","Male","[""坏我"",""好我"",""坏他"",""好他""]","[""弱我"",""强我"",""弱他"",""强他""]","","","","","","","","no","","","","","","","","","SRET","EW_formal","","key","f","16.66693548387106","853.3333333333334","476","朋友","贪污","Negative","morality","","","","","","","","","","",""
"1148","","j","psychophysics","21","304348","0.0-7.0-3.0-0.7","6","6","6","4","3","4","3","4","4","4","5","2","1","1","1","0","1","1","1","5","5","5","5","5","4","4","4","4","4","4","5","5","6","6","5","6","7","7","6","6","4","6","5","3","6","1","6","5","1","4","5","5","3","5","3","6","3","5","5","1","4","3","6","1","7","1","4","1","7","7","2","1","1","6","5","1","2","1","2","751465309353021442","何","223","Male","[""坏我"",""好我"",""坏他"",""好他""]","[""弱我"",""强我"",""弱他"",""强他""]","","","","","","","","yes","","","","","","","","","SRET","EW_formal","","key","j","16.66640624999991","853.3333333333334","476","朋友","思辨","Positive","ability","","","","","","","","","","",""
"993","","f","psychophysics","22","306350","0.0-7.0-3.0-0.8","6","6","6","4","3","4","3","4","4","4","5","2","1","1","1","0","1","1","1","5","5","5","5","5","4","4","4","4","4","4","5","5","6","6","5","6","7","7","6","6","4","6","5","3","6","1","6","5","1","4","5","5","3","5","3","6","3","5","5","1","4","3","6","1","7","1","4","1","7","7","2","1","1","6","5","1","2","1","2","751465309353021442","何","223","Male","[""坏我"",""好我"",""坏他"",""好他""]","[""弱我"",""强我"",""弱他"",""强他""]","","","","","","","","no","","","","","","","","","SRET","EW_formal","","key","f","16.665546218487492","853.3333333333334","476","自己","畏难","Negative","ability","","","","","","","","","","",""
"1138","","j","psychophysics","23","308489","0.0-7.0-3.0-0.9","6","6","6","4","3","4","3","4","4","4","5","2","1","1","1","0","1","1","1","5","5","5","5","5","4","4","4","4","4","4","5","5","6","6","5","6","7","7","6","6","4","6","5","3","6","1","6","5","1","4","5","5","3","5","3","6","3","5","5","1","4","3","6","1","7","1","4","1","7","7","2","1","1","6","5","1","2","1","2","751465309353021442","何","223","Male","[""坏我"",""好我"",""坏他"",""好他""]","[""弱我"",""强我"",""弱他"",""强他""]","","","","","","","","yes","","","","","","","","","SRET","EW_formal","","key","j","16.66640624999991","853.3333333333334","476","自己","正气","Positive","morality","","","","","","","","","","",""
"1181","","j","psychophysics","24","310682","0.0-7.0-3.0-0.10","6","6","6","4","3","4","3","4","4","4","5","2","1","1","1","0","1","1","1","5","5","5","5","5","4","4","4","4","4","4","5","5","6","6","5","6","7","7","6","6","4","6","5","3","6","1","6","5","1","4","5","5","3","5","3","6","3","5","5","1","4","3","6","1","7","1","4","1","7","7","2","1","1","6","5","1","2","1","2","751465309353021442","何","223","Male","[""坏我"",""好我"",""坏他"",""好他""]","[""弱我"",""强我"",""弱他"",""强他""]","","","","","","","","yes","","","","","","","","","SRET","EW_formal","","key","j","16.667692307692217","853.3333333333334","476","朋友","独立","Positive","ability","","","","","","","","","","",""
"1086","","f","psychophysics","25","312772","0.0-7.0-3.0-0.11","6","6","6","4","3","4","3","4","4","4","5","2","1","1","1","0","1","1","1","5","5","5","5","5","4","4","4","4","4","4","5","5","6","6","5","6","7","7","6","6","4","6","5","3","6","1","6","5","1","4","5","5","3","5","3","6","3","5","5","1","4","3","6","1","7","1","4","1","7","7","2","1","1","6","5","1","2","1","2","751465309353021442","何","223","Male","[""坏我"",""好我"",""坏他"",""好他""]","[""弱我"",""强我"",""弱他"",""强他""]","","","","","","","","no","","","","","","","","","SRET","EW_formal","","key","f","16.666399999999907","853.3333333333334","476","朋友","怠惰","Negative","ability","","","","","","","","","","",""
"1154","","f","psychophysics","26","314936","0.0-7.0-3.0-0.12","6","6","6","4","3","4","3","4","4","4","5","2","1","1","1","0","1","1","1","5","5","5","5","5","4","4","4","4","4","4","5","5","6","6","5","6","7","7","6","6","4","6","5","3","6","1","6","5","1","4","5","5","3","5","3","6","3","5","5","1","4","3","6","1","7","1","4","1","7","7","2","1","1","6","5","1","2","1","2","751465309353021442","何","223","Male","[""坏我"",""好我"",""坏他"",""好他""]","[""弱我"",""强我"",""弱他"",""强他""]","","","","","","","","no","","","","","","","","","SRET","EW_formal","","key","f","16.654263565891654","853.3333333333334","476","自己","贪腐","Negative","morality","","","","","","","","","","",""
"1086","","j","psychophysics","27","317037","0.0-7.0-3.0-0.13","6","6","6","4","3","4","3","4","4","4","5","2","1","1","1","0","1","1","1","5","5","5","5","5","4","4","4","4","4","4","5","5","6","6","5","6","7","7","6","6","4","6","5","3","6","1","6","5","1","4","5","5","3","5","3","6","3","5","5","1","4","3","6","1","7","1","4","1","7","7","2","1","1","6","5","1","2","1","2","751465309353021442","何","223","Male","[""坏我"",""好我"",""坏他"",""好他""]","[""弱我"",""强我"",""弱他"",""强他""]","","","","","","","","yes","","","","","","","","","SRET","EW_formal","","key","j","16.666399999999907","853.3333333333334","476","自己","守法","Positive","morality","","","","","","","","","","",""
"1110","","f","psychophysics","28","319161","0.0-7.0-3.0-0.14","6","6","6","4","3","4","3","4","4","4","5","2","1","1","1","0","1","1","1","5","5","5","5","5","4","4","4","4","4","4","5","5","6","6","5","6","7","7","6","6","4","6","5","3","6","1","6","5","1","4","5","5","3","5","3","6","3","5","5","1","4","3","6","1","7","1","4","1","7","7","2","1","1","6","5","1","2","1","2","751465309353021442","何","223","Male","[""坏我"",""好我"",""坏他"",""好他""]","[""弱我"",""强我"",""弱他"",""强他""]","","","","","","","","no","","","","","","","","","SRET","EW_formal","","key","f","16.665079365079734","853.3333333333334","476","朋友","恶劣","Negative","morality","","","","","","","","","","",""
"1253","","j","psychophysics","29","321419","0.0-7.0-3.0-0.15","6","6","6","4","3","4","3","4","4","4","5","2","1","1","1","0","1","1","1","5","5","5","5","5","4","4","4","4","4","4","5","5","6","6","5","6","7","7","6","6","4","6","5","3","6","1","6","5","1","4","5","5","3","5","3","6","3","5","5","1","4","3","6","1","7","1","4","1","7","7","2","1","1","6","5","1","2","1","2","751465309353021442","何","223","Male","[""坏我"",""好我"",""坏他"",""好他""]","[""弱我"",""强我"",""弱他"",""强他""]","","","","","","","","yes","","","","","","","","","SRET","EW_formal","","key","j","16.6659259259261","853.3333333333334","476","自己","利落","Positive","ability","","","","","","","","","","",""
"1288","","j","psychophysics","30","323723","0.0-7.0-3.0-0.16","6","6","6","4","3","4","3","4","4","4","5","2","1","1","1","0","1","1","1","5","5","5","5","5","4","4","4","4","4","4","5","5","6","6","5","6","7","7","6","6","4","6","5","3","6","1","6","5","1","4","5","5","3","5","3","6","3","5","5","1","4","3","6","1","7","1","4","1","7","7","2","1","1","6","5","1","2","1","2","751465309353021442","何","223","Male","[""坏我"",""好我"",""坏他"",""好他""]","[""弱我"",""强我"",""弱他"",""强他""]","","","","","","","","yes","","","","","","","","","SRET","EW_formal","","key","j","16.666423357664147","853.3333333333334","476","自己","热心","Positive","morality","","","","","","","","","","",""
"1020","","j","psychophysics","31","325757","0.0-7.0-3.0-0.17","6","6","6","4","3","4","3","4","4","4","5","2","1","1","1","0","1","1","1","5","5","5","5","5","4","4","4","4","4","4","5","5","6","6","5","6","7","7","6","6","4","6","5","3","6","1","6","5","1","4","5","5","3","5","3","6","3","5","5","1","4","3","6","1","7","1","4","1","7","7","2","1","1","6","5","1","2","1","2","751465309353021442","何","223","Male","[""坏我"",""好我"",""坏他"",""好他""]","[""弱我"",""强我"",""弱他"",""强他""]","","","","","","","","yes","","","","","","","","","SRET","EW_formal","","key","j","16.666115702479146","853.3333333333334","476","自己","专注","Positive","ability","","","","","","","","","","",""
"1378","","j","psychophysics","32","328145","0.0-7.0-3.0-0.18","6","6","6","4","3","4","3","4","4","4","5","2","1","1","1","0","1","1","1","5","5","5","5","5","4","4","4","4","4","4","5","5","6","6","5","6","7","7","6","6","4","6","5","3","6","1","6","5","1","4","5","5","3","5","3","6","3","5","5","1","4","3","6","1","7","1","4","1","7","7","2","1","1","6","5","1","2","1","2","751465309353021442","何","223","Male","[""坏我"",""好我"",""坏他"",""好他""]","[""弱我"",""强我"",""弱他"",""强他""]","","","","","","","","yes","","","","","","","","","SRET","EW_formal","","key","j","16.649999999999917","853.3333333333334","476","自己","努力","Positive","ability","","","","","","","","","","",""
"1424","","j","psychophysics","33","330575","0.0-7.0-3.0-0.19","6","6","6","4","3","4","3","4","4","4","5","2","1","1","1","0","1","1","1","5","5","5","5","5","4","4","4","4","4","4","5","5","6","6","5","6","7","7","6","6","4","6","5","3","6","1","6","5","1","4","5","5","3","5","3","6","3","5","5","1","4","3","6","1","7","1","4","1","7","7","2","1","1","6","5","1","2","1","2","751465309353021442","何","223","Male","[""坏我"",""好我"",""坏他"",""好他""]","[""弱我"",""强我"",""弱他"",""强他""]","","","","","","","","yes","","","","","","","","","SRET","EW_formal","","key","j","16.66551724137931","853.3333333333334","476","自己","厚道","Positive","morality","","","","","","","","","","",""
"1522","","f","psychophysics","34","333103","0.0-7.0-3.0-0.20","6","6","6","4","3","4","3","4","4","4","5","2","1","1","1","0","1","1","1","5","5","5","5","5","4","4","4","4","4","4","5","5","6","6","5","6","7","7","6","6","4","6","5","3","6","1","6","5","1","4","5","5","3","5","3","6","3","5","5","1","4","3","6","1","7","1","4","1","7","7","2","1","1","6","5","1","2","1","2","751465309353021442","何","223","Male","[""坏我"",""好我"",""坏他"",""好他""]","[""弱我"",""强我"",""弱他"",""强他""]","","","","","","","","no","","","","","","","","","SRET","EW_formal","","key","f","16.665562913907284","853.3333333333334","476","朋友","弱智","Negative","ability","","","","","","","","","","",""
"1505","","f","psychophysics","35","335622","0.0-7.0-3.0-0.21","6","6","6","4","3","4","3","4","4","4","5","2","1","1","1","0","1","1","1","5","5","5","5","5","4","4","4","4","4","4","5","5","6","6","5","6","7","7","6","6","4","6","5","3","6","1","6","5","1","4","5","5","3","5","3","6","3","5","5","1","4","3","6","1","7","1","4","1","7","7","2","1","1","6","5","1","2","1","2","751465309353021442","何","223","Male","[""坏我"",""好我"",""坏他"",""好他""]","[""弱我"",""强我"",""弱他"",""强他""]","","","","","","","","no","","","","","","","","","SRET","EW_formal","","key","f","16.666666666666668","853.3333333333334","476","自己","淫乱","Negative","morality","","","","","","","","","","",""
"null","","null","psychophysics","36","338635","0.0-7.0-3.0-0.22","6","6","6","4","3","4","3","4","4","4","5","2","1","1","1","0","1","1","1","5","5","5","5","5","4","4","4","4","4","4","5","5","6","6","5","6","7","7","6","6","4","6","5","3","6","1","6","5","1","4","5","5","3","5","3","6","3","5","5","1","4","3","6","1","7","1","4","1","7","7","2","1","1","6","5","1","2","1","2","751465309353021442","何","223","Male","[""坏我"",""好我"",""坏他"",""好他""]","[""弱我"",""强我"",""弱他"",""强他""]","","","","","","","","","","","","","","","","","SRET","EW_formal","","key","null","16.666480446927636","853.3333333333334","476","自己","低劣","Negative","morality","","","","","","","","","","",""
"1107","","f","psychophysics","37","340743","0.0-7.0-3.0-0.23","6","6","6","4","3","4","3","4","4","4","5","2","1","1","1","0","1","1","1","5","5","5","5","5","4","4","4","4","4","4","5","5","6","6","5","6","7","7","6","6","4","6","5","3","6","1","6","5","1","4","5","5","3","5","3","6","3","5","5","1","4","3","6","1","7","1","4","1","7","7","2","1","1","6","5","1","2","1","2","751465309353021442","何","223","Male","[""坏我"",""好我"",""坏他"",""好他""]","[""弱我"",""强我"",""弱他"",""强他""]","","","","","","","","no","","","","","","","","","SRET","EW_formal","","key","f","16.665079365079272","853.3333333333334","476","自己","废物","Negative","ability","","","","","","","","","","",""
"1309","","f","psychophysics","38","343060","0.0-7.0-3.0-0.24","6","6","6","4","3","4","3","4","4","4","5","2","1","1","1","0","1","1","1","5","5","5","5","5","4","4","4","4","4","4","5","5","6","6","5","6","7","7","6","6","4","6","5","3","6","1","6","5","1","4","5","5","3","5","3","6","3","5","5","1","4","3","6","1","7","1","4","1","7","7","2","1","1","6","5","1","2","1","2","751465309353021442","何","223","Male","[""坏我"",""好我"",""坏他"",""好他""]","[""弱我"",""强我"",""弱他"",""强他""]","","","","","","","","no","","","","","","","","","SRET","EW_formal","","key","f","16.665942028985253","853.3333333333334","476","自己","邪恶","Negative","morality","","","","","","","","","","",""
"1160","","f","psychophysics","39","345223","0.0-7.0-3.0-0.25","6","6","6","4","3","4","3","4","4","4","5","2","1","1","1","0","1","1","1","5","5","5","5","5","4","4","4","4","4","4","5","5","6","6","5","6","7","7","6","6","4","6","5","3","6","1","6","5","1","4","5","5","3","5","3","6","3","5","5","1","4","3","6","1","7","1","4","1","7","7","2","1","1","6","5","1","2","1","2","751465309353021442","何","223","Male","[""坏我"",""好我"",""坏他"",""好他""]","[""弱我"",""强我"",""弱他"",""强他""]","","","","","","","","no","","","","","","","","","SRET","EW_formal","","key","f","16.66511627906968","853.3333333333334","476","自己","偏私","Negative","morality","","","","","","","","","","",""
"1480","","f","psychophysics","40","347731","0.0-7.0-3.0-0.26","6","6","6","4","3","4","3","4","4","4","5","2","1","1","1","0","1","1","1","5","5","5","5","5","4","4","4","4","4","4","5","5","6","6","5","6","7","7","6","6","4","6","5","3","6","1","6","5","1","4","5","5","3","5","3","6","3","5","5","1","4","3","6","1","7","1","4","1","7","7","2","1","1","6","5","1","2","1","2","751465309353021442","何","223","Male","[""坏我"",""好我"",""坏他"",""好他""]","[""弱我"",""强我"",""弱他"",""强他""]","","","","","","","","no","","","","","","","","","SRET","EW_formal","","key","f","16.665771812080614","853.3333333333334","476","朋友","无敌","Positive","ability","","","","","","","","","","",""
"1308","","j","psychophysics","41","350042","0.0-7.0-3.0-0.27","6","6","6","4","3","4","3","4","4","4","5","2","1","1","1","0","1","1","1","5","5","5","5","5","4","4","4","4","4","4","5","5","6","6","5","6","7","7","6","6","4","6","5","3","6","1","6","5","1","4","5","5","3","5","3","6","3","5","5","1","4","3","6","1","7","1","4","1","7","7","2","1","1","6","5","1","2","1","2","751465309353021442","何","223","Male","[""坏我"",""好我"",""坏他"",""好他""]","[""弱我"",""强我"",""弱他"",""强他""]","","","","","","","","yes","","","","","","","","","SRET","EW_formal","","key","j","16.665942028985675","853.3333333333334","476","自己","独断","Negative","ability","","","","","","","","","","",""
"1212","","j","psychophysics","42","352258","0.0-7.0-3.0-0.28","6","6","6","4","3","4","3","4","4","4","5","2","1","1","1","0","1","1","1","5","5","5","5","5","4","4","4","4","4","4","5","5","6","6","5","6","7","7","6","6","4","6","5","3","6","1","6","5","1","4","5","5","3","5","3","6","3","5","5","1","4","3","6","1","7","1","4","1","7","7","2","1","1","6","5","1","2","1","2","751465309353021442","何","223","Male","[""坏我"",""好我"",""坏他"",""好他""]","[""弱我"",""强我"",""弱他"",""强他""]","","","","","","","","yes","","","","","","","","","SRET","EW_formal","","key","j","16.665909090909267","853.3333333333334","476","朋友","变通","Positive","ability","","","","","","","","","","",""
"1110","","f","psychophysics","43","354378","0.0-7.0-3.0-0.29","6","6","6","4","3","4","3","4","4","4","5","2","1","1","1","0","1","1","1","5","5","5","5","5","4","4","4","4","4","4","5","5","6","6","5","6","7","7","6","6","4","6","5","3","6","1","6","5","1","4","5","5","3","5","3","6","3","5","5","1","4","3","6","1","7","1","4","1","7","7","2","1","1","6","5","1","2","1","2","751465309353021442","何","223","Male","[""坏我"",""好我"",""坏他"",""好他""]","[""弱我"",""强我"",""弱他"",""强他""]","","","","","","","","no","","","","","","","","","SRET","EW_formal","","key","f","16.665079365079272","853.3333333333334","476","朋友","虚伪","Negative","morality","","","","","","","","","","",""
"1277","","j","psychophysics","44","356661","0.0-7.0-3.0-0.30","6","6","6","4","3","4","3","4","4","4","5","2","1","1","1","0","1","1","1","5","5","5","5","5","4","4","4","4","4","4","5","5","6","6","5","6","7","7","6","6","4","6","5","3","6","1","6","5","1","4","5","5","3","5","3","6","3","5","5","1","4","3","6","1","7","1","4","1","7","7","2","1","1","6","5","1","2","1","2","751465309353021442","何","223","Male","[""坏我"",""好我"",""坏他"",""好他""]","[""弱我"",""强我"",""弱他"",""强他""]","","","","","","","","yes","","","","","","","","","SRET","EW_formal","","key","j","16.665441176470587","853.3333333333334","476","自己","忠勇","Positive","morality","","","","","","","","","","",""
"1382","","j","psychophysics","45","359050","0.0-7.0-3.0-0.31","6","6","6","4","3","4","3","4","4","4","5","2","1","1","1","0","1","1","1","5","5","5","5","5","4","4","4","4","4","4","5","5","6","6","5","6","7","7","6","6","4","6","5","3","6","1","6","5","1","4","5","5","3","5","3","6","3","5","5","1","4","3","6","1","7","1","4","1","7","7","2","1","1","6","5","1","2","1","2","751465309353021442","何","223","Male","[""坏我"",""好我"",""坏他"",""好他""]","[""弱我"",""强我"",""弱他"",""强他""]","","","","","","","","yes","","","","","","","","","SRET","EW_formal","","key","j","16.66619718309843","853.3333333333334","476","朋友","文明","Positive","morality","","","","","","","","","","",""
"1416","","f","psychophysics","46","361497","0.0-7.0-3.0-0.32","6","6","6","4","3","4","3","4","4","4","5","2","1","1","1","0","1","1","1","5","5","5","5","5","4","4","4","4","4","4","5","5","6","6","5","6","7","7","6","6","4","6","5","3","6","1","6","5","1","4","5","5","3","5","3","6","3","5","5","1","4","3","6","1","7","1","4","1","7","7","2","1","1","6","5","1","2","1","2","751465309353021442","何","223","Male","[""坏我"",""好我"",""坏他"",""好他""]","[""弱我"",""强我"",""弱他"",""强他""]","","","","","","","","no","","","","","","","","","SRET","EW_formal","","key","f","16.665068493150525","853.3333333333334","476","朋友","无耻","Negative","morality","","","","","","","","","","",""
"1335","","j","psychophysics","47","363833","0.0-7.0-3.0-0.33","6","6","6","4","3","4","3","4","4","4","5","2","1","1","1","0","1","1","1","5","5","5","5","5","4","4","4","4","4","4","5","5","6","6","5","6","7","7","6","6","4","6","5","3","6","1","6","5","1","4","5","5","3","5","3","6","3","5","5","1","4","3","6","1","7","1","4","1","7","7","2","1","1","6","5","1","2","1","2","751465309353021442","何","223","Male","[""坏我"",""好我"",""坏他"",""好他""]","[""弱我"",""强我"",""弱他"",""强他""]","","","","","","","","yes","","","","","","","","","SRET","EW_formal","","key","j","16.665467625899282","853.3333333333334","476","自己","沉着","Positive","ability","","","","","","","","","","",""
"1304","","j","psychophysics","48","366137","0.0-7.0-3.0-0.34","6","6","6","4","3","4","3","4","4","4","5","2","1","1","1","0","1","1","1","5","5","5","5","5","4","4","4","4","4","4","5","5","6","6","5","6","7","7","6","6","4","6","5","3","6","1","6","5","1","4","5","5","3","5","3","6","3","5","5","1","4","3","6","1","7","1","4","1","7","7","2","1","1","6","5","1","2","1","2","751465309353021442","何","223","Male","[""坏我"",""好我"",""坏他"",""好他""]","[""弱我"",""强我"",""弱他"",""强他""]","","","","","","","","yes","","","","","","","","","SRET","EW_formal","","key","j","16.666666666666668","853.3333333333334","476","自己","高洁","Positive","morality","","","","","","","","","","",""
"1352","","f","psychophysics","49","368508","0.0-7.0-3.0-0.35","6","6","6","4","3","4","3","4","4","4","5","2","1","1","1","0","1","1","1","5","5","5","5","5","4","4","4","4","4","4","5","5","6","6","5","6","7","7","6","6","4","6","5","3","6","1","6","5","1","4","5","5","3","5","3","6","3","5","5","1","4","3","6","1","7","1","4","1","7","7","2","1","1","6","5","1","2","1","2","751465309353021442","何","223","Male","[""坏我"",""好我"",""坏他"",""好他""]","[""弱我"",""强我"",""弱他"",""强他""]","","","","","","","","no","","","","","","","","","SRET","EW_formal","","key","f","16.665248226950272","853.3333333333334","476","朋友","短浅","Negative","ability","","","","","","","","","","",""
"1462","","j","psychophysics","50","370979","0.0-7.0-3.0-0.36","6","6","6","4","3","4","3","4","4","4","5","2","1","1","1","0","1","1","1","5","5","5","5","5","4","4","4","4","4","4","5","5","6","6","5","6","7","7","6","6","4","6","5","3","6","1","6","5","1","4","5","5","3","5","3","6","3","5","5","1","4","3","6","1","7","1","4","1","7","7","2","1","1","6","5","1","2","1","2","751465309353021442","何","223","Male","[""坏我"",""好我"",""坏他"",""好他""]","[""弱我"",""强我"",""弱他"",""强他""]","","","","","","","","yes","","","","","","","","","SRET","EW_formal","","key","j","16.6653061224489","853.3333333333334","476","自己","善良","Positive","morality","","","","","","","","","","",""
"1255","","j","psychophysics","51","373238","0.0-7.0-3.0-0.37","6","6","6","4","3","4","3","4","4","4","5","2","1","1","1","0","1","1","1","5","5","5","5","5","4","4","4","4","4","4","5","5","6","6","5","6","7","7","6","6","4","6","5","3","6","1","6","5","1","4","5","5","3","5","3","6","3","5","5","1","4","3","6","1","7","1","4","1","7","7","2","1","1","6","5","1","2","1","2","751465309353021442","何","223","Male","[""坏我"",""好我"",""坏他"",""好他""]","[""弱我"",""强我"",""弱他"",""强他""]","","","","","","","","yes","","","","","","","","","SRET","EW_formal","","key","j","16.6","853.3333333333334","476","自己","肯干","Positive","ability","","","","","","","","","","",""
"1144","","f","psychophysics","52","375411","0.0-7.0-3.0-0.38","6","6","6","4","3","4","3","4","4","4","5","2","1","1","1","0","1","1","1","5","5","5","5","5","4","4","4","4","4","4","5","5","6","6","5","6","7","7","6","6","4","6","5","3","6","1","6","5","1","4","5","5","3","5","3","6","3","5","5","1","4","3","6","1","7","1","4","1","7","7","2","1","1","6","5","1","2","1","2","751465309353021442","何","223","Male","[""坏我"",""好我"",""坏他"",""好他""]","[""弱我"",""强我"",""弱他"",""强他""]","","","","","","","","no","","","","","","","","","SRET","EW_formal","","key","f","16.650387596898955","853.3333333333334","476","朋友","逞强","Negative","ability","","","","","","","","","","",""
"1513","","f","psychophysics","53","377930","0.0-7.0-3.0-0.39","6","6","6","4","3","4","3","4","4","4","5","2","1","1","1","0","1","1","1","5","5","5","5","5","4","4","4","4","4","4","5","5","6","6","5","6","7","7","6","6","4","6","5","3","6","1","6","5","1","4","5","5","3","5","3","6","3","5","5","1","4","3","6","1","7","1","4","1","7","7","2","1","1","6","5","1","2","1","2","751465309353021442","何","223","Male","[""坏我"",""好我"",""坏他"",""好他""]","[""弱我"",""强我"",""弱他"",""强他""]","","","","","","","","no","","","","","","","","","SRET","EW_formal","","key","f","16.665999999999766","853.3333333333334","476","朋友","逞能","Negative","ability","","","","","","","","","","",""
"1382","","j","psychophysics","54","380315","0.0-7.0-3.0-0.40","6","6","6","4","3","4","3","4","4","4","5","2","1","1","1","0","1","1","1","5","5","5","5","5","4","4","4","4","4","4","5","5","6","6","5","6","7","7","6","6","4","6","5","3","6","1","6","5","1","4","5","5","3","5","3","6","3","5","5","1","4","3","6","1","7","1","4","1","7","7","2","1","1","6","5","1","2","1","2","751465309353021442","何","223","Male","[""坏我"",""好我"",""坏他"",""好他""]","[""弱我"",""强我"",""弱他"",""强他""]","","","","","","","","yes","","","","","","","","","SRET","EW_formal","","key","j","16.66478873239453","853.3333333333334","476","朋友","爱国","Positive","morality","","","","","","","","","","",""
"1513","","f","psychophysics","55","382829","0.0-7.0-3.0-0.41","6","6","6","4","3","4","3","4","4","4","5","2","1","1","1","0","1","1","1","5","5","5","5","5","4","4","4","4","4","4","5","5","6","6","5","6","7","7","6","6","4","6","5","3","6","1","6","5","1","4","5","5","3","5","3","6","3","5","5","1","4","3","6","1","7","1","4","1","7","7","2","1","1","6","5","1","2","1","2","751465309353021442","何","223","Male","[""坏我"",""好我"",""坏他"",""好他""]","[""弱我"",""强我"",""弱他"",""强他""]","","","","","","","","no","","","","","","","","","SRET","EW_formal","","key","f","16.667333333333566","853.3333333333334","476","自己","利己","Negative","morality","","","","","","","","","","",""
"980","","f","psychophysics","56","384813","0.0-7.0-3.0-0.42","6","6","6","4","3","4","3","4","4","4","5","2","1","1","1","0","1","1","1","5","5","5","5","5","4","4","4","4","4","4","5","5","6","6","5","6","7","7","6","6","4","6","5","3","6","1","6","5","1","4","5","5","3","5","3","6","3","5","5","1","4","3","6","1","7","1","4","1","7","7","2","1","1","6","5","1","2","1","2","751465309353021442","何","223","Male","[""坏我"",""好我"",""坏他"",""好他""]","[""弱我"",""强我"",""弱他"",""强他""]","","","","","","","","no","","","","","","","","","SRET","EW_formal","","key","f","16.665254237288135","853.3333333333334","476","自己","缺德","Negative","morality","","","","","","","","","","",""
"1223","","f","psychophysics","57","387039","0.0-7.0-3.0-0.43","6","6","6","4","3","4","3","4","4","4","5","2","1","1","1","0","1","1","1","5","5","5","5","5","4","4","4","4","4","4","5","5","6","6","5","6","7","7","6","6","4","6","5","3","6","1","6","5","1","4","5","5","3","5","3","6","3","5","5","1","4","3","6","1","7","1","4","1","7","7","2","1","1","6","5","1","2","1","2","751465309353021442","何","223","Male","[""坏我"",""好我"",""坏他"",""好他""]","[""弱我"",""强我"",""弱他"",""强他""]","","","","","","","","no","","","","","","","","","SRET","EW_formal","","key","f","16.66691729323317","853.3333333333334","476","自己","下流","Negative","morality","","","","","","","","","","",""
"1051","","f","psychophysics","58","389098","0.0-7.0-3.0-0.44","6","6","6","4","3","4","3","4","4","4","5","2","1","1","1","0","1","1","1","5","5","5","5","5","4","4","4","4","4","4","5","5","6","6","5","6","7","7","6","6","4","6","5","3","6","1","6","5","1","4","5","5","3","5","3","6","3","5","5","1","4","3","6","1","7","1","4","1","7","7","2","1","1","6","5","1","2","1","2","751465309353021442","何","223","Male","[""坏我"",""好我"",""坏他"",""好他""]","[""弱我"",""强我"",""弱他"",""强他""]","","","","","","","","no","","","","","","","","","SRET","EW_formal","","key","f","16.66475409836094","853.3333333333334","476","自己","短视","Negative","ability","","","","","","","","","","",""
"1531","","j","psychophysics","59","391632","0.0-7.0-3.0-0.45","6","6","6","4","3","4","3","4","4","4","5","2","1","1","1","0","1","1","1","5","5","5","5","5","4","4","4","4","4","4","5","5","6","6","5","6","7","7","6","6","4","6","5","3","6","1","6","5","1","4","5","5","3","5","3","6","3","5","5","1","4","3","6","1","7","1","4","1","7","7","2","1","1","6","5","1","2","1","2","751465309353021442","何","223","Male","[""坏我"",""好我"",""坏他"",""好他""]","[""弱我"",""强我"",""弱他"",""强他""]","","","","","","","","yes","","","","","","","","","SRET","EW_formal","","key","j","16.666887417218234","853.3333333333334","476","朋友","诚信","Positive","morality","","","","","","","","","","",""
"1249","","f","psychophysics","60","393906","0.0-7.0-3.0-0.46","6","6","6","4","3","4","3","4","4","4","5","2","1","1","1","0","1","1","1","5","5","5","5","5","4","4","4","4","4","4","5","5","6","6","5","6","7","7","6","6","4","6","5","3","6","1","6","5","1","4","5","5","3","5","3","6","3","5","5","1","4","3","6","1","7","1","4","1","7","7","2","1","1","6","5","1","2","1","2","751465309353021442","何","223","Male","[""坏我"",""好我"",""坏他"",""好他""]","[""弱我"",""强我"",""弱他"",""强他""]","","","","","","","","no","","","","","","","","","SRET","EW_formal","","key","f","16.66691176470597","853.3333333333334","476","自己","屈才","Negative","ability","","","","","","","","","","",""
"1068","","j","psychophysics","61","395984","0.0-7.0-3.0-0.47","6","6","6","4","3","4","3","4","4","4","5","2","1","1","1","0","1","1","1","5","5","5","5","5","4","4","4","4","4","4","5","5","6","6","5","6","7","7","6","6","4","6","5","3","6","1","6","5","1","4","5","5","3","5","3","6","3","5","5","1","4","3","6","1","7","1","4","1","7","7","2","1","1","6","5","1","2","1","2","751465309353021442","何","223","Male","[""坏我"",""好我"",""坏他"",""好他""]","[""弱我"",""强我"",""弱他"",""强他""]","","","","","","","","yes","","","","","","","","","SRET","EW_formal","","key","j","16.66532258064516","853.3333333333334","476","自己","扎实","Positive","ability","","","","","","","","","","",""
"1061","","f","psychophysics","62","398055","0.0-7.0-3.0-0.48","6","6","6","4","3","4","3","4","4","4","5","2","1","1","1","0","1","1","1","5","5","5","5","5","4","4","4","4","4","4","5","5","6","6","5","6","7","7","6","6","4","6","5","3","6","1","6","5","1","4","5","5","3","5","3","6","3","5","5","1","4","3","6","1","7","1","4","1","7","7","2","1","1","6","5","1","2","1","2","751465309353021442","何","223","Male","[""坏我"",""好我"",""坏他"",""好他""]","[""弱我"",""强我"",""弱他"",""强他""]","","","","","","","","no","","","","","","","","","SRET","EW_formal","","key","f","16.665853658536303","853.3333333333334","476","朋友","拙笨","Negative","ability","","","","","","","","","","",""
"1272","","j","psychophysics","63","400355","0.0-7.0-3.0-0.49","6","6","6","4","3","4","3","4","4","4","5","2","1","1","1","0","1","1","1","5","5","5","5","5","4","4","4","4","4","4","5","5","6","6","5","6","7","7","6","6","4","6","5","3","6","1","6","5","1","4","5","5","3","5","3","6","3","5","5","1","4","3","6","1","7","1","4","1","7","7","2","1","1","6","5","1","2","1","2","751465309353021442","何","223","Male","[""坏我"",""好我"",""坏他"",""好他""]","[""弱我"",""强我"",""弱他"",""强他""]","","","","","","","","yes","","","","","","","","","SRET","EW_formal","","key","j","16.66715328467128","853.3333333333334","476","朋友","娴熟","Positive","ability","","","","","","","","","","",""
"1540","","j","psychophysics","64","402906","0.0-7.0-3.0-0.50","6","6","6","4","3","4","3","4","4","4","5","2","1","1","1","0","1","1","1","5","5","5","5","5","4","4","4","4","4","4","5","5","6","6","5","6","7","7","6","6","4","6","5","3","6","1","6","5","1","4","5","5","3","5","3","6","3","5","5","1","4","3","6","1","7","1","4","1","7","7","2","1","1","6","5","1","2","1","2","751465309353021442","何","223","Male","[""坏我"",""好我"",""坏他"",""好他""]","[""弱我"",""强我"",""弱他"",""强他""]","","","","","","","","yes","","","","","","","","","SRET","EW_formal","","key","j","16.654605263157894","853.3333333333334","476","朋友","孝顺","Positive","morality","","","","","","","","","","",""
"1249","","j","psychophysics","65","405165","0.0-7.0-3.0-0.51","6","6","6","4","3","4","3","4","4","4","5","2","1","1","1","0","1","1","1","5","5","5","5","5","4","4","4","4","4","4","5","5","6","6","5","6","7","7","6","6","4","6","5","3","6","1","6","5","1","4","5","5","3","5","3","6","3","5","5","1","4","3","6","1","7","1","4","1","7","7","2","1","1","6","5","1","2","1","2","751465309353021442","何","223","Male","[""坏我"",""好我"",""坏他"",""好他""]","[""弱我"",""强我"",""弱他"",""强他""]","","","","","","","","yes","","","","","","","","","SRET","EW_formal","","key","j","16.665671641791132","853.3333333333334","476","朋友","侠义","Positive","morality","","","","","","","","","","",""
"1122","","f","psychophysics","66","407308","0.0-7.0-3.0-0.52","6","6","6","4","3","4","3","4","4","4","5","2","1","1","1","0","1","1","1","5","5","5","5","5","4","4","4","4","4","4","5","5","6","6","5","6","7","7","6","6","4","6","5","3","6","1","6","5","1","4","5","5","3","5","3","6","3","5","5","1","4","3","6","1","7","1","4","1","7","7","2","1","1","6","5","1","2","1","2","751465309353021442","何","223","Male","[""坏我"",""好我"",""坏他"",""好他""]","[""弱我"",""强我"",""弱他"",""强他""]","","","","","","","","no","","","","","","","","","SRET","EW_formal","","key","f","16.66640624999991","853.3333333333334","476","朋友","狡诈","Negative","morality","","","","","","","","","","",""
"1247","","j","psychophysics","67","409564","0.0-7.0-3.0-0.53","6","6","6","4","3","4","3","4","4","4","5","2","1","1","1","0","1","1","1","5","5","5","5","5","4","4","4","4","4","4","5","5","6","6","5","6","7","7","6","6","4","6","5","3","6","1","6","5","1","4","5","5","3","5","3","6","3","5","5","1","4","3","6","1","7","1","4","1","7","7","2","1","1","6","5","1","2","1","2","751465309353021442","何","223","Male","[""坏我"",""好我"",""坏他"",""好他""]","[""弱我"",""强我"",""弱他"",""强他""]","","","","","","","","yes","","","","","","","","","SRET","EW_formal","","key","j","16.62611940298525","853.3333333333334","476","朋友","君子","Positive","morality","","","","","","","","","","",""
"1129","","f","psychophysics","68","411695","0.0-7.0-3.0-0.54","6","6","6","4","3","4","3","4","4","4","5","2","1","1","1","0","1","1","1","5","5","5","5","5","4","4","4","4","4","4","5","5","6","6","5","6","7","7","6","6","4","6","5","3","6","1","6","5","1","4","5","5","3","5","3","6","3","5","5","1","4","3","6","1","7","1","4","1","7","7","2","1","1","6","5","1","2","1","2","751465309353021442","何","223","Male","[""坏我"",""好我"",""坏他"",""好他""]","[""弱我"",""强我"",""弱他"",""强他""]","","","","","","","","no","","","","","","","","","SRET","EW_formal","","key","f","16.66692913385836","853.3333333333334","476","自己","昏庸","Negative","ability","","","","","","","","","","",""
"1547","","f","psychophysics","69","414281","0.0-7.0-3.0-0.55","6","6","6","4","3","4","3","4","4","4","5","2","1","1","1","0","1","1","1","5","5","5","5","5","4","4","4","4","4","4","5","5","6","6","5","6","7","7","6","6","4","6","5","3","6","1","6","5","1","4","5","5","3","5","3","6","3","5","5","1","4","3","6","1","7","1","4","1","7","7","2","1","1","6","5","1","2","1","2","751465309353021442","何","223","Male","[""坏我"",""好我"",""坏他"",""好他""]","[""弱我"",""强我"",""弱他"",""强他""]","","","","","","","","no","","","","","","","","","SRET","EW_formal","","key","f","16.665584415584416","853.3333333333334","476","朋友","虚假","Negative","morality","","","","","","","","","","",""
"1112","","j","psychophysics","70","416394","0.0-7.0-3.0-0.56","6","6","6","4","3","4","3","4","4","4","5","2","1","1","1","0","1","1","1","5","5","5","5","5","4","4","4","4","4","4","5","5","6","6","5","6","7","7","6","6","4","6","5","3","6","1","6","5","1","4","5","5","3","5","3","6","3","5","5","1","4","3","6","1","7","1","4","1","7","7","2","1","1","6","5","1","2","1","2","751465309353021442","何","223","Male","[""坏我"",""好我"",""坏他"",""好他""]","[""弱我"",""强我"",""弱他"",""强他""]","","","","","","","","yes","","","","","","","","","SRET","EW_formal","","key","j","16.6658730158732","853.3333333333334","476","朋友","刻苦","Positive","ability","","","","","","","","","","",""
"995","","f","psychophysics","71","418394","0.0-7.0-3.0-0.57","6","6","6","4","3","4","3","4","4","4","5","2","1","1","1","0","1","1","1","5","5","5","5","5","4","4","4","4","4","4","5","5","6","6","5","6","7","7","6","6","4","6","5","3","6","1","6","5","1","4","5","5","3","5","3","6","3","5","5","1","4","3","6","1","7","1","4","1","7","7","2","1","1","6","5","1","2","1","2","751465309353021442","何","223","Male","[""坏我"",""好我"",""坏他"",""好他""]","[""弱我"",""强我"",""弱他"",""强他""]","","","","","","","","no","","","","","","","","","SRET","EW_formal","","key","f","16.664705882352745","853.3333333333334","476","自己","马虎","Negative","ability","","","","","","","","","","",""
"980","","j","psychophysics","72","420375","0.0-7.0-3.0-0.58","6","6","6","4","3","4","3","4","4","4","5","2","1","1","1","0","1","1","1","5","5","5","5","5","4","4","4","4","4","4","5","5","6","6","5","6","7","7","6","6","4","6","5","3","6","1","6","5","1","4","5","5","3","5","3","6","3","5","5","1","4","3","6","1","7","1","4","1","7","7","2","1","1","6","5","1","2","1","2","751465309353021442","何","223","Male","[""坏我"",""好我"",""坏他"",""好他""]","[""弱我"",""强我"",""弱他"",""强他""]","","","","","","","","yes","","","","","","","","","SRET","EW_formal","","key","j","16.665254237288135","853.3333333333334","476","朋友","刚正","Positive","morality","","","","","","","","","","",""
"1134","","f","psychophysics","73","422514","0.0-7.0-3.0-0.59","6","6","6","4","3","4","3","4","4","4","5","2","1","1","1","0","1","1","1","5","5","5","5","5","4","4","4","4","4","4","5","5","6","6","5","6","7","7","6","6","4","6","5","3","6","1","6","5","1","4","5","5","3","5","3","6","3","5","5","1","4","3","6","1","7","1","4","1","7","7","2","1","1","6","5","1","2","1","2","751465309353021442","何","223","Male","[""坏我"",""好我"",""坏他"",""好他""]","[""弱我"",""强我"",""弱他"",""强他""]","","","","","","","","no","","","","","","","","","SRET","EW_formal","","key","f","16.666141732283283","853.3333333333334","476","朋友","奸诈","Negative","morality","","","","","","","","","","",""
"1020","","j","psychophysics","74","424536","0.0-7.0-3.0-0.60","6","6","6","4","3","4","3","4","4","4","5","2","1","1","1","0","1","1","1","5","5","5","5","5","4","4","4","4","4","4","5","5","6","6","5","6","7","7","6","6","4","6","5","3","6","1","6","5","1","4","5","5","3","5","3","6","3","5","5","1","4","3","6","1","7","1","4","1","7","7","2","1","1","6","5","1","2","1","2","751465309353021442","何","223","Male","[""坏我"",""好我"",""坏他"",""好他""]","[""弱我"",""强我"",""弱他"",""强他""]","","","","","","","","yes","","","","","","","","","SRET","EW_formal","","key","j","16.569421487603016","853.3333333333334","476","自己","忠良","Positive","morality","","","","","","","","","","",""
"1162","","j","psychophysics","75","426728","0.0-7.0-3.0-0.61","6","6","6","4","3","4","3","4","4","4","5","2","1","1","1","0","1","1","1","5","5","5","5","5","4","4","4","4","4","4","5","5","6","6","5","6","7","7","6","6","4","6","5","3","6","1","6","5","1","4","5","5","3","5","3","6","3","5","5","1","4","3","6","1","7","1","4","1","7","7","2","1","1","6","5","1","2","1","2","751465309353021442","何","223","Male","[""坏我"",""好我"",""坏他"",""好他""]","[""弱我"",""强我"",""弱他"",""强他""]","","","","","","","","yes","","","","","","","","","SRET","EW_formal","","key","j","16.666923076922718","853.3333333333334","476","朋友","顶事","Positive","ability","","","","","","","","","","",""
"1020","","f","psychophysics","76","428752","0.0-7.0-3.0-0.62","6","6","6","4","3","4","3","4","4","4","5","2","1","1","1","0","1","1","1","5","5","5","5","5","4","4","4","4","4","4","5","5","6","6","5","6","7","7","6","6","4","6","5","3","6","1","6","5","1","4","5","5","3","5","3","6","3","5","5","1","4","3","6","1","7","1","4","1","7","7","2","1","1","6","5","1","2","1","2","751465309353021442","何","223","Male","[""坏我"",""好我"",""坏他"",""好他""]","[""弱我"",""强我"",""弱他"",""强他""]","","","","","","","","no","","","","","","","","","SRET","EW_formal","","key","f","16.666115702479626","853.3333333333334","476","自己","伪善","Negative","morality","","","","","","","","","","",""
"1215","","f","psychophysics","77","430980","0.0-7.0-3.0-0.63","6","6","6","4","3","4","3","4","4","4","5","2","1","1","1","0","1","1","1","5","5","5","5","5","4","4","4","4","4","4","5","5","6","6","5","6","7","7","6","6","4","6","5","3","6","1","6","5","1","4","5","5","3","5","3","6","3","5","5","1","4","3","6","1","7","1","4","1","7","7","2","1","1","6","5","1","2","1","2","751465309353021442","何","223","Male","[""坏我"",""好我"",""坏他"",""好他""]","[""弱我"",""强我"",""弱他"",""强他""]","","","","","","","","no","","","","","","","","","SRET","EW_formal","","key","f","16.667424242424065","853.3333333333334","476","自己","驽钝","Negative","ability","","","","","","","","","","",""
"1371","","j","psychophysics","78","433370","0.0-7.0-3.0-0.64","6","6","6","4","3","4","3","4","4","4","5","2","1","1","1","0","1","1","1","5","5","5","5","5","4","4","4","4","4","4","5","5","6","6","5","6","7","7","6","6","4","6","5","3","6","1","6","5","1","4","5","5","3","5","3","6","3","5","5","1","4","3","6","1","7","1","4","1","7","7","2","1","1","6","5","1","2","1","2","751465309353021442","何","223","Male","[""坏我"",""好我"",""坏他"",""好他""]","[""弱我"",""强我"",""弱他"",""强他""]","","","","","","","","yes","","","","","","","","","SRET","EW_formal","","key","j","16.581118881119124","853.3333333333334","476","朋友","宽容","Positive","morality","","","","","","","","","","",""
"1056","","f","psychophysics","79","435438","0.0-7.0-3.0-0.65","6","6","6","4","3","4","3","4","4","4","5","2","1","1","1","0","1","1","1","5","5","5","5","5","4","4","4","4","4","4","5","5","6","6","5","6","7","7","6","6","4","6","5","3","6","1","6","5","1","4","5","5","3","5","3","6","3","5","5","1","4","3","6","1","7","1","4","1","7","7","2","1","1","6","5","1","2","1","2","751465309353021442","何","223","Male","[""坏我"",""好我"",""坏他"",""好他""]","[""弱我"",""强我"",""弱他"",""强他""]","","","","","","","","no","","","","","","","","","SRET","EW_formal","","key","f","16.660162601626112","853.3333333333334","476","朋友","奸险","Negative","morality","","","","","","","","","","",""
"1433","","j","psychophysics","80","437882","0.0-7.0-3.0-0.66","6","6","6","4","3","4","3","4","4","4","5","2","1","1","1","0","1","1","1","5","5","5","5","5","4","4","4","4","4","4","5","5","6","6","5","6","7","7","6","6","4","6","5","3","6","1","6","5","1","4","5","5","3","5","3","6","3","5","5","1","4","3","6","1","7","1","4","1","7","7","2","1","1","6","5","1","2","1","2","751465309353021442","何","223","Male","[""坏我"",""好我"",""坏他"",""好他""]","[""弱我"",""强我"",""弱他"",""强他""]","","","","","","","","yes","","","","","","","","","SRET","EW_formal","","key","j","16.66551724137931","853.3333333333334","476","朋友","忠诚","Positive","morality","","","","","","","","","","",""
"1325","","j","psychophysics","81","440210","0.0-7.0-3.0-0.67","6","6","6","4","3","4","3","4","4","4","5","2","1","1","1","0","1","1","1","5","5","5","5","5","4","4","4","4","4","4","5","5","6","6","5","6","7","7","6","6","4","6","5","3","6","1","6","5","1","4","5","5","3","5","3","6","3","5","5","1","4","3","6","1","7","1","4","1","7","7","2","1","1","6","5","1","2","1","2","751465309353021442","何","223","Male","[""坏我"",""好我"",""坏他"",""好他""]","[""弱我"",""强我"",""弱他"",""强他""]","","","","","","","","yes","","","","","","","","","SRET","EW_formal","","key","j","16.666187050359962","853.3333333333334","476","自己","慈悲","Positive","morality","","","","","","","","","","",""
"1136","","j","psychophysics","82","442352","0.0-7.0-3.0-0.68","6","6","6","4","3","4","3","4","4","4","5","2","1","1","1","0","1","1","1","5","5","5","5","5","4","4","4","4","4","4","5","5","6","6","5","6","7","7","6","6","4","6","5","3","6","1","6","5","1","4","5","5","3","5","3","6","3","5","5","1","4","3","6","1","7","1","4","1","7","7","2","1","1","6","5","1","2","1","2","751465309353021442","何","223","Male","[""坏我"",""好我"",""坏他"",""好他""]","[""弱我"",""强我"",""弱他"",""强他""]","","","","","","","","yes","","","","","","","","","SRET","EW_formal","","key","j","16.6640625","853.3333333333334","476","自己","勤奋","Positive","ability","","","","","","","","","","",""
"1040","","j","psychophysics","83","444403","0.0-7.0-3.0-0.69","6","6","6","4","3","4","3","4","4","4","5","2","1","1","1","0","1","1","1","5","5","5","5","5","4","4","4","4","4","4","5","5","6","6","5","6","7","7","6","6","4","6","5","3","6","1","6","5","1","4","5","5","3","5","3","6","3","5","5","1","4","3","6","1","7","1","4","1","7","7","2","1","1","6","5","1","2","1","2","751465309353021442","何","223","Male","[""坏我"",""好我"",""坏他"",""好他""]","[""弱我"",""强我"",""弱他"",""强他""]","","","","","","","","yes","","","","","","","","","SRET","EW_formal","","key","j","16.66721311475429","853.3333333333334","476","自己","敏捷","Positive","ability","","","","","","","","","","",""
"1003","","j","psychophysics","84","446435","0.0-7.0-3.0-0.70","6","6","6","4","3","4","3","4","4","4","5","2","1","1","1","0","1","1","1","5","5","5","5","5","4","4","4","4","4","4","5","5","6","6","5","6","7","7","6","6","4","6","5","3","6","1","6","5","1","4","5","5","3","5","3","6","3","5","5","1","4","3","6","1","7","1","4","1","7","7","2","1","1","6","5","1","2","1","2","751465309353021442","何","223","Male","[""坏我"",""好我"",""坏他"",""好他""]","[""弱我"",""强我"",""弱他"",""强他""]","","","","","","","","yes","","","","","","","","","SRET","EW_formal","","key","j","16.665289256198346","853.3333333333334","476","自己","高效","Positive","ability","","","","","","","","","","",""
"1019","","f","psychophysics","85","448462","0.0-7.0-3.0-0.71","6","6","6","4","3","4","3","4","4","4","5","2","1","1","1","0","1","1","1","5","5","5","5","5","4","4","4","4","4","4","5","5","6","6","5","6","7","7","6","6","4","6","5","3","6","1","6","5","1","4","5","5","3","5","3","6","3","5","5","1","4","3","6","1","7","1","4","1","7","7","2","1","1","6","5","1","2","1","2","751465309353021442","何","223","Male","[""坏我"",""好我"",""坏他"",""好他""]","[""弱我"",""强我"",""弱他"",""强他""]","","","","","","","","no","","","","","","","","","SRET","EW_formal","","key","f","16.666666666666668","853.3333333333334","476","自己","无知","Negative","ability","","","","","","","","","","",""
"1082","","j","psychophysics","86","450547","0.0-7.0-3.0-0.72","6","6","6","4","3","4","3","4","4","4","5","2","1","1","1","0","1","1","1","5","5","5","5","5","4","4","4","4","4","4","5","5","6","6","5","6","7","7","6","6","4","6","5","3","6","1","6","5","1","4","5","5","3","5","3","6","3","5","5","1","4","3","6","1","7","1","4","1","7","7","2","1","1","6","5","1","2","1","2","751465309353021442","何","223","Male","[""坏我"",""好我"",""坏他"",""好他""]","[""弱我"",""强我"",""弱他"",""强他""]","","","","","","","","yes","","","","","","","","","SRET","EW_formal","","key","j","16.66693548387106","853.3333333333334","476","自己","淡泊","Positive","morality","","","","","","","","","","",""
"1489","","f","psychophysics","87","453070","0.0-7.0-3.0-0.73","6","6","6","4","3","4","3","4","4","4","5","2","1","1","1","0","1","1","1","5","5","5","5","5","4","4","4","4","4","4","5","5","6","6","5","6","7","7","6","6","4","6","5","3","6","1","6","5","1","4","5","5","3","5","3","6","3","5","5","1","4","3","6","1","7","1","4","1","7","7","2","1","1","6","5","1","2","1","2","751465309353021442","何","223","Male","[""坏我"",""好我"",""坏他"",""好他""]","[""弱我"",""强我"",""弱他"",""强他""]","","","","","","","","no","","","","","","","","","SRET","EW_formal","","key","f","16.66688741721862","853.3333333333334","476","朋友","庸碌","Negative","ability","","","","","","","","","","",""
"989","","f","psychophysics","88","455071","0.0-7.0-3.0-0.74","6","6","6","4","3","4","3","4","4","4","5","2","1","1","1","0","1","1","1","5","5","5","5","5","4","4","4","4","4","4","5","5","6","6","5","6","7","7","6","6","4","6","5","3","6","1","6","5","1","4","5","5","3","5","3","6","3","5","5","1","4","3","6","1","7","1","4","1","7","7","2","1","1","6","5","1","2","1","2","751465309353021442","何","223","Male","[""坏我"",""好我"",""坏他"",""好他""]","[""弱我"",""强我"",""弱他"",""强他""]","","","","","","","","no","","","","","","","","","SRET","EW_formal","","key","f","16.668067226890756","853.3333333333334","476","朋友","业余","Negative","ability","","","","","","","","","","",""
"1352","","f","psychophysics","89","457425","0.0-7.0-3.0-0.75","6","6","6","4","3","4","3","4","4","4","5","2","1","1","1","0","1","1","1","5","5","5","5","5","4","4","4","4","4","4","5","5","6","6","5","6","7","7","6","6","4","6","5","3","6","1","6","5","1","4","5","5","3","5","3","6","3","5","5","1","4","3","6","1","7","1","4","1","7","7","2","1","1","6","5","1","2","1","2","751465309353021442","何","223","Male","[""坏我"",""好我"",""坏他"",""好他""]","[""弱我"",""强我"",""弱他"",""强他""]","","","","","","","","no","","","","","","","","","SRET","EW_formal","","key","f","16.667142857142608","853.3333333333334","476","朋友","罪恶","Negative","morality","","","","","","","","","","",""
"992","","j","psychophysics","90","459440","0.0-7.0-3.0-0.76","6","6","6","4","3","4","3","4","4","4","5","2","1","1","1","0","1","1","1","5","5","5","5","5","4","4","4","4","4","4","5","5","6","6","5","6","7","7","6","6","4","6","5","3","6","1","6","5","1","4","5","5","3","5","3","6","3","5","5","1","4","3","6","1","7","1","4","1","7","7","2","1","1","6","5","1","2","1","2","751465309353021442","何","223","Male","[""坏我"",""好我"",""坏他"",""好他""]","[""弱我"",""强我"",""弱他"",""强他""]","","","","","","","","yes","","","","","","","","","SRET","EW_formal","","key","j","16.664999999999903","853.3333333333334","476","自己","细心","Positive","ability","","","","","","","","","","",""
"1048","","j","psychophysics","91","461493","0.0-7.0-3.0-0.77","6","6","6","4","3","4","3","4","4","4","5","2","1","1","1","0","1","1","1","5","5","5","5","5","4","4","4","4","4","4","5","5","6","6","5","6","7","7","6","6","4","6","5","3","6","1","6","5","1","4","5","5","3","5","3","6","3","5","5","1","4","3","6","1","7","1","4","1","7","7","2","1","1","6","5","1","2","1","2","751465309353021442","何","223","Male","[""坏我"",""好我"",""坏他"",""好他""]","[""弱我"",""强我"",""弱他"",""强他""]","","","","","","","","yes","","","","","","","","","SRET","EW_formal","","key","j","16.666393442622855","853.3333333333334","476","朋友","清廉","Positive","morality","","","","","","","","","","",""
"1429","","f","psychophysics","92","463927","0.0-7.0-3.0-0.78","6","6","6","4","3","4","3","4","4","4","5","2","1","1","1","0","1","1","1","5","5","5","5","5","4","4","4","4","4","4","5","5","6","6","5","6","7","7","6","6","4","6","5","3","6","1","6","5","1","4","5","5","3","5","3","6","3","5","5","1","4","3","6","1","7","1","4","1","7","7","2","1","1","6","5","1","2","1","2","751465309353021442","何","223","Male","[""坏我"",""好我"",""坏他"",""好他""]","[""弱我"",""强我"",""弱他"",""强他""]","","","","","","","","no","","","","","","","","","SRET","EW_formal","","key","f","16.666206896551564","853.3333333333334","476","朋友","狡狯","Negative","morality","","","","","","","","","","",""
"1335","","j","psychophysics","93","466300","0.0-7.0-3.0-0.79","6","6","6","4","3","4","3","4","4","4","5","2","1","1","1","0","1","1","1","5","5","5","5","5","4","4","4","4","4","4","5","5","6","6","5","6","7","7","6","6","4","6","5","3","6","1","6","5","1","4","5","5","3","5","3","6","3","5","5","1","4","3","6","1","7","1","4","1","7","7","2","1","1","6","5","1","2","1","2","751465309353021442","何","223","Male","[""坏我"",""好我"",""坏他"",""好他""]","[""弱我"",""强我"",""弱他"",""强他""]","","","","","","","","yes","","","","","","","","","SRET","EW_formal","","key","j","16.66549295774648","853.3333333333334","476","朋友","智慧","Positive","ability","","","","","","","","","","",""
"1064","","j","psychophysics","94","468375","0.0-7.0-3.0-0.80","6","6","6","4","3","4","3","4","4","4","5","2","1","1","1","0","1","1","1","5","5","5","5","5","4","4","4","4","4","4","5","5","6","6","5","6","7","7","6","6","4","6","5","3","6","1","6","5","1","4","5","5","3","5","3","6","3","5","5","1","4","3","6","1","7","1","4","1","7","7","2","1","1","6","5","1","2","1","2","751465309353021442","何","223","Male","[""坏我"",""好我"",""坏他"",""好他""]","[""弱我"",""强我"",""弱他"",""强他""]","","","","","","","","yes","","","","","","","","","SRET","EW_formal","","key","j","16.666666666666668","853.3333333333334","476","朋友","博识","Positive","ability","","","","","","","","","","",""
"1012","","j","psychophysics","95","470394","0.0-7.0-3.0-0.81","6","6","6","4","3","4","3","4","4","4","5","2","1","1","1","0","1","1","1","5","5","5","5","5","4","4","4","4","4","4","5","5","6","6","5","6","7","7","6","6","4","6","5","3","6","1","6","5","1","4","5","5","3","5","3","6","3","5","5","1","4","3","6","1","7","1","4","1","7","7","2","1","1","6","5","1","2","1","2","751465309353021442","何","223","Male","[""坏我"",""好我"",""坏他"",""好他""]","[""弱我"",""强我"",""弱他"",""强他""]","","","","","","","","yes","","","","","","","","","SRET","EW_formal","","key","j","16.666666666666668","853.3333333333334","476","朋友","果断","Positive","ability","","","","","","","","","","",""
"1002","","f","psychophysics","96","472408","0.0-7.0-3.0-0.82","6","6","6","4","3","4","3","4","4","4","5","2","1","1","1","0","1","1","1","5","5","5","5","5","4","4","4","4","4","4","5","5","6","6","5","6","7","7","6","6","4","6","5","3","6","1","6","5","1","4","5","5","3","5","3","6","3","5","5","1","4","3","6","1","7","1","4","1","7","7","2","1","1","6","5","1","2","1","2","751465309353021442","何","223","Male","[""坏我"",""好我"",""坏他"",""好他""]","[""弱我"",""强我"",""弱他"",""强他""]","","","","","","","","no","","","","","","","","","SRET","EW_formal","","key","f","16.62416666666686","853.3333333333334","476","自己","阴毒","Negative","morality","","","","","","","","","","",""
"1037","","f","psychophysics","97","474448","0.0-7.0-3.0-0.83","6","6","6","4","3","4","3","4","4","4","5","2","1","1","1","0","1","1","1","5","5","5","5","5","4","4","4","4","4","4","5","5","6","6","5","6","7","7","6","6","4","6","5","3","6","1","6","5","1","4","5","5","3","5","3","6","3","5","5","1","4","3","6","1","7","1","4","1","7","7","2","1","1","6","5","1","2","1","2","751465309353021442","何","223","Male","[""坏我"",""好我"",""坏他"",""好他""]","[""弱我"",""强我"",""弱他"",""强他""]","","","","","","","","no","","","","","","","","","SRET","EW_formal","","key","f","16.666115702479146","853.3333333333334","476","自己","愚蠢","Negative","ability","","","","","","","","","","",""
"1252","","f","psychophysics","98","476703","0.0-7.0-3.0-0.84","6","6","6","4","3","4","3","4","4","4","5","2","1","1","1","0","1","1","1","5","5","5","5","5","4","4","4","4","4","4","5","5","6","6","5","6","7","7","6","6","4","6","5","3","6","1","6","5","1","4","5","5","3","5","3","6","3","5","5","1","4","3","6","1","7","1","4","1","7","7","2","1","1","6","5","1","2","1","2","751465309353021442","何","223","Male","[""坏我"",""好我"",""坏他"",""好他""]","[""弱我"",""强我"",""弱他"",""强他""]","","","","","","","","no","","","","","","","","","SRET","EW_formal","","key","f","16.666666666666668","853.3333333333334","476","自己","缓慢","Negative","ability","","","","","","","","","","",""
"1178","","f","psychophysics","99","478893","0.0-7.0-3.0-0.85","6","6","6","4","3","4","3","4","4","4","5","2","1","1","1","0","1","1","1","5","5","5","5","5","4","4","4","4","4","4","5","5","6","6","5","6","7","7","6","6","4","6","5","3","6","1","6","5","1","4","5","5","3","5","3","6","3","5","5","1","4","3","6","1","7","1","4","1","7","7","2","1","1","6","5","1","2","1","2","751465309353021442","何","223","Male","[""坏我"",""好我"",""坏他"",""好他""]","[""弱我"",""强我"",""弱他"",""强他""]","","","","","","","","no","","","","","","","","","SRET","EW_formal","","key","f","16.666923076923165","853.3333333333334","476","朋友","低俗","Negative","morality","","","","","","","","","","",""
"1204","","j","psychophysics","100","481102","0.0-7.0-3.0-0.86","6","6","6","4","3","4","3","4","4","4","5","2","1","1","1","0","1","1","1","5","5","5","5","5","4","4","4","4","4","4","5","5","6","6","5","6","7","7","6","6","4","6","5","3","6","1","6","5","1","4","5","5","3","5","3","6","3","5","5","1","4","3","6","1","7","1","4","1","7","7","2","1","1","6","5","1","2","1","2","751465309353021442","何","223","Male","[""坏我"",""好我"",""坏他"",""好他""]","[""弱我"",""强我"",""弱他"",""强他""]","","","","","","","","yes","","","","","","","","","SRET","EW_formal","","key","j","16.665909090909267","853.3333333333334","476","自己","主见","Positive","ability","","","","","","","","","","",""
"1126","","j","psychophysics","101","483237","0.0-7.0-3.0-0.87","6","6","6","4","3","4","3","4","4","4","5","2","1","1","1","0","1","1","1","5","5","5","5","5","4","4","4","4","4","4","5","5","6","6","5","6","7","7","6","6","4","6","5","3","6","1","6","5","1","4","5","5","3","5","3","6","3","5","5","1","4","3","6","1","7","1","4","1","7","7","2","1","1","6","5","1","2","1","2","751465309353021442","何","223","Male","[""坏我"",""好我"",""坏他"",""好他""]","[""弱我"",""强我"",""弱他"",""强他""]","","","","","","","","yes","","","","","","","","","SRET","EW_formal","","key","j","16.66614173228374","853.3333333333334","476","朋友","素养","Positive","morality","","","","","","","","","","",""
"34366","
    <p><div style='color:white;font-size:35px; line-height:20px;'>计算任务</div></p><br>
    <p><div style='color:red;font-size:25px; line-height:20px;'>接下来，您将看到一些四则运算题，<b>请从键盘选择 0-9 进行反应。</b></div></p>
    <p><div style='color:red;font-size:25px; line-height:20px;'>请尽可能快地进行计算，计算的速度和正确率将影响报酬的发放。</div></p>
    <p><div class='footer' style='color:white;font-size:25px; line-height:20px;'>如果对本实验还有不清楚之处，请立即向实验员咨询。</p><p style='color:white;font-size:25px; line-height:20px;'>如果您明白了规则：</p><p style='color:white;font-size:22px; line-height:20px;'>请按 继续 进入练习</p>
    </div>
    ","0","html-button-response","102","517605","0.0-7.0-4.0","6","6","6","4","3","4","3","4","4","4","5","2","1","1","1","0","1","1","1","5","5","5","5","5","4","4","4","4","4","4","5","5","6","6","5","6","7","7","6","6","4","6","5","3","6","1","6","5","1","4","5","5","3","5","3","6","3","5","5","1","4","3","6","1","7","1","4","1","7","7","2","1","1","6","5","1","2","1","2","751465309353021442","何","223","Male","[""坏我"",""好我"",""坏他"",""好他""]","[""弱我"",""强我"",""弱他"",""强他""]","","","","","","","","","","","","","","","","","SRET_math","math_instructions","Wed Jan 31 2024 15:51:29 GMT+0800 (中国标准时间)","","","","","","","","","","","","","","","","","","","",""
"2294","","3","psychophysics","103","519903","0.0-7.0-5.0-0.0","6","6","6","4","3","4","3","4","4","4","5","2","1","1","1","0","1","1","1","5","5","5","5","5","4","4","4","4","4","4","5","5","6","6","5","6","7","7","6","6","4","6","5","3","6","1","6","5","1","4","5","5","3","5","3","6","3","5","5","1","4","3","6","1","7","1","4","1","7","7","2","1","1","6","5","1","2","1","2","751465309353021442","何","223","Male","[""坏我"",""好我"",""坏他"",""好他""]","[""弱我"",""强我"",""弱他"",""强他""]","","","","","","","","3","","","","","","","","","SRET","SRET_math_calculate","","key","3","16.666666666666668","853.3333333333334","476","","","","","9-6= ?","3","1","","","","","","","",""
"2192","","0","psychophysics","104","522097","0.0-7.0-5.0-0.1","6","6","6","4","3","4","3","4","4","4","5","2","1","1","1","0","1","1","1","5","5","5","5","5","4","4","4","4","4","4","5","5","6","6","5","6","7","7","6","6","4","6","5","3","6","1","6","5","1","4","5","5","3","5","3","6","3","5","5","1","4","3","6","1","7","1","4","1","7","7","2","1","1","6","5","1","2","1","2","751465309353021442","何","223","Male","[""坏我"",""好我"",""坏他"",""好他""]","[""弱我"",""强我"",""弱他"",""强他""]","","","","","","","","0","","","","","","","","","SRET","SRET_math_calculate","","key","0","16.666923076923165","853.3333333333334","476","","","","","5*0= ?","0","1","","","","","","","",""
"2147","","5","psychophysics","105","524246","0.0-7.0-5.0-0.2","6","6","6","4","3","4","3","4","4","4","5","2","1","1","1","0","1","1","1","5","5","5","5","5","4","4","4","4","4","4","5","5","6","6","5","6","7","7","6","6","4","6","5","3","6","1","6","5","1","4","5","5","3","5","3","6","3","5","5","1","4","3","6","1","7","1","4","1","7","7","2","1","1","6","5","1","2","1","2","751465309353021442","何","223","Male","[""坏我"",""好我"",""坏他"",""好他""]","[""弱我"",""强我"",""弱他"",""强他""]","","","","","","","","5","","","","","","","","","SRET","SRET_math_calculate","","key","5","16.665624999999636","853.3333333333334","476","","","","","8-3= ? ","5","1","","","","","","","",""
"2387","","5","psychophysics","106","526635","0.0-7.0-5.0-0.3","6","6","6","4","3","4","3","4","4","4","5","2","1","1","1","0","1","1","1","5","5","5","5","5","4","4","4","4","4","4","5","5","6","6","5","6","7","7","6","6","4","6","5","3","6","1","6","5","1","4","5","5","3","5","3","6","3","5","5","1","4","3","6","1","7","1","4","1","7","7","2","1","1","6","5","1","2","1","2","751465309353021442","何","223","Male","[""坏我"",""好我"",""坏他"",""好他""]","[""弱我"",""强我"",""弱他"",""强他""]","","","","","","","","5","","","","","","","","","SRET","SRET_math_calculate","","key","5","16.587412587412587","853.3333333333334","476","","","","","9-4= ?","5","1","","","","","","","",""
"2132","","6","psychophysics","107","528768","0.0-7.0-5.0-0.4","6","6","6","4","3","4","3","4","4","4","5","2","1","1","1","0","1","1","1","5","5","5","5","5","4","4","4","4","4","4","5","5","6","6","5","6","7","7","6","6","4","6","5","3","6","1","6","5","1","4","5","5","3","5","3","6","3","5","5","1","4","3","6","1","7","1","4","1","7","7","2","1","1","6","5","1","2","1","2","751465309353021442","何","223","Male","[""坏我"",""好我"",""坏他"",""好他""]","[""弱我"",""强我"",""弱他"",""强他""]","","","","","","","","6","","","","","","","","","SRET","SRET_math_calculate","","key","6","16.666141732283283","853.3333333333334","476","","","","","8-2= ?","6","1","","","","","","","",""
"2642","","9","psychophysics","108","531412","0.0-7.0-5.0-0.5","6","6","6","4","3","4","3","4","4","4","5","2","1","1","1","0","1","1","1","5","5","5","5","5","4","4","4","4","4","4","5","5","6","6","5","6","7","7","6","6","4","6","5","3","6","1","6","5","1","4","5","5","3","5","3","6","3","5","5","1","4","3","6","1","7","1","4","1","7","7","2","1","1","6","5","1","2","1","2","751465309353021442","何","223","Male","[""坏我"",""好我"",""坏他"",""好他""]","[""弱我"",""强我"",""弱他"",""强他""]","","","","","","","","9","","","","","","","","","SRET","SRET_math_calculate","","key","9","16.662420382165607","853.3333333333334","476","","","","","18/2= ?","9","1","","","","","","","",""
"2481","","8","psychophysics","109","533894","0.0-7.0-5.0-0.6","6","6","6","4","3","4","3","4","4","4","5","2","1","1","1","0","1","1","1","5","5","5","5","5","4","4","4","4","4","4","5","5","6","6","5","6","7","7","6","6","4","6","5","3","6","1","6","5","1","4","5","5","3","5","3","6","3","5","5","1","4","3","6","1","7","1","4","1","7","7","2","1","1","6","5","1","2","1","2","751465309353021442","何","223","Male","[""坏我"",""好我"",""坏他"",""好他""]","[""弱我"",""强我"",""弱他"",""强他""]","","","","","","","","8","","","","","","","","","SRET","SRET_math_calculate","","key","8","16.666891891891577","853.3333333333334","476","","","","","4*2= ?","8","1","","","","","","","",""
"3002","","1","psychophysics","110","536897","0.0-7.0-5.0-0.7","6","6","6","4","3","4","3","4","4","4","5","2","1","1","1","0","1","1","1","5","5","5","5","5","4","4","4","4","4","4","5","5","6","6","5","6","7","7","6","6","4","6","5","3","6","1","6","5","1","4","5","5","3","5","3","6","3","5","5","1","4","3","6","1","7","1","4","1","7","7","2","1","1","6","5","1","2","1","2","751465309353021442","何","223","Male","[""坏我"",""好我"",""坏他"",""好他""]","[""弱我"",""强我"",""弱他"",""强他""]","","","","","","","","1","","","","","","","","","SRET","SRET_math_calculate","","key","1","16.665921787709237","853.3333333333334","476","","","","","43-34= ?","9","0","","","","","","","",""
"225","","1","psychophysics","111","537125","0.0-7.0-5.0-0.8","6","6","6","4","3","4","3","4","4","4","5","2","1","1","1","0","1","1","1","5","5","5","5","5","4","4","4","4","4","4","5","5","6","6","5","6","7","7","6","6","4","6","5","3","6","1","6","5","1","4","5","5","3","5","3","6","3","5","5","1","4","3","6","1","7","1","4","1","7","7","2","1","1","6","5","1","2","1","2","751465309353021442","何","223","Male","[""坏我"",""好我"",""坏他"",""好他""]","[""弱我"",""强我"",""弱他"",""强他""]","","","","","","","","1","","","","","","","","","SRET","SRET_math_calculate","","key","1","16.67692307692666","853.3333333333334","476","","","","","2+5= ?","7","0","","","","","","","",""
"2219","","0","psychophysics","112","539346","0.0-7.0-5.0-0.9","6","6","6","4","3","4","3","4","4","4","5","2","1","1","1","0","1","1","1","5","5","5","5","5","4","4","4","4","4","4","5","5","6","6","5","6","7","7","6","6","4","6","5","3","6","1","6","5","1","4","5","5","3","5","3","6","3","5","5","1","4","3","6","1","7","1","4","1","7","7","2","1","1","6","5","1","2","1","2","751465309353021442","何","223","Male","[""坏我"",""好我"",""坏他"",""好他""]","[""弱我"",""强我"",""弱他"",""强他""]","","","","","","","","0","","","","","","","","","SRET","SRET_math_calculate","","key","0","16.642424242424596","853.3333333333334","476","","","","","12-12= ?","0","1","","","","","","","",""
"3171","","7","psychophysics","113","542518","0.0-7.0-5.0-0.10","6","6","6","4","3","4","3","4","4","4","5","2","1","1","1","0","1","1","1","5","5","5","5","5","4","4","4","4","4","4","5","5","6","6","5","6","7","7","6","6","4","6","5","3","6","1","6","5","1","4","5","5","3","5","3","6","3","5","5","1","4","3","6","1","7","1","4","1","7","7","2","1","1","6","5","1","2","1","2","751465309353021442","何","223","Male","[""坏我"",""好我"",""坏他"",""好他""]","[""弱我"",""强我"",""弱他"",""强他""]","","","","","","","","7","","","","","","","","","SRET","SRET_math_calculate","","key","7","16.66631578947356","853.3333333333334","476","","","","","49/7 = ?","7","1","","","","","","","",""
"2104","","5","psychophysics","114","544624","0.0-7.0-5.0-0.11","6","6","6","4","3","4","3","4","4","4","5","2","1","1","1","0","1","1","1","5","5","5","5","5","4","4","4","4","4","4","5","5","6","6","5","6","7","7","6","6","4","6","5","3","6","1","6","5","1","4","5","5","3","5","3","6","3","5","5","1","4","3","6","1","7","1","4","1","7","7","2","1","1","6","5","1","2","1","2","751465309353021442","何","223","Male","[""坏我"",""好我"",""坏他"",""好他""]","[""弱我"",""强我"",""弱他"",""强他""]","","","","","","","","5","","","","","","","","","SRET","SRET_math_calculate","","key","5","16.667200000000186","853.3333333333334","476","","","","","10-5= ?","5","1","","","","","","","",""
"2408","","1","psychophysics","115","547034","0.0-7.0-5.0-0.12","6","6","6","4","3","4","3","4","4","4","5","2","1","1","1","0","1","1","1","5","5","5","5","5","4","4","4","4","4","4","5","5","6","6","5","6","7","7","6","6","4","6","5","3","6","1","6","5","1","4","5","5","3","5","3","6","3","5","5","1","4","3","6","1","7","1","4","1","7","7","2","1","1","6","5","1","2","1","2","751465309353021442","何","223","Male","[""坏我"",""好我"",""坏他"",""好他""]","[""弱我"",""强我"",""弱他"",""强他""]","","","","","","","","1","","","","","","","","","SRET","SRET_math_calculate","","key","1","16.666666666666668","853.3333333333334","476","","","","","4/4= ?","1","1","","","","","","","",""
"2285","","2","psychophysics","116","549321","0.0-7.0-5.0-0.13","6","6","6","4","3","4","3","4","4","4","5","2","1","1","1","0","1","1","1","5","5","5","5","5","4","4","4","4","4","4","5","5","6","6","5","6","7","7","6","6","4","6","5","3","6","1","6","5","1","4","5","5","3","5","3","6","3","5","5","1","4","3","6","1","7","1","4","1","7","7","2","1","1","6","5","1","2","1","2","751465309353021442","何","223","Male","[""坏我"",""好我"",""坏他"",""好他""]","[""弱我"",""强我"",""弱他"",""强他""]","","","","","","","","2","","","","","","","","","SRET","SRET_math_calculate","","key","2","16.66397058823478","853.3333333333334","476","","","","","8/4= ?","2","1","","","","","","","",""
"2345","","8","psychophysics","117","551668","0.0-7.0-5.0-0.14","6","6","6","4","3","4","3","4","4","4","5","2","1","1","1","0","1","1","1","5","5","5","5","5","4","4","4","4","4","4","5","5","6","6","5","6","7","7","6","6","4","6","5","3","6","1","6","5","1","4","5","5","3","5","3","6","3","5","5","1","4","3","6","1","7","1","4","1","7","7","2","1","1","6","5","1","2","1","2","751465309353021442","何","223","Male","[""坏我"",""好我"",""坏他"",""好他""]","[""弱我"",""强我"",""弱他"",""强他""]","","","","","","","","8","","","","","","","","","SRET","SRET_math_calculate","","key","8","16.66642857142807","853.3333333333334","476","","","","","5+3= ?","8","1","","","","","","","",""
"2268","","6","psychophysics","118","553937","0.0-7.0-5.0-0.15","6","6","6","4","3","4","3","4","4","4","5","2","1","1","1","0","1","1","1","5","5","5","5","5","4","4","4","4","4","4","5","5","6","6","5","6","7","7","6","6","4","6","5","3","6","1","6","5","1","4","5","5","3","5","3","6","3","5","5","1","4","3","6","1","7","1","4","1","7","7","2","1","1","6","5","1","2","1","2","751465309353021442","何","223","Male","[""坏我"",""好我"",""坏他"",""好他""]","[""弱我"",""强我"",""弱他"",""强他""]","","","","","","","","6","","","","","","","","","SRET","SRET_math_calculate","","key","6","16.667407407407236","853.3333333333334","476","","","","","9-3= ?","6","1","","","","","","","",""
"2163","","3","psychophysics","119","556102","0.0-7.0-5.0-0.16","6","6","6","4","3","4","3","4","4","4","5","2","1","1","1","0","1","1","1","5","5","5","5","5","4","4","4","4","4","4","5","5","6","6","5","6","7","7","6","6","4","6","5","3","6","1","6","5","1","4","5","5","3","5","3","6","3","5","5","1","4","3","6","1","7","1","4","1","7","7","2","1","1","6","5","1","2","1","2","751465309353021442","何","223","Male","[""坏我"",""好我"",""坏他"",""好他""]","[""弱我"",""强我"",""弱他"",""强他""]","","","","","","","","3","","","","","","","","","SRET","SRET_math_calculate","","key","3","16.6658914728684","853.3333333333334","476","","","","","2+1= ?","3","1","","","","","","","",""
"2551","","7","psychophysics","120","558655","0.0-7.0-5.0-0.17","6","6","6","4","3","4","3","4","4","4","5","2","1","1","1","0","1","1","1","5","5","5","5","5","4","4","4","4","4","4","5","5","6","6","5","6","7","7","6","6","4","6","5","3","6","1","6","5","1","4","5","5","3","5","3","6","3","5","5","1","4","3","6","1","7","1","4","1","7","7","2","1","1","6","5","1","2","1","2","751465309353021442","何","223","Male","[""坏我"",""好我"",""坏他"",""好他""]","[""弱我"",""强我"",""弱他"",""强他""]","","","","","","","","7","","","","","","","","","SRET","SRET_math_calculate","","key","7","16.66644736842136","853.3333333333334","476","","","","","11-4= ?","7","1","","","","","","","",""
"2761","","7","psychophysics","121","561417","0.0-7.0-5.0-0.18","6","6","6","4","3","4","3","4","4","4","5","2","1","1","1","0","1","1","1","5","5","5","5","5","4","4","4","4","4","4","5","5","6","6","5","6","7","7","6","6","4","6","5","3","6","1","6","5","1","4","5","5","3","5","3","6","3","5","5","1","4","3","6","1","7","1","4","1","7","7","2","1","1","6","5","1","2","1","2","751465309353021442","何","223","Male","[""坏我"",""好我"",""坏他"",""好他""]","[""弱我"",""强我"",""弱他"",""强他""]","","","","","","","","7","","","","","","","","","SRET","SRET_math_calculate","","key","7","16.66787878787921","853.3333333333334","476","","","","","21/3= ? ","7","1","","","","","","","",""
"2329","","1","psychophysics","122","563748","0.0-7.0-5.0-0.19","6","6","6","4","3","4","3","4","4","4","5","2","1","1","1","0","1","1","1","5","5","5","5","5","4","4","4","4","4","4","5","5","6","6","5","6","7","7","6","6","4","6","5","3","6","1","6","5","1","4","5","5","3","5","3","6","3","5","5","1","4","3","6","1","7","1","4","1","7","7","2","1","1","6","5","1","2","1","2","751465309353021442","何","223","Male","[""坏我"",""好我"",""坏他"",""好他""]","[""弱我"",""强我"",""弱他"",""强他""]","","","","","","","","1","","","","","","","","","SRET","SRET_math_calculate","","key","1","16.666666666666668","853.3333333333334","476","","","","","10-9= ?","1","1","","","","","","","",""
"2334","","9","psychophysics","123","566085","0.0-7.0-5.0-0.20","6","6","6","4","3","4","3","4","4","4","5","2","1","1","1","0","1","1","1","5","5","5","5","5","4","4","4","4","4","4","5","5","6","6","5","6","7","7","6","6","4","6","5","3","6","1","6","5","1","4","5","5","3","5","3","6","3","5","5","1","4","3","6","1","7","1","4","1","7","7","2","1","1","6","5","1","2","1","2","751465309353021442","何","223","Male","[""坏我"",""好我"",""坏他"",""好他""]","[""弱我"",""强我"",""弱他"",""强他""]","","","","","","","","9","","","","","","","","","SRET","SRET_math_calculate","","key","9","16.664999999999832","853.3333333333334","476","","","","","5+4= ?","9","1","","","","","","","",""
"2439","","6","psychophysics","124","568526","0.0-7.0-5.0-0.21","6","6","6","4","3","4","3","4","4","4","5","2","1","1","1","0","1","1","1","5","5","5","5","5","4","4","4","4","4","4","5","5","6","6","5","6","7","7","6","6","4","6","5","3","6","1","6","5","1","4","5","5","3","5","3","6","3","5","5","1","4","3","6","1","7","1","4","1","7","7","2","1","1","6","5","1","2","1","2","751465309353021442","何","223","Male","[""坏我"",""好我"",""坏他"",""好他""]","[""弱我"",""强我"",""弱他"",""强他""]","","","","","","","","6","","","","","","","","","SRET","SRET_math_calculate","","key","6","16.666206896551564","853.3333333333334","476","","","","","2+4= ?","6","1","","","","","","","",""
"2217","","3","psychophysics","125","570744","0.0-7.0-5.0-0.22","6","6","6","4","3","4","3","4","4","4","5","2","1","1","1","0","1","1","1","5","5","5","5","5","4","4","4","4","4","4","5","5","6","6","5","6","7","7","6","6","4","6","5","3","6","1","6","5","1","4","5","5","3","5","3","6","3","5","5","1","4","3","6","1","7","1","4","1","7","7","2","1","1","6","5","1","2","1","2","751465309353021442","何","223","Male","[""坏我"",""好我"",""坏他"",""好他""]","[""弱我"",""强我"",""弱他"",""强他""]","","","","","","","","3","","","","","","","","","SRET","SRET_math_calculate","","key","3","16.665909090909267","853.3333333333334","476","","","","","1+2= ?","3","1","","","","","","","",""
"2423","","5","psychophysics","126","573183","0.0-7.0-5.0-0.23","6","6","6","4","3","4","3","4","4","4","5","2","1","1","1","0","1","1","1","5","5","5","5","5","4","4","4","4","4","4","5","5","6","6","5","6","7","7","6","6","4","6","5","3","6","1","6","5","1","4","5","5","3","5","3","6","3","5","5","1","4","3","6","1","7","1","4","1","7","7","2","1","1","6","5","1","2","1","2","751465309353021442","何","223","Male","[""坏我"",""好我"",""坏他"",""好他""]","[""弱我"",""强我"",""弱他"",""强他""]","","","","","","","","5","","","","","","","","","SRET","SRET_math_calculate","","key","5","16.603424657534088","853.3333333333334","476","","","","","16-11= ?","5","1","","","","","","","",""
"2349","","7","psychophysics","127","575533","0.0-7.0-5.0-0.24","6","6","6","4","3","4","3","4","4","4","5","2","1","1","1","0","1","1","1","5","5","5","5","5","4","4","4","4","4","4","5","5","6","6","5","6","7","7","6","6","4","6","5","3","6","1","6","5","1","4","5","5","3","5","3","6","3","5","5","1","4","3","6","1","7","1","4","1","7","7","2","1","1","6","5","1","2","1","2","751465309353021442","何","223","Male","[""坏我"",""好我"",""坏他"",""好他""]","[""弱我"",""强我"",""弱他"",""强他""]","","","","","","","","7","","","","","","","","","SRET","SRET_math_calculate","","key","7","16.666428571428906","853.3333333333334","476","","","","","8-1= ?","7","1","","","","","","","",""
"2463","","9","psychophysics","128","577998","0.0-7.0-5.0-0.25","6","6","6","4","3","4","3","4","4","4","5","2","1","1","1","0","1","1","1","5","5","5","5","5","4","4","4","4","4","4","5","5","6","6","5","6","7","7","6","6","4","6","5","3","6","1","6","5","1","4","5","5","3","5","3","6","3","5","5","1","4","3","6","1","7","1","4","1","7","7","2","1","1","6","5","1","2","1","2","751465309353021442","何","223","Male","[""坏我"",""好我"",""坏他"",""好他""]","[""弱我"",""强我"",""弱他"",""强他""]","","","","","","","","9","","","","","","","","","SRET","SRET_math_calculate","","key","9","16.661643835616278","853.3333333333334","476","","","","","1*9= ?","9","1","","","","","","","",""
"2915","","7","psychophysics","129","580916","0.0-7.0-5.0-0.26","6","6","6","4","3","4","3","4","4","4","5","2","1","1","1","0","1","1","1","5","5","5","5","5","4","4","4","4","4","4","5","5","6","6","5","6","7","7","6","6","4","6","5","3","6","1","6","5","1","4","5","5","3","5","3","6","3","5","5","1","4","3","6","1","7","1","4","1","7","7","2","1","1","6","5","1","2","1","2","751465309353021442","何","223","Male","[""坏我"",""好我"",""坏他"",""好他""]","[""弱我"",""强我"",""弱他"",""强他""]","","","","","","","","7","","","","","","","","","SRET","SRET_math_calculate","","key","7","16.666285714286246","853.3333333333334","476","","","","","1+6= ?","7","1","","","","","","","",""
"3374","","8","psychophysics","130","584292","0.0-7.0-5.0-0.27","6","6","6","4","3","4","3","4","4","4","5","2","1","1","1","0","1","1","1","5","5","5","5","5","4","4","4","4","4","4","5","5","6","6","5","6","7","7","6","6","4","6","5","3","6","1","6","5","1","4","5","5","3","5","3","6","3","5","5","1","4","3","6","1","7","1","4","1","7","7","2","1","1","6","5","1","2","1","2","751465309353021442","何","223","Male","[""坏我"",""好我"",""坏他"",""好他""]","[""弱我"",""强我"",""弱他"",""强他""]","","","","","","","","8","","","","","","","","","SRET","SRET_math_calculate","","key","8","16.666666666666668","853.3333333333334","476","","","","","11-3= ?","8","1","","","","","","","",""
"2341","","0","psychophysics","131","586635","0.0-7.0-5.0-0.28","6","6","6","4","3","4","3","4","4","4","5","2","1","1","1","0","1","1","1","5","5","5","5","5","4","4","4","4","4","4","5","5","6","6","5","6","7","7","6","6","4","6","5","3","6","1","6","5","1","4","5","5","3","5","3","6","3","5","5","1","4","3","6","1","7","1","4","1","7","7","2","1","1","6","5","1","2","1","2","751465309353021442","何","223","Male","[""坏我"",""好我"",""坏他"",""好他""]","[""弱我"",""强我"",""弱他"",""强他""]","","","","","","","","0","","","","","","","","","SRET","SRET_math_calculate","","key","0","16.665714285714785","853.3333333333334","476","","","","","6*0= ?","0","1","","","","","","","",""
"2769","","5","psychophysics","132","589405","0.0-7.0-5.0-0.29","6","6","6","4","3","4","3","4","4","4","5","2","1","1","1","0","1","1","1","5","5","5","5","5","4","4","4","4","4","4","5","5","6","6","5","6","7","7","6","6","4","6","5","3","6","1","6","5","1","4","5","5","3","5","3","6","3","5","5","1","4","3","6","1","7","1","4","1","7","7","2","1","1","6","5","1","2","1","2","751465309353021442","何","223","Male","[""坏我"",""好我"",""坏他"",""好他""]","[""弱我"",""强我"",""弱他"",""强他""]","","","","","","","","5","","","","","","","","","SRET","SRET_math_calculate","","key","5","16.666060606060746","853.3333333333334","476","","","","","5/1= ?","5","1","","","","","","","",""
"2186","","0","psychophysics","133","591592","0.0-7.0-5.0-0.30","6","6","6","4","3","4","3","4","4","4","5","2","1","1","1","0","1","1","1","5","5","5","5","5","4","4","4","4","4","4","5","5","6","6","5","6","7","7","6","6","4","6","5","3","6","1","6","5","1","4","5","5","3","5","3","6","3","5","5","1","4","3","6","1","7","1","4","1","7","7","2","1","1","6","5","1","2","1","2","751465309353021442","何","223","Male","[""坏我"",""好我"",""坏他"",""好他""]","[""弱我"",""强我"",""弱他"",""强他""]","","","","","","","","0","","","","","","","","","SRET","SRET_math_calculate","","key","0","16.665384615384614","853.3333333333334","476","","","","","22-22= ?","0","1","","","","","","","",""
"2352","","3","psychophysics","134","593946","0.0-7.0-5.0-0.31","6","6","6","4","3","4","3","4","4","4","5","2","1","1","1","0","1","1","1","5","5","5","5","5","4","4","4","4","4","4","5","5","6","6","5","6","7","7","6","6","4","6","5","3","6","1","6","5","1","4","5","5","3","5","3","6","3","5","5","1","4","3","6","1","7","1","4","1","7","7","2","1","1","6","5","1","2","1","2","751465309353021442","何","223","Male","[""坏我"",""好我"",""坏他"",""好他""]","[""弱我"",""强我"",""弱他"",""强他""]","","","","","","","","3","","","","","","","","","SRET","SRET_math_calculate","","key","3","16.665714285714785","853.3333333333334","476","","","","","3+0= ?","3","1","","","","","","","",""
"2386","","4","psychophysics","135","596335","0.0-7.0-5.0-0.32","6","6","6","4","3","4","3","4","4","4","5","2","1","1","1","0","1","1","1","5","5","5","5","5","4","4","4","4","4","4","5","5","6","6","5","6","7","7","6","6","4","6","5","3","6","1","6","5","1","4","5","5","3","5","3","6","3","5","5","1","4","3","6","1","7","1","4","1","7","7","2","1","1","6","5","1","2","1","2","751465309353021442","何","223","Male","[""坏我"",""好我"",""坏他"",""好他""]","[""弱我"",""强我"",""弱他"",""强他""]","","","","","","","","4","","","","","","","","","SRET","SRET_math_calculate","","key","4","16.666433566433078","853.3333333333334","476","","","","","9-5= ?","4","1","","","","","","","",""
"3024","","2","psychophysics","136","599361","0.0-7.0-5.0-0.33","6","6","6","4","3","4","3","4","4","4","5","2","1","1","1","0","1","1","1","5","5","5","5","5","4","4","4","4","4","4","5","5","6","6","5","6","7","7","6","6","4","6","5","3","6","1","6","5","1","4","5","5","3","5","3","6","3","5","5","1","4","3","6","1","7","1","4","1","7","7","2","1","1","6","5","1","2","1","2","751465309353021442","何","223","Male","[""坏我"",""好我"",""坏他"",""好他""]","[""弱我"",""强我"",""弱他"",""强他""]","","","","","","","","2","","","","","","","","","SRET","SRET_math_calculate","","key","2","16.665555555555816","853.3333333333334","476","","","","","22/11= ?","2","1","","","","","","","",""
"2397","","7","psychophysics","137","601759","0.0-7.0-5.0-0.34","6","6","6","4","3","4","3","4","4","4","5","2","1","1","1","0","1","1","1","5","5","5","5","5","4","4","4","4","4","4","5","5","6","6","5","6","7","7","6","6","4","6","5","3","6","1","6","5","1","4","5","5","3","5","3","6","3","5","5","1","4","3","6","1","7","1","4","1","7","7","2","1","1","6","5","1","2","1","2","751465309353021442","何","223","Male","[""坏我"",""好我"",""坏他"",""好他""]","[""弱我"",""强我"",""弱他"",""强他""]","","","","","","","","7","","","","","","","","","SRET","SRET_math_calculate","","key","7","16.59720279720296","853.3333333333334","476","","","","","6+1= ?","7","1","","","","","","","",""
"2125","","9","psychophysics","138","603886","0.0-7.0-5.0-0.35","6","6","6","4","3","4","3","4","4","4","5","2","1","1","1","0","1","1","1","5","5","5","5","5","4","4","4","4","4","4","5","5","6","6","5","6","7","7","6","6","4","6","5","3","6","1","6","5","1","4","5","5","3","5","3","6","3","5","5","1","4","3","6","1","7","1","4","1","7","7","2","1","1","6","5","1","2","1","2","751465309353021442","何","223","Male","[""坏我"",""好我"",""坏他"",""好他""]","[""弱我"",""强我"",""弱他"",""强他""]","","","","","","","","9","","","","","","","","","SRET","SRET_math_calculate","","key","9","16.666929133857902","853.3333333333334","476","","","","","6+3= ?","9","1","","","","","","","",""
"2247","","8","psychophysics","139","606133","0.0-7.0-5.0-0.36","6","6","6","4","3","4","3","4","4","4","5","2","1","1","1","0","1","1","1","5","5","5","5","5","4","4","4","4","4","4","5","5","6","6","5","6","7","7","6","6","4","6","5","3","6","1","6","5","1","4","5","5","3","5","3","6","3","5","5","1","4","3","6","1","7","1","4","1","7","7","2","1","1","6","5","1","2","1","2","751465309353021442","何","223","Male","[""坏我"",""好我"",""坏他"",""好他""]","[""弱我"",""强我"",""弱他"",""强他""]","","","","","","","","8","","","","","","","","","SRET","SRET_math_calculate","","key","8","16.66641791044724","853.3333333333334","476","","","","","8*1= ?","8","1","","","","","","","",""
"2072","","2","psychophysics","140","608207","0.0-7.0-5.0-0.37","6","6","6","4","3","4","3","4","4","4","5","2","1","1","1","0","1","1","1","5","5","5","5","5","4","4","4","4","4","4","5","5","6","6","5","6","7","7","6","6","4","6","5","3","6","1","6","5","1","4","5","5","3","5","3","6","3","5","5","1","4","3","6","1","7","1","4","1","7","7","2","1","1","6","5","1","2","1","2","751465309353021442","何","223","Male","[""坏我"",""好我"",""坏他"",""好他""]","[""弱我"",""强我"",""弱他"",""强他""]","","","","","","","","2","","","","","","","","","SRET","SRET_math_calculate","","key","2","16.667479674797505","853.3333333333334","476","","","","","5-3= ?","2","1","","","","","","","",""
