"rt","stimulus","response","trial_type","trial_index","time_elapsed","internal_node_id","swb_1","swb_2","swb_3","swb_4","swb_5","LOT_1","LOT_2","LOT_3","LOT_4","LOT_5","LOT_6","IPC_1","IPC_2","IPC_3","IPC_4","IPC_5","IPC_6","IPC_7","IPC_8","MorIden_1","MorIden_2","MorIden_3","MorIden_4","MorIden_5","MorIden_6","MorIden_7","MorIden_8","MorIden_9","MorIden_10","moralSeImag_1","moralSeImag_2","moralSeImag_3","moralSeImag_4","moralSeImag_5","moralSeImag_6","moralSeImag_7","moralSeImag_8","moralSeImag_9","sde_1","sde_2","sde_3","sde_4","sde_5","sde_6","sde_7","sde_8","sde_9","sde_10","trap2","sde_11","sde_12","sde_13","sde_14","sde_15","sde_16","sde_17","sde_18","sde_19","sde_20","IM_1","IM_2","IM_3","IM_4","IM_5","IM_6","IM_7","IM_8","IM_9","IM_10","IM_11","IM_12","IM_13","IM_14","IM_15","IM_16","IM_17","IM_18","IM_19","IM_20","subj_idx","friend_name","ParticipantID","Sex","Word","Word2","value","success","timeout","failed_images","failed_audio","failed_video","user_agent","responses","item_order","radio_event_ids","radio_event_times","key_event_times","mouse_event_times","straightlining","zigzagging","honeypot","view_history","response_type","key_press","avg_frame_time","center_x","center_y","correct_response","correct","identity","Image","word","condition","task_id","screen_id","time_stamp","person","valence","domain","math","status","duration","question_order","trap2_item"
"2110","
   <p><div style='color:white; font-size: 25px'>您好，欢迎参加本次实验。</div></p>
   <p><div style='color:white; font-size: 25px'>为充分保障您的权利，请确保您已经知晓并同意《参与实验同意书》以及《数据公开知情同意书》。</div></p>
   <p><div style='color:white; font-size: 25px'>如果您未见过上述内容，请咨询实验员。</div></p>
   <p style='color:white; font-size: 25px'>如果您选择继续实验，则表示您已经清楚两份知情同意书的内容并同意。</p>
   <p><div style = ""color: pink;font-size:30px;"">请确保您记得day0的实验编号，您将在本次实验输入该编号，若您忘记，请咨询实验员后作答。</div></p>
   <p><div style = ""color:lightblue;font-size:25px;"">请您尽可能认真地作答，我们将依据您在各问卷和按键任务中的作答质量发放报酬。</div></p>
   <p> <div style = ""color: green""><按空格键至下页></div> </p>
   "," ","html-keyboard-response","0","2118","0.0-0.0","5","4","6","6","5","4","4","5","4","5","4","-2","-2","0","1","-3","1","0","0","4","5","5","4","4","5","5","4","4","5","5","5","4","6","4","4","5","4","5","5","1","6","5","5","2","5","2","2","4","1","5","3","6","2","3","6","5","4","5","4","3","5","6","6","3","7","5","5","5","6","6","5","5","6","6","5","5","5","3","7","803273008734150658","陈","417","Male","[""坏我"",""好他"",""坏他"",""好我""]","[""弱我"",""强他"",""弱他"",""强我""]","","","","","","","","","","","","","","","","","","","","","","","","","","","","","","","","","","","","","","",""
"","","","call-function","1","2119","0.0-1.0-0.0","5","4","6","6","5","4","4","5","4","5","4","-2","-2","0","1","-3","1","0","0","4","5","5","4","4","5","5","4","4","5","5","5","4","6","4","4","5","4","5","5","1","6","5","5","2","5","2","2","4","1","5","3","6","2","3","6","5","4","5","4","3","5","6","6","3","7","5","5","5","6","6","5","5","6","6","5","5","5","3","7","803273008734150658","陈","417","Male","[""坏我"",""好他"",""坏他"",""好我""]","[""弱我"",""强他"",""弱他"",""强我""]","","","","","","","","","","","","","","","","","","","","","","","","","","","","","","","","","","","","","","",""
"20441","","[{""name"":""Sex"",""value"":""0""},{""name"":""friend_name"",""value"":""陈""},{""name"":""ParticipantID"",""value"":""417""}]","survey-html-form","2","22581","0.0-1.0-1.0","5","4","6","6","5","4","4","5","4","5","4","-2","-2","0","1","-3","1","0","0","4","5","5","4","4","5","5","4","4","5","5","5","4","6","4","4","5","4","5","5","1","6","5","5","2","5","2","2","4","1","5","3","6","2","3","6","5","4","5","4","3","5","6","6","3","7","5","5","5","6","6","5","5","6","6","5","5","5","3","7","803273008734150658","陈","417","Male","[""坏我"",""好他"",""坏他"",""好我""]","[""弱我"",""强他"",""弱他"",""强我""]","","","","","","","","","","","","","","","","","","","","","","","","","","","","","","","","","","","","","","",""
"","","","preload","3","23281","0.0-2.0","5","4","6","6","5","4","4","5","4","5","4","-2","-2","0","1","-3","1","0","0","4","5","5","4","4","5","5","4","4","5","5","5","4","6","4","4","5","4","5","5","1","6","5","5","2","5","2","2","4","1","5","3","6","2","3","6","5","4","5","4","3","5","6","6","3","7","5","5","5","6","6","5","5","6","6","5","5","5","3","7","803273008734150658","陈","417","Male","[""坏我"",""好他"",""坏他"",""好我""]","[""弱我"",""强他"",""弱他"",""强我""]","","true","false","[]","[]","[]","","","","","","","","","","","","","","","","","","","","","","","","","","","","","","","","",""
"","","","fullscreen","4","24682","0.0-3.0","5","4","6","6","5","4","4","5","4","5","4","-2","-2","0","1","-3","1","0","0","4","5","5","4","4","5","5","4","4","5","5","5","4","6","4","4","5","4","5","5","1","6","5","5","2","5","2","2","4","1","5","3","6","2","3","6","5","4","5","4","3","5","6","6","3","7","5","5","5","6","6","5","5","6","6","5","5","5","3","7","803273008734150658","陈","417","Male","[""坏我"",""好他"",""坏他"",""好我""]","[""弱我"",""强他"",""弱他"",""强我""]","","true","","","","","{}","","","","","","","","","","","","","","","","","","","","","","","","","","","","","","","",""
"32534.39999999851","","{""Q01"":""5"",""Q02"":""4"",""Q03"":""6"",""Q04"":""6"",""Q05"":""5""}","survey-template","5","57227","0.0-4.0","5","4","6","6","5","4","4","5","4","5","4","-2","-2","0","1","-3","1","0","0","4","5","5","4","4","5","5","4","4","5","5","5","4","6","4","4","5","4","5","5","1","6","5","5","2","5","2","2","4","1","5","3","6","2","3","6","5","4","5","4","3","5","6","6","3","7","5","5","5","6","6","5","5","6","6","5","5","5","3","7","803273008734150658","陈","417","Male","[""坏我"",""好他"",""坏他"",""好我""]","[""弱我"",""强他"",""弱他"",""强我""]","","","","","","","","{""Q01"":""5"",""Q02"":""4"",""Q03"":""6"",""Q04"":""6"",""Q05"":""5""}","[0,1,2,3,4]","[""Q01"",""Q02"",""Q03"",""Q04"",""Q05""]","[19547.69999999553,22891.09999999404,24563.09999999404,25291,26210.89999999851]","[]","[19547.69999999553,22891.09999999404,24563.09999999404,25291,26210.89999999851,32531.09999999404]","0.4","0.5","0","","","","","","","","","","","","","","","","","","","","","","",""
"21543.60000000149","","{""Q01"":""4"",""Q02"":""4"",""Q03"":""5"",""Q04"":""4"",""Q05"":""5"",""Q06"":""4""}","survey-template","6","78785","0.0-5.0","5","4","6","6","5","4","4","5","4","5","4","-2","-2","0","1","-3","1","0","0","4","5","5","4","4","5","5","4","4","5","5","5","4","6","4","4","5","4","5","5","1","6","5","5","2","5","2","2","4","1","5","3","6","2","3","6","5","4","5","4","3","5","6","6","3","7","5","5","5","6","6","5","5","6","6","5","5","5","3","7","803273008734150658","陈","417","Male","[""坏我"",""好他"",""坏他"",""好我""]","[""弱我"",""强他"",""弱他"",""强我""]","","","","","","","","{""Q01"":""4"",""Q02"":""4"",""Q03"":""5"",""Q04"":""4"",""Q05"":""5"",""Q06"":""4""}","[0,1,2,3,4,5]","[""Q01"",""Q02"",""Q03"",""Q04"",""Q05"",""Q06""]","[3333,4317.10000000149,5677.30000000447,7133.30000000447,8021.10000000149,10245.10000000149]","[]","[2253.10000000149,3333,4317.10000000149,5677.30000000447,7133.30000000447,8021.10000000149,10245.10000000149,21541.20000000298]","0.3333333333333333","0.2","0","","","","","","","","","","","","","","","","","","","","","","",""
"24068.69999999553","","{""Q01"":""-2"",""Q02"":""-2"",""Q03"":""0"",""Q04"":""1"",""Q05"":""-3"",""Q06"":""1"",""Q07"":""0"",""Q08"":""0""}","survey-template","7","102867","0.0-6.0","5","4","6","6","5","4","4","5","4","5","4","-2","-2","0","1","-3","1","0","0","4","5","5","4","4","5","5","4","4","5","5","5","4","6","4","4","5","4","5","5","1","6","5","5","2","5","2","2","4","1","5","3","6","2","3","6","5","4","5","4","3","5","6","6","3","7","5","5","5","6","6","5","5","6","6","5","5","5","3","7","803273008734150658","陈","417","Male","[""坏我"",""好他"",""坏他"",""好我""]","[""弱我"",""强他"",""弱他"",""强我""]","","","","","","","","{""Q01"":""-2"",""Q02"":""-2"",""Q03"":""0"",""Q04"":""1"",""Q05"":""-3"",""Q06"":""1"",""Q07"":""0"",""Q08"":""0""}","[0,1,2,3,4,5,6,7]","[""Q01"",""Q02"",""Q02"",""Q03"",""Q04"",""Q05"",""Q06"",""Q07"",""Q08""]","[4401.0999999940395,6209.19999999553,8689.29999999702,10353.29999999702,11489.19999999553,13689.19999999553,14961.19999999553,16113.09999999404,17321]","[]","[4401.0999999940395,6209.19999999553,8689.29999999702,10353.29999999702,11489.19999999553,12985.29999999702,13689.19999999553,14961.19999999553,16113.09999999404,17321,24065.29999999702]","0.375","0.2857142857142857","0","","","","","","","","","","","","","","","","","","","","","","",""
"1928","","","instructions","8","104806","0.0-7.0","5","4","6","6","5","4","4","5","4","5","4","-2","-2","0","1","-3","1","0","0","4","5","5","4","4","5","5","4","4","5","5","5","4","6","4","4","5","4","5","5","1","6","5","5","2","5","2","2","4","1","5","3","6","2","3","6","5","4","5","4","3","5","6","6","3","7","5","5","5","6","6","5","5","6","6","5","5","5","3","7","803273008734150658","陈","417","Male","[""坏我"",""好他"",""坏他"",""好我""]","[""弱我"",""强他"",""弱他"",""强我""]","","","","","","","","","","","","","","","","","[{""page_index"":0,""viewing_time"":1928}]","","","","","","","","","","","","","","","","","","","","","",""
"104146","","","instructions","9","208957","0.0-8.0-1.0-0.0","5","4","6","6","5","4","4","5","4","5","4","-2","-2","0","1","-3","1","0","0","4","5","5","4","4","5","5","4","4","5","5","5","4","6","4","4","5","4","5","5","1","6","5","5","2","5","2","2","4","1","5","3","6","2","3","6","5","4","5","4","3","5","6","6","3","7","5","5","5","6","6","5","5","6","6","5","5","5","3","7","803273008734150658","陈","417","Male","[""坏我"",""好他"",""坏他"",""好我""]","[""弱我"",""强他"",""弱他"",""强我""]","","","","","","","","","","","","","","","","","[{""page_index"":0,""viewing_time"":835},{""page_index"":1,""viewing_time"":102319},{""page_index"":2,""viewing_time"":544},{""page_index"":3,""viewing_time"":448}]","","","","","","","","","","","","","","","","","","","","","",""
"1062","","j","psychophysics","10","211032","0.0-8.0-1.0-1.0-0.0-0.0","5","4","6","6","5","4","4","5","4","5","4","-2","-2","0","1","-3","1","0","0","4","5","5","4","4","5","5","4","4","5","5","5","4","6","4","4","5","4","5","5","1","6","5","5","2","5","2","2","4","1","5","3","6","2","3","6","5","4","5","4","3","5","6","6","3","7","5","5","5","6","6","5","5","6","6","5","5","5","3","7","803273008734150658","陈","417","Male","[""坏我"",""好他"",""坏他"",""好我""]","[""弱我"",""强他"",""弱他"",""强我""]","","","","","","","","match","","","","","","","","","","key","j","19.205742857142884","683","380","j","true","match","img/pentagon.png","强我","强我","prac_ALT2_ability","practice_ability","","","","","","","","",""
"null","<span style='color:GreenYellow; font-size: 70px;'>正确! </span>","null","html-keyboard-response","11","211536","0.0-8.0-1.0-1.0-0.0-1.0","5","4","6","6","5","4","4","5","4","5","4","-2","-2","0","1","-3","1","0","0","4","5","5","4","4","5","5","4","4","5","5","5","4","6","4","4","5","4","5","5","1","6","5","5","2","5","2","2","4","1","5","3","6","2","3","6","5","4","5","4","3","5","6","6","3","7","5","5","5","6","6","5","5","6","6","5","5","5","3","7","803273008734150658","陈","417","Male","[""坏我"",""好他"",""坏他"",""好我""]","[""弱我"",""强他"",""弱他"",""强我""]","","","","","","","","","","","","","","","","","","","","","","","","","","","","","","feedback_test","","","","","","","","",""
"827","","f","psychophysics","12","213372","0.0-8.0-1.0-1.0-0.0-0.1","5","4","6","6","5","4","4","5","4","5","4","-2","-2","0","1","-3","1","0","0","4","5","5","4","4","5","5","4","4","5","5","5","4","6","4","4","5","4","5","5","1","6","5","5","2","5","2","2","4","1","5","3","6","2","3","6","5","4","5","4","3","5","6","6","3","7","5","5","5","6","6","5","5","6","6","5","5","5","3","7","803273008734150658","陈","417","Male","[""坏我"",""好他"",""坏他"",""好我""]","[""弱我"",""强他"",""弱他"",""强我""]","","","","","","","","nonmatch","","","","","","","","","","key","f","16.831518518518283","683","380","f","true","nonmatch","img/ellipse.png","强我","弱他","prac_ALT2_ability","practice_ability","","","","","","","","",""
"null","<span style='color:GreenYellow; font-size: 70px;'>正确! </span>","null","html-keyboard-response","13","213879","0.0-8.0-1.0-1.0-0.0-1.1","5","4","6","6","5","4","4","5","4","5","4","-2","-2","0","1","-3","1","0","0","4","5","5","4","4","5","5","4","4","5","5","5","4","6","4","4","5","4","5","5","1","6","5","5","2","5","2","2","4","1","5","3","6","2","3","6","5","4","5","4","3","5","6","6","3","7","5","5","5","6","6","5","5","6","6","5","5","5","3","7","803273008734150658","陈","417","Male","[""坏我"",""好他"",""坏他"",""好我""]","[""弱我"",""强他"",""弱他"",""强我""]","","","","","","","","","","","","","","","","","","","","","","","","","","","","","","feedback_test","","","","","","","","",""
"846","","f","psychophysics","14","215733","0.0-8.0-1.0-1.0-0.0-0.2","5","4","6","6","5","4","4","5","4","5","4","-2","-2","0","1","-3","1","0","0","4","5","5","4","4","5","5","4","4","5","5","5","4","6","4","4","5","4","5","5","1","6","5","5","2","5","2","2","4","1","5","3","6","2","3","6","5","4","5","4","3","5","6","6","3","7","5","5","5","6","6","5","5","6","6","5","5","5","3","7","803273008734150658","陈","417","Male","[""坏我"",""好他"",""坏他"",""好我""]","[""弱我"",""强他"",""弱他"",""强我""]","","","","","","","","nonmatch","","","","","","","","","","key","f","17.297320754717013","683","380","f","true","nonmatch","img/pentagon.png","弱他","强我","prac_ALT2_ability","practice_ability","","","","","","","","",""
"null","<span style='color:GreenYellow; font-size: 70px;'>正确! </span>","null","html-keyboard-response","15","216240","0.0-8.0-1.0-1.0-0.0-1.2","5","4","6","6","5","4","4","5","4","5","4","-2","-2","0","1","-3","1","0","0","4","5","5","4","4","5","5","4","4","5","5","5","4","6","4","4","5","4","5","5","1","6","5","5","2","5","2","2","4","1","5","3","6","2","3","6","5","4","5","4","3","5","6","6","3","7","5","5","5","6","6","5","5","6","6","5","5","5","3","7","803273008734150658","陈","417","Male","[""坏我"",""好他"",""坏他"",""好我""]","[""弱我"",""强他"",""弱他"",""强我""]","","","","","","","","","","","","","","","","","","","","","","","","","","","","","","feedback_test","","","","","","","","",""
"867","","f","psychophysics","16","218116","0.0-8.0-1.0-1.0-0.0-0.3","5","4","6","6","5","4","4","5","4","5","4","-2","-2","0","1","-3","1","0","0","4","5","5","4","4","5","5","4","4","5","5","5","4","6","4","4","5","4","5","5","1","6","5","5","2","5","2","2","4","1","5","3","6","2","3","6","5","4","5","4","3","5","6","6","3","7","5","5","5","6","6","5","5","6","6","5","5","5","3","7","803273008734150658","陈","417","Male","[""坏我"",""好他"",""坏他"",""好我""]","[""弱我"",""强他"",""弱他"",""强我""]","","","","","","","","nonmatch","","","","","","","","","","key","f","16.66776785714267","683","380","f","true","nonmatch","img/diamond.png","弱我","强他","prac_ALT2_ability","practice_ability","","","","","","","","",""
"null","<span style='color:GreenYellow; font-size: 70px;'>正确! </span>","null","html-keyboard-response","17","218624","0.0-8.0-1.0-1.0-0.0-1.3","5","4","6","6","5","4","4","5","4","5","4","-2","-2","0","1","-3","1","0","0","4","5","5","4","4","5","5","4","4","5","5","5","4","6","4","4","5","4","5","5","1","6","5","5","2","5","2","2","4","1","5","3","6","2","3","6","5","4","5","4","3","5","6","6","3","7","5","5","5","6","6","5","5","6","6","5","5","5","3","7","803273008734150658","陈","417","Male","[""坏我"",""好他"",""坏他"",""好我""]","[""弱我"",""强他"",""弱他"",""强我""]","","","","","","","","","","","","","","","","","","","","","","","","","","","","","","feedback_test","","","","","","","","",""
"999","","j","psychophysics","18","220631","0.0-8.0-1.0-1.0-0.0-0.4","5","4","6","6","5","4","4","5","4","5","4","-2","-2","0","1","-3","1","0","0","4","5","5","4","4","5","5","4","4","5","5","5","4","6","4","4","5","4","5","5","1","6","5","5","2","5","2","2","4","1","5","3","6","2","3","6","5","4","5","4","3","5","6","6","3","7","5","5","5","6","6","5","5","6","6","5","5","5","3","7","803273008734150658","陈","417","Male","[""坏我"",""好他"",""坏他"",""好我""]","[""弱我"",""强他"",""弱他"",""强我""]","","","","","","","","match","","","","","","","","","","key","j","16.8084369747899","683","380","f","false","nonmatch","img/pentagon.png","弱我","强我","prac_ALT2_ability","practice_ability","","","","","","","","",""
"null","<span style='color:red; font-size: 70px;'>错误! </span>","null","html-keyboard-response","19","221136","0.0-8.0-1.0-1.0-0.0-1.4","5","4","6","6","5","4","4","5","4","5","4","-2","-2","0","1","-3","1","0","0","4","5","5","4","4","5","5","4","4","5","5","5","4","6","4","4","5","4","5","5","1","6","5","5","2","5","2","2","4","1","5","3","6","2","3","6","5","4","5","4","3","5","6","6","3","7","5","5","5","6","6","5","5","6","6","5","5","5","3","7","803273008734150658","陈","417","Male","[""坏我"",""好他"",""坏他"",""好我""]","[""弱我"",""强他"",""弱他"",""强我""]","","","","","","","","","","","","","","","","","","","","","","","","","","","","","","feedback_test","","","","","","","","",""
"952","","f","psychophysics","20","223100","0.0-8.0-1.0-1.0-0.0-0.5","5","4","6","6","5","4","4","5","4","5","4","-2","-2","0","1","-3","1","0","0","4","5","5","4","4","5","5","4","4","5","5","5","4","6","4","4","5","4","5","5","1","6","5","5","2","5","2","2","4","1","5","3","6","2","3","6","5","4","5","4","3","5","6","6","3","7","5","5","5","6","6","5","5","6","6","5","5","5","3","7","803273008734150658","陈","417","Male","[""坏我"",""好他"",""坏他"",""好我""]","[""弱我"",""强他"",""弱他"",""强我""]","","","","","","","","nonmatch","","","","","","","","","","key","f","16.67111111111102","683","380","f","true","nonmatch","img/pentagon.png","强他","强我","prac_ALT2_ability","practice_ability","","","","","","","","",""
"null","<span style='color:GreenYellow; font-size: 70px;'>正确! </span>","null","html-keyboard-response","21","223608","0.0-8.0-1.0-1.0-0.0-1.5","5","4","6","6","5","4","4","5","4","5","4","-2","-2","0","1","-3","1","0","0","4","5","5","4","4","5","5","4","4","5","5","5","4","6","4","4","5","4","5","5","1","6","5","5","2","5","2","2","4","1","5","3","6","2","3","6","5","4","5","4","3","5","6","6","3","7","5","5","5","6","6","5","5","6","6","5","5","5","3","7","803273008734150658","陈","417","Male","[""坏我"",""好他"",""坏他"",""好我""]","[""弱我"",""强他"",""弱他"",""强我""]","","","","","","","","","","","","","","","","","","","","","","","","","","","","","","feedback_test","","","","","","","","",""
"1077","","f","psychophysics","22","225692","0.0-8.0-1.0-1.0-0.0-0.6","5","4","6","6","5","4","4","5","4","5","4","-2","-2","0","1","-3","1","0","0","4","5","5","4","4","5","5","4","4","5","5","5","4","6","4","4","5","4","5","5","1","6","5","5","2","5","2","2","4","1","5","3","6","2","3","6","5","4","5","4","3","5","6","6","3","7","5","5","5","6","6","5","5","6","6","5","5","5","3","7","803273008734150658","陈","417","Male","[""坏我"",""好他"",""坏他"",""好我""]","[""弱我"",""强他"",""弱他"",""强我""]","","","","","","","","nonmatch","","","","","","","","","","key","f","16.667774193548418","683","380","f","true","nonmatch","img/triangle.png","强他","弱我","prac_ALT2_ability","practice_ability","","","","","","","","",""
"null","<span style='color:GreenYellow; font-size: 70px;'>正确! </span>","null","html-keyboard-response","23","226200","0.0-8.0-1.0-1.0-0.0-1.6","5","4","6","6","5","4","4","5","4","5","4","-2","-2","0","1","-3","1","0","0","4","5","5","4","4","5","5","4","4","5","5","5","4","6","4","4","5","4","5","5","1","6","5","5","2","5","2","2","4","1","5","3","6","2","3","6","5","4","5","4","3","5","6","6","3","7","5","5","5","6","6","5","5","6","6","5","5","5","3","7","803273008734150658","陈","417","Male","[""坏我"",""好他"",""坏他"",""好我""]","[""弱我"",""强他"",""弱他"",""强我""]","","","","","","","","","","","","","","","","","","","","","","","","","","","","","","feedback_test","","","","","","","","",""
"1076","","j","psychophysics","24","228284","0.0-8.0-1.0-1.0-0.0-0.7","5","4","6","6","5","4","4","5","4","5","4","-2","-2","0","1","-3","1","0","0","4","5","5","4","4","5","5","4","4","5","5","5","4","6","4","4","5","4","5","5","1","6","5","5","2","5","2","2","4","1","5","3","6","2","3","6","5","4","5","4","3","5","6","6","3","7","5","5","5","6","6","5","5","6","6","5","5","5","3","7","803273008734150658","陈","417","Male","[""坏我"",""好他"",""坏他"",""好我""]","[""弱我"",""强他"",""弱他"",""强我""]","","","","","","","","match","","","","","","","","","","key","j","16.667290322580694","683","380","j","true","match","img/diamond.png","强他","强他","prac_ALT2_ability","practice_ability","","","","","","","","",""
"null","<span style='color:GreenYellow; font-size: 70px;'>正确! </span>","null","html-keyboard-response","25","228792","0.0-8.0-1.0-1.0-0.0-1.7","5","4","6","6","5","4","4","5","4","5","4","-2","-2","0","1","-3","1","0","0","4","5","5","4","4","5","5","4","4","5","5","5","4","6","4","4","5","4","5","5","1","6","5","5","2","5","2","2","4","1","5","3","6","2","3","6","5","4","5","4","3","5","6","6","3","7","5","5","5","6","6","5","5","6","6","5","5","5","3","7","803273008734150658","陈","417","Male","[""坏我"",""好他"",""坏他"",""好我""]","[""弱我"",""强他"",""弱他"",""强我""]","","","","","","","","","","","","","","","","","","","","","","","","","","","","","","feedback_test","","","","","","","","",""
"1153","","j","psychophysics","26","230949","0.0-8.0-1.0-1.0-0.0-0.8","5","4","6","6","5","4","4","5","4","5","4","-2","-2","0","1","-3","1","0","0","4","5","5","4","4","5","5","4","4","5","5","5","4","6","4","4","5","4","5","5","1","6","5","5","2","5","2","2","4","1","5","3","6","2","3","6","5","4","5","4","3","5","6","6","3","7","5","5","5","6","6","5","5","6","6","5","5","5","3","7","803273008734150658","陈","417","Male","[""坏我"",""好他"",""坏他"",""好我""]","[""弱我"",""强他"",""弱他"",""强我""]","","","","","","","","match","","","","","","","","","","key","j","16.79782677165349","683","380","j","true","match","img/triangle.png","弱我","弱我","prac_ALT2_ability","practice_ability","","","","","","","","",""
"null","<span style='color:GreenYellow; font-size: 70px;'>正确! </span>","null","html-keyboard-response","27","231456","0.0-8.0-1.0-1.0-0.0-1.8","5","4","6","6","5","4","4","5","4","5","4","-2","-2","0","1","-3","1","0","0","4","5","5","4","4","5","5","4","4","5","5","5","4","6","4","4","5","4","5","5","1","6","5","5","2","5","2","2","4","1","5","3","6","2","3","6","5","4","5","4","3","5","6","6","3","7","5","5","5","6","6","5","5","6","6","5","5","5","3","7","803273008734150658","陈","417","Male","[""坏我"",""好他"",""坏他"",""好我""]","[""弱我"",""强他"",""弱他"",""强我""]","","","","","","","","","","","","","","","","","","","","","","","","","","","","","","feedback_test","","","","","","","","",""
"1101","","f","psychophysics","28","233564","0.0-8.0-1.0-1.0-0.0-0.9","5","4","6","6","5","4","4","5","4","5","4","-2","-2","0","1","-3","1","0","0","4","5","5","4","4","5","5","4","4","5","5","5","4","6","4","4","5","4","5","5","1","6","5","5","2","5","2","2","4","1","5","3","6","2","3","6","5","4","5","4","3","5","6","6","3","7","5","5","5","6","6","5","5","6","6","5","5","5","3","7","803273008734150658","陈","417","Male","[""坏我"",""好他"",""坏他"",""好我""]","[""弱我"",""强他"",""弱他"",""强我""]","","","","","","","","nonmatch","","","","","","","","","","key","f","16.669420634920705","683","380","j","false","match","img/ellipse.png","弱他","弱他","prac_ALT2_ability","practice_ability","","","","","","","","",""
"null","<span style='color:red; font-size: 70px;'>错误! </span>","null","html-keyboard-response","29","234072","0.0-8.0-1.0-1.0-0.0-1.9","5","4","6","6","5","4","4","5","4","5","4","-2","-2","0","1","-3","1","0","0","4","5","5","4","4","5","5","4","4","5","5","5","4","6","4","4","5","4","5","5","1","6","5","5","2","5","2","2","4","1","5","3","6","2","3","6","5","4","5","4","3","5","6","6","3","7","5","5","5","6","6","5","5","6","6","5","5","5","3","7","803273008734150658","陈","417","Male","[""坏我"",""好他"",""坏他"",""好我""]","[""弱我"",""强他"",""弱他"",""强我""]","","","","","","","","","","","","","","","","","","","","","","","","","","","","","","feedback_test","","","","","","","","",""
"851","","f","psychophysics","30","235932","0.0-8.0-1.0-1.0-0.0-0.10","5","4","6","6","5","4","4","5","4","5","4","-2","-2","0","1","-3","1","0","0","4","5","5","4","4","5","5","4","4","5","5","5","4","6","4","4","5","4","5","5","1","6","5","5","2","5","2","2","4","1","5","3","6","2","3","6","5","4","5","4","3","5","6","6","3","7","5","5","5","6","6","5","5","6","6","5","5","5","3","7","803273008734150658","陈","417","Male","[""坏我"",""好他"",""坏他"",""好我""]","[""弱我"",""强他"",""弱他"",""强我""]","","","","","","","","nonmatch","","","","","","","","","","key","f","16.81950909090916","683","380","f","true","nonmatch","img/triangle.png","弱他","弱我","prac_ALT2_ability","practice_ability","","","","","","","","",""
"null","<span style='color:GreenYellow; font-size: 70px;'>正确! </span>","null","html-keyboard-response","31","236439","0.0-8.0-1.0-1.0-0.0-1.10","5","4","6","6","5","4","4","5","4","5","4","-2","-2","0","1","-3","1","0","0","4","5","5","4","4","5","5","4","4","5","5","5","4","6","4","4","5","4","5","5","1","6","5","5","2","5","2","2","4","1","5","3","6","2","3","6","5","4","5","4","3","5","6","6","3","7","5","5","5","6","6","5","5","6","6","5","5","5","3","7","803273008734150658","陈","417","Male","[""坏我"",""好他"",""坏他"",""好我""]","[""弱我"",""强他"",""弱他"",""强我""]","","","","","","","","","","","","","","","","","","","","","","","","","","","","","","feedback_test","","","","","","","","",""
"1071","","j","psychophysics","32","238517","0.0-8.0-1.0-1.0-0.0-0.11","5","4","6","6","5","4","4","5","4","5","4","-2","-2","0","1","-3","1","0","0","4","5","5","4","4","5","5","4","4","5","5","5","4","6","4","4","5","4","5","5","1","6","5","5","2","5","2","2","4","1","5","3","6","2","3","6","5","4","5","4","3","5","6","6","3","7","5","5","5","6","6","5","5","6","6","5","5","5","3","7","803273008734150658","陈","417","Male","[""坏我"",""好他"",""坏他"",""好我""]","[""弱我"",""强他"",""弱他"",""强我""]","","","","","","","","match","","","","","","","","","","key","j","16.673721311475315","683","380","j","true","match","img/diamond.png","强他","强他","prac_ALT2_ability","practice_ability","","","","","","","","",""
"null","<span style='color:GreenYellow; font-size: 70px;'>正确! </span>","null","html-keyboard-response","33","239024","0.0-8.0-1.0-1.0-0.0-1.11","5","4","6","6","5","4","4","5","4","5","4","-2","-2","0","1","-3","1","0","0","4","5","5","4","4","5","5","4","4","5","5","5","4","6","4","4","5","4","5","5","1","6","5","5","2","5","2","2","4","1","5","3","6","2","3","6","5","4","5","4","3","5","6","6","3","7","5","5","5","6","6","5","5","6","6","5","5","5","3","7","803273008734150658","陈","417","Male","[""坏我"",""好他"",""坏他"",""好我""]","[""弱我"",""强他"",""弱他"",""强我""]","","","","","","","","","","","","","","","","","","","","","","","","","","","","","","feedback_test","","","","","","","","",""
"987","","j","psychophysics","34","241014","0.0-8.0-1.0-1.0-0.0-0.12","5","4","6","6","5","4","4","5","4","5","4","-2","-2","0","1","-3","1","0","0","4","5","5","4","4","5","5","4","4","5","5","5","4","6","4","4","5","4","5","5","1","6","5","5","2","5","2","2","4","1","5","3","6","2","3","6","5","4","5","4","3","5","6","6","3","7","5","5","5","6","6","5","5","6","6","5","5","5","3","7","803273008734150658","陈","417","Male","[""坏我"",""好他"",""坏他"",""好我""]","[""弱我"",""强他"",""弱他"",""强我""]","","","","","","","","match","","","","","","","","","","key","j","16.664410256410296","683","380","j","true","match","img/pentagon.png","强我","强我","prac_ALT2_ability","practice_ability","","","","","","","","",""
"null","<span style='color:GreenYellow; font-size: 70px;'>正确! </span>","null","html-keyboard-response","35","241520","0.0-8.0-1.0-1.0-0.0-1.12","5","4","6","6","5","4","4","5","4","5","4","-2","-2","0","1","-3","1","0","0","4","5","5","4","4","5","5","4","4","5","5","5","4","6","4","4","5","4","5","5","1","6","5","5","2","5","2","2","4","1","5","3","6","2","3","6","5","4","5","4","3","5","6","6","3","7","5","5","5","6","6","5","5","6","6","5","5","5","3","7","803273008734150658","陈","417","Male","[""坏我"",""好他"",""坏他"",""好我""]","[""弱我"",""强他"",""弱他"",""强我""]","","","","","","","","","","","","","","","","","","","","","","","","","","","","","","feedback_test","","","","","","","","",""
"null","","null","psychophysics","36","243734","0.0-8.0-1.0-1.0-0.0-0.13","5","4","6","6","5","4","4","5","4","5","4","-2","-2","0","1","-3","1","0","0","4","5","5","4","4","5","5","4","4","5","5","5","4","6","4","4","5","4","5","5","1","6","5","5","2","5","2","2","4","1","5","3","6","2","3","6","5","4","5","4","3","5","6","6","3","7","5","5","5","6","6","5","5","6","6","5","5","5","3","7","803273008734150658","陈","417","Male","[""坏我"",""好他"",""坏他"",""好我""]","[""弱我"",""强他"",""弱他"",""强我""]","","","","","","","","null","","","","","","","","","","key","null","16.667181818181813","683","380","j","false","match","img/triangle.png","弱我","弱我","prac_ALT2_ability","practice_ability","","","","","","","","",""
"null","<span class='add_' style='color:yellow; font-size: 70px;'> 太慢! </span>","null","html-keyboard-response","37","244240","0.0-8.0-1.0-1.0-0.0-1.13","5","4","6","6","5","4","4","5","4","5","4","-2","-2","0","1","-3","1","0","0","4","5","5","4","4","5","5","4","4","5","5","5","4","6","4","4","5","4","5","5","1","6","5","5","2","5","2","2","4","1","5","3","6","2","3","6","5","4","5","4","3","5","6","6","3","7","5","5","5","6","6","5","5","6","6","5","5","5","3","7","803273008734150658","陈","417","Male","[""坏我"",""好他"",""坏他"",""好我""]","[""弱我"",""强他"",""弱他"",""强我""]","","","","","","","","","","","","","","","","","","","","","","","","","","","","","","feedback_test","","","","","","","","",""
"929","","f","psychophysics","38","246172","0.0-8.0-1.0-1.0-0.0-0.14","5","4","6","6","5","4","4","5","4","5","4","-2","-2","0","1","-3","1","0","0","4","5","5","4","4","5","5","4","4","5","5","5","4","6","4","4","5","4","5","5","1","6","5","5","2","5","2","2","4","1","5","3","6","2","3","6","5","4","5","4","3","5","6","6","3","7","5","5","5","6","6","5","5","6","6","5","5","5","3","7","803273008734150658","陈","417","Male","[""坏我"",""好他"",""坏他"",""好我""]","[""弱我"",""强他"",""弱他"",""强我""]","","","","","","","","nonmatch","","","","","","","","","","key","f","16.6702389380533","683","380","f","true","nonmatch","img/triangle.png","强我","弱我","prac_ALT2_ability","practice_ability","","","","","","","","",""
"null","<span style='color:GreenYellow; font-size: 70px;'>正确! </span>","null","html-keyboard-response","39","246680","0.0-8.0-1.0-1.0-0.0-1.14","5","4","6","6","5","4","4","5","4","5","4","-2","-2","0","1","-3","1","0","0","4","5","5","4","4","5","5","4","4","5","5","5","4","6","4","4","5","4","5","5","1","6","5","5","2","5","2","2","4","1","5","3","6","2","3","6","5","4","5","4","3","5","6","6","3","7","5","5","5","6","6","5","5","6","6","5","5","5","3","7","803273008734150658","陈","417","Male","[""坏我"",""好他"",""坏他"",""好我""]","[""弱我"",""强他"",""弱他"",""强我""]","","","","","","","","","","","","","","","","","","","","","","","","","","","","","","feedback_test","","","","","","","","",""
"1159","","f","psychophysics","40","248847","0.0-8.0-1.0-1.0-0.0-0.15","5","4","6","6","5","4","4","5","4","5","4","-2","-2","0","1","-3","1","0","0","4","5","5","4","4","5","5","4","4","5","5","5","4","6","4","4","5","4","5","5","1","6","5","5","2","5","2","2","4","1","5","3","6","2","3","6","5","4","5","4","3","5","6","6","3","7","5","5","5","6","6","5","5","6","6","5","5","5","3","7","803273008734150658","陈","417","Male","[""坏我"",""好他"",""坏他"",""好我""]","[""弱我"",""强他"",""弱他"",""强我""]","","","","","","","","nonmatch","","","","","","","","","","key","f","16.662852713178307","683","380","f","true","nonmatch","img/ellipse.png","强他","弱他","prac_ALT2_ability","practice_ability","","","","","","","","",""
"null","<span style='color:GreenYellow; font-size: 70px;'>正确! </span>","null","html-keyboard-response","41","249352","0.0-8.0-1.0-1.0-0.0-1.15","5","4","6","6","5","4","4","5","4","5","4","-2","-2","0","1","-3","1","0","0","4","5","5","4","4","5","5","4","4","5","5","5","4","6","4","4","5","4","5","5","1","6","5","5","2","5","2","2","4","1","5","3","6","2","3","6","5","4","5","4","3","5","6","6","3","7","5","5","5","6","6","5","5","6","6","5","5","5","3","7","803273008734150658","陈","417","Male","[""坏我"",""好他"",""坏他"",""好我""]","[""弱我"",""强他"",""弱他"",""强我""]","","","","","","","","","","","","","","","","","","","","","","","","","","","","","","feedback_test","","","","","","","","",""
"1083","","f","psychophysics","42","251447","0.0-8.0-1.0-1.0-0.0-0.16","5","4","6","6","5","4","4","5","4","5","4","-2","-2","0","1","-3","1","0","0","4","5","5","4","4","5","5","4","4","5","5","5","4","6","4","4","5","4","5","5","1","6","5","5","2","5","2","2","4","1","5","3","6","2","3","6","5","4","5","4","3","5","6","6","3","7","5","5","5","6","6","5","5","6","6","5","5","5","3","7","803273008734150658","陈","417","Male","[""坏我"",""好他"",""坏他"",""好我""]","[""弱我"",""强他"",""弱他"",""强我""]","","","","","","","","nonmatch","","","","","","","","","","key","f","16.666752000000095","683","380","f","true","nonmatch","img/diamond.png","弱他","强他","prac_ALT2_ability","practice_ability","","","","","","","","",""
"null","<span style='color:GreenYellow; font-size: 70px;'>正确! </span>","null","html-keyboard-response","43","251952","0.0-8.0-1.0-1.0-0.0-1.16","5","4","6","6","5","4","4","5","4","5","4","-2","-2","0","1","-3","1","0","0","4","5","5","4","4","5","5","4","4","5","5","5","4","6","4","4","5","4","5","5","1","6","5","5","2","5","2","2","4","1","5","3","6","2","3","6","5","4","5","4","3","5","6","6","3","7","5","5","5","6","6","5","5","6","6","5","5","5","3","7","803273008734150658","陈","417","Male","[""坏我"",""好他"",""坏他"",""好我""]","[""弱我"",""强他"",""弱他"",""强我""]","","","","","","","","","","","","","","","","","","","","","","","","","","","","","","feedback_test","","","","","","","","",""
"1050","","f","psychophysics","44","254013","0.0-8.0-1.0-1.0-0.0-0.17","5","4","6","6","5","4","4","5","4","5","4","-2","-2","0","1","-3","1","0","0","4","5","5","4","4","5","5","4","4","5","5","5","4","6","4","4","5","4","5","5","1","6","5","5","2","5","2","2","4","1","5","3","6","2","3","6","5","4","5","4","3","5","6","6","3","7","5","5","5","6","6","5","5","6","6","5","5","5","3","7","803273008734150658","陈","417","Male","[""坏我"",""好他"",""坏他"",""好我""]","[""弱我"",""强他"",""弱他"",""强我""]","","","","","","","","nonmatch","","","","","","","","","","key","f","16.667688524590034","683","380","j","false","match","img/ellipse.png","弱他","弱他","prac_ALT2_ability","practice_ability","","","","","","","","",""
"null","<span style='color:red; font-size: 70px;'>错误! </span>","null","html-keyboard-response","45","254520","0.0-8.0-1.0-1.0-0.0-1.17","5","4","6","6","5","4","4","5","4","5","4","-2","-2","0","1","-3","1","0","0","4","5","5","4","4","5","5","4","4","5","5","5","4","6","4","4","5","4","5","5","1","6","5","5","2","5","2","2","4","1","5","3","6","2","3","6","5","4","5","4","3","5","6","6","3","7","5","5","5","6","6","5","5","6","6","5","5","5","3","7","803273008734150658","陈","417","Male","[""坏我"",""好他"",""坏他"",""好我""]","[""弱我"",""强他"",""弱他"",""强我""]","","","","","","","","","","","","","","","","","","","","","","","","","","","","","","feedback_test","","","","","","","","",""
"1058","","f","psychophysics","46","256588","0.0-8.0-1.0-1.0-0.0-0.18","5","4","6","6","5","4","4","5","4","5","4","-2","-2","0","1","-3","1","0","0","4","5","5","4","4","5","5","4","4","5","5","5","4","6","4","4","5","4","5","5","1","6","5","5","2","5","2","2","4","1","5","3","6","2","3","6","5","4","5","4","3","5","6","6","3","7","5","5","5","6","6","5","5","6","6","5","5","5","3","7","803273008734150658","陈","417","Male","[""坏我"",""好他"",""坏他"",""好我""]","[""弱我"",""强他"",""弱他"",""强我""]","","","","","","","","nonmatch","","","","","","","","","","key","f","16.668325203252014","683","380","f","true","nonmatch","img/diamond.png","强我","强他","prac_ALT2_ability","practice_ability","","","","","","","","",""
"null","<span style='color:GreenYellow; font-size: 70px;'>正确! </span>","null","html-keyboard-response","47","257096","0.0-8.0-1.0-1.0-0.0-1.18","5","4","6","6","5","4","4","5","4","5","4","-2","-2","0","1","-3","1","0","0","4","5","5","4","4","5","5","4","4","5","5","5","4","6","4","4","5","4","5","5","1","6","5","5","2","5","2","2","4","1","5","3","6","2","3","6","5","4","5","4","3","5","6","6","3","7","5","5","5","6","6","5","5","6","6","5","5","5","3","7","803273008734150658","陈","417","Male","[""坏我"",""好他"",""坏他"",""好我""]","[""弱我"",""强他"",""弱他"",""强我""]","","","","","","","","","","","","","","","","","","","","","","","","","","","","","","feedback_test","","","","","","","","",""
"949","","j","psychophysics","48","259052","0.0-8.0-1.0-1.0-0.0-0.19","5","4","6","6","5","4","4","5","4","5","4","-2","-2","0","1","-3","1","0","0","4","5","5","4","4","5","5","4","4","5","5","5","4","6","4","4","5","4","5","5","1","6","5","5","2","5","2","2","4","1","5","3","6","2","3","6","5","4","5","4","3","5","6","6","3","7","5","5","5","6","6","5","5","6","6","5","5","5","3","7","803273008734150658","陈","417","Male","[""坏我"",""好他"",""坏他"",""好我""]","[""弱我"",""强他"",""弱他"",""强我""]","","","","","","","","match","","","","","","","","","","key","j","16.66493965517243","683","380","j","true","match","img/pentagon.png","强我","强我","prac_ALT2_ability","practice_ability","","","","","","","","",""
"null","<span style='color:GreenYellow; font-size: 70px;'>正确! </span>","null","html-keyboard-response","49","259560","0.0-8.0-1.0-1.0-0.0-1.19","5","4","6","6","5","4","4","5","4","5","4","-2","-2","0","1","-3","1","0","0","4","5","5","4","4","5","5","4","4","5","5","5","4","6","4","4","5","4","5","5","1","6","5","5","2","5","2","2","4","1","5","3","6","2","3","6","5","4","5","4","3","5","6","6","3","7","5","5","5","6","6","5","5","6","6","5","5","5","3","7","803273008734150658","陈","417","Male","[""坏我"",""好他"",""坏他"",""好我""]","[""弱我"",""强他"",""弱他"",""强我""]","","","","","","","","","","","","","","","","","","","","","","","","","","","","","","feedback_test","","","","","","","","",""
"1042","","j","psychophysics","50","261604","0.0-8.0-1.0-1.0-0.0-0.20","5","4","6","6","5","4","4","5","4","5","4","-2","-2","0","1","-3","1","0","0","4","5","5","4","4","5","5","4","4","5","5","5","4","6","4","4","5","4","5","5","1","6","5","5","2","5","2","2","4","1","5","3","6","2","3","6","5","4","5","4","3","5","6","6","3","7","5","5","5","6","6","5","5","6","6","5","5","5","3","7","803273008734150658","陈","417","Male","[""坏我"",""好他"",""坏他"",""好我""]","[""弱我"",""强他"",""弱他"",""强我""]","","","","","","","","match","","","","","","","","","","key","j","16.671603305785087","683","380","j","true","match","img/triangle.png","弱我","弱我","prac_ALT2_ability","practice_ability","","","","","","","","",""
"null","<span style='color:GreenYellow; font-size: 70px;'>正确! </span>","null","html-keyboard-response","51","262112","0.0-8.0-1.0-1.0-0.0-1.20","5","4","6","6","5","4","4","5","4","5","4","-2","-2","0","1","-3","1","0","0","4","5","5","4","4","5","5","4","4","5","5","5","4","6","4","4","5","4","5","5","1","6","5","5","2","5","2","2","4","1","5","3","6","2","3","6","5","4","5","4","3","5","6","6","3","7","5","5","5","6","6","5","5","6","6","5","5","5","3","7","803273008734150658","陈","417","Male","[""坏我"",""好他"",""坏他"",""好我""]","[""弱我"",""强他"",""弱他"",""强我""]","","","","","","","","","","","","","","","","","","","","","","","","","","","","","","feedback_test","","","","","","","","",""
"909","","j","psychophysics","52","264029","0.0-8.0-1.0-1.0-0.0-0.21","5","4","6","6","5","4","4","5","4","5","4","-2","-2","0","1","-3","1","0","0","4","5","5","4","4","5","5","4","4","5","5","5","4","6","4","4","5","4","5","5","1","6","5","5","2","5","2","2","4","1","5","3","6","2","3","6","5","4","5","4","3","5","6","6","3","7","5","5","5","6","6","5","5","6","6","5","5","5","3","7","803273008734150658","陈","417","Male","[""坏我"",""好他"",""坏他"",""好我""]","[""弱我"",""强他"",""弱他"",""强我""]","","","","","","","","match","","","","","","","","","","key","j","16.669552631578675","683","380","j","true","match","img/diamond.png","强他","强他","prac_ALT2_ability","practice_ability","","","","","","","","",""
"null","<span style='color:GreenYellow; font-size: 70px;'>正确! </span>","null","html-keyboard-response","53","264536","0.0-8.0-1.0-1.0-0.0-1.21","5","4","6","6","5","4","4","5","4","5","4","-2","-2","0","1","-3","1","0","0","4","5","5","4","4","5","5","4","4","5","5","5","4","6","4","4","5","4","5","5","1","6","5","5","2","5","2","2","4","1","5","3","6","2","3","6","5","4","5","4","3","5","6","6","3","7","5","5","5","6","6","5","5","6","6","5","5","5","3","7","803273008734150658","陈","417","Male","[""坏我"",""好他"",""坏他"",""好我""]","[""弱我"",""强他"",""弱他"",""强我""]","","","","","","","","","","","","","","","","","","","","","","","","","","","","","","feedback_test","","","","","","","","",""
"1154","","f","psychophysics","54","266700","0.0-8.0-1.0-1.0-0.0-0.22","5","4","6","6","5","4","4","5","4","5","4","-2","-2","0","1","-3","1","0","0","4","5","5","4","4","5","5","4","4","5","5","5","4","6","4","4","5","4","5","5","1","6","5","5","2","5","2","2","4","1","5","3","6","2","3","6","5","4","5","4","3","5","6","6","3","7","5","5","5","6","6","5","5","6","6","5","5","5","3","7","803273008734150658","陈","417","Male","[""坏我"",""好他"",""坏他"",""好我""]","[""弱我"",""强他"",""弱他"",""强我""]","","","","","","","","nonmatch","","","","","","","","","","key","f","16.6633875968996","683","380","f","true","nonmatch","img/ellipse.png","弱我","弱他","prac_ALT2_ability","practice_ability","","","","","","","","",""
"null","<span style='color:GreenYellow; font-size: 70px;'>正确! </span>","null","html-keyboard-response","55","267208","0.0-8.0-1.0-1.0-0.0-1.22","5","4","6","6","5","4","4","5","4","5","4","-2","-2","0","1","-3","1","0","0","4","5","5","4","4","5","5","4","4","5","5","5","4","6","4","4","5","4","5","5","1","6","5","5","2","5","2","2","4","1","5","3","6","2","3","6","5","4","5","4","3","5","6","6","3","7","5","5","5","6","6","5","5","6","6","5","5","5","3","7","803273008734150658","陈","417","Male","[""坏我"",""好他"",""坏他"",""好我""]","[""弱我"",""强他"",""弱他"",""强我""]","","","","","","","","","","","","","","","","","","","","","","","","","","","","","","feedback_test","","","","","","","","",""
"916","","j","psychophysics","56","269133","0.0-8.0-1.0-1.0-0.0-0.23","5","4","6","6","5","4","4","5","4","5","4","-2","-2","0","1","-3","1","0","0","4","5","5","4","4","5","5","4","4","5","5","5","4","6","4","4","5","4","5","5","1","6","5","5","2","5","2","2","4","1","5","3","6","2","3","6","5","4","5","4","3","5","6","6","3","7","5","5","5","6","6","5","5","6","6","5","5","5","3","7","803273008734150658","陈","417","Male","[""坏我"",""好他"",""坏他"",""好我""]","[""弱我"",""强他"",""弱他"",""强我""]","","","","","","","","match","","","","","","","","","","key","j","16.66572566371642","683","380","j","true","match","img/ellipse.png","弱他","弱他","prac_ALT2_ability","practice_ability","","","","","","","","",""
"null","<span style='color:GreenYellow; font-size: 70px;'>正确! </span>","null","html-keyboard-response","57","269640","0.0-8.0-1.0-1.0-0.0-1.23","5","4","6","6","5","4","4","5","4","5","4","-2","-2","0","1","-3","1","0","0","4","5","5","4","4","5","5","4","4","5","5","5","4","6","4","4","5","4","5","5","1","6","5","5","2","5","2","2","4","1","5","3","6","2","3","6","5","4","5","4","3","5","6","6","3","7","5","5","5","6","6","5","5","6","6","5","5","5","3","7","803273008734150658","陈","417","Male","[""坏我"",""好他"",""坏他"",""好我""]","[""弱我"",""强他"",""弱他"",""强我""]","","","","","","","","","","","","","","","","","","","","","","","","","","","","","","feedback_test","","","","","","","","",""
"1084","","j","psychophysics","58","271732","0.0-8.0-1.0-1.0-0.0-0.24","5","4","6","6","5","4","4","5","4","5","4","-2","-2","0","1","-3","1","0","0","4","5","5","4","4","5","5","4","4","5","5","5","4","6","4","4","5","4","5","5","1","6","5","5","2","5","2","2","4","1","5","3","6","2","3","6","5","4","5","4","3","5","6","6","3","7","5","5","5","6","6","5","5","6","6","5","5","5","3","7","803273008734150658","陈","417","Male","[""坏我"",""好他"",""坏他"",""好我""]","[""弱我"",""强他"",""弱他"",""强我""]","","","","","","","","match","","","","","","","","","","key","j","16.66883064516127","683","380","j","true","match","img/ellipse.png","弱他","弱他","prac_ALT2_ability","practice_ability","","","","","","","","",""
"null","<span style='color:GreenYellow; font-size: 70px;'>正确! </span>","null","html-keyboard-response","59","272241","0.0-8.0-1.0-1.0-0.0-1.24","5","4","6","6","5","4","4","5","4","5","4","-2","-2","0","1","-3","1","0","0","4","5","5","4","4","5","5","4","4","5","5","5","4","6","4","4","5","4","5","5","1","6","5","5","2","5","2","2","4","1","5","3","6","2","3","6","5","4","5","4","3","5","6","6","3","7","5","5","5","6","6","5","5","6","6","5","5","5","3","7","803273008734150658","陈","417","Male","[""坏我"",""好他"",""坏他"",""好我""]","[""弱我"",""强他"",""弱他"",""强我""]","","","","","","","","","","","","","","","","","","","","","","","","","","","","","","feedback_test","","","","","","","","",""
"1192","","f","psychophysics","60","274436","0.0-8.0-1.0-1.0-0.0-0.25","5","4","6","6","5","4","4","5","4","5","4","-2","-2","0","1","-3","1","0","0","4","5","5","4","4","5","5","4","4","5","5","5","4","6","4","4","5","4","5","5","1","6","5","5","2","5","2","2","4","1","5","3","6","2","3","6","5","4","5","4","3","5","6","6","3","7","5","5","5","6","6","5","5","6","6","5","5","5","3","7","803273008734150658","陈","417","Male","[""坏我"",""好他"",""坏他"",""好我""]","[""弱我"",""强他"",""弱他"",""强我""]","","","","","","","","nonmatch","","","","","","","","","","key","f","16.793899224806204","683","380","f","true","nonmatch","img/diamond.png","强我","强他","prac_ALT2_ability","practice_ability","","","","","","","","",""
"null","<span style='color:GreenYellow; font-size: 70px;'>正确! </span>","null","html-keyboard-response","61","274945","0.0-8.0-1.0-1.0-0.0-1.25","5","4","6","6","5","4","4","5","4","5","4","-2","-2","0","1","-3","1","0","0","4","5","5","4","4","5","5","4","4","5","5","5","4","6","4","4","5","4","5","5","1","6","5","5","2","5","2","2","4","1","5","3","6","2","3","6","5","4","5","4","3","5","6","6","3","7","5","5","5","6","6","5","5","6","6","5","5","5","3","7","803273008734150658","陈","417","Male","[""坏我"",""好他"",""坏他"",""好我""]","[""弱我"",""强他"",""弱他"",""强我""]","","","","","","","","","","","","","","","","","","","","","","","","","","","","","","feedback_test","","","","","","","","",""
"1148","","j","psychophysics","62","277100","0.0-8.0-1.0-1.0-0.0-0.26","5","4","6","6","5","4","4","5","4","5","4","-2","-2","0","1","-3","1","0","0","4","5","5","4","4","5","5","4","4","5","5","5","4","6","4","4","5","4","5","5","1","6","5","5","2","5","2","2","4","1","5","3","6","2","3","6","5","4","5","4","3","5","6","6","3","7","5","5","5","6","6","5","5","6","6","5","5","5","3","7","803273008734150658","陈","417","Male","[""坏我"",""好他"",""坏他"",""好我""]","[""弱我"",""强他"",""弱他"",""强我""]","","","","","","","","match","","","","","","","","","","key","j","16.663609375000306","683","380","j","true","match","img/triangle.png","弱我","弱我","prac_ALT2_ability","practice_ability","","","","","","","","",""
"null","<span style='color:GreenYellow; font-size: 70px;'>正确! </span>","null","html-keyboard-response","63","277608","0.0-8.0-1.0-1.0-0.0-1.26","5","4","6","6","5","4","4","5","4","5","4","-2","-2","0","1","-3","1","0","0","4","5","5","4","4","5","5","4","4","5","5","5","4","6","4","4","5","4","5","5","1","6","5","5","2","5","2","2","4","1","5","3","6","2","3","6","5","4","5","4","3","5","6","6","3","7","5","5","5","6","6","5","5","6","6","5","5","5","3","7","803273008734150658","陈","417","Male","[""坏我"",""好他"",""坏他"",""好我""]","[""弱我"",""强他"",""弱他"",""强我""]","","","","","","","","","","","","","","","","","","","","","","","","","","","","","","feedback_test","","","","","","","","",""
"1041","","f","psychophysics","64","279652","0.0-8.0-1.0-1.0-0.0-0.27","5","4","6","6","5","4","4","5","4","5","4","-2","-2","0","1","-3","1","0","0","4","5","5","4","4","5","5","4","4","5","5","5","4","6","4","4","5","4","5","5","1","6","5","5","2","5","2","2","4","1","5","3","6","2","3","6","5","4","5","4","3","5","6","6","3","7","5","5","5","6","6","5","5","6","6","5","5","5","3","7","803273008734150658","陈","417","Male","[""坏我"",""好他"",""坏他"",""好我""]","[""弱我"",""强他"",""弱他"",""强我""]","","","","","","","","nonmatch","","","","","","","","","","key","f","16.66504958677654","683","380","f","true","nonmatch","img/triangle.png","弱他","弱我","prac_ALT2_ability","practice_ability","","","","","","","","",""
"null","<span style='color:GreenYellow; font-size: 70px;'>正确! </span>","null","html-keyboard-response","65","280160","0.0-8.0-1.0-1.0-0.0-1.27","5","4","6","6","5","4","4","5","4","5","4","-2","-2","0","1","-3","1","0","0","4","5","5","4","4","5","5","4","4","5","5","5","4","6","4","4","5","4","5","5","1","6","5","5","2","5","2","2","4","1","5","3","6","2","3","6","5","4","5","4","3","5","6","6","3","7","5","5","5","6","6","5","5","6","6","5","5","5","3","7","803273008734150658","陈","417","Male","[""坏我"",""好他"",""坏他"",""好我""]","[""弱我"",""强他"",""弱他"",""强我""]","","","","","","","","","","","","","","","","","","","","","","","","","","","","","","feedback_test","","","","","","","","",""
"1180","","f","psychophysics","66","282348","0.0-8.0-1.0-1.0-0.0-0.28","5","4","6","6","5","4","4","5","4","5","4","-2","-2","0","1","-3","1","0","0","4","5","5","4","4","5","5","4","4","5","5","5","4","6","4","4","5","4","5","5","1","6","5","5","2","5","2","2","4","1","5","3","6","2","3","6","5","4","5","4","3","5","6","6","3","7","5","5","5","6","6","5","5","6","6","5","5","5","3","7","803273008734150658","陈","417","Male","[""坏我"",""好他"",""坏他"",""好我""]","[""弱我"",""强他"",""弱他"",""强我""]","","","","","","","","nonmatch","","","","","","","","","","key","f","16.665392307692226","683","380","j","false","match","img/pentagon.png","强我","强我","prac_ALT2_ability","practice_ability","","","","","","","","",""
"null","<span style='color:red; font-size: 70px;'>错误! </span>","null","html-keyboard-response","67","282856","0.0-8.0-1.0-1.0-0.0-1.28","5","4","6","6","5","4","4","5","4","5","4","-2","-2","0","1","-3","1","0","0","4","5","5","4","4","5","5","4","4","5","5","5","4","6","4","4","5","4","5","5","1","6","5","5","2","5","2","2","4","1","5","3","6","2","3","6","5","4","5","4","3","5","6","6","3","7","5","5","5","6","6","5","5","6","6","5","5","5","3","7","803273008734150658","陈","417","Male","[""坏我"",""好他"",""坏他"",""好我""]","[""弱我"",""强他"",""弱他"",""强我""]","","","","","","","","","","","","","","","","","","","","","","","","","","","","","","feedback_test","","","","","","","","",""
"1056","","j","psychophysics","68","284916","0.0-8.0-1.0-1.0-0.0-0.29","5","4","6","6","5","4","4","5","4","5","4","-2","-2","0","1","-3","1","0","0","4","5","5","4","4","5","5","4","4","5","5","5","4","6","4","4","5","4","5","5","1","6","5","5","2","5","2","2","4","1","5","3","6","2","3","6","5","4","5","4","3","5","6","6","3","7","5","5","5","6","6","5","5","6","6","5","5","5","3","7","803273008734150658","陈","417","Male","[""坏我"",""好他"",""坏他"",""好我""]","[""弱我"",""强他"",""弱他"",""强我""]","","","","","","","","match","","","","","","","","","","key","j","16.66786065573764","683","380","j","true","match","img/diamond.png","强他","强他","prac_ALT2_ability","practice_ability","","","","","","","","",""
"null","<span style='color:GreenYellow; font-size: 70px;'>正确! </span>","null","html-keyboard-response","69","285424","0.0-8.0-1.0-1.0-0.0-1.29","5","4","6","6","5","4","4","5","4","5","4","-2","-2","0","1","-3","1","0","0","4","5","5","4","4","5","5","4","4","5","5","5","4","6","4","4","5","4","5","5","1","6","5","5","2","5","2","2","4","1","5","3","6","2","3","6","5","4","5","4","3","5","6","6","3","7","5","5","5","6","6","5","5","6","6","5","5","5","3","7","803273008734150658","陈","417","Male","[""坏我"",""好他"",""坏他"",""好我""]","[""弱我"",""强他"",""弱他"",""强我""]","","","","","","","","","","","","","","","","","","","","","","","","","","","","","","feedback_test","","","","","","","","",""
"1172","","f","psychophysics","70","287604","0.0-8.0-1.0-1.0-0.0-0.30","5","4","6","6","5","4","4","5","4","5","4","-2","-2","0","1","-3","1","0","0","4","5","5","4","4","5","5","4","4","5","5","5","4","6","4","4","5","4","5","5","1","6","5","5","2","5","2","2","4","1","5","3","6","2","3","6","5","4","5","4","3","5","6","6","3","7","5","5","5","6","6","5","5","6","6","5","5","5","3","7","803273008734150658","陈","417","Male","[""坏我"",""好他"",""坏他"",""好我""]","[""弱我"",""强他"",""弱他"",""强我""]","","","","","","","","nonmatch","","","","","","","","","","key","f","16.669171875000302","683","380","f","true","nonmatch","img/triangle.png","强他","弱我","prac_ALT2_ability","practice_ability","","","","","","","","",""
"null","<span style='color:GreenYellow; font-size: 70px;'>正确! </span>","null","html-keyboard-response","71","288112","0.0-8.0-1.0-1.0-0.0-1.30","5","4","6","6","5","4","4","5","4","5","4","-2","-2","0","1","-3","1","0","0","4","5","5","4","4","5","5","4","4","5","5","5","4","6","4","4","5","4","5","5","1","6","5","5","2","5","2","2","4","1","5","3","6","2","3","6","5","4","5","4","3","5","6","6","3","7","5","5","5","6","6","5","5","6","6","5","5","5","3","7","803273008734150658","陈","417","Male","[""坏我"",""好他"",""坏他"",""好我""]","[""弱我"",""强他"",""弱他"",""强我""]","","","","","","","","","","","","","","","","","","","","","","","","","","","","","","feedback_test","","","","","","","","",""
"null","","null","psychophysics","72","290322","0.0-8.0-1.0-1.0-0.0-0.31","5","4","6","6","5","4","4","5","4","5","4","-2","-2","0","1","-3","1","0","0","4","5","5","4","4","5","5","4","4","5","5","5","4","6","4","4","5","4","5","5","1","6","5","5","2","5","2","2","4","1","5","3","6","2","3","6","5","4","5","4","3","5","6","6","3","7","5","5","5","6","6","5","5","6","6","5","5","5","3","7","803273008734150658","陈","417","Male","[""坏我"",""好他"",""坏他"",""好我""]","[""弱我"",""强他"",""弱他"",""强我""]","","","","","","","","null","","","","","","","","","","key","null","16.663717557251797","683","380","j","false","match","img/ellipse.png","弱他","弱他","prac_ALT2_ability","practice_ability","","","","","","","","",""
"null","<span class='add_' style='color:yellow; font-size: 70px;'> 太慢! </span>","null","html-keyboard-response","73","290832","0.0-8.0-1.0-1.0-0.0-1.31","5","4","6","6","5","4","4","5","4","5","4","-2","-2","0","1","-3","1","0","0","4","5","5","4","4","5","5","4","4","5","5","5","4","6","4","4","5","4","5","5","1","6","5","5","2","5","2","2","4","1","5","3","6","2","3","6","5","4","5","4","3","5","6","6","3","7","5","5","5","6","6","5","5","6","6","5","5","5","3","7","803273008734150658","陈","417","Male","[""坏我"",""好他"",""坏他"",""好我""]","[""弱我"",""强他"",""弱他"",""强我""]","","","","","","","","","","","","","","","","","","","","","","","","","","","","","","feedback_test","","","","","","","","",""
"1054","","f","psychophysics","74","292894","0.0-8.0-1.0-1.0-0.0-0.32","5","4","6","6","5","4","4","5","4","5","4","-2","-2","0","1","-3","1","0","0","4","5","5","4","4","5","5","4","4","5","5","5","4","6","4","4","5","4","5","5","1","6","5","5","2","5","2","2","4","1","5","3","6","2","3","6","5","4","5","4","3","5","6","6","3","7","5","5","5","6","6","5","5","6","6","5","5","5","3","7","803273008734150658","陈","417","Male","[""坏我"",""好他"",""坏他"",""好我""]","[""弱我"",""强他"",""弱他"",""强我""]","","","","","","","","nonmatch","","","","","","","","","","key","f","16.66456557377041","683","380","f","true","nonmatch","img/ellipse.png","强他","弱他","prac_ALT2_ability","practice_ability","","","","","","","","",""
"null","<span style='color:GreenYellow; font-size: 70px;'>正确! </span>","null","html-keyboard-response","75","293401","0.0-8.0-1.0-1.0-0.0-1.32","5","4","6","6","5","4","4","5","4","5","4","-2","-2","0","1","-3","1","0","0","4","5","5","4","4","5","5","4","4","5","5","5","4","6","4","4","5","4","5","5","1","6","5","5","2","5","2","2","4","1","5","3","6","2","3","6","5","4","5","4","3","5","6","6","3","7","5","5","5","6","6","5","5","6","6","5","5","5","3","7","803273008734150658","陈","417","Male","[""坏我"",""好他"",""坏他"",""好我""]","[""弱我"",""强他"",""弱他"",""强我""]","","","","","","","","","","","","","","","","","","","","","","","","","","","","","","feedback_test","","","","","","","","",""
"1162","","j","psychophysics","76","295572","0.0-8.0-1.0-1.0-0.0-0.33","5","4","6","6","5","4","4","5","4","5","4","-2","-2","0","1","-3","1","0","0","4","5","5","4","4","5","5","4","4","5","5","5","4","6","4","4","5","4","5","5","1","6","5","5","2","5","2","2","4","1","5","3","6","2","3","6","5","4","5","4","3","5","6","6","3","7","5","5","5","6","6","5","5","6","6","5","5","5","3","7","803273008734150658","陈","417","Male","[""坏我"",""好他"",""坏他"",""好我""]","[""弱我"",""强他"",""弱他"",""强我""]","","","","","","","","match","","","","","","","","","","key","j","16.797960937499738","683","380","f","false","nonmatch","img/ellipse.png","弱我","弱他","prac_ALT2_ability","practice_ability","","","","","","","","",""
"null","<span style='color:red; font-size: 70px;'>错误! </span>","null","html-keyboard-response","77","296081","0.0-8.0-1.0-1.0-0.0-1.33","5","4","6","6","5","4","4","5","4","5","4","-2","-2","0","1","-3","1","0","0","4","5","5","4","4","5","5","4","4","5","5","5","4","6","4","4","5","4","5","5","1","6","5","5","2","5","2","2","4","1","5","3","6","2","3","6","5","4","5","4","3","5","6","6","3","7","5","5","5","6","6","5","5","6","6","5","5","5","3","7","803273008734150658","陈","417","Male","[""坏我"",""好他"",""坏他"",""好我""]","[""弱我"",""强他"",""弱他"",""强我""]","","","","","","","","","","","","","","","","","","","","","","","","","","","","","","feedback_test","","","","","","","","",""
"1189","","f","psychophysics","78","298278","0.0-8.0-1.0-1.0-0.0-0.34","5","4","6","6","5","4","4","5","4","5","4","-2","-2","0","1","-3","1","0","0","4","5","5","4","4","5","5","4","4","5","5","5","4","6","4","4","5","4","5","5","1","6","5","5","2","5","2","2","4","1","5","3","6","2","3","6","5","4","5","4","3","5","6","6","3","7","5","5","5","6","6","5","5","6","6","5","5","5","3","7","803273008734150658","陈","417","Male","[""坏我"",""好他"",""坏他"",""好我""]","[""弱我"",""强他"",""弱他"",""强我""]","","","","","","","","nonmatch","","","","","","","","","","key","f","16.66517692307691","683","380","f","true","nonmatch","img/triangle.png","强我","弱我","prac_ALT2_ability","practice_ability","","","","","","","","",""
"null","<span style='color:GreenYellow; font-size: 70px;'>正确! </span>","null","html-keyboard-response","79","298784","0.0-8.0-1.0-1.0-0.0-1.34","5","4","6","6","5","4","4","5","4","5","4","-2","-2","0","1","-3","1","0","0","4","5","5","4","4","5","5","4","4","5","5","5","4","6","4","4","5","4","5","5","1","6","5","5","2","5","2","2","4","1","5","3","6","2","3","6","5","4","5","4","3","5","6","6","3","7","5","5","5","6","6","5","5","6","6","5","5","5","3","7","803273008734150658","陈","417","Male","[""坏我"",""好他"",""坏他"",""好我""]","[""弱我"",""强他"",""弱他"",""强我""]","","","","","","","","","","","","","","","","","","","","","","","","","","","","","","feedback_test","","","","","","","","",""
"968","","j","psychophysics","80","300761","0.0-8.0-1.0-1.0-0.0-0.35","5","4","6","6","5","4","4","5","4","5","4","-2","-2","0","1","-3","1","0","0","4","5","5","4","4","5","5","4","4","5","5","5","4","6","4","4","5","4","5","5","1","6","5","5","2","5","2","2","4","1","5","3","6","2","3","6","5","4","5","4","3","5","6","6","3","7","5","5","5","6","6","5","5","6","6","5","5","5","3","7","803273008734150658","陈","417","Male","[""坏我"",""好他"",""坏他"",""好我""]","[""弱我"",""强他"",""弱他"",""强我""]","","","","","","","","match","","","","","","","","","","key","j","16.668350427350802","683","380","j","true","match","img/pentagon.png","强我","强我","prac_ALT2_ability","practice_ability","","","","","","","","",""
"null","<span style='color:GreenYellow; font-size: 70px;'>正确! </span>","null","html-keyboard-response","81","301264","0.0-8.0-1.0-1.0-0.0-1.35","5","4","6","6","5","4","4","5","4","5","4","-2","-2","0","1","-3","1","0","0","4","5","5","4","4","5","5","4","4","5","5","5","4","6","4","4","5","4","5","5","1","6","5","5","2","5","2","2","4","1","5","3","6","2","3","6","5","4","5","4","3","5","6","6","3","7","5","5","5","6","6","5","5","6","6","5","5","5","3","7","803273008734150658","陈","417","Male","[""坏我"",""好他"",""坏他"",""好我""]","[""弱我"",""强他"",""弱他"",""强我""]","","","","","","","","","","","","","","","","","","","","","","","","","","","","","","feedback_test","","","","","","","","",""
"1124","","j","psychophysics","82","303396","0.0-8.0-1.0-1.0-0.0-0.36","5","4","6","6","5","4","4","5","4","5","4","-2","-2","0","1","-3","1","0","0","4","5","5","4","4","5","5","4","4","5","5","5","4","6","4","4","5","4","5","5","1","6","5","5","2","5","2","2","4","1","5","3","6","2","3","6","5","4","5","4","3","5","6","6","3","7","5","5","5","6","6","5","5","6","6","5","5","5","3","7","803273008734150658","陈","417","Male","[""坏我"",""好他"",""坏他"",""好我""]","[""弱我"",""强他"",""弱他"",""强我""]","","","","","","","","match","","","","","","","","","","key","j","16.66591338582674","683","380","j","true","match","img/diamond.png","强他","强他","prac_ALT2_ability","practice_ability","","","","","","","","",""
"null","<span style='color:GreenYellow; font-size: 70px;'>正确! </span>","null","html-keyboard-response","83","303904","0.0-8.0-1.0-1.0-0.0-1.36","5","4","6","6","5","4","4","5","4","5","4","-2","-2","0","1","-3","1","0","0","4","5","5","4","4","5","5","4","4","5","5","5","4","6","4","4","5","4","5","5","1","6","5","5","2","5","2","2","4","1","5","3","6","2","3","6","5","4","5","4","3","5","6","6","3","7","5","5","5","6","6","5","5","6","6","5","5","5","3","7","803273008734150658","陈","417","Male","[""坏我"",""好他"",""坏他"",""好我""]","[""弱我"",""强他"",""弱他"",""强我""]","","","","","","","","","","","","","","","","","","","","","","","","","","","","","","feedback_test","","","","","","","","",""
"1143","","f","psychophysics","84","306052","0.0-8.0-1.0-1.0-0.0-0.37","5","4","6","6","5","4","4","5","4","5","4","-2","-2","0","1","-3","1","0","0","4","5","5","4","4","5","5","4","4","5","5","5","4","6","4","4","5","4","5","5","1","6","5","5","2","5","2","2","4","1","5","3","6","2","3","6","5","4","5","4","3","5","6","6","3","7","5","5","5","6","6","5","5","6","6","5","5","5","3","7","803273008734150658","陈","417","Male","[""坏我"",""好他"",""坏他"",""好我""]","[""弱我"",""强他"",""弱他"",""强我""]","","","","","","","","nonmatch","","","","","","","","","","key","f","16.925253968253926","683","380","f","true","nonmatch","img/pentagon.png","强他","强我","prac_ALT2_ability","practice_ability","","","","","","","","",""
"null","<span style='color:GreenYellow; font-size: 70px;'>正确! </span>","null","html-keyboard-response","85","306560","0.0-8.0-1.0-1.0-0.0-1.37","5","4","6","6","5","4","4","5","4","5","4","-2","-2","0","1","-3","1","0","0","4","5","5","4","4","5","5","4","4","5","5","5","4","6","4","4","5","4","5","5","1","6","5","5","2","5","2","2","4","1","5","3","6","2","3","6","5","4","5","4","3","5","6","6","3","7","5","5","5","6","6","5","5","6","6","5","5","5","3","7","803273008734150658","陈","417","Male","[""坏我"",""好他"",""坏他"",""好我""]","[""弱我"",""强他"",""弱他"",""强我""]","","","","","","","","","","","","","","","","","","","","","","","","","","","","","","feedback_test","","","","","","","","",""
"958","","f","psychophysics","86","308527","0.0-8.0-1.0-1.0-0.0-0.38","5","4","6","6","5","4","4","5","4","5","4","-2","-2","0","1","-3","1","0","0","4","5","5","4","4","5","5","4","4","5","5","5","4","6","4","4","5","4","5","5","1","6","5","5","2","5","2","2","4","1","5","3","6","2","3","6","5","4","5","4","3","5","6","6","3","7","5","5","5","6","6","5","5","6","6","5","5","5","3","7","803273008734150658","陈","417","Male","[""坏我"",""好他"",""坏他"",""好我""]","[""弱我"",""强他"",""弱他"",""强我""]","","","","","","","","nonmatch","","","","","","","","","","key","f","16.662181034482963","683","380","f","true","nonmatch","img/ellipse.png","强我","弱他","prac_ALT2_ability","practice_ability","","","","","","","","",""
"null","<span style='color:GreenYellow; font-size: 70px;'>正确! </span>","null","html-keyboard-response","87","309033","0.0-8.0-1.0-1.0-0.0-1.38","5","4","6","6","5","4","4","5","4","5","4","-2","-2","0","1","-3","1","0","0","4","5","5","4","4","5","5","4","4","5","5","5","4","6","4","4","5","4","5","5","1","6","5","5","2","5","2","2","4","1","5","3","6","2","3","6","5","4","5","4","3","5","6","6","3","7","5","5","5","6","6","5","5","6","6","5","5","5","3","7","803273008734150658","陈","417","Male","[""坏我"",""好他"",""坏他"",""好我""]","[""弱我"",""强他"",""弱他"",""强我""]","","","","","","","","","","","","","","","","","","","","","","","","","","","","","","feedback_test","","","","","","","","",""
"917","","j","psychophysics","88","310960","0.0-8.0-1.0-1.0-0.0-0.39","5","4","6","6","5","4","4","5","4","5","4","-2","-2","0","1","-3","1","0","0","4","5","5","4","4","5","5","4","4","5","5","5","4","6","4","4","5","4","5","5","1","6","5","5","2","5","2","2","4","1","5","3","6","2","3","6","5","4","5","4","3","5","6","6","3","7","5","5","5","6","6","5","5","6","6","5","5","5","3","7","803273008734150658","陈","417","Male","[""坏我"",""好他"",""坏他"",""好我""]","[""弱我"",""强他"",""弱他"",""强我""]","","","","","","","","match","","","","","","","","","","key","j","16.65120000000031","683","380","j","true","match","img/pentagon.png","强我","强我","prac_ALT2_ability","practice_ability","","","","","","","","",""
"null","<span style='color:GreenYellow; font-size: 70px;'>正确! </span>","null","html-keyboard-response","89","311464","0.0-8.0-1.0-1.0-0.0-1.39","5","4","6","6","5","4","4","5","4","5","4","-2","-2","0","1","-3","1","0","0","4","5","5","4","4","5","5","4","4","5","5","5","4","6","4","4","5","4","5","5","1","6","5","5","2","5","2","2","4","1","5","3","6","2","3","6","5","4","5","4","3","5","6","6","3","7","5","5","5","6","6","5","5","6","6","5","5","5","3","7","803273008734150658","陈","417","Male","[""坏我"",""好他"",""坏他"",""好我""]","[""弱我"",""强他"",""弱他"",""强我""]","","","","","","","","","","","","","","","","","","","","","","","","","","","","","","feedback_test","","","","","","","","",""
"936","","f","psychophysics","90","313412","0.0-8.0-1.0-1.0-0.0-0.40","5","4","6","6","5","4","4","5","4","5","4","-2","-2","0","1","-3","1","0","0","4","5","5","4","4","5","5","4","4","5","5","5","4","6","4","4","5","4","5","5","1","6","5","5","2","5","2","2","4","1","5","3","6","2","3","6","5","4","5","4","3","5","6","6","3","7","5","5","5","6","6","5","5","6","6","5","5","5","3","7","803273008734150658","陈","417","Male","[""坏我"",""好他"",""坏他"",""好我""]","[""弱我"",""强他"",""弱他"",""强我""]","","","","","","","","nonmatch","","","","","","","","","","key","f","16.804339130434368","683","380","j","false","match","img/triangle.png","弱我","弱我","prac_ALT2_ability","practice_ability","","","","","","","","",""
"null","<span style='color:red; font-size: 70px;'>错误! </span>","null","html-keyboard-response","91","313921","0.0-8.0-1.0-1.0-0.0-1.40","5","4","6","6","5","4","4","5","4","5","4","-2","-2","0","1","-3","1","0","0","4","5","5","4","4","5","5","4","4","5","5","5","4","6","4","4","5","4","5","5","1","6","5","5","2","5","2","2","4","1","5","3","6","2","3","6","5","4","5","4","3","5","6","6","3","7","5","5","5","6","6","5","5","6","6","5","5","5","3","7","803273008734150658","陈","417","Male","[""坏我"",""好他"",""坏他"",""好我""]","[""弱我"",""强他"",""弱他"",""强我""]","","","","","","","","","","","","","","","","","","","","","","","","","","","","","","feedback_test","","","","","","","","",""
"835","","j","psychophysics","92","315759","0.0-8.0-1.0-1.0-0.0-0.41","5","4","6","6","5","4","4","5","4","5","4","-2","-2","0","1","-3","1","0","0","4","5","5","4","4","5","5","4","4","5","5","5","4","6","4","4","5","4","5","5","1","6","5","5","2","5","2","2","4","1","5","3","6","2","3","6","5","4","5","4","3","5","6","6","3","7","5","5","5","6","6","5","5","6","6","5","5","5","3","7","803273008734150658","陈","417","Male","[""坏我"",""好他"",""坏他"",""好我""]","[""弱我"",""强他"",""弱他"",""强我""]","","","","","","","","match","","","","","","","","","","key","j","16.661836363636592","683","380","f","false","nonmatch","img/diamond.png","弱我","强他","prac_ALT2_ability","practice_ability","","","","","","","","",""
"null","<span style='color:red; font-size: 70px;'>错误! </span>","null","html-keyboard-response","93","316265","0.0-8.0-1.0-1.0-0.0-1.41","5","4","6","6","5","4","4","5","4","5","4","-2","-2","0","1","-3","1","0","0","4","5","5","4","4","5","5","4","4","5","5","5","4","6","4","4","5","4","5","5","1","6","5","5","2","5","2","2","4","1","5","3","6","2","3","6","5","4","5","4","3","5","6","6","3","7","5","5","5","6","6","5","5","6","6","5","5","5","3","7","803273008734150658","陈","417","Male","[""坏我"",""好他"",""坏他"",""好我""]","[""弱我"",""强他"",""弱他"",""强我""]","","","","","","","","","","","","","","","","","","","","","","","","","","","","","","feedback_test","","","","","","","","",""
"858","","f","psychophysics","94","318132","0.0-8.0-1.0-1.0-0.0-0.42","5","4","6","6","5","4","4","5","4","5","4","-2","-2","0","1","-3","1","0","0","4","5","5","4","4","5","5","4","4","5","5","5","4","6","4","4","5","4","5","5","1","6","5","5","2","5","2","2","4","1","5","3","6","2","3","6","5","4","5","4","3","5","6","6","3","7","5","5","5","6","6","5","5","6","6","5","5","5","3","7","803273008734150658","陈","417","Male","[""坏我"",""好他"",""坏他"",""好我""]","[""弱我"",""强他"",""弱他"",""强我""]","","","","","","","","nonmatch","","","","","","","","","","key","f","16.67142727272744","683","380","f","true","nonmatch","img/pentagon.png","弱他","强我","prac_ALT2_ability","practice_ability","","","","","","","","",""
"null","<span style='color:GreenYellow; font-size: 70px;'>正确! </span>","null","html-keyboard-response","95","318640","0.0-8.0-1.0-1.0-0.0-1.42","5","4","6","6","5","4","4","5","4","5","4","-2","-2","0","1","-3","1","0","0","4","5","5","4","4","5","5","4","4","5","5","5","4","6","4","4","5","4","5","5","1","6","5","5","2","5","2","2","4","1","5","3","6","2","3","6","5","4","5","4","3","5","6","6","3","7","5","5","5","6","6","5","5","6","6","5","5","5","3","7","803273008734150658","陈","417","Male","[""坏我"",""好他"",""坏他"",""好我""]","[""弱我"",""强他"",""弱他"",""强我""]","","","","","","","","","","","","","","","","","","","","","","","","","","","","","","feedback_test","","","","","","","","",""
"1138","","f","psychophysics","96","320779","0.0-8.0-1.0-1.0-0.0-0.43","5","4","6","6","5","4","4","5","4","5","4","-2","-2","0","1","-3","1","0","0","4","5","5","4","4","5","5","4","4","5","5","5","4","6","4","4","5","4","5","5","1","6","5","5","2","5","2","2","4","1","5","3","6","2","3","6","5","4","5","4","3","5","6","6","3","7","5","5","5","6","6","5","5","6","6","5","5","5","3","7","803273008734150658","陈","417","Male","[""坏我"",""好他"",""坏他"",""好我""]","[""弱我"",""强他"",""弱他"",""强我""]","","","","","","","","nonmatch","","","","","","","","","","key","f","16.66223622047238","683","380","j","false","match","img/diamond.png","强他","强他","prac_ALT2_ability","practice_ability","","","","","","","","",""
"null","<span style='color:red; font-size: 70px;'>错误! </span>","null","html-keyboard-response","97","321288","0.0-8.0-1.0-1.0-0.0-1.43","5","4","6","6","5","4","4","5","4","5","4","-2","-2","0","1","-3","1","0","0","4","5","5","4","4","5","5","4","4","5","5","5","4","6","4","4","5","4","5","5","1","6","5","5","2","5","2","2","4","1","5","3","6","2","3","6","5","4","5","4","3","5","6","6","3","7","5","5","5","6","6","5","5","6","6","5","5","5","3","7","803273008734150658","陈","417","Male","[""坏我"",""好他"",""坏他"",""好我""]","[""弱我"",""强他"",""弱他"",""强我""]","","","","","","","","","","","","","","","","","","","","","","","","","","","","","","feedback_test","","","","","","","","",""
"928","","j","psychophysics","98","323220","0.0-8.0-1.0-1.0-0.0-0.44","5","4","6","6","5","4","4","5","4","5","4","-2","-2","0","1","-3","1","0","0","4","5","5","4","4","5","5","4","4","5","5","5","4","6","4","4","5","4","5","5","1","6","5","5","2","5","2","2","4","1","5","3","6","2","3","6","5","4","5","4","3","5","6","6","3","7","5","5","5","6","6","5","5","6","6","5","5","5","3","7","803273008734150658","陈","417","Male","[""坏我"",""好他"",""坏他"",""好我""]","[""弱我"",""强他"",""弱他"",""强我""]","","","","","","","","match","","","","","","","","","","key","j","16.662736842105485","683","380","f","false","nonmatch","img/pentagon.png","弱我","强我","prac_ALT2_ability","practice_ability","","","","","","","","",""
"null","<span style='color:red; font-size: 70px;'>错误! </span>","null","html-keyboard-response","99","323728","0.0-8.0-1.0-1.0-0.0-1.44","5","4","6","6","5","4","4","5","4","5","4","-2","-2","0","1","-3","1","0","0","4","5","5","4","4","5","5","4","4","5","5","5","4","6","4","4","5","4","5","5","1","6","5","5","2","5","2","2","4","1","5","3","6","2","3","6","5","4","5","4","3","5","6","6","3","7","5","5","5","6","6","5","5","6","6","5","5","5","3","7","803273008734150658","陈","417","Male","[""坏我"",""好他"",""坏他"",""好我""]","[""弱我"",""强他"",""弱他"",""强我""]","","","","","","","","","","","","","","","","","","","","","","","","","","","","","","feedback_test","","","","","","","","",""
"924","","f","psychophysics","100","325660","0.0-8.0-1.0-1.0-0.0-0.45","5","4","6","6","5","4","4","5","4","5","4","-2","-2","0","1","-3","1","0","0","4","5","5","4","4","5","5","4","4","5","5","5","4","6","4","4","5","4","5","5","1","6","5","5","2","5","2","2","4","1","5","3","6","2","3","6","5","4","5","4","3","5","6","6","3","7","5","5","5","6","6","5","5","6","6","5","5","5","3","7","803273008734150658","陈","417","Male","[""坏我"",""好他"",""坏他"",""好我""]","[""弱我"",""强他"",""弱他"",""强我""]","","","","","","","","nonmatch","","","","","","","","","","key","f","16.82002654867257","683","380","j","false","match","img/triangle.png","弱我","弱我","prac_ALT2_ability","practice_ability","","","","","","","","",""
"null","<span style='color:red; font-size: 70px;'>错误! </span>","null","html-keyboard-response","101","326168","0.0-8.0-1.0-1.0-0.0-1.45","5","4","6","6","5","4","4","5","4","5","4","-2","-2","0","1","-3","1","0","0","4","5","5","4","4","5","5","4","4","5","5","5","4","6","4","4","5","4","5","5","1","6","5","5","2","5","2","2","4","1","5","3","6","2","3","6","5","4","5","4","3","5","6","6","3","7","5","5","5","6","6","5","5","6","6","5","5","5","3","7","803273008734150658","陈","417","Male","[""坏我"",""好他"",""坏他"",""好我""]","[""弱我"",""强他"",""弱他"",""强我""]","","","","","","","","","","","","","","","","","","","","","","","","","","","","","","feedback_test","","","","","","","","",""
"951","","f","psychophysics","102","328128","0.0-8.0-1.0-1.0-0.0-0.46","5","4","6","6","5","4","4","5","4","5","4","-2","-2","0","1","-3","1","0","0","4","5","5","4","4","5","5","4","4","5","5","5","4","6","4","4","5","4","5","5","1","6","5","5","2","5","2","2","4","1","5","3","6","2","3","6","5","4","5","4","3","5","6","6","3","7","5","5","5","6","6","5","5","6","6","5","5","5","3","7","803273008734150658","陈","417","Male","[""坏我"",""好他"",""坏他"",""好我""]","[""弱我"",""强他"",""弱他"",""强我""]","","","","","","","","nonmatch","","","","","","","","","","key","f","16.666652173912862","683","380","f","true","nonmatch","img/diamond.png","弱他","强他","prac_ALT2_ability","practice_ability","","","","","","","","",""
"null","<span style='color:GreenYellow; font-size: 70px;'>正确! </span>","null","html-keyboard-response","103","328634","0.0-8.0-1.0-1.0-0.0-1.46","5","4","6","6","5","4","4","5","4","5","4","-2","-2","0","1","-3","1","0","0","4","5","5","4","4","5","5","4","4","5","5","5","4","6","4","4","5","4","5","5","1","6","5","5","2","5","2","2","4","1","5","3","6","2","3","6","5","4","5","4","3","5","6","6","3","7","5","5","5","6","6","5","5","6","6","5","5","5","3","7","803273008734150658","陈","417","Male","[""坏我"",""好他"",""坏他"",""好我""]","[""弱我"",""强他"",""弱他"",""强我""]","","","","","","","","","","","","","","","","","","","","","","","","","","","","","","feedback_test","","","","","","","","",""
"1122","","j","psychophysics","104","330765","0.0-8.0-1.0-1.0-0.0-0.47","5","4","6","6","5","4","4","5","4","5","4","-2","-2","0","1","-3","1","0","0","4","5","5","4","4","5","5","4","4","5","5","5","4","6","4","4","5","4","5","5","1","6","5","5","2","5","2","2","4","1","5","3","6","2","3","6","5","4","5","4","3","5","6","6","3","7","5","5","5","6","6","5","5","6","6","5","5","5","3","7","803273008734150658","陈","417","Male","[""坏我"",""好他"",""坏他"",""好我""]","[""弱我"",""强他"",""弱他"",""强我""]","","","","","","","","match","","","","","","","","","","key","j","16.790484126983856","683","380","j","true","match","img/ellipse.png","弱他","弱他","prac_ALT2_ability","practice_ability","","","","","","","","",""
"null","<span style='color:GreenYellow; font-size: 70px;'>正确! </span>","null","html-keyboard-response","105","331274","0.0-8.0-1.0-1.0-0.0-1.47","5","4","6","6","5","4","4","5","4","5","4","-2","-2","0","1","-3","1","0","0","4","5","5","4","4","5","5","4","4","5","5","5","4","6","4","4","5","4","5","5","1","6","5","5","2","5","2","2","4","1","5","3","6","2","3","6","5","4","5","4","3","5","6","6","3","7","5","5","5","6","6","5","5","6","6","5","5","5","3","7","803273008734150658","陈","417","Male","[""坏我"",""好他"",""坏他"",""好我""]","[""弱我"",""强他"",""弱他"",""强我""]","","","","","","","","","","","","","","","","","","","","","","","","","","","","","","feedback_test","","","","","","","","",""
"1219","<style>.context{color:white; font-size: 35px; line-height:40px}</style>                          <div><p class='context'>您正确回答了75% 的试次。</p><p class='context'>您的平均反应时为1026毫秒。</p><p class='context'>恭喜您完成练习。按空格键进入正式实验。</p><p class='footer' style='color:white;font-size: 35px; line-height:40px;'>请在进入正式实验实验之前将您的<span style='color: lightgreen;'>食指</span>放在电脑键盘的相应键位上进行按键。</p>"," ","html-keyboard-response","106","332502","0.0-8.0-1.0-2.0","5","4","6","6","5","4","4","5","4","5","4","-2","-2","0","1","-3","1","0","0","4","5","5","4","4","5","5","4","4","5","5","5","4","6","4","4","5","4","5","5","1","6","5","5","2","5","2","2","4","1","5","3","6","2","3","6","5","4","5","4","3","5","6","6","3","7","5","5","5","6","6","5","5","6","6","5","5","5","3","7","803273008734150658","陈","417","Male","[""坏我"",""好他"",""坏他"",""好我""]","[""弱我"",""强他"",""弱他"",""强我""]","","","","","","","","","","","","","","","","","","","","","","","","","","","","","","","","","","","","","","",""
"442","
  <p style='color: white; font-size: 22px'>请您将手指放在按键上，准备进入正式的匹配任务。</p>
  <p> <div style = ""color: green""><按空格键进入下一阶段的匹配任务></div></p>
  "," ","html-keyboard-response","107","332957","0.0-8.0-1.0-3.0","5","4","6","6","5","4","4","5","4","5","4","-2","-2","0","1","-3","1","0","0","4","5","5","4","4","5","5","4","4","5","5","5","4","6","4","4","5","4","5","5","1","6","5","5","2","5","2","2","4","1","5","3","6","2","3","6","5","4","5","4","3","5","6","6","3","7","5","5","5","6","6","5","5","6","6","5","5","5","3","7","803273008734150658","陈","417","Male","[""坏我"",""好他"",""坏他"",""好我""]","[""弱我"",""强他"",""弱他"",""强我""]","","","","","","","","","","","","","","","","","","","","","","","","","","","","","","","","","","","","","","",""
"998","","f","psychophysics","108","334960","0.0-8.0-1.0-4.0-0.0-0.0","5","4","6","6","5","4","4","5","4","5","4","-2","-2","0","1","-3","1","0","0","4","5","5","4","4","5","5","4","4","5","5","5","4","6","4","4","5","4","5","5","1","6","5","5","2","5","2","2","4","1","5","3","6","2","3","6","5","4","5","4","3","5","6","6","3","7","5","5","5","6","6","5","5","6","6","5","5","5","3","7","803273008734150658","陈","417","Male","[""坏我"",""好他"",""坏他"",""好我""]","[""弱我"",""强他"",""弱他"",""强我""]","","","","","","","","nonmatch","","","","","","","","","","key","f","16.6662352941177","683","380","f","true","nonmatch","img/ellipse.png","强他","弱他","ALT2","ability","","","","","","","","",""
"null","<span style='color:GreenYellow; font-size: 70px;'>正确! </span>","null","html-keyboard-response","109","335466","0.0-8.0-1.0-4.0-0.0-1.0","5","4","6","6","5","4","4","5","4","5","4","-2","-2","0","1","-3","1","0","0","4","5","5","4","4","5","5","4","4","5","5","5","4","6","4","4","5","4","5","5","1","6","5","5","2","5","2","2","4","1","5","3","6","2","3","6","5","4","5","4","3","5","6","6","3","7","5","5","5","6","6","5","5","6","6","5","5","5","3","7","803273008734150658","陈","417","Male","[""坏我"",""好他"",""坏他"",""好我""]","[""弱我"",""强他"",""弱他"",""强我""]","","","","","","","","","","","","","","","","","","","","","","","","","","","","","","feedback_test","","","","","","","","",""
"964","","j","psychophysics","110","337437","0.0-8.0-1.0-4.0-0.0-0.1","5","4","6","6","5","4","4","5","4","5","4","-2","-2","0","1","-3","1","0","0","4","5","5","4","4","5","5","4","4","5","5","5","4","6","4","4","5","4","5","5","1","6","5","5","2","5","2","2","4","1","5","3","6","2","3","6","5","4","5","4","3","5","6","6","3","7","5","5","5","6","6","5","5","6","6","5","5","5","3","7","803273008734150658","陈","417","Male","[""坏我"",""好他"",""坏他"",""好我""]","[""弱我"",""强他"",""弱他"",""强我""]","","","","","","","","match","","","","","","","","","","key","j","16.813465517241074","683","380","j","true","match","img/diamond.png","强他","强他","ALT2","ability","","","","","","","","",""
"null","<span style='color:GreenYellow; font-size: 70px;'>正确! </span>","null","html-keyboard-response","111","337946","0.0-8.0-1.0-4.0-0.0-1.1","5","4","6","6","5","4","4","5","4","5","4","-2","-2","0","1","-3","1","0","0","4","5","5","4","4","5","5","4","4","5","5","5","4","6","4","4","5","4","5","5","1","6","5","5","2","5","2","2","4","1","5","3","6","2","3","6","5","4","5","4","3","5","6","6","3","7","5","5","5","6","6","5","5","6","6","5","5","5","3","7","803273008734150658","陈","417","Male","[""坏我"",""好他"",""坏他"",""好我""]","[""弱我"",""强他"",""弱他"",""强我""]","","","","","","","","","","","","","","","","","","","","","","","","","","","","","","feedback_test","","","","","","","","",""
"795","","f","psychophysics","112","339749","0.0-8.0-1.0-4.0-0.0-0.2","5","4","6","6","5","4","4","5","4","5","4","-2","-2","0","1","-3","1","0","0","4","5","5","4","4","5","5","4","4","5","5","5","4","6","4","4","5","4","5","5","1","6","5","5","2","5","2","2","4","1","5","3","6","2","3","6","5","4","5","4","3","5","6","6","3","7","5","5","5","6","6","5","5","6","6","5","5","5","3","7","803273008734150658","陈","417","Male","[""坏我"",""好他"",""坏他"",""好我""]","[""弱我"",""强他"",""弱他"",""强我""]","","","","","","","","nonmatch","","","","","","","","","","key","f","16.827141509433652","683","380","f","true","nonmatch","img/pentagon.png","弱他","强我","ALT2","ability","","","","","","","","",""
"null","<span style='color:GreenYellow; font-size: 70px;'>正确! </span>","null","html-keyboard-response","113","340258","0.0-8.0-1.0-4.0-0.0-1.2","5","4","6","6","5","4","4","5","4","5","4","-2","-2","0","1","-3","1","0","0","4","5","5","4","4","5","5","4","4","5","5","5","4","6","4","4","5","4","5","5","1","6","5","5","2","5","2","2","4","1","5","3","6","2","3","6","5","4","5","4","3","5","6","6","3","7","5","5","5","6","6","5","5","6","6","5","5","5","3","7","803273008734150658","陈","417","Male","[""坏我"",""好他"",""坏他"",""好我""]","[""弱我"",""强他"",""弱他"",""强我""]","","","","","","","","","","","","","","","","","","","","","","","","","","","","","","feedback_test","","","","","","","","",""
"828","","f","psychophysics","114","342094","0.0-8.0-1.0-4.0-0.0-0.3","5","4","6","6","5","4","4","5","4","5","4","-2","-2","0","1","-3","1","0","0","4","5","5","4","4","5","5","4","4","5","5","5","4","6","4","4","5","4","5","5","1","6","5","5","2","5","2","2","4","1","5","3","6","2","3","6","5","4","5","4","3","5","6","6","3","7","5","5","5","6","6","5","5","6","6","5","5","5","3","7","803273008734150658","陈","417","Male","[""坏我"",""好他"",""坏他"",""好我""]","[""弱我"",""强他"",""弱他"",""强我""]","","","","","","","","nonmatch","","","","","","","","","","key","f","16.67465740740752","683","380","f","true","nonmatch","img/triangle.png","弱他","弱我","ALT2","ability","","","","","","","","",""
"null","<span style='color:GreenYellow; font-size: 70px;'>正确! </span>","null","html-keyboard-response","115","342601","0.0-8.0-1.0-4.0-0.0-1.3","5","4","6","6","5","4","4","5","4","5","4","-2","-2","0","1","-3","1","0","0","4","5","5","4","4","5","5","4","4","5","5","5","4","6","4","4","5","4","5","5","1","6","5","5","2","5","2","2","4","1","5","3","6","2","3","6","5","4","5","4","3","5","6","6","3","7","5","5","5","6","6","5","5","6","6","5","5","5","3","7","803273008734150658","陈","417","Male","[""坏我"",""好他"",""坏他"",""好我""]","[""弱我"",""强他"",""弱他"",""强我""]","","","","","","","","","","","","","","","","","","","","","","","","","","","","","","feedback_test","","","","","","","","",""
"869","","j","psychophysics","116","344478","0.0-8.0-1.0-4.0-0.0-0.4","5","4","6","6","5","4","4","5","4","5","4","-2","-2","0","1","-3","1","0","0","4","5","5","4","4","5","5","4","4","5","5","5","4","6","4","4","5","4","5","5","1","6","5","5","2","5","2","2","4","1","5","3","6","2","3","6","5","4","5","4","3","5","6","6","3","7","5","5","5","6","6","5","5","6","6","5","5","5","3","7","803273008734150658","陈","417","Male","[""坏我"",""好他"",""坏他"",""好我""]","[""弱我"",""强他"",""弱他"",""强我""]","","","","","","","","match","","","","","","","","","","key","j","16.670290909091076","683","380","j","true","match","img/pentagon.png","强我","强我","ALT2","ability","","","","","","","","",""
"null","<span style='color:GreenYellow; font-size: 70px;'>正确! </span>","null","html-keyboard-response","117","344985","0.0-8.0-1.0-4.0-0.0-1.4","5","4","6","6","5","4","4","5","4","5","4","-2","-2","0","1","-3","1","0","0","4","5","5","4","4","5","5","4","4","5","5","5","4","6","4","4","5","4","5","5","1","6","5","5","2","5","2","2","4","1","5","3","6","2","3","6","5","4","5","4","3","5","6","6","3","7","5","5","5","6","6","5","5","6","6","5","5","5","3","7","803273008734150658","陈","417","Male","[""坏我"",""好他"",""坏他"",""好我""]","[""弱我"",""强他"",""弱他"",""强我""]","","","","","","","","","","","","","","","","","","","","","","","","","","","","","","feedback_test","","","","","","","","",""
"986","","f","psychophysics","118","346977","0.0-8.0-1.0-4.0-0.0-0.5","5","4","6","6","5","4","4","5","4","5","4","-2","-2","0","1","-3","1","0","0","4","5","5","4","4","5","5","4","4","5","5","5","4","6","4","4","5","4","5","5","1","6","5","5","2","5","2","2","4","1","5","3","6","2","3","6","5","4","5","4","3","5","6","6","3","7","5","5","5","6","6","5","5","6","6","5","5","5","3","7","803273008734150658","陈","417","Male","[""坏我"",""好他"",""坏他"",""好我""]","[""弱我"",""强他"",""弱他"",""强我""]","","","","","","","","nonmatch","","","","","","","","","","key","f","16.807256410256603","683","380","f","true","nonmatch","img/triangle.png","强他","弱我","ALT2","ability","","","","","","","","",""
"null","<span style='color:GreenYellow; font-size: 70px;'>正确! </span>","null","html-keyboard-response","119","347482","0.0-8.0-1.0-4.0-0.0-1.5","5","4","6","6","5","4","4","5","4","5","4","-2","-2","0","1","-3","1","0","0","4","5","5","4","4","5","5","4","4","5","5","5","4","6","4","4","5","4","5","5","1","6","5","5","2","5","2","2","4","1","5","3","6","2","3","6","5","4","5","4","3","5","6","6","3","7","5","5","5","6","6","5","5","6","6","5","5","5","3","7","803273008734150658","陈","417","Male","[""坏我"",""好他"",""坏他"",""好我""]","[""弱我"",""强他"",""弱他"",""强我""]","","","","","","","","","","","","","","","","","","","","","","","","","","","","","","feedback_test","","","","","","","","",""
"949","","f","psychophysics","120","349438","0.0-8.0-1.0-4.0-0.0-0.6","5","4","6","6","5","4","4","5","4","5","4","-2","-2","0","1","-3","1","0","0","4","5","5","4","4","5","5","4","4","5","5","5","4","6","4","4","5","4","5","5","1","6","5","5","2","5","2","2","4","1","5","3","6","2","3","6","5","4","5","4","3","5","6","6","3","7","5","5","5","6","6","5","5","6","6","5","5","5","3","7","803273008734150658","陈","417","Male","[""坏我"",""好他"",""坏他"",""好我""]","[""弱我"",""强他"",""弱他"",""强我""]","","","","","","","","nonmatch","","","","","","","","","","key","f","16.659886956521635","683","380","f","true","nonmatch","img/ellipse.png","弱我","弱他","ALT2","ability","","","","","","","","",""
"null","<span style='color:GreenYellow; font-size: 70px;'>正确! </span>","null","html-keyboard-response","121","349946","0.0-8.0-1.0-4.0-0.0-1.6","5","4","6","6","5","4","4","5","4","5","4","-2","-2","0","1","-3","1","0","0","4","5","5","4","4","5","5","4","4","5","5","5","4","6","4","4","5","4","5","5","1","6","5","5","2","5","2","2","4","1","5","3","6","2","3","6","5","4","5","4","3","5","6","6","3","7","5","5","5","6","6","5","5","6","6","5","5","5","3","7","803273008734150658","陈","417","Male","[""坏我"",""好他"",""坏他"",""好我""]","[""弱我"",""强他"",""弱他"",""强我""]","","","","","","","","","","","","","","","","","","","","","","","","","","","","","","feedback_test","","","","","","","","",""
"931","","f","psychophysics","122","351885","0.0-8.0-1.0-4.0-0.0-0.7","5","4","6","6","5","4","4","5","4","5","4","-2","-2","0","1","-3","1","0","0","4","5","5","4","4","5","5","4","4","5","5","5","4","6","4","4","5","4","5","5","1","6","5","5","2","5","2","2","4","1","5","3","6","2","3","6","5","4","5","4","3","5","6","6","3","7","5","5","5","6","6","5","5","6","6","5","5","5","3","7","803273008734150658","陈","417","Male","[""坏我"",""好他"",""坏他"",""好我""]","[""弱我"",""强他"",""弱他"",""强我""]","","","","","","","","nonmatch","","","","","","","","","","key","f","16.66187826086939","683","380","f","true","nonmatch","img/pentagon.png","强他","强我","ALT2","ability","","","","","","","","",""
"null","<span style='color:GreenYellow; font-size: 70px;'>正确! </span>","null","html-keyboard-response","123","352386","0.0-8.0-1.0-4.0-0.0-1.7","5","4","6","6","5","4","4","5","4","5","4","-2","-2","0","1","-3","1","0","0","4","5","5","4","4","5","5","4","4","5","5","5","4","6","4","4","5","4","5","5","1","6","5","5","2","5","2","2","4","1","5","3","6","2","3","6","5","4","5","4","3","5","6","6","3","7","5","5","5","6","6","5","5","6","6","5","5","5","3","7","803273008734150658","陈","417","Male","[""坏我"",""好他"",""坏他"",""好我""]","[""弱我"",""强他"",""弱他"",""强我""]","","","","","","","","","","","","","","","","","","","","","","","","","","","","","","feedback_test","","","","","","","","",""
"950","","f","psychophysics","124","354342","0.0-8.0-1.0-4.0-0.0-0.8","5","4","6","6","5","4","4","5","4","5","4","-2","-2","0","1","-3","1","0","0","4","5","5","4","4","5","5","4","4","5","5","5","4","6","4","4","5","4","5","5","1","6","5","5","2","5","2","2","4","1","5","3","6","2","3","6","5","4","5","4","3","5","6","6","3","7","5","5","5","6","6","5","5","6","6","5","5","5","3","7","803273008734150658","陈","417","Male","[""坏我"",""好他"",""坏他"",""好我""]","[""弱我"",""强他"",""弱他"",""强我""]","","","","","","","","nonmatch","","","","","","","","","","key","f","16.66991452991457","683","380","j","false","match","img/ellipse.png","弱他","弱他","ALT2","ability","","","","","","","","",""
"null","<span style='color:red; font-size: 70px;'>错误! </span>","null","html-keyboard-response","125","354850","0.0-8.0-1.0-4.0-0.0-1.8","5","4","6","6","5","4","4","5","4","5","4","-2","-2","0","1","-3","1","0","0","4","5","5","4","4","5","5","4","4","5","5","5","4","6","4","4","5","4","5","5","1","6","5","5","2","5","2","2","4","1","5","3","6","2","3","6","5","4","5","4","3","5","6","6","3","7","5","5","5","6","6","5","5","6","6","5","5","5","3","7","803273008734150658","陈","417","Male","[""坏我"",""好他"",""坏他"",""好我""]","[""弱我"",""强他"",""弱他"",""强我""]","","","","","","","","","","","","","","","","","","","","","","","","","","","","","","feedback_test","","","","","","","","",""
"866","","f","psychophysics","126","356725","0.0-8.0-1.0-4.0-0.0-0.9","5","4","6","6","5","4","4","5","4","5","4","-2","-2","0","1","-3","1","0","0","4","5","5","4","4","5","5","4","4","5","5","5","4","6","4","4","5","4","5","5","1","6","5","5","2","5","2","2","4","1","5","3","6","2","3","6","5","4","5","4","3","5","6","6","3","7","5","5","5","6","6","5","5","6","6","5","5","5","3","7","803273008734150658","陈","417","Male","[""坏我"",""好他"",""坏他"",""好我""]","[""弱我"",""强他"",""弱他"",""强我""]","","","","","","","","nonmatch","","","","","","","","","","key","f","16.664410714285623","683","380","f","true","nonmatch","img/pentagon.png","弱我","强我","ALT2","ability","","","","","","","","",""
"null","<span style='color:GreenYellow; font-size: 70px;'>正确! </span>","null","html-keyboard-response","127","357234","0.0-8.0-1.0-4.0-0.0-1.9","5","4","6","6","5","4","4","5","4","5","4","-2","-2","0","1","-3","1","0","0","4","5","5","4","4","5","5","4","4","5","5","5","4","6","4","4","5","4","5","5","1","6","5","5","2","5","2","2","4","1","5","3","6","2","3","6","5","4","5","4","3","5","6","6","3","7","5","5","5","6","6","5","5","6","6","5","5","5","3","7","803273008734150658","陈","417","Male","[""坏我"",""好他"",""坏他"",""好我""]","[""弱我"",""强他"",""弱他"",""强我""]","","","","","","","","","","","","","","","","","","","","","","","","","","","","","","feedback_test","","","","","","","","",""
"1047","","j","psychophysics","128","359285","0.0-8.0-1.0-4.0-0.0-0.10","5","4","6","6","5","4","4","5","4","5","4","-2","-2","0","1","-3","1","0","0","4","5","5","4","4","5","5","4","4","5","5","5","4","6","4","4","5","4","5","5","1","6","5","5","2","5","2","2","4","1","5","3","6","2","3","6","5","4","5","4","3","5","6","6","3","7","5","5","5","6","6","5","5","6","6","5","5","5","3","7","803273008734150658","陈","417","Male","[""坏我"",""好他"",""坏他"",""好我""]","[""弱我"",""强他"",""弱他"",""强我""]","","","","","","","","match","","","","","","","","","","key","j","16.6642295081969","683","380","j","true","match","img/triangle.png","弱我","弱我","ALT2","ability","","","","","","","","",""
"null","<span style='color:GreenYellow; font-size: 70px;'>正确! </span>","null","html-keyboard-response","129","359794","0.0-8.0-1.0-4.0-0.0-1.10","5","4","6","6","5","4","4","5","4","5","4","-2","-2","0","1","-3","1","0","0","4","5","5","4","4","5","5","4","4","5","5","5","4","6","4","4","5","4","5","5","1","6","5","5","2","5","2","2","4","1","5","3","6","2","3","6","5","4","5","4","3","5","6","6","3","7","5","5","5","6","6","5","5","6","6","5","5","5","3","7","803273008734150658","陈","417","Male","[""坏我"",""好他"",""坏他"",""好我""]","[""弱我"",""强他"",""弱他"",""强我""]","","","","","","","","","","","","","","","","","","","","","","","","","","","","","","feedback_test","","","","","","","","",""
"1028","","f","psychophysics","130","361829","0.0-8.0-1.0-4.0-0.0-0.11","5","4","6","6","5","4","4","5","4","5","4","-2","-2","0","1","-3","1","0","0","4","5","5","4","4","5","5","4","4","5","5","5","4","6","4","4","5","4","5","5","1","6","5","5","2","5","2","2","4","1","5","3","6","2","3","6","5","4","5","4","3","5","6","6","3","7","5","5","5","6","6","5","5","6","6","5","5","5","3","7","803273008734150658","陈","417","Male","[""坏我"",""好他"",""坏他"",""好我""]","[""弱我"",""强他"",""弱他"",""强我""]","","","","","","","","nonmatch","","","","","","","","","","key","f","16.66116528925659","683","380","f","true","nonmatch","img/diamond.png","弱他","强他","ALT2","ability","","","","","","","","",""
"null","<span style='color:GreenYellow; font-size: 70px;'>正确! </span>","null","html-keyboard-response","131","362337","0.0-8.0-1.0-4.0-0.0-1.11","5","4","6","6","5","4","4","5","4","5","4","-2","-2","0","1","-3","1","0","0","4","5","5","4","4","5","5","4","4","5","5","5","4","6","4","4","5","4","5","5","1","6","5","5","2","5","2","2","4","1","5","3","6","2","3","6","5","4","5","4","3","5","6","6","3","7","5","5","5","6","6","5","5","6","6","5","5","5","3","7","803273008734150658","陈","417","Male","[""坏我"",""好他"",""坏他"",""好我""]","[""弱我"",""强他"",""弱他"",""强我""]","","","","","","","","","","","","","","","","","","","","","","","","","","","","","","feedback_test","","","","","","","","",""
"936","","f","psychophysics","132","364276","0.0-8.0-1.0-4.0-0.0-0.12","5","4","6","6","5","4","4","5","4","5","4","-2","-2","0","1","-3","1","0","0","4","5","5","4","4","5","5","4","4","5","5","5","4","6","4","4","5","4","5","5","1","6","5","5","2","5","2","2","4","1","5","3","6","2","3","6","5","4","5","4","3","5","6","6","3","7","5","5","5","6","6","5","5","6","6","5","5","5","3","7","803273008734150658","陈","417","Male","[""坏我"",""好他"",""坏他"",""好我""]","[""弱我"",""强他"",""弱他"",""强我""]","","","","","","","","nonmatch","","","","","","","","","","key","f","16.6669736842103","683","380","j","false","match","img/triangle.png","弱我","弱我","ALT2","ability","","","","","","","","",""
"null","<span style='color:red; font-size: 70px;'>错误! </span>","null","html-keyboard-response","133","364777","0.0-8.0-1.0-4.0-0.0-1.12","5","4","6","6","5","4","4","5","4","5","4","-2","-2","0","1","-3","1","0","0","4","5","5","4","4","5","5","4","4","5","5","5","4","6","4","4","5","4","5","5","1","6","5","5","2","5","2","2","4","1","5","3","6","2","3","6","5","4","5","4","3","5","6","6","3","7","5","5","5","6","6","5","5","6","6","5","5","5","3","7","803273008734150658","陈","417","Male","[""坏我"",""好他"",""坏他"",""好我""]","[""弱我"",""强他"",""弱他"",""强我""]","","","","","","","","","","","","","","","","","","","","","","","","","","","","","","feedback_test","","","","","","","","",""
"1011","","j","psychophysics","134","366797","0.0-8.0-1.0-4.0-0.0-0.13","5","4","6","6","5","4","4","5","4","5","4","-2","-2","0","1","-3","1","0","0","4","5","5","4","4","5","5","4","4","5","5","5","4","6","4","4","5","4","5","5","1","6","5","5","2","5","2","2","4","1","5","3","6","2","3","6","5","4","5","4","3","5","6","6","3","7","5","5","5","6","6","5","5","6","6","5","5","5","3","7","803273008734150658","陈","417","Male","[""坏我"",""好他"",""坏他"",""好我""]","[""弱我"",""强他"",""弱他"",""强我""]","","","","","","","","match","","","","","","","","","","key","j","16.808882352941037","683","380","j","true","match","img/ellipse.png","弱他","弱他","ALT2","ability","","","","","","","","",""
"null","<span style='color:GreenYellow; font-size: 70px;'>正确! </span>","null","html-keyboard-response","135","367305","0.0-8.0-1.0-4.0-0.0-1.13","5","4","6","6","5","4","4","5","4","5","4","-2","-2","0","1","-3","1","0","0","4","5","5","4","4","5","5","4","4","5","5","5","4","6","4","4","5","4","5","5","1","6","5","5","2","5","2","2","4","1","5","3","6","2","3","6","5","4","5","4","3","5","6","6","3","7","5","5","5","6","6","5","5","6","6","5","5","5","3","7","803273008734150658","陈","417","Male","[""坏我"",""好他"",""坏他"",""好我""]","[""弱我"",""强他"",""弱他"",""强我""]","","","","","","","","","","","","","","","","","","","","","","","","","","","","","","feedback_test","","","","","","","","",""
"931","","j","psychophysics","136","369245","0.0-8.0-1.0-4.0-0.0-0.14","5","4","6","6","5","4","4","5","4","5","4","-2","-2","0","1","-3","1","0","0","4","5","5","4","4","5","5","4","4","5","5","5","4","6","4","4","5","4","5","5","1","6","5","5","2","5","2","2","4","1","5","3","6","2","3","6","5","4","5","4","3","5","6","6","3","7","5","5","5","6","6","5","5","6","6","5","5","5","3","7","803273008734150658","陈","417","Male","[""坏我"",""好他"",""坏他"",""好我""]","[""弱我"",""强他"",""弱他"",""强我""]","","","","","","","","match","","","","","","","","","","key","j","16.669817391304683","683","380","j","true","match","img/pentagon.png","强我","强我","ALT2","ability","","","","","","","","",""
"null","<span style='color:GreenYellow; font-size: 70px;'>正确! </span>","null","html-keyboard-response","137","369754","0.0-8.0-1.0-4.0-0.0-1.14","5","4","6","6","5","4","4","5","4","5","4","-2","-2","0","1","-3","1","0","0","4","5","5","4","4","5","5","4","4","5","5","5","4","6","4","4","5","4","5","5","1","6","5","5","2","5","2","2","4","1","5","3","6","2","3","6","5","4","5","4","3","5","6","6","3","7","5","5","5","6","6","5","5","6","6","5","5","5","3","7","803273008734150658","陈","417","Male","[""坏我"",""好他"",""坏他"",""好我""]","[""弱我"",""强他"",""弱他"",""强我""]","","","","","","","","","","","","","","","","","","","","","","","","","","","","","","feedback_test","","","","","","","","",""
