"rt","stimulus","response","trial_type","trial_index","time_elapsed","internal_node_id","swb_1","swb_2","swb_3","swb_4","swb_5","LOT_1","LOT_2","LOT_3","LOT_4","LOT_5","LOT_6","IPC_1","IPC_2","IPC_3","IPC_4","IPC_5","IPC_6","IPC_7","IPC_8","MorIden_1","MorIden_2","MorIden_3","MorIden_4","MorIden_5","MorIden_6","MorIden_7","MorIden_8","MorIden_9","MorIden_10","moralSeImag_1","moralSeImag_2","moralSeImag_3","moralSeImag_4","moralSeImag_5","moralSeImag_6","moralSeImag_7","moralSeImag_8","moralSeImag_9","sde_1","sde_2","sde_3","sde_4","sde_5","sde_6","sde_7","sde_8","sde_9","sde_10","trap2","sde_11","sde_12","sde_13","sde_14","sde_15","sde_16","sde_17","sde_18","sde_19","sde_20","IM_1","IM_2","IM_3","IM_4","IM_5","IM_6","IM_7","IM_8","IM_9","IM_10","IM_11","IM_12","IM_13","IM_14","IM_15","IM_16","IM_17","IM_18","IM_19","IM_20","subj_idx","friend_name","ParticipantID","Sex","Word","Word2","value","success","timeout","failed_images","failed_audio","failed_video","user_agent","responses","item_order","radio_event_ids","radio_event_times","key_event_times","mouse_event_times","straightlining","zigzagging","honeypot","view_history","response_type","key_press","avg_frame_time","center_x","center_y","correct_response","correct","identity","Image","word","condition","task_id","screen_id","time_stamp","person","valence","domain","math","status","duration","question_order","trap2_item"
"13551","
   <p><div style='color:white; font-size: 25px'>您好，欢迎参加本次实验。</div></p>
   <p><div style='color:white; font-size: 25px'>为充分保障您的权利，请确保您已经知晓并同意《参与实验同意书》以及《数据公开知情同意书》。</div></p>
   <p><div style='color:white; font-size: 25px'>如果您未见过上述内容，请咨询实验员。</div></p>
   <p style='color:white; font-size: 25px'>如果您选择继续实验，则表示您已经清楚两份知情同意书的内容并同意。</p>
   <p><div style = ""color: pink;font-size:30px;"">请确保您记得day0的实验编号，您将在本次实验输入该编号，若您忘记，请咨询实验员后作答。</div></p>
   <p><div style = ""color:lightblue;font-size:25px;"">请您尽可能认真地作答，我们将依据您在各问卷和按键任务中的作答质量发放报酬。</div></p>
   <p> <div style = ""color: green""><按空格键至下页></div> </p>
   "," ","html-keyboard-response","0","13552","0.0-0.0","7","7","7","7","7","5","5","5","5","5","5","2","0","2","1","2","2","2","2","5","5","5","5","5","4","4","5","5","4","7","7","8","8","7","6","8","8","8","7","7","7","7","7","7","7","1","7","7","1","6","7","7","7","7","6","7","7","7","7","7","7","7","7","7","7","7","7","7","7","7","7","7","7","7","7","7","7","7","7","598865314549071872","周","540","Male","[""好他"",""好我"",""坏我"",""坏他""]","[""强他"",""强我"",""弱我"",""弱他""]","","","","","","","","","","","","","","","","","","","","","","","","","","","","","","","","","","","","","","",""
"","","","call-function","1","13552","0.0-1.0-0.0","7","7","7","7","7","5","5","5","5","5","5","2","0","2","1","2","2","2","2","5","5","5","5","5","4","4","5","5","4","7","7","8","8","7","6","8","8","8","7","7","7","7","7","7","7","1","7","7","1","6","7","7","7","7","6","7","7","7","7","7","7","7","7","7","7","7","7","7","7","7","7","7","7","7","7","7","7","7","7","598865314549071872","周","540","Male","[""好他"",""好我"",""坏我"",""坏他""]","[""强他"",""强我"",""弱我"",""弱他""]","","","","","","","","","","","","","","","","","","","","","","","","","","","","","","","","","","","","","","",""
"10876","","[{""name"":""Sex"",""value"":""0""},{""name"":""friend_name"",""value"":""周""},{""name"":""ParticipantID"",""value"":""540""}]","survey-html-form","2","24430","0.0-1.0-1.0","7","7","7","7","7","5","5","5","5","5","5","2","0","2","1","2","2","2","2","5","5","5","5","5","4","4","5","5","4","7","7","8","8","7","6","8","8","8","7","7","7","7","7","7","7","1","7","7","1","6","7","7","7","7","6","7","7","7","7","7","7","7","7","7","7","7","7","7","7","7","7","7","7","7","7","7","7","7","7","598865314549071872","周","540","Male","[""好他"",""好我"",""坏我"",""坏他""]","[""强他"",""强我"",""弱我"",""弱他""]","","","","","","","","","","","","","","","","","","","","","","","","","","","","","","","","","","","","","","",""
"","","","preload","3","24969","0.0-2.0","7","7","7","7","7","5","5","5","5","5","5","2","0","2","1","2","2","2","2","5","5","5","5","5","4","4","5","5","4","7","7","8","8","7","6","8","8","8","7","7","7","7","7","7","7","1","7","7","1","6","7","7","7","7","6","7","7","7","7","7","7","7","7","7","7","7","7","7","7","7","7","7","7","7","7","7","7","7","7","598865314549071872","周","540","Male","[""好他"",""好我"",""坏我"",""坏他""]","[""强他"",""强我"",""弱我"",""弱他""]","","true","false","[]","[]","[]","","","","","","","","","","","","","","","","","","","","","","","","","","","","","","","","",""
"","","","fullscreen","4","26011","0.0-3.0","7","7","7","7","7","5","5","5","5","5","5","2","0","2","1","2","2","2","2","5","5","5","5","5","4","4","5","5","4","7","7","8","8","7","6","8","8","8","7","7","7","7","7","7","7","1","7","7","1","6","7","7","7","7","6","7","7","7","7","7","7","7","7","7","7","7","7","7","7","7","7","7","7","7","7","7","7","7","7","598865314549071872","周","540","Male","[""好他"",""好我"",""坏我"",""坏他""]","[""强他"",""强我"",""弱我"",""弱他""]","","true","","","","","{}","","","","","","","","","","","","","","","","","","","","","","","","","","","","","","","",""
"6497.900000095367","","{""Q01"":""7"",""Q02"":""7"",""Q03"":""7"",""Q04"":""7"",""Q05"":""7""}","survey-template","5","32510","0.0-4.0","7","7","7","7","7","5","5","5","5","5","5","2","0","2","1","2","2","2","2","5","5","5","5","5","4","4","5","5","4","7","7","8","8","7","6","8","8","8","7","7","7","7","7","7","7","1","7","7","1","6","7","7","7","7","6","7","7","7","7","7","7","7","7","7","7","7","7","7","7","7","7","7","7","7","7","7","7","7","7","598865314549071872","周","540","Male","[""好他"",""好我"",""坏我"",""坏他""]","[""强他"",""强我"",""弱我"",""弱他""]","","","","","","","","{""Q01"":""7"",""Q02"":""7"",""Q03"":""7"",""Q04"":""7"",""Q05"":""7""}","[0,1,2,3,4]","[""Q01"",""Q02"",""Q03"",""Q04"",""Q05""]","[3465.7999999523163,3953.4000000953674,4369.700000047684,4761.400000095367,6017.400000095367]","[]","[3465.7999999523163,3953.4000000953674,4369.700000047684,4761.400000095367,6017.400000095367,6497.400000095367]","1","0","0","","","","","","","","","","","","","","","","","","","","","","",""
"7238.099999904633","","{""Q01"":""5"",""Q02"":""5"",""Q03"":""5"",""Q04"":""5"",""Q05"":""5"",""Q06"":""5""}","survey-template","6","39751","0.0-5.0","7","7","7","7","7","5","5","5","5","5","5","2","0","2","1","2","2","2","2","5","5","5","5","5","4","4","5","5","4","7","7","8","8","7","6","8","8","8","7","7","7","7","7","7","7","1","7","7","1","6","7","7","7","7","6","7","7","7","7","7","7","7","7","7","7","7","7","7","7","7","7","7","7","7","7","7","7","7","7","598865314549071872","周","540","Male","[""好他"",""好我"",""坏我"",""坏他""]","[""强他"",""强我"",""弱我"",""弱他""]","","","","","","","","{""Q01"":""5"",""Q02"":""5"",""Q03"":""5"",""Q04"":""5"",""Q05"":""5"",""Q06"":""5""}","[0,1,2,3,4,5]","[""Q01"",""Q02"",""Q05"",""Q04"",""Q03"",""Q06""]","[1236.8999998569489,2261,3141.199999809265,3869.5,4541.099999904633,5029.099999904633]","[]","[1236.8999998569489,2261,2845.2999999523163,3141.199999809265,3869.5,4541.099999904633,5029.099999904633,7237.299999952316]","0.5","0.8","0","","","","","","","","","","","","","","","","","","","","","","",""
"30021.299999952316","","{""Q01"":""2"",""Q02"":""0"",""Q03"":""2"",""Q04"":""1"",""Q05"":""2"",""Q06"":""2"",""Q07"":""2"",""Q08"":""2""}","survey-template","7","69774","0.0-6.0","7","7","7","7","7","5","5","5","5","5","5","2","0","2","1","2","2","2","2","5","5","5","5","5","4","4","5","5","4","7","7","8","8","7","6","8","8","8","7","7","7","7","7","7","7","1","7","7","1","6","7","7","7","7","6","7","7","7","7","7","7","7","7","7","7","7","7","7","7","7","7","7","7","7","7","7","7","7","7","598865314549071872","周","540","Male","[""好他"",""好我"",""坏我"",""坏他""]","[""强他"",""强我"",""弱我"",""弱他""]","","","","","","","","{""Q01"":""2"",""Q02"":""0"",""Q03"":""2"",""Q04"":""1"",""Q05"":""2"",""Q06"":""2"",""Q07"":""2"",""Q08"":""2""}","[0,1,2,3,4,5,6,7]","[""Q02"",""Q01"",""Q03"",""Q02"",""Q04"",""Q06"",""Q07"",""Q05"",""Q08"",""Q02"",""Q02""]","[2589.7999999523163,3133.2000000476837,6892.900000095367,7700.900000095367,8396.700000047684,9668.799999952316,10052.600000143051,11588.600000143051,12564.700000047684,14740.400000095367,28780.900000095367]","[]","[1636.6000001430511,2311.2000000476837,2589.7999999523163,3133.2000000476837,6892.900000095367,7700.900000095367,8396.700000047684,8901.100000143051,9317.100000143051,9668.799999952316,10052.600000143051,10452.400000095367,10828.700000047684,11021.600000143051,11588.600000143051,12564.700000047684,14740.400000095367,28780.900000095367,30020.60000014305]","0.75","0.2857142857142857","0","","","","","","","","","","","","","","","","","","","","","","",""
"72382","","","instructions","8","142158","0.0-7.0","7","7","7","7","7","5","5","5","5","5","5","2","0","2","1","2","2","2","2","5","5","5","5","5","4","4","5","5","4","7","7","8","8","7","6","8","8","8","7","7","7","7","7","7","7","1","7","7","1","6","7","7","7","7","6","7","7","7","7","7","7","7","7","7","7","7","7","7","7","7","7","7","7","7","7","7","7","7","7","598865314549071872","周","540","Male","[""好他"",""好我"",""坏我"",""坏他""]","[""强他"",""强我"",""弱我"",""弱他""]","","","","","","","","","","","","","","","","","[{""page_index"":0,""viewing_time"":72381}]","","","","","","","","","","","","","","","","","","","","","",""
"82447","","","instructions","9","224605","0.0-8.0-1.0-0.0","7","7","7","7","7","5","5","5","5","5","5","2","0","2","1","2","2","2","2","5","5","5","5","5","4","4","5","5","4","7","7","8","8","7","6","8","8","8","7","7","7","7","7","7","7","1","7","7","1","6","7","7","7","7","6","7","7","7","7","7","7","7","7","7","7","7","7","7","7","7","7","7","7","7","7","7","7","7","7","598865314549071872","周","540","Male","[""好他"",""好我"",""坏我"",""坏他""]","[""强他"",""强我"",""弱我"",""弱他""]","","","","","","","","","","","","","","","","","[{""page_index"":0,""viewing_time"":52215},{""page_index"":1,""viewing_time"":28848},{""page_index"":2,""viewing_time"":761},{""page_index"":3,""viewing_time"":623}]","","","","","","","","","","","","","","","","","","","","","",""
"681","","f","psychophysics","10","226289","0.0-8.0-1.0-1.0-0.0-0.0","7","7","7","7","7","5","5","5","5","5","5","2","0","2","1","2","2","2","2","5","5","5","5","5","4","4","5","5","4","7","7","8","8","7","6","8","8","8","7","7","7","7","7","7","7","1","7","7","1","6","7","7","7","7","6","7","7","7","7","7","7","7","7","7","7","7","7","7","7","7","7","7","7","7","7","7","7","7","7","598865314549071872","周","540","Male","[""好他"",""好我"",""坏我"",""坏他""]","[""强他"",""强我"",""弱我"",""弱他""]","","","","","","","","match","","","","","","","","","","key","f","16.65","768","428","f","true","match","img/hexagon.png","强他","强他","prac_ALT2_ability","practice_ability","","","","","","","","",""
"null","<span style='color:GreenYellow; font-size: 70px;'>正确! </span>","null","html-keyboard-response","11","226790","0.0-8.0-1.0-1.0-0.0-1.0","7","7","7","7","7","5","5","5","5","5","5","2","0","2","1","2","2","2","2","5","5","5","5","5","4","4","5","5","4","7","7","8","8","7","6","8","8","8","7","7","7","7","7","7","7","1","7","7","1","6","7","7","7","7","6","7","7","7","7","7","7","7","7","7","7","7","7","7","7","7","7","7","7","7","7","7","7","7","7","598865314549071872","周","540","Male","[""好他"",""好我"",""坏我"",""坏他""]","[""强他"",""强我"",""弱我"",""弱他""]","","","","","","","","","","","","","","","","","","","","","","","","","","","","","","feedback_test","","","","","","","","",""
"756","","j","psychophysics","12","228548","0.0-8.0-1.0-1.0-0.0-0.1","7","7","7","7","7","5","5","5","5","5","5","2","0","2","1","2","2","2","2","5","5","5","5","5","4","4","5","5","4","7","7","8","8","7","6","8","8","8","7","7","7","7","7","7","7","1","7","7","1","6","7","7","7","7","6","7","7","7","7","7","7","7","7","7","7","7","7","7","7","7","7","7","7","7","7","7","7","7","7","598865314549071872","周","540","Male","[""好他"",""好我"",""坏我"",""坏他""]","[""强他"",""强我"",""弱我"",""弱他""]","","","","","","","","nonmatch","","","","","","","","","","key","j","16.65096153846137","768","428","j","true","nonmatch","img/hexagon.png","弱他","强他","prac_ALT2_ability","practice_ability","","","","","","","","",""
"null","<span style='color:GreenYellow; font-size: 70px;'>正确! </span>","null","html-keyboard-response","13","229049","0.0-8.0-1.0-1.0-0.0-1.1","7","7","7","7","7","5","5","5","5","5","5","2","0","2","1","2","2","2","2","5","5","5","5","5","4","4","5","5","4","7","7","8","8","7","6","8","8","8","7","7","7","7","7","7","7","1","7","7","1","6","7","7","7","7","6","7","7","7","7","7","7","7","7","7","7","7","7","7","7","7","7","7","7","7","7","7","7","7","7","598865314549071872","周","540","Male","[""好他"",""好我"",""坏我"",""坏他""]","[""强他"",""强我"",""弱我"",""弱他""]","","","","","","","","","","","","","","","","","","","","","","","","","","","","","","feedback_test","","","","","","","","",""
"877","","j","psychophysics","14","230927","0.0-8.0-1.0-1.0-0.0-0.2","7","7","7","7","7","5","5","5","5","5","5","2","0","2","1","2","2","2","2","5","5","5","5","5","4","4","5","5","4","7","7","8","8","7","6","8","8","8","7","7","7","7","7","7","7","1","7","7","1","6","7","7","7","7","6","7","7","7","7","7","7","7","7","7","7","7","7","7","7","7","7","7","7","7","7","7","7","7","7","598865314549071872","周","540","Male","[""好他"",""好我"",""坏我"",""坏他""]","[""强他"",""强我"",""弱我"",""弱他""]","","","","","","","","nonmatch","","","","","","","","","","key","j","16.651785714285715","768","428","j","true","nonmatch","img/square.png","强他","弱他","prac_ALT2_ability","practice_ability","","","","","","","","",""
"null","<span style='color:GreenYellow; font-size: 70px;'>正确! </span>","null","html-keyboard-response","15","231428","0.0-8.0-1.0-1.0-0.0-1.2","7","7","7","7","7","5","5","5","5","5","5","2","0","2","1","2","2","2","2","5","5","5","5","5","4","4","5","5","4","7","7","8","8","7","6","8","8","8","7","7","7","7","7","7","7","1","7","7","1","6","7","7","7","7","6","7","7","7","7","7","7","7","7","7","7","7","7","7","7","7","7","7","7","7","7","7","7","7","7","598865314549071872","周","540","Male","[""好他"",""好我"",""坏我"",""坏他""]","[""强他"",""强我"",""弱我"",""弱他""]","","","","","","","","","","","","","","","","","","","","","","","","","","","","","","feedback_test","","","","","","","","",""
"879","","j","psychophysics","16","233308","0.0-8.0-1.0-1.0-0.0-0.3","7","7","7","7","7","5","5","5","5","5","5","2","0","2","1","2","2","2","2","5","5","5","5","5","4","4","5","5","4","7","7","8","8","7","6","8","8","8","7","7","7","7","7","7","7","1","7","7","1","6","7","7","7","7","6","7","7","7","7","7","7","7","7","7","7","7","7","7","7","7","7","7","7","7","7","7","7","7","7","598865314549071872","周","540","Male","[""好他"",""好我"",""坏我"",""坏他""]","[""强他"",""强我"",""弱我"",""弱他""]","","","","","","","","nonmatch","","","","","","","","","","key","j","16.651785714285715","768","428","j","true","nonmatch","img/hexagon.png","强我","强他","prac_ALT2_ability","practice_ability","","","","","","","","",""
"null","<span style='color:GreenYellow; font-size: 70px;'>正确! </span>","null","html-keyboard-response","17","233810","0.0-8.0-1.0-1.0-0.0-1.3","7","7","7","7","7","5","5","5","5","5","5","2","0","2","1","2","2","2","2","5","5","5","5","5","4","4","5","5","4","7","7","8","8","7","6","8","8","8","7","7","7","7","7","7","7","1","7","7","1","6","7","7","7","7","6","7","7","7","7","7","7","7","7","7","7","7","7","7","7","7","7","7","7","7","7","7","7","7","7","598865314549071872","周","540","Male","[""好他"",""好我"",""坏我"",""坏他""]","[""强他"",""强我"",""弱我"",""弱他""]","","","","","","","","","","","","","","","","","","","","","","","","","","","","","","feedback_test","","","","","","","","",""
"1060","","j","psychophysics","18","235872","0.0-8.0-1.0-1.0-0.0-0.4","7","7","7","7","7","5","5","5","5","5","5","2","0","2","1","2","2","2","2","5","5","5","5","5","4","4","5","5","4","7","7","8","8","7","6","8","8","8","7","7","7","7","7","7","7","1","7","7","1","6","7","7","7","7","6","7","7","7","7","7","7","7","7","7","7","7","7","7","7","7","7","7","7","7","7","7","7","7","7","598865314549071872","周","540","Male","[""好他"",""好我"",""坏我"",""坏他""]","[""强他"",""强我"",""弱我"",""弱他""]","","","","","","","","nonmatch","","","","","","","","","","key","j","16.65121951219493","768","428","j","true","nonmatch","img/hexagon.png","弱我","强他","prac_ALT2_ability","practice_ability","","","","","","","","",""
"null","<span style='color:GreenYellow; font-size: 70px;'>正确! </span>","null","html-keyboard-response","19","236373","0.0-8.0-1.0-1.0-0.0-1.4","7","7","7","7","7","5","5","5","5","5","5","2","0","2","1","2","2","2","2","5","5","5","5","5","4","4","5","5","4","7","7","8","8","7","6","8","8","8","7","7","7","7","7","7","7","1","7","7","1","6","7","7","7","7","6","7","7","7","7","7","7","7","7","7","7","7","7","7","7","7","7","7","7","7","7","7","7","7","7","598865314549071872","周","540","Male","[""好他"",""好我"",""坏我"",""坏他""]","[""强他"",""强我"",""弱我"",""弱他""]","","","","","","","","","","","","","","","","","","","","","","","","","","","","","","feedback_test","","","","","","","","",""
"1064","","j","psychophysics","20","238439","0.0-8.0-1.0-1.0-0.0-0.5","7","7","7","7","7","5","5","5","5","5","5","2","0","2","1","2","2","2","2","5","5","5","5","5","4","4","5","5","4","7","7","8","8","7","6","8","8","8","7","7","7","7","7","7","7","1","7","7","1","6","7","7","7","7","6","7","7","7","7","7","7","7","7","7","7","7","7","7","7","7","7","7","7","7","7","7","7","7","7","598865314549071872","周","540","Male","[""好他"",""好我"",""坏我"",""坏他""]","[""强他"",""强我"",""弱我"",""弱他""]","","","","","","","","nonmatch","","","","","","","","","","key","j","16.65121951219517","768","428","j","true","nonmatch","img/diamond.png","强他","弱我","prac_ALT2_ability","practice_ability","","","","","","","","",""
"null","<span style='color:GreenYellow; font-size: 70px;'>正确! </span>","null","html-keyboard-response","21","238940","0.0-8.0-1.0-1.0-0.0-1.5","7","7","7","7","7","5","5","5","5","5","5","2","0","2","1","2","2","2","2","5","5","5","5","5","4","4","5","5","4","7","7","8","8","7","6","8","8","8","7","7","7","7","7","7","7","1","7","7","1","6","7","7","7","7","6","7","7","7","7","7","7","7","7","7","7","7","7","7","7","7","7","7","7","7","7","7","7","7","7","598865314549071872","周","540","Male","[""好他"",""好我"",""坏我"",""坏他""]","[""强他"",""强我"",""弱我"",""弱他""]","","","","","","","","","","","","","","","","","","","","","","","","","","","","","","feedback_test","","","","","","","","",""
"692","","f","psychophysics","22","240634","0.0-8.0-1.0-1.0-0.0-0.6","7","7","7","7","7","5","5","5","5","5","5","2","0","2","1","2","2","2","2","5","5","5","5","5","4","4","5","5","4","7","7","8","8","7","6","8","8","8","7","7","7","7","7","7","7","1","7","7","1","6","7","7","7","7","6","7","7","7","7","7","7","7","7","7","7","7","7","7","7","7","7","7","7","7","7","7","7","7","7","598865314549071872","周","540","Male","[""好他"",""好我"",""坏我"",""坏他""]","[""强他"",""强我"",""弱我"",""弱他""]","","","","","","","","match","","","","","","","","","","key","f","16.654455445544325","768","428","f","true","match","img/circle.png","强我","强我","prac_ALT2_ability","practice_ability","","","","","","","","",""
"null","<span style='color:GreenYellow; font-size: 70px;'>正确! </span>","null","html-keyboard-response","23","241135","0.0-8.0-1.0-1.0-0.0-1.6","7","7","7","7","7","5","5","5","5","5","5","2","0","2","1","2","2","2","2","5","5","5","5","5","4","4","5","5","4","7","7","8","8","7","6","8","8","8","7","7","7","7","7","7","7","1","7","7","1","6","7","7","7","7","6","7","7","7","7","7","7","7","7","7","7","7","7","7","7","7","7","7","7","7","7","7","7","7","7","598865314549071872","周","540","Male","[""好他"",""好我"",""坏我"",""坏他""]","[""强他"",""强我"",""弱我"",""弱他""]","","","","","","","","","","","","","","","","","","","","","","","","","","","","","","feedback_test","","","","","","","","",""
"627","","f","psychophysics","24","242764","0.0-8.0-1.0-1.0-0.0-0.7","7","7","7","7","7","5","5","5","5","5","5","2","0","2","1","2","2","2","2","5","5","5","5","5","4","4","5","5","4","7","7","8","8","7","6","8","8","8","7","7","7","7","7","7","7","1","7","7","1","6","7","7","7","7","6","7","7","7","7","7","7","7","7","7","7","7","7","7","7","7","7","7","7","7","7","7","7","7","7","598865314549071872","周","540","Male","[""好他"",""好我"",""坏我"",""坏他""]","[""强他"",""强我"",""弱我"",""弱他""]","","","","","","","","match","","","","","","","","","","key","f","16.65360824742262","768","428","f","true","match","img/diamond.png","弱我","弱我","prac_ALT2_ability","practice_ability","","","","","","","","",""
"null","<span style='color:GreenYellow; font-size: 70px;'>正确! </span>","null","html-keyboard-response","25","243266","0.0-8.0-1.0-1.0-0.0-1.7","7","7","7","7","7","5","5","5","5","5","5","2","0","2","1","2","2","2","2","5","5","5","5","5","4","4","5","5","4","7","7","8","8","7","6","8","8","8","7","7","7","7","7","7","7","1","7","7","1","6","7","7","7","7","6","7","7","7","7","7","7","7","7","7","7","7","7","7","7","7","7","7","7","7","7","7","7","7","7","598865314549071872","周","540","Male","[""好他"",""好我"",""坏我"",""坏他""]","[""强他"",""强我"",""弱我"",""弱他""]","","","","","","","","","","","","","","","","","","","","","","","","","","","","","","feedback_test","","","","","","","","",""
"752","","f","psychophysics","26","245019","0.0-8.0-1.0-1.0-0.0-0.8","7","7","7","7","7","5","5","5","5","5","5","2","0","2","1","2","2","2","2","5","5","5","5","5","4","4","5","5","4","7","7","8","8","7","6","8","8","8","7","7","7","7","7","7","7","1","7","7","1","6","7","7","7","7","6","7","7","7","7","7","7","7","7","7","7","7","7","7","7","7","7","7","7","7","7","7","7","7","7","598865314549071872","周","540","Male","[""好他"",""好我"",""坏我"",""坏他""]","[""强他"",""强我"",""弱我"",""弱他""]","","","","","","","","match","","","","","","","","","","key","f","16.65096153846137","768","428","f","true","match","img/hexagon.png","强他","强他","prac_ALT2_ability","practice_ability","","","","","","","","",""
"null","<span style='color:GreenYellow; font-size: 70px;'>正确! </span>","null","html-keyboard-response","27","245520","0.0-8.0-1.0-1.0-0.0-1.8","7","7","7","7","7","5","5","5","5","5","5","2","0","2","1","2","2","2","2","5","5","5","5","5","4","4","5","5","4","7","7","8","8","7","6","8","8","8","7","7","7","7","7","7","7","1","7","7","1","6","7","7","7","7","6","7","7","7","7","7","7","7","7","7","7","7","7","7","7","7","7","7","7","7","7","7","7","7","7","598865314549071872","周","540","Male","[""好他"",""好我"",""坏我"",""坏他""]","[""强他"",""强我"",""弱我"",""弱他""]","","","","","","","","","","","","","","","","","","","","","","","","","","","","","","feedback_test","","","","","","","","",""
"757","","f","psychophysics","28","247280","0.0-8.0-1.0-1.0-0.0-0.9","7","7","7","7","7","5","5","5","5","5","5","2","0","2","1","2","2","2","2","5","5","5","5","5","4","4","5","5","4","7","7","8","8","7","6","8","8","8","7","7","7","7","7","7","7","1","7","7","1","6","7","7","7","7","6","7","7","7","7","7","7","7","7","7","7","7","7","7","7","7","7","7","7","7","7","7","7","7","7","598865314549071872","周","540","Male","[""好他"",""好我"",""坏我"",""坏他""]","[""强他"",""强我"",""弱我"",""弱他""]","","","","","","","","match","","","","","","","","","","key","f","16.65096153846137","768","428","f","true","match","img/square.png","弱他","弱他","prac_ALT2_ability","practice_ability","","","","","","","","",""
"null","<span style='color:GreenYellow; font-size: 70px;'>正确! </span>","null","html-keyboard-response","29","247781","0.0-8.0-1.0-1.0-0.0-1.9","7","7","7","7","7","5","5","5","5","5","5","2","0","2","1","2","2","2","2","5","5","5","5","5","4","4","5","5","4","7","7","8","8","7","6","8","8","8","7","7","7","7","7","7","7","1","7","7","1","6","7","7","7","7","6","7","7","7","7","7","7","7","7","7","7","7","7","7","7","7","7","7","7","7","7","7","7","7","7","598865314549071872","周","540","Male","[""好他"",""好我"",""坏我"",""坏他""]","[""强他"",""强我"",""弱我"",""弱他""]","","","","","","","","","","","","","","","","","","","","","","","","","","","","","","feedback_test","","","","","","","","",""
"621","","j","psychophysics","30","249403","0.0-8.0-1.0-1.0-0.0-0.10","7","7","7","7","7","5","5","5","5","5","5","2","0","2","1","2","2","2","2","5","5","5","5","5","4","4","5","5","4","7","7","8","8","7","6","8","8","8","7","7","7","7","7","7","7","1","7","7","1","6","7","7","7","7","6","7","7","7","7","7","7","7","7","7","7","7","7","7","7","7","7","7","7","7","7","7","7","7","7","598865314549071872","周","540","Male","[""好他"",""好我"",""坏我"",""坏他""]","[""强他"",""强我"",""弱我"",""弱他""]","","","","","","","","nonmatch","","","","","","","","","","key","j","16.65360824742262","768","428","j","true","nonmatch","img/circle.png","弱我","强我","prac_ALT2_ability","practice_ability","","","","","","","","",""
"null","<span style='color:GreenYellow; font-size: 70px;'>正确! </span>","null","html-keyboard-response","31","249905","0.0-8.0-1.0-1.0-0.0-1.10","7","7","7","7","7","5","5","5","5","5","5","2","0","2","1","2","2","2","2","5","5","5","5","5","4","4","5","5","4","7","7","8","8","7","6","8","8","8","7","7","7","7","7","7","7","1","7","7","1","6","7","7","7","7","6","7","7","7","7","7","7","7","7","7","7","7","7","7","7","7","7","7","7","7","7","7","7","7","7","598865314549071872","周","540","Male","[""好他"",""好我"",""坏我"",""坏他""]","[""强他"",""强我"",""弱我"",""弱他""]","","","","","","","","","","","","","","","","","","","","","","","","","","","","","","feedback_test","","","","","","","","",""
"513","","f","psychophysics","32","251419","0.0-8.0-1.0-1.0-0.0-0.11","7","7","7","7","7","5","5","5","5","5","5","2","0","2","1","2","2","2","2","5","5","5","5","5","4","4","5","5","4","7","7","8","8","7","6","8","8","8","7","7","7","7","7","7","7","1","7","7","1","6","7","7","7","7","6","7","7","7","7","7","7","7","7","7","7","7","7","7","7","7","7","7","7","7","7","7","7","7","7","598865314549071872","周","540","Male","[""好他"",""好我"",""坏我"",""坏他""]","[""强他"",""强我"",""弱我"",""弱他""]","","","","","","","","match","","","","","","","","","","key","f","16.651111111111177","768","428","j","false","nonmatch","img/square.png","强我","弱他","prac_ALT2_ability","practice_ability","","","","","","","","",""
"null","<span style='color:red; font-size: 70px;'>错误! </span>","null","html-keyboard-response","33","251920","0.0-8.0-1.0-1.0-0.0-1.11","7","7","7","7","7","5","5","5","5","5","5","2","0","2","1","2","2","2","2","5","5","5","5","5","4","4","5","5","4","7","7","8","8","7","6","8","8","8","7","7","7","7","7","7","7","1","7","7","1","6","7","7","7","7","6","7","7","7","7","7","7","7","7","7","7","7","7","7","7","7","7","7","7","7","7","7","7","7","7","598865314549071872","周","540","Male","[""好他"",""好我"",""坏我"",""坏他""]","[""强他"",""强我"",""弱我"",""弱他""]","","","","","","","","","","","","","","","","","","","","","","","","","","","","","","feedback_test","","","","","","","","",""
"638","","f","psychophysics","34","253559","0.0-8.0-1.0-1.0-0.0-0.12","7","7","7","7","7","5","5","5","5","5","5","2","0","2","1","2","2","2","2","5","5","5","5","5","4","4","5","5","4","7","7","8","8","7","6","8","8","8","7","7","7","7","7","7","7","1","7","7","1","6","7","7","7","7","6","7","7","7","7","7","7","7","7","7","7","7","7","7","7","7","7","7","7","7","7","7","7","7","7","598865314549071872","周","540","Male","[""好他"",""好我"",""坏我"",""坏他""]","[""强他"",""强我"",""弱我"",""弱他""]","","","","","","","","match","","","","","","","","","","key","f","16.64845360824736","768","428","j","false","nonmatch","img/circle.png","强他","强我","prac_ALT2_ability","practice_ability","","","","","","","","",""
"null","<span style='color:red; font-size: 70px;'>错误! </span>","null","html-keyboard-response","35","254059","0.0-8.0-1.0-1.0-0.0-1.12","7","7","7","7","7","5","5","5","5","5","5","2","0","2","1","2","2","2","2","5","5","5","5","5","4","4","5","5","4","7","7","8","8","7","6","8","8","8","7","7","7","7","7","7","7","1","7","7","1","6","7","7","7","7","6","7","7","7","7","7","7","7","7","7","7","7","7","7","7","7","7","7","7","7","7","7","7","7","7","598865314549071872","周","540","Male","[""好他"",""好我"",""坏我"",""坏他""]","[""强他"",""强我"",""弱我"",""弱他""]","","","","","","","","","","","","","","","","","","","","","","","","","","","","","","feedback_test","","","","","","","","",""
"744","","f","psychophysics","36","255804","0.0-8.0-1.0-1.0-0.0-0.13","7","7","7","7","7","5","5","5","5","5","5","2","0","2","1","2","2","2","2","5","5","5","5","5","4","4","5","5","4","7","7","8","8","7","6","8","8","8","7","7","7","7","7","7","7","1","7","7","1","6","7","7","7","7","6","7","7","7","7","7","7","7","7","7","7","7","7","7","7","7","7","7","7","7","7","7","7","7","7","598865314549071872","周","540","Male","[""好他"",""好我"",""坏我"",""坏他""]","[""强他"",""强我"",""弱我"",""弱他""]","","","","","","","","match","","","","","","","","","","key","f","16.651923076923246","768","428","f","true","match","img/hexagon.png","强他","强他","prac_ALT2_ability","practice_ability","","","","","","","","",""
"null","<span style='color:GreenYellow; font-size: 70px;'>正确! </span>","null","html-keyboard-response","37","256305","0.0-8.0-1.0-1.0-0.0-1.13","7","7","7","7","7","5","5","5","5","5","5","2","0","2","1","2","2","2","2","5","5","5","5","5","4","4","5","5","4","7","7","8","8","7","6","8","8","8","7","7","7","7","7","7","7","1","7","7","1","6","7","7","7","7","6","7","7","7","7","7","7","7","7","7","7","7","7","7","7","7","7","7","7","7","7","7","7","7","7","598865314549071872","周","540","Male","[""好他"",""好我"",""坏我"",""坏他""]","[""强他"",""强我"",""弱我"",""弱他""]","","","","","","","","","","","","","","","","","","","","","","","","","","","","","","feedback_test","","","","","","","","",""
"782","","j","psychophysics","38","258089","0.0-8.0-1.0-1.0-0.0-0.14","7","7","7","7","7","5","5","5","5","5","5","2","0","2","1","2","2","2","2","5","5","5","5","5","4","4","5","5","4","7","7","8","8","7","6","8","8","8","7","7","7","7","7","7","7","1","7","7","1","6","7","7","7","7","6","7","7","7","7","7","7","7","7","7","7","7","7","7","7","7","7","7","7","7","7","7","7","7","7","598865314549071872","周","540","Male","[""好他"",""好我"",""坏我"",""坏他""]","[""强他"",""强我"",""弱我"",""弱他""]","","","","","","","","nonmatch","","","","","","","","","","key","j","16.652830188679356","768","428","j","true","nonmatch","img/square.png","弱我","弱他","prac_ALT2_ability","practice_ability","","","","","","","","",""
"null","<span style='color:GreenYellow; font-size: 70px;'>正确! </span>","null","html-keyboard-response","39","258590","0.0-8.0-1.0-1.0-0.0-1.14","7","7","7","7","7","5","5","5","5","5","5","2","0","2","1","2","2","2","2","5","5","5","5","5","4","4","5","5","4","7","7","8","8","7","6","8","8","8","7","7","7","7","7","7","7","1","7","7","1","6","7","7","7","7","6","7","7","7","7","7","7","7","7","7","7","7","7","7","7","7","7","7","7","7","7","7","7","7","7","598865314549071872","周","540","Male","[""好他"",""好我"",""坏我"",""坏他""]","[""强他"",""强我"",""弱我"",""弱他""]","","","","","","","","","","","","","","","","","","","","","","","","","","","","","","feedback_test","","","","","","","","",""
"821","","j","psychophysics","40","260412","0.0-8.0-1.0-1.0-0.0-0.15","7","7","7","7","7","5","5","5","5","5","5","2","0","2","1","2","2","2","2","5","5","5","5","5","4","4","5","5","4","7","7","8","8","7","6","8","8","8","7","7","7","7","7","7","7","1","7","7","1","6","7","7","7","7","6","7","7","7","7","7","7","7","7","7","7","7","7","7","7","7","7","7","7","7","7","7","7","7","7","598865314549071872","周","540","Male","[""好他"",""好我"",""坏我"",""坏他""]","[""强他"",""强我"",""弱我"",""弱他""]","","","","","","","","nonmatch","","","","","","","","","","key","j","16.65092592592609","768","428","j","true","nonmatch","img/circle.png","弱他","强我","prac_ALT2_ability","practice_ability","","","","","","","","",""
"null","<span style='color:GreenYellow; font-size: 70px;'>正确! </span>","null","html-keyboard-response","41","260914","0.0-8.0-1.0-1.0-0.0-1.15","7","7","7","7","7","5","5","5","5","5","5","2","0","2","1","2","2","2","2","5","5","5","5","5","4","4","5","5","4","7","7","8","8","7","6","8","8","8","7","7","7","7","7","7","7","1","7","7","1","6","7","7","7","7","6","7","7","7","7","7","7","7","7","7","7","7","7","7","7","7","7","7","7","7","7","7","7","7","7","598865314549071872","周","540","Male","[""好他"",""好我"",""坏我"",""坏他""]","[""强他"",""强我"",""弱我"",""弱他""]","","","","","","","","","","","","","","","","","","","","","","","","","","","","","","feedback_test","","","","","","","","",""
"477","","f","psychophysics","42","262392","0.0-8.0-1.0-1.0-0.0-0.16","7","7","7","7","7","5","5","5","5","5","5","2","0","2","1","2","2","2","2","5","5","5","5","5","4","4","5","5","4","7","7","8","8","7","6","8","8","8","7","7","7","7","7","7","7","1","7","7","1","6","7","7","7","7","6","7","7","7","7","7","7","7","7","7","7","7","7","7","7","7","7","7","7","7","7","7","7","7","7","598865314549071872","周","540","Male","[""好他"",""好我"",""坏我"",""坏他""]","[""强他"",""强我"",""弱我"",""弱他""]","","","","","","","","match","","","","","","","","","","key","f","16.648863636363373","768","428","f","true","match","img/circle.png","强我","强我","prac_ALT2_ability","practice_ability","","","","","","","","",""
"null","<span style='color:GreenYellow; font-size: 70px;'>正确! </span>","null","html-keyboard-response","43","262893","0.0-8.0-1.0-1.0-0.0-1.16","7","7","7","7","7","5","5","5","5","5","5","2","0","2","1","2","2","2","2","5","5","5","5","5","4","4","5","5","4","7","7","8","8","7","6","8","8","8","7","7","7","7","7","7","7","1","7","7","1","6","7","7","7","7","6","7","7","7","7","7","7","7","7","7","7","7","7","7","7","7","7","7","7","7","7","7","7","7","7","598865314549071872","周","540","Male","[""好他"",""好我"",""坏我"",""坏他""]","[""强他"",""强我"",""弱我"",""弱他""]","","","","","","","","","","","","","","","","","","","","","","","","","","","","","","feedback_test","","","","","","","","",""
"808","","j","psychophysics","44","264702","0.0-8.0-1.0-1.0-0.0-0.17","7","7","7","7","7","5","5","5","5","5","5","2","0","2","1","2","2","2","2","5","5","5","5","5","4","4","5","5","4","7","7","8","8","7","6","8","8","8","7","7","7","7","7","7","7","1","7","7","1","6","7","7","7","7","6","7","7","7","7","7","7","7","7","7","7","7","7","7","7","7","7","7","7","7","7","7","7","7","7","598865314549071872","周","540","Male","[""好他"",""好我"",""坏我"",""坏他""]","[""强他"",""强我"",""弱我"",""弱他""]","","","","","","","","nonmatch","","","","","","","","","","key","j","16.65185185185153","768","428","j","true","nonmatch","img/diamond.png","弱他","弱我","prac_ALT2_ability","practice_ability","","","","","","","","",""
"null","<span style='color:GreenYellow; font-size: 70px;'>正确! </span>","null","html-keyboard-response","45","265203","0.0-8.0-1.0-1.0-0.0-1.17","7","7","7","7","7","5","5","5","5","5","5","2","0","2","1","2","2","2","2","5","5","5","5","5","4","4","5","5","4","7","7","8","8","7","6","8","8","8","7","7","7","7","7","7","7","1","7","7","1","6","7","7","7","7","6","7","7","7","7","7","7","7","7","7","7","7","7","7","7","7","7","7","7","7","7","7","7","7","7","598865314549071872","周","540","Male","[""好他"",""好我"",""坏我"",""坏他""]","[""强他"",""强我"",""弱我"",""弱他""]","","","","","","","","","","","","","","","","","","","","","","","","","","","","","","feedback_test","","","","","","","","",""
"782","","j","psychophysics","46","266987","0.0-8.0-1.0-1.0-0.0-0.18","7","7","7","7","7","5","5","5","5","5","5","2","0","2","1","2","2","2","2","5","5","5","5","5","4","4","5","5","4","7","7","8","8","7","6","8","8","8","7","7","7","7","7","7","7","1","7","7","1","6","7","7","7","7","6","7","7","7","7","7","7","7","7","7","7","7","7","7","7","7","7","7","7","7","7","7","7","7","7","598865314549071872","周","540","Male","[""好他"",""好我"",""坏我"",""坏他""]","[""强他"",""强我"",""弱我"",""弱他""]","","","","","","","","nonmatch","","","","","","","","","","key","j","16.65377358490555","768","428","f","false","match","img/diamond.png","弱我","弱我","prac_ALT2_ability","practice_ability","","","","","","","","",""
"null","<span style='color:red; font-size: 70px;'>错误! </span>","null","html-keyboard-response","47","267488","0.0-8.0-1.0-1.0-0.0-1.18","7","7","7","7","7","5","5","5","5","5","5","2","0","2","1","2","2","2","2","5","5","5","5","5","4","4","5","5","4","7","7","8","8","7","6","8","8","8","7","7","7","7","7","7","7","1","7","7","1","6","7","7","7","7","6","7","7","7","7","7","7","7","7","7","7","7","7","7","7","7","7","7","7","7","7","7","7","7","7","598865314549071872","周","540","Male","[""好他"",""好我"",""坏我"",""坏他""]","[""强他"",""强我"",""弱我"",""弱他""]","","","","","","","","","","","","","","","","","","","","","","","","","","","","","","feedback_test","","","","","","","","",""
"1111","","f","psychophysics","48","269601","0.0-8.0-1.0-1.0-0.0-0.19","7","7","7","7","7","5","5","5","5","5","5","2","0","2","1","2","2","2","2","5","5","5","5","5","4","4","5","5","4","7","7","8","8","7","6","8","8","8","7","7","7","7","7","7","7","1","7","7","1","6","7","7","7","7","6","7","7","7","7","7","7","7","7","7","7","7","7","7","7","7","7","7","7","7","7","7","7","7","7","598865314549071872","周","540","Male","[""好他"",""好我"",""坏我"",""坏他""]","[""强他"",""强我"",""弱我"",""弱他""]","","","","","","","","match","","","","","","","","","","key","f","16.64841269841233","768","428","f","true","match","img/diamond.png","弱我","弱我","prac_ALT2_ability","practice_ability","","","","","","","","",""
"null","<span style='color:GreenYellow; font-size: 70px;'>正确! </span>","null","html-keyboard-response","49","270101","0.0-8.0-1.0-1.0-0.0-1.19","7","7","7","7","7","5","5","5","5","5","5","2","0","2","1","2","2","2","2","5","5","5","5","5","4","4","5","5","4","7","7","8","8","7","6","8","8","8","7","7","7","7","7","7","7","1","7","7","1","6","7","7","7","7","6","7","7","7","7","7","7","7","7","7","7","7","7","7","7","7","7","7","7","7","7","7","7","7","7","598865314549071872","周","540","Male","[""好他"",""好我"",""坏我"",""坏他""]","[""强他"",""强我"",""弱我"",""弱他""]","","","","","","","","","","","","","","","","","","","","","","","","","","","","","","feedback_test","","","","","","","","",""
"672","","j","psychophysics","50","271775","0.0-8.0-1.0-1.0-0.0-0.20","7","7","7","7","7","5","5","5","5","5","5","2","0","2","1","2","2","2","2","5","5","5","5","5","4","4","5","5","4","7","7","8","8","7","6","8","8","8","7","7","7","7","7","7","7","1","7","7","1","6","7","7","7","7","6","7","7","7","7","7","7","7","7","7","7","7","7","7","7","7","7","7","7","7","7","7","7","7","7","598865314549071872","周","540","Male","[""好他"",""好我"",""坏我"",""坏他""]","[""强他"",""强我"",""弱我"",""弱他""]","","","","","","","","nonmatch","","","","","","","","","","key","j","16.65353535353547","768","428","j","true","nonmatch","img/diamond.png","强我","弱我","prac_ALT2_ability","practice_ability","","","","","","","","",""
"null","<span style='color:GreenYellow; font-size: 70px;'>正确! </span>","null","html-keyboard-response","51","272276","0.0-8.0-1.0-1.0-0.0-1.20","7","7","7","7","7","5","5","5","5","5","5","2","0","2","1","2","2","2","2","5","5","5","5","5","4","4","5","5","4","7","7","8","8","7","6","8","8","8","7","7","7","7","7","7","7","1","7","7","1","6","7","7","7","7","6","7","7","7","7","7","7","7","7","7","7","7","7","7","7","7","7","7","7","7","7","7","7","7","7","598865314549071872","周","540","Male","[""好他"",""好我"",""坏我"",""坏他""]","[""强他"",""强我"",""弱我"",""弱他""]","","","","","","","","","","","","","","","","","","","","","","","","","","","","","","feedback_test","","","","","","","","",""
"937","","f","psychophysics","52","274214","0.0-8.0-1.0-1.0-0.0-0.21","7","7","7","7","7","5","5","5","5","5","5","2","0","2","1","2","2","2","2","5","5","5","5","5","4","4","5","5","4","7","7","8","8","7","6","8","8","8","7","7","7","7","7","7","7","1","7","7","1","6","7","7","7","7","6","7","7","7","7","7","7","7","7","7","7","7","7","7","7","7","7","7","7","7","7","7","7","7","7","598865314549071872","周","540","Male","[""好他"",""好我"",""坏我"",""坏他""]","[""强他"",""强我"",""弱我"",""弱他""]","","","","","","","","match","","","","","","","","","","key","f","16.650862068965516","768","428","f","true","match","img/circle.png","强我","强我","prac_ALT2_ability","practice_ability","","","","","","","","",""
"null","<span style='color:GreenYellow; font-size: 70px;'>正确! </span>","null","html-keyboard-response","53","274715","0.0-8.0-1.0-1.0-0.0-1.21","7","7","7","7","7","5","5","5","5","5","5","2","0","2","1","2","2","2","2","5","5","5","5","5","4","4","5","5","4","7","7","8","8","7","6","8","8","8","7","7","7","7","7","7","7","1","7","7","1","6","7","7","7","7","6","7","7","7","7","7","7","7","7","7","7","7","7","7","7","7","7","7","7","7","7","7","7","7","7","598865314549071872","周","540","Male","[""好他"",""好我"",""坏我"",""坏他""]","[""强他"",""强我"",""弱我"",""弱他""]","","","","","","","","","","","","","","","","","","","","","","","","","","","","","","feedback_test","","","","","","","","",""
"672","","f","psychophysics","54","276388","0.0-8.0-1.0-1.0-0.0-0.22","7","7","7","7","7","5","5","5","5","5","5","2","0","2","1","2","2","2","2","5","5","5","5","5","4","4","5","5","4","7","7","8","8","7","6","8","8","8","7","7","7","7","7","7","7","1","7","7","1","6","7","7","7","7","6","7","7","7","7","7","7","7","7","7","7","7","7","7","7","7","7","7","7","7","7","7","7","7","7","598865314549071872","周","540","Male","[""好他"",""好我"",""坏我"",""坏他""]","[""强他"",""强我"",""弱我"",""弱他""]","","","","","","","","match","","","","","","","","","","key","f","16.651515151515152","768","428","f","true","match","img/square.png","弱他","弱他","prac_ALT2_ability","practice_ability","","","","","","","","",""
"null","<span style='color:GreenYellow; font-size: 70px;'>正确! </span>","null","html-keyboard-response","55","276890","0.0-8.0-1.0-1.0-0.0-1.22","7","7","7","7","7","5","5","5","5","5","5","2","0","2","1","2","2","2","2","5","5","5","5","5","4","4","5","5","4","7","7","8","8","7","6","8","8","8","7","7","7","7","7","7","7","1","7","7","1","6","7","7","7","7","6","7","7","7","7","7","7","7","7","7","7","7","7","7","7","7","7","7","7","7","7","7","7","7","7","598865314549071872","周","540","Male","[""好他"",""好我"",""坏我"",""坏他""]","[""强他"",""强我"",""弱我"",""弱他""]","","","","","","","","","","","","","","","","","","","","","","","","","","","","","","feedback_test","","","","","","","","",""
"593","","f","psychophysics","56","278483","0.0-8.0-1.0-1.0-0.0-0.23","7","7","7","7","7","5","5","5","5","5","5","2","0","2","1","2","2","2","2","5","5","5","5","5","4","4","5","5","4","7","7","8","8","7","6","8","8","8","7","7","7","7","7","7","7","1","7","7","1","6","7","7","7","7","6","7","7","7","7","7","7","7","7","7","7","7","7","7","7","7","7","7","7","7","7","7","7","7","7","598865314549071872","周","540","Male","[""好他"",""好我"",""坏我"",""坏他""]","[""强他"",""强我"",""弱我"",""弱他""]","","","","","","","","match","","","","","","","","","","key","f","16.65106382978674","768","428","f","true","match","img/square.png","弱他","弱他","prac_ALT2_ability","practice_ability","","","","","","","","",""
"null","<span style='color:GreenYellow; font-size: 70px;'>正确! </span>","null","html-keyboard-response","57","278985","0.0-8.0-1.0-1.0-0.0-1.23","7","7","7","7","7","5","5","5","5","5","5","2","0","2","1","2","2","2","2","5","5","5","5","5","4","4","5","5","4","7","7","8","8","7","6","8","8","8","7","7","7","7","7","7","7","1","7","7","1","6","7","7","7","7","6","7","7","7","7","7","7","7","7","7","7","7","7","7","7","7","7","7","7","7","7","7","7","7","7","598865314549071872","周","540","Male","[""好他"",""好我"",""坏我"",""坏他""]","[""强他"",""强我"",""弱我"",""弱他""]","","","","","","","","","","","","","","","","","","","","","","","","","","","","","","feedback_test","","","","","","","","",""
"637","","j","psychophysics","58","280624","0.0-8.0-1.0-1.0-0.0-0.24","7","7","7","7","7","5","5","5","5","5","5","2","0","2","1","2","2","2","2","5","5","5","5","5","4","4","5","5","4","7","7","8","8","7","6","8","8","8","7","7","7","7","7","7","7","1","7","7","1","6","7","7","7","7","6","7","7","7","7","7","7","7","7","7","7","7","7","7","7","7","7","7","7","7","7","7","7","7","7","598865314549071872","周","540","Male","[""好他"",""好我"",""坏我"",""坏他""]","[""强他"",""强我"",""弱我"",""弱他""]","","","","","","","","nonmatch","","","","","","","","","","key","j","16.652040816326174","768","428","j","true","nonmatch","img/circle.png","强他","强我","prac_ALT2_ability","practice_ability","","","","","","","","",""
"null","<span style='color:GreenYellow; font-size: 70px;'>正确! </span>","null","html-keyboard-response","59","281125","0.0-8.0-1.0-1.0-0.0-1.24","7","7","7","7","7","5","5","5","5","5","5","2","0","2","1","2","2","2","2","5","5","5","5","5","4","4","5","5","4","7","7","8","8","7","6","8","8","8","7","7","7","7","7","7","7","1","7","7","1","6","7","7","7","7","6","7","7","7","7","7","7","7","7","7","7","7","7","7","7","7","7","7","7","7","7","7","7","7","7","598865314549071872","周","540","Male","[""好他"",""好我"",""坏我"",""坏他""]","[""强他"",""强我"",""弱我"",""弱他""]","","","","","","","","","","","","","","","","","","","","","","","","","","","","","","feedback_test","","","","","","","","",""
"800","","f","psychophysics","60","282928","0.0-8.0-1.0-1.0-0.0-0.25","7","7","7","7","7","5","5","5","5","5","5","2","0","2","1","2","2","2","2","5","5","5","5","5","4","4","5","5","4","7","7","8","8","7","6","8","8","8","7","7","7","7","7","7","7","1","7","7","1","6","7","7","7","7","6","7","7","7","7","7","7","7","7","7","7","7","7","7","7","7","7","7","7","7","7","7","7","7","7","598865314549071872","周","540","Male","[""好他"",""好我"",""坏我"",""坏他""]","[""强他"",""强我"",""弱我"",""弱他""]","","","","","","","","match","","","","","","","","","","key","f","16.64859813084134","768","428","f","true","match","img/square.png","弱他","弱他","prac_ALT2_ability","practice_ability","","","","","","","","",""
"null","<span style='color:GreenYellow; font-size: 70px;'>正确! </span>","null","html-keyboard-response","61","283429","0.0-8.0-1.0-1.0-0.0-1.25","7","7","7","7","7","5","5","5","5","5","5","2","0","2","1","2","2","2","2","5","5","5","5","5","4","4","5","5","4","7","7","8","8","7","6","8","8","8","7","7","7","7","7","7","7","1","7","7","1","6","7","7","7","7","6","7","7","7","7","7","7","7","7","7","7","7","7","7","7","7","7","7","7","7","7","7","7","7","7","598865314549071872","周","540","Male","[""好他"",""好我"",""坏我"",""坏他""]","[""强他"",""强我"",""弱我"",""弱他""]","","","","","","","","","","","","","","","","","","","","","","","","","","","","","","feedback_test","","","","","","","","",""
"603","","j","psychophysics","62","285034","0.0-8.0-1.0-1.0-0.0-0.26","7","7","7","7","7","5","5","5","5","5","5","2","0","2","1","2","2","2","2","5","5","5","5","5","4","4","5","5","4","7","7","8","8","7","6","8","8","8","7","7","7","7","7","7","7","1","7","7","1","6","7","7","7","7","6","7","7","7","7","7","7","7","7","7","7","7","7","7","7","7","7","7","7","7","7","7","7","7","7","598865314549071872","周","540","Male","[""好他"",""好我"",""坏我"",""坏他""]","[""强他"",""强我"",""弱我"",""弱他""]","","","","","","","","nonmatch","","","","","","","","","","key","j","16.652083333333696","768","428","j","true","nonmatch","img/square.png","弱我","弱他","prac_ALT2_ability","practice_ability","","","","","","","","",""
"null","<span style='color:GreenYellow; font-size: 70px;'>正确! </span>","null","html-keyboard-response","63","285537","0.0-8.0-1.0-1.0-0.0-1.26","7","7","7","7","7","5","5","5","5","5","5","2","0","2","1","2","2","2","2","5","5","5","5","5","4","4","5","5","4","7","7","8","8","7","6","8","8","8","7","7","7","7","7","7","7","1","7","7","1","6","7","7","7","7","6","7","7","7","7","7","7","7","7","7","7","7","7","7","7","7","7","7","7","7","7","7","7","7","7","598865314549071872","周","540","Male","[""好他"",""好我"",""坏我"",""坏他""]","[""强他"",""强我"",""弱我"",""弱他""]","","","","","","","","","","","","","","","","","","","","","","","","","","","","","","feedback_test","","","","","","","","",""
"653","","f","psychophysics","64","287193","0.0-8.0-1.0-1.0-0.0-0.27","7","7","7","7","7","5","5","5","5","5","5","2","0","2","1","2","2","2","2","5","5","5","5","5","4","4","5","5","4","7","7","8","8","7","6","8","8","8","7","7","7","7","7","7","7","1","7","7","1","6","7","7","7","7","6","7","7","7","7","7","7","7","7","7","7","7","7","7","7","7","7","7","7","7","7","7","7","7","7","598865314549071872","周","540","Male","[""好他"",""好我"",""坏我"",""坏他""]","[""强他"",""强我"",""弱我"",""弱他""]","","","","","","","","match","","","","","","","","","","key","f","16.653061224489797","768","428","f","true","match","img/circle.png","强我","强我","prac_ALT2_ability","practice_ability","","","","","","","","",""
"null","<span style='color:GreenYellow; font-size: 70px;'>正确! </span>","null","html-keyboard-response","65","287694","0.0-8.0-1.0-1.0-0.0-1.27","7","7","7","7","7","5","5","5","5","5","5","2","0","2","1","2","2","2","2","5","5","5","5","5","4","4","5","5","4","7","7","8","8","7","6","8","8","8","7","7","7","7","7","7","7","1","7","7","1","6","7","7","7","7","6","7","7","7","7","7","7","7","7","7","7","7","7","7","7","7","7","7","7","7","7","7","7","7","7","598865314549071872","周","540","Male","[""好他"",""好我"",""坏我"",""坏他""]","[""强他"",""强我"",""弱我"",""弱他""]","","","","","","","","","","","","","","","","","","","","","","","","","","","","","","feedback_test","","","","","","","","",""
"551","","j","psychophysics","66","289247","0.0-8.0-1.0-1.0-0.0-0.28","7","7","7","7","7","5","5","5","5","5","5","2","0","2","1","2","2","2","2","5","5","5","5","5","4","4","5","5","4","7","7","8","8","7","6","8","8","8","7","7","7","7","7","7","7","1","7","7","1","6","7","7","7","7","6","7","7","7","7","7","7","7","7","7","7","7","7","7","7","7","7","7","7","7","7","7","7","7","7","598865314549071872","周","540","Male","[""好他"",""好我"",""坏我"",""坏他""]","[""强他"",""强我"",""弱我"",""弱他""]","","","","","","","","nonmatch","","","","","","","","","","key","j","16.651612903226184","768","428","j","true","nonmatch","img/hexagon.png","弱他","强他","prac_ALT2_ability","practice_ability","","","","","","","","",""
"null","<span style='color:GreenYellow; font-size: 70px;'>正确! </span>","null","html-keyboard-response","67","289748","0.0-8.0-1.0-1.0-0.0-1.28","7","7","7","7","7","5","5","5","5","5","5","2","0","2","1","2","2","2","2","5","5","5","5","5","4","4","5","5","4","7","7","8","8","7","6","8","8","8","7","7","7","7","7","7","7","1","7","7","1","6","7","7","7","7","6","7","7","7","7","7","7","7","7","7","7","7","7","7","7","7","7","7","7","7","7","7","7","7","7","598865314549071872","周","540","Male","[""好他"",""好我"",""坏我"",""坏他""]","[""强他"",""强我"",""弱我"",""弱他""]","","","","","","","","","","","","","","","","","","","","","","","","","","","","","","feedback_test","","","","","","","","",""
"692","","j","psychophysics","68","291442","0.0-8.0-1.0-1.0-0.0-0.29","7","7","7","7","7","5","5","5","5","5","5","2","0","2","1","2","2","2","2","5","5","5","5","5","4","4","5","5","4","7","7","8","8","7","6","8","8","8","7","7","7","7","7","7","7","1","7","7","1","6","7","7","7","7","6","7","7","7","7","7","7","7","7","7","7","7","7","7","7","7","7","7","7","7","7","7","7","7","7","598865314549071872","周","540","Male","[""好他"",""好我"",""坏我"",""坏他""]","[""强他"",""强我"",""弱我"",""弱他""]","","","","","","","","nonmatch","","","","","","","","","","key","j","16.645","768","428","j","true","nonmatch","img/hexagon.png","弱我","强他","prac_ALT2_ability","practice_ability","","","","","","","","",""
"null","<span style='color:GreenYellow; font-size: 70px;'>正确! </span>","null","html-keyboard-response","69","291943","0.0-8.0-1.0-1.0-0.0-1.29","7","7","7","7","7","5","5","5","5","5","5","2","0","2","1","2","2","2","2","5","5","5","5","5","4","4","5","5","4","7","7","8","8","7","6","8","8","8","7","7","7","7","7","7","7","1","7","7","1","6","7","7","7","7","6","7","7","7","7","7","7","7","7","7","7","7","7","7","7","7","7","7","7","7","7","7","7","7","7","598865314549071872","周","540","Male","[""好他"",""好我"",""坏我"",""坏他""]","[""强他"",""强我"",""弱我"",""弱他""]","","","","","","","","","","","","","","","","","","","","","","","","","","","","","","feedback_test","","","","","","","","",""
"728","","j","psychophysics","70","293672","0.0-8.0-1.0-1.0-0.0-0.30","7","7","7","7","7","5","5","5","5","5","5","2","0","2","1","2","2","2","2","5","5","5","5","5","4","4","5","5","4","7","7","8","8","7","6","8","8","8","7","7","7","7","7","7","7","1","7","7","1","6","7","7","7","7","6","7","7","7","7","7","7","7","7","7","7","7","7","7","7","7","7","7","7","7","7","7","7","7","7","598865314549071872","周","540","Male","[""好他"",""好我"",""坏我"",""坏他""]","[""强他"",""强我"",""弱我"",""弱他""]","","","","","","","","nonmatch","","","","","","","","","","key","j","16.64607843137278","768","428","j","true","nonmatch","img/circle.png","弱他","强我","prac_ALT2_ability","practice_ability","","","","","","","","",""
"null","<span style='color:GreenYellow; font-size: 70px;'>正确! </span>","null","html-keyboard-response","71","294172","0.0-8.0-1.0-1.0-0.0-1.30","7","7","7","7","7","5","5","5","5","5","5","2","0","2","1","2","2","2","2","5","5","5","5","5","4","4","5","5","4","7","7","8","8","7","6","8","8","8","7","7","7","7","7","7","7","1","7","7","1","6","7","7","7","7","6","7","7","7","7","7","7","7","7","7","7","7","7","7","7","7","7","7","7","7","7","7","7","7","7","598865314549071872","周","540","Male","[""好他"",""好我"",""坏我"",""坏他""]","[""强他"",""强我"",""弱我"",""弱他""]","","","","","","","","","","","","","","","","","","","","","","","","","","","","","","feedback_test","","","","","","","","",""
"753","","j","psychophysics","72","295926","0.0-8.0-1.0-1.0-0.0-0.31","7","7","7","7","7","5","5","5","5","5","5","2","0","2","1","2","2","2","2","5","5","5","5","5","4","4","5","5","4","7","7","8","8","7","6","8","8","8","7","7","7","7","7","7","7","1","7","7","1","6","7","7","7","7","6","7","7","7","7","7","7","7","7","7","7","7","7","7","7","7","7","7","7","7","7","7","7","7","7","598865314549071872","周","540","Male","[""好他"",""好我"",""坏我"",""坏他""]","[""强他"",""强我"",""弱我"",""弱他""]","","","","","","","","nonmatch","","","","","","","","","","key","j","16.652380952380952","768","428","j","true","nonmatch","img/diamond.png","强他","弱我","prac_ALT2_ability","practice_ability","","","","","","","","",""
"null","<span style='color:GreenYellow; font-size: 70px;'>正确! </span>","null","html-keyboard-response","73","296428","0.0-8.0-1.0-1.0-0.0-1.31","7","7","7","7","7","5","5","5","5","5","5","2","0","2","1","2","2","2","2","5","5","5","5","5","4","4","5","5","4","7","7","8","8","7","6","8","8","8","7","7","7","7","7","7","7","1","7","7","1","6","7","7","7","7","6","7","7","7","7","7","7","7","7","7","7","7","7","7","7","7","7","7","7","7","7","7","7","7","7","598865314549071872","周","540","Male","[""好他"",""好我"",""坏我"",""坏他""]","[""强他"",""强我"",""弱我"",""弱他""]","","","","","","","","","","","","","","","","","","","","","","","","","","","","","","feedback_test","","","","","","","","",""
"601","","f","psychophysics","74","298032","0.0-8.0-1.0-1.0-0.0-0.32","7","7","7","7","7","5","5","5","5","5","5","2","0","2","1","2","2","2","2","5","5","5","5","5","4","4","5","5","4","7","7","8","8","7","6","8","8","8","7","7","7","7","7","7","7","1","7","7","1","6","7","7","7","7","6","7","7","7","7","7","7","7","7","7","7","7","7","7","7","7","7","7","7","7","7","7","7","7","7","598865314549071872","周","540","Male","[""好他"",""好我"",""坏我"",""坏他""]","[""强他"",""强我"",""弱我"",""弱他""]","","","","","","","","match","","","","","","","","","","key","f","16.65052631578935","768","428","j","false","nonmatch","img/square.png","强他","弱他","prac_ALT2_ability","practice_ability","","","","","","","","",""
"null","<span style='color:red; font-size: 70px;'>错误! </span>","null","html-keyboard-response","75","298533","0.0-8.0-1.0-1.0-0.0-1.32","7","7","7","7","7","5","5","5","5","5","5","2","0","2","1","2","2","2","2","5","5","5","5","5","4","4","5","5","4","7","7","8","8","7","6","8","8","8","7","7","7","7","7","7","7","1","7","7","1","6","7","7","7","7","6","7","7","7","7","7","7","7","7","7","7","7","7","7","7","7","7","7","7","7","7","7","7","7","7","598865314549071872","周","540","Male","[""好他"",""好我"",""坏我"",""坏他""]","[""强他"",""强我"",""弱我"",""弱他""]","","","","","","","","","","","","","","","","","","","","","","","","","","","","","","feedback_test","","","","","","","","",""
"956","","j","psychophysics","76","300490","0.0-8.0-1.0-1.0-0.0-0.33","7","7","7","7","7","5","5","5","5","5","5","2","0","2","1","2","2","2","2","5","5","5","5","5","4","4","5","5","4","7","7","8","8","7","6","8","8","8","7","7","7","7","7","7","7","1","7","7","1","6","7","7","7","7","6","7","7","7","7","7","7","7","7","7","7","7","7","7","7","7","7","7","7","7","7","7","7","7","7","598865314549071872","周","540","Male","[""好他"",""好我"",""坏我"",""坏他""]","[""强他"",""强我"",""弱我"",""弱他""]","","","","","","","","nonmatch","","","","","","","","","","key","j","16.651282051282152","768","428","j","true","nonmatch","img/square.png","强我","弱他","prac_ALT2_ability","practice_ability","","","","","","","","",""
"null","<span style='color:GreenYellow; font-size: 70px;'>正确! </span>","null","html-keyboard-response","77","300991","0.0-8.0-1.0-1.0-0.0-1.33","7","7","7","7","7","5","5","5","5","5","5","2","0","2","1","2","2","2","2","5","5","5","5","5","4","4","5","5","4","7","7","8","8","7","6","8","8","8","7","7","7","7","7","7","7","1","7","7","1","6","7","7","7","7","6","7","7","7","7","7","7","7","7","7","7","7","7","7","7","7","7","7","7","7","7","7","7","7","7","598865314549071872","周","540","Male","[""好他"",""好我"",""坏我"",""坏他""]","[""强他"",""强我"",""弱我"",""弱他""]","","","","","","","","","","","","","","","","","","","","","","","","","","","","","","feedback_test","","","","","","","","",""
"772","","j","psychophysics","78","302765","0.0-8.0-1.0-1.0-0.0-0.34","7","7","7","7","7","5","5","5","5","5","5","2","0","2","1","2","2","2","2","5","5","5","5","5","4","4","5","5","4","7","7","8","8","7","6","8","8","8","7","7","7","7","7","7","7","1","7","7","1","6","7","7","7","7","6","7","7","7","7","7","7","7","7","7","7","7","7","7","7","7","7","7","7","7","7","7","7","7","7","598865314549071872","周","540","Male","[""好他"",""好我"",""坏我"",""坏他""]","[""强他"",""强我"",""弱我"",""弱他""]","","","","","","","","nonmatch","","","","","","","","","","key","j","16.645714285714174","768","428","j","true","nonmatch","img/hexagon.png","强我","强他","prac_ALT2_ability","practice_ability","","","","","","","","",""
"null","<span style='color:GreenYellow; font-size: 70px;'>正确! </span>","null","html-keyboard-response","79","303267","0.0-8.0-1.0-1.0-0.0-1.34","7","7","7","7","7","5","5","5","5","5","5","2","0","2","1","2","2","2","2","5","5","5","5","5","4","4","5","5","4","7","7","8","8","7","6","8","8","8","7","7","7","7","7","7","7","1","7","7","1","6","7","7","7","7","6","7","7","7","7","7","7","7","7","7","7","7","7","7","7","7","7","7","7","7","7","7","7","7","7","598865314549071872","周","540","Male","[""好他"",""好我"",""坏我"",""坏他""]","[""强他"",""强我"",""弱我"",""弱他""]","","","","","","","","","","","","","","","","","","","","","","","","","","","","","","feedback_test","","","","","","","","",""
"651","","f","psychophysics","80","304920","0.0-8.0-1.0-1.0-0.0-0.35","7","7","7","7","7","5","5","5","5","5","5","2","0","2","1","2","2","2","2","5","5","5","5","5","4","4","5","5","4","7","7","8","8","7","6","8","8","8","7","7","7","7","7","7","7","1","7","7","1","6","7","7","7","7","6","7","7","7","7","7","7","7","7","7","7","7","7","7","7","7","7","7","7","7","7","7","7","7","7","598865314549071872","周","540","Male","[""好他"",""好我"",""坏我"",""坏他""]","[""强他"",""强我"",""弱我"",""弱他""]","","","","","","","","match","","","","","","","","","","key","f","16.655102040816445","768","428","f","true","match","img/circle.png","强我","强我","prac_ALT2_ability","practice_ability","","","","","","","","",""
"null","<span style='color:GreenYellow; font-size: 70px;'>正确! </span>","null","html-keyboard-response","81","305421","0.0-8.0-1.0-1.0-0.0-1.35","7","7","7","7","7","5","5","5","5","5","5","2","0","2","1","2","2","2","2","5","5","5","5","5","4","4","5","5","4","7","7","8","8","7","6","8","8","8","7","7","7","7","7","7","7","1","7","7","1","6","7","7","7","7","6","7","7","7","7","7","7","7","7","7","7","7","7","7","7","7","7","7","7","7","7","7","7","7","7","598865314549071872","周","540","Male","[""好他"",""好我"",""坏我"",""坏他""]","[""强他"",""强我"",""弱我"",""弱他""]","","","","","","","","","","","","","","","","","","","","","","","","","","","","","","feedback_test","","","","","","","","",""
"809","","f","psychophysics","82","307231","0.0-8.0-1.0-1.0-0.0-0.36","7","7","7","7","7","5","5","5","5","5","5","2","0","2","1","2","2","2","2","5","5","5","5","5","4","4","5","5","4","7","7","8","8","7","6","8","8","8","7","7","7","7","7","7","7","1","7","7","1","6","7","7","7","7","6","7","7","7","7","7","7","7","7","7","7","7","7","7","7","7","7","7","7","7","7","7","7","7","7","598865314549071872","周","540","Male","[""好他"",""好我"",""坏我"",""坏他""]","[""强他"",""强我"",""弱我"",""弱他""]","","","","","","","","match","","","","","","","","","","key","f","16.65277777777778","768","428","f","true","match","img/hexagon.png","强他","强他","prac_ALT2_ability","practice_ability","","","","","","","","",""
"null","<span style='color:GreenYellow; font-size: 70px;'>正确! </span>","null","html-keyboard-response","83","307732","0.0-8.0-1.0-1.0-0.0-1.36","7","7","7","7","7","5","5","5","5","5","5","2","0","2","1","2","2","2","2","5","5","5","5","5","4","4","5","5","4","7","7","8","8","7","6","8","8","8","7","7","7","7","7","7","7","1","7","7","1","6","7","7","7","7","6","7","7","7","7","7","7","7","7","7","7","7","7","7","7","7","7","7","7","7","7","7","7","7","7","598865314549071872","周","540","Male","[""好他"",""好我"",""坏我"",""坏他""]","[""强他"",""强我"",""弱我"",""弱他""]","","","","","","","","","","","","","","","","","","","","","","","","","","","","","","feedback_test","","","","","","","","",""
"776","","j","psychophysics","84","309509","0.0-8.0-1.0-1.0-0.0-0.37","7","7","7","7","7","5","5","5","5","5","5","2","0","2","1","2","2","2","2","5","5","5","5","5","4","4","5","5","4","7","7","8","8","7","6","8","8","8","7","7","7","7","7","7","7","1","7","7","1","6","7","7","7","7","6","7","7","7","7","7","7","7","7","7","7","7","7","7","7","7","7","7","7","7","7","7","7","7","7","598865314549071872","周","540","Male","[""好他"",""好我"",""坏我"",""坏他""]","[""强他"",""强我"",""弱我"",""弱他""]","","","","","","","","nonmatch","","","","","","","","","","key","j","16.645714285714174","768","428","f","false","match","img/diamond.png","弱我","弱我","prac_ALT2_ability","practice_ability","","","","","","","","",""
"null","<span style='color:red; font-size: 70px;'>错误! </span>","null","html-keyboard-response","85","310009","0.0-8.0-1.0-1.0-0.0-1.37","7","7","7","7","7","5","5","5","5","5","5","2","0","2","1","2","2","2","2","5","5","5","5","5","4","4","5","5","4","7","7","8","8","7","6","8","8","8","7","7","7","7","7","7","7","1","7","7","1","6","7","7","7","7","6","7","7","7","7","7","7","7","7","7","7","7","7","7","7","7","7","7","7","7","7","7","7","7","7","598865314549071872","周","540","Male","[""好他"",""好我"",""坏我"",""坏他""]","[""强他"",""强我"",""弱我"",""弱他""]","","","","","","","","","","","","","","","","","","","","","","","","","","","","","","feedback_test","","","","","","","","",""
"628","","f","psychophysics","86","311639","0.0-8.0-1.0-1.0-0.0-0.38","7","7","7","7","7","5","5","5","5","5","5","2","0","2","1","2","2","2","2","5","5","5","5","5","4","4","5","5","4","7","7","8","8","7","6","8","8","8","7","7","7","7","7","7","7","1","7","7","1","6","7","7","7","7","6","7","7","7","7","7","7","7","7","7","7","7","7","7","7","7","7","7","7","7","7","7","7","7","7","598865314549071872","周","540","Male","[""好他"",""好我"",""坏我"",""坏他""]","[""强他"",""强我"",""弱我"",""弱他""]","","","","","","","","match","","","","","","","","","","key","f","16.65312500000012","768","428","f","true","match","img/hexagon.png","强他","强他","prac_ALT2_ability","practice_ability","","","","","","","","",""
"null","<span style='color:GreenYellow; font-size: 70px;'>正确! </span>","null","html-keyboard-response","87","312140","0.0-8.0-1.0-1.0-0.0-1.38","7","7","7","7","7","5","5","5","5","5","5","2","0","2","1","2","2","2","2","5","5","5","5","5","4","4","5","5","4","7","7","8","8","7","6","8","8","8","7","7","7","7","7","7","7","1","7","7","1","6","7","7","7","7","6","7","7","7","7","7","7","7","7","7","7","7","7","7","7","7","7","7","7","7","7","7","7","7","7","598865314549071872","周","540","Male","[""好他"",""好我"",""坏我"",""坏他""]","[""强他"",""强我"",""弱我"",""弱他""]","","","","","","","","","","","","","","","","","","","","","","","","","","","","","","feedback_test","","","","","","","","",""
"913","","j","psychophysics","88","314053","0.0-8.0-1.0-1.0-0.0-0.39","7","7","7","7","7","5","5","5","5","5","5","2","0","2","1","2","2","2","2","5","5","5","5","5","4","4","5","5","4","7","7","8","8","7","6","8","8","8","7","7","7","7","7","7","7","1","7","7","1","6","7","7","7","7","6","7","7","7","7","7","7","7","7","7","7","7","7","7","7","7","7","7","7","7","7","7","7","7","7","598865314549071872","周","540","Male","[""好他"",""好我"",""坏我"",""坏他""]","[""强他"",""强我"",""弱我"",""弱他""]","","","","","","","","nonmatch","","","","","","","","","","key","j","16.64247787610599","768","428","j","true","nonmatch","img/diamond.png","弱他","弱我","prac_ALT2_ability","practice_ability","","","","","","","","",""
"null","<span style='color:GreenYellow; font-size: 70px;'>正确! </span>","null","html-keyboard-response","89","314554","0.0-8.0-1.0-1.0-0.0-1.39","7","7","7","7","7","5","5","5","5","5","5","2","0","2","1","2","2","2","2","5","5","5","5","5","4","4","5","5","4","7","7","8","8","7","6","8","8","8","7","7","7","7","7","7","7","1","7","7","1","6","7","7","7","7","6","7","7","7","7","7","7","7","7","7","7","7","7","7","7","7","7","7","7","7","7","7","7","7","7","598865314549071872","周","540","Male","[""好他"",""好我"",""坏我"",""坏他""]","[""强他"",""强我"",""弱我"",""弱他""]","","","","","","","","","","","","","","","","","","","","","","","","","","","","","","feedback_test","","","","","","","","",""
"743","","f","psychophysics","90","316297","0.0-8.0-1.0-1.0-0.0-0.40","7","7","7","7","7","5","5","5","5","5","5","2","0","2","1","2","2","2","2","5","5","5","5","5","4","4","5","5","4","7","7","8","8","7","6","8","8","8","7","7","7","7","7","7","7","1","7","7","1","6","7","7","7","7","6","7","7","7","7","7","7","7","7","7","7","7","7","7","7","7","7","7","7","7","7","7","7","7","7","598865314549071872","周","540","Male","[""好他"",""好我"",""坏我"",""坏他""]","[""强他"",""强我"",""弱我"",""弱他""]","","","","","","","","match","","","","","","","","","","key","f","16.642718446602053","768","428","f","true","match","img/diamond.png","弱我","弱我","prac_ALT2_ability","practice_ability","","","","","","","","",""
"null","<span style='color:GreenYellow; font-size: 70px;'>正确! </span>","null","html-keyboard-response","91","316798","0.0-8.0-1.0-1.0-0.0-1.40","7","7","7","7","7","5","5","5","5","5","5","2","0","2","1","2","2","2","2","5","5","5","5","5","4","4","5","5","4","7","7","8","8","7","6","8","8","8","7","7","7","7","7","7","7","1","7","7","1","6","7","7","7","7","6","7","7","7","7","7","7","7","7","7","7","7","7","7","7","7","7","7","7","7","7","7","7","7","7","598865314549071872","周","540","Male","[""好他"",""好我"",""坏我"",""坏他""]","[""强他"",""强我"",""弱我"",""弱他""]","","","","","","","","","","","","","","","","","","","","","","","","","","","","","","feedback_test","","","","","","","","",""
"593","","f","psychophysics","92","318392","0.0-8.0-1.0-1.0-0.0-0.41","7","7","7","7","7","5","5","5","5","5","5","2","0","2","1","2","2","2","2","5","5","5","5","5","4","4","5","5","4","7","7","8","8","7","6","8","8","8","7","7","7","7","7","7","7","1","7","7","1","6","7","7","7","7","6","7","7","7","7","7","7","7","7","7","7","7","7","7","7","7","7","7","7","7","7","7","7","7","7","598865314549071872","周","540","Male","[""好他"",""好我"",""坏我"",""坏他""]","[""强他"",""强我"",""弱我"",""弱他""]","","","","","","","","match","","","","","","","","","","key","f","16.650526315789964","768","428","f","true","match","img/diamond.png","弱我","弱我","prac_ALT2_ability","practice_ability","","","","","","","","",""
"null","<span style='color:GreenYellow; font-size: 70px;'>正确! </span>","null","html-keyboard-response","93","318893","0.0-8.0-1.0-1.0-0.0-1.41","7","7","7","7","7","5","5","5","5","5","5","2","0","2","1","2","2","2","2","5","5","5","5","5","4","4","5","5","4","7","7","8","8","7","6","8","8","8","7","7","7","7","7","7","7","1","7","7","1","6","7","7","7","7","6","7","7","7","7","7","7","7","7","7","7","7","7","7","7","7","7","7","7","7","7","7","7","7","7","598865314549071872","周","540","Male","[""好他"",""好我"",""坏我"",""坏他""]","[""强他"",""强我"",""弱我"",""弱他""]","","","","","","","","","","","","","","","","","","","","","","","","","","","","","","feedback_test","","","","","","","","",""
"766","","f","psychophysics","94","320661","0.0-8.0-1.0-1.0-0.0-0.42","7","7","7","7","7","5","5","5","5","5","5","2","0","2","1","2","2","2","2","5","5","5","5","5","4","4","5","5","4","7","7","8","8","7","6","8","8","8","7","7","7","7","7","7","7","1","7","7","1","6","7","7","7","7","6","7","7","7","7","7","7","7","7","7","7","7","7","7","7","7","7","7","7","7","7","7","7","7","7","598865314549071872","周","540","Male","[""好他"",""好我"",""坏我"",""坏他""]","[""强他"",""强我"",""弱我"",""弱他""]","","","","","","","","match","","","","","","","","","","key","f","16.648571428571206","768","428","f","true","match","img/hexagon.png","强他","强他","prac_ALT2_ability","practice_ability","","","","","","","","",""
"null","<span style='color:GreenYellow; font-size: 70px;'>正确! </span>","null","html-keyboard-response","95","321162","0.0-8.0-1.0-1.0-0.0-1.42","7","7","7","7","7","5","5","5","5","5","5","2","0","2","1","2","2","2","2","5","5","5","5","5","4","4","5","5","4","7","7","8","8","7","6","8","8","8","7","7","7","7","7","7","7","1","7","7","1","6","7","7","7","7","6","7","7","7","7","7","7","7","7","7","7","7","7","7","7","7","7","7","7","7","7","7","7","7","7","598865314549071872","周","540","Male","[""好他"",""好我"",""坏我"",""坏他""]","[""强他"",""强我"",""弱我"",""弱他""]","","","","","","","","","","","","","","","","","","","","","","","","","","","","","","feedback_test","","","","","","","","",""
"977","","j","psychophysics","96","323141","0.0-8.0-1.0-1.0-0.0-0.43","7","7","7","7","7","5","5","5","5","5","5","2","0","2","1","2","2","2","2","5","5","5","5","5","4","4","5","5","4","7","7","8","8","7","6","8","8","8","7","7","7","7","7","7","7","1","7","7","1","6","7","7","7","7","6","7","7","7","7","7","7","7","7","7","7","7","7","7","7","7","7","7","7","7","7","7","7","7","7","598865314549071872","周","540","Male","[""好他"",""好我"",""坏我"",""坏他""]","[""强他"",""强我"",""弱我"",""弱他""]","","","","","","","","nonmatch","","","","","","","","","","key","j","16.652542372881356","768","428","j","true","nonmatch","img/circle.png","弱我","强我","prac_ALT2_ability","practice_ability","","","","","","","","",""
"null","<span style='color:GreenYellow; font-size: 70px;'>正确! </span>","null","html-keyboard-response","97","323642","0.0-8.0-1.0-1.0-0.0-1.43","7","7","7","7","7","5","5","5","5","5","5","2","0","2","1","2","2","2","2","5","5","5","5","5","4","4","5","5","4","7","7","8","8","7","6","8","8","8","7","7","7","7","7","7","7","1","7","7","1","6","7","7","7","7","6","7","7","7","7","7","7","7","7","7","7","7","7","7","7","7","7","7","7","7","7","7","7","7","7","598865314549071872","周","540","Male","[""好他"",""好我"",""坏我"",""坏他""]","[""强他"",""强我"",""弱我"",""弱他""]","","","","","","","","","","","","","","","","","","","","","","","","","","","","","","feedback_test","","","","","","","","",""
"723","","f","psychophysics","98","325366","0.0-8.0-1.0-1.0-0.0-0.44","7","7","7","7","7","5","5","5","5","5","5","2","0","2","1","2","2","2","2","5","5","5","5","5","4","4","5","5","4","7","7","8","8","7","6","8","8","8","7","7","7","7","7","7","7","1","7","7","1","6","7","7","7","7","6","7","7","7","7","7","7","7","7","7","7","7","7","7","7","7","7","7","7","7","7","7","7","7","7","598865314549071872","周","540","Male","[""好他"",""好我"",""坏我"",""坏他""]","[""强他"",""强我"",""弱我"",""弱他""]","","","","","","","","match","","","","","","","","","","key","f","16.651456310679386","768","428","j","false","nonmatch","img/diamond.png","强我","弱我","prac_ALT2_ability","practice_ability","","","","","","","","",""
"null","<span style='color:red; font-size: 70px;'>错误! </span>","null","html-keyboard-response","99","325866","0.0-8.0-1.0-1.0-0.0-1.44","7","7","7","7","7","5","5","5","5","5","5","2","0","2","1","2","2","2","2","5","5","5","5","5","4","4","5","5","4","7","7","8","8","7","6","8","8","8","7","7","7","7","7","7","7","1","7","7","1","6","7","7","7","7","6","7","7","7","7","7","7","7","7","7","7","7","7","7","7","7","7","7","7","7","7","7","7","7","7","598865314549071872","周","540","Male","[""好他"",""好我"",""坏我"",""坏他""]","[""强他"",""强我"",""弱我"",""弱他""]","","","","","","","","","","","","","","","","","","","","","","","","","","","","","","feedback_test","","","","","","","","",""
"883","","f","psychophysics","100","327750","0.0-8.0-1.0-1.0-0.0-0.45","7","7","7","7","7","5","5","5","5","5","5","2","0","2","1","2","2","2","2","5","5","5","5","5","4","4","5","5","4","7","7","8","8","7","6","8","8","8","7","7","7","7","7","7","7","1","7","7","1","6","7","7","7","7","6","7","7","7","7","7","7","7","7","7","7","7","7","7","7","7","7","7","7","7","7","7","7","7","7","598865314549071872","周","540","Male","[""好他"",""好我"",""坏我"",""坏他""]","[""强他"",""强我"",""弱我"",""弱他""]","","","","","","","","match","","","","","","","","","","key","f","16.650892857143067","768","428","f","true","match","img/circle.png","强我","强我","prac_ALT2_ability","practice_ability","","","","","","","","",""
"null","<span style='color:GreenYellow; font-size: 70px;'>正确! </span>","null","html-keyboard-response","101","328250","0.0-8.0-1.0-1.0-0.0-1.45","7","7","7","7","7","5","5","5","5","5","5","2","0","2","1","2","2","2","2","5","5","5","5","5","4","4","5","5","4","7","7","8","8","7","6","8","8","8","7","7","7","7","7","7","7","1","7","7","1","6","7","7","7","7","6","7","7","7","7","7","7","7","7","7","7","7","7","7","7","7","7","7","7","7","7","7","7","7","7","598865314549071872","周","540","Male","[""好他"",""好我"",""坏我"",""坏他""]","[""强他"",""强我"",""弱我"",""弱他""]","","","","","","","","","","","","","","","","","","","","","","","","","","","","","","feedback_test","","","","","","","","",""
"758","","f","psychophysics","102","330009","0.0-8.0-1.0-1.0-0.0-0.46","7","7","7","7","7","5","5","5","5","5","5","2","0","2","1","2","2","2","2","5","5","5","5","5","4","4","5","5","4","7","7","8","8","7","6","8","8","8","7","7","7","7","7","7","7","1","7","7","1","6","7","7","7","7","6","7","7","7","7","7","7","7","7","7","7","7","7","7","7","7","7","7","7","7","7","7","7","7","7","598865314549071872","周","540","Male","[""好他"",""好我"",""坏我"",""坏他""]","[""强他"",""强我"",""弱我"",""弱他""]","","","","","","","","match","","","","","","","","","","key","f","16.64761904761905","768","428","f","true","match","img/square.png","弱他","弱他","prac_ALT2_ability","practice_ability","","","","","","","","",""
"null","<span style='color:GreenYellow; font-size: 70px;'>正确! </span>","null","html-keyboard-response","103","330510","0.0-8.0-1.0-1.0-0.0-1.46","7","7","7","7","7","5","5","5","5","5","5","2","0","2","1","2","2","2","2","5","5","5","5","5","4","4","5","5","4","7","7","8","8","7","6","8","8","8","7","7","7","7","7","7","7","1","7","7","1","6","7","7","7","7","6","7","7","7","7","7","7","7","7","7","7","7","7","7","7","7","7","7","7","7","7","7","7","7","7","598865314549071872","周","540","Male","[""好他"",""好我"",""坏我"",""坏他""]","[""强他"",""强我"",""弱我"",""弱他""]","","","","","","","","","","","","","","","","","","","","","","","","","","","","","","feedback_test","","","","","","","","",""
"602","","f","psychophysics","104","332114","0.0-8.0-1.0-1.0-0.0-0.47","7","7","7","7","7","5","5","5","5","5","5","2","0","2","1","2","2","2","2","5","5","5","5","5","4","4","5","5","4","7","7","8","8","7","6","8","8","8","7","7","7","7","7","7","7","1","7","7","1","6","7","7","7","7","6","7","7","7","7","7","7","7","7","7","7","7","7","7","7","7","7","7","7","7","7","7","7","7","7","598865314549071872","周","540","Male","[""好他"",""好我"",""坏我"",""坏他""]","[""强他"",""强我"",""弱我"",""弱他""]","","","","","","","","match","","","","","","","","","","key","f","16.646315789473928","768","428","f","true","match","img/square.png","弱他","弱他","prac_ALT2_ability","practice_ability","","","","","","","","",""
"null","<span style='color:GreenYellow; font-size: 70px;'>正确! </span>","null","html-keyboard-response","105","332615","0.0-8.0-1.0-1.0-0.0-1.47","7","7","7","7","7","5","5","5","5","5","5","2","0","2","1","2","2","2","2","5","5","5","5","5","4","4","5","5","4","7","7","8","8","7","6","8","8","8","7","7","7","7","7","7","7","1","7","7","1","6","7","7","7","7","6","7","7","7","7","7","7","7","7","7","7","7","7","7","7","7","7","7","7","7","7","7","7","7","7","598865314549071872","周","540","Male","[""好他"",""好我"",""坏我"",""坏他""]","[""强他"",""强我"",""弱我"",""弱他""]","","","","","","","","","","","","","","","","","","","","","","","","","","","","","","feedback_test","","","","","","","","",""
"1144","<style>.context{color:white; font-size: 35px; line-height:40px}</style>                          <div><p class='context'>您正确回答了88% 的试次。</p><p class='context'>您的平均反应时为758毫秒。</p><p class='context'>恭喜您完成练习。按空格键进入正式实验。</p><p class='footer' style='color:white;font-size: 35px; line-height:40px;'>请在进入正式实验实验之前将您的<span style='color: lightgreen;'>食指</span>放在电脑键盘的相应键位上进行按键。</p>"," ","html-keyboard-response","106","333760","0.0-8.0-1.0-2.0","7","7","7","7","7","5","5","5","5","5","5","2","0","2","1","2","2","2","2","5","5","5","5","5","4","4","5","5","4","7","7","8","8","7","6","8","8","8","7","7","7","7","7","7","7","1","7","7","1","6","7","7","7","7","6","7","7","7","7","7","7","7","7","7","7","7","7","7","7","7","7","7","7","7","7","7","7","7","7","598865314549071872","周","540","Male","[""好他"",""好我"",""坏我"",""坏他""]","[""强他"",""强我"",""弱我"",""弱他""]","","","","","","","","","","","","","","","","","","","","","","","","","","","","","","","","","","","","","","",""
"20281","
  <p style='color: white; font-size: 22px'>请您将手指放在按键上，准备进入正式的匹配任务。</p>
  <p> <div style = ""color: green""><按空格键进入下一阶段的匹配任务></div></p>
  "," ","html-keyboard-response","107","354043","0.0-8.0-1.0-3.0","7","7","7","7","7","5","5","5","5","5","5","2","0","2","1","2","2","2","2","5","5","5","5","5","4","4","5","5","4","7","7","8","8","7","6","8","8","8","7","7","7","7","7","7","7","1","7","7","1","6","7","7","7","7","6","7","7","7","7","7","7","7","7","7","7","7","7","7","7","7","7","7","7","7","7","7","7","7","7","598865314549071872","周","540","Male","[""好他"",""好我"",""坏我"",""坏他""]","[""强他"",""强我"",""弱我"",""弱他""]","","","","","","","","","","","","","","","","","","","","","","","","","","","","","","","","","","","","","","",""
"927","","f","psychophysics","108","355972","0.0-8.0-1.0-4.0-0.0-0.0","7","7","7","7","7","5","5","5","5","5","5","2","0","2","1","2","2","2","2","5","5","5","5","5","4","4","5","5","4","7","7","8","8","7","6","8","8","8","7","7","7","7","7","7","7","1","7","7","1","6","7","7","7","7","6","7","7","7","7","7","7","7","7","7","7","7","7","7","7","7","7","7","7","7","7","7","7","7","7","598865314549071872","周","540","Male","[""好他"",""好我"",""坏我"",""坏他""]","[""强他"",""强我"",""弱我"",""弱他""]","","","","","","","","match","","","","","","","","","","key","f","16.651304347825782","768","428","f","true","match","img/hexagon.png","强他","强他","ALT2","ability","","","","","","","","",""
"null","<span style='color:GreenYellow; font-size: 70px;'>正确! </span>","null","html-keyboard-response","109","356473","0.0-8.0-1.0-4.0-0.0-1.0","7","7","7","7","7","5","5","5","5","5","5","2","0","2","1","2","2","2","2","5","5","5","5","5","4","4","5","5","4","7","7","8","8","7","6","8","8","8","7","7","7","7","7","7","7","1","7","7","1","6","7","7","7","7","6","7","7","7","7","7","7","7","7","7","7","7","7","7","7","7","7","7","7","7","7","7","7","7","7","598865314549071872","周","540","Male","[""好他"",""好我"",""坏我"",""坏他""]","[""强他"",""强我"",""弱我"",""弱他""]","","","","","","","","","","","","","","","","","","","","","","","","","","","","","","feedback_test","","","","","","","","",""
"602","","j","psychophysics","110","358077","0.0-8.0-1.0-4.0-0.0-0.1","7","7","7","7","7","5","5","5","5","5","5","2","0","2","1","2","2","2","2","5","5","5","5","5","4","4","5","5","4","7","7","8","8","7","6","8","8","8","7","7","7","7","7","7","7","1","7","7","1","6","7","7","7","7","6","7","7","7","7","7","7","7","7","7","7","7","7","7","7","7","7","7","7","7","7","7","7","7","7","598865314549071872","周","540","Male","[""好他"",""好我"",""坏我"",""坏他""]","[""强他"",""强我"",""弱我"",""弱他""]","","","","","","","","nonmatch","","","","","","","","","","key","j","16.65052631578935","768","428","j","true","nonmatch","img/hexagon.png","弱我","强他","ALT2","ability","","","","","","","","",""
"null","<span style='color:GreenYellow; font-size: 70px;'>正确! </span>","null","html-keyboard-response","111","358579","0.0-8.0-1.0-4.0-0.0-1.1","7","7","7","7","7","5","5","5","5","5","5","2","0","2","1","2","2","2","2","5","5","5","5","5","4","4","5","5","4","7","7","8","8","7","6","8","8","8","7","7","7","7","7","7","7","1","7","7","1","6","7","7","7","7","6","7","7","7","7","7","7","7","7","7","7","7","7","7","7","7","7","7","7","7","7","7","7","7","7","598865314549071872","周","540","Male","[""好他"",""好我"",""坏我"",""坏他""]","[""强他"",""强我"",""弱我"",""弱他""]","","","","","","","","","","","","","","","","","","","","","","","","","","","","","","feedback_test","","","","","","","","",""
"907","","j","psychophysics","112","360486","0.0-8.0-1.0-4.0-0.0-0.2","7","7","7","7","7","5","5","5","5","5","5","2","0","2","1","2","2","2","2","5","5","5","5","5","4","4","5","5","4","7","7","8","8","7","6","8","8","8","7","7","7","7","7","7","7","1","7","7","1","6","7","7","7","7","6","7","7","7","7","7","7","7","7","7","7","7","7","7","7","7","7","7","7","7","7","7","7","7","7","598865314549071872","周","540","Male","[""好他"",""好我"",""坏我"",""坏他""]","[""强他"",""强我"",""弱我"",""弱他""]","","","","","","","","nonmatch","","","","","","","","","","key","j","16.65526315789433","768","428","j","true","nonmatch","img/diamond.png","弱他","弱我","ALT2","ability","","","","","","","","",""
"null","<span style='color:GreenYellow; font-size: 70px;'>正确! </span>","null","html-keyboard-response","113","360988","0.0-8.0-1.0-4.0-0.0-1.2","7","7","7","7","7","5","5","5","5","5","5","2","0","2","1","2","2","2","2","5","5","5","5","5","4","4","5","5","4","7","7","8","8","7","6","8","8","8","7","7","7","7","7","7","7","1","7","7","1","6","7","7","7","7","6","7","7","7","7","7","7","7","7","7","7","7","7","7","7","7","7","7","7","7","7","7","7","7","7","598865314549071872","周","540","Male","[""好他"",""好我"",""坏我"",""坏他""]","[""强他"",""强我"",""弱我"",""弱他""]","","","","","","","","","","","","","","","","","","","","","","","","","","","","","","feedback_test","","","","","","","","",""
"806","","f","psychophysics","114","362796","0.0-8.0-1.0-4.0-0.0-0.3","7","7","7","7","7","5","5","5","5","5","5","2","0","2","1","2","2","2","2","5","5","5","5","5","4","4","5","5","4","7","7","8","8","7","6","8","8","8","7","7","7","7","7","7","7","1","7","7","1","6","7","7","7","7","6","7","7","7","7","7","7","7","7","7","7","7","7","7","7","7","7","7","7","7","7","7","7","7","7","598865314549071872","周","540","Male","[""好他"",""好我"",""坏我"",""坏他""]","[""强他"",""强我"",""弱我"",""弱他""]","","","","","","","","match","","","","","","","","","","key","f","16.65370370370403","768","428","f","true","match","img/circle.png","强我","强我","ALT2","ability","","","","","","","","",""
"null","<span style='color:GreenYellow; font-size: 70px;'>正确! </span>","null","html-keyboard-response","115","363298","0.0-8.0-1.0-4.0-0.0-1.3","7","7","7","7","7","5","5","5","5","5","5","2","0","2","1","2","2","2","2","5","5","5","5","5","4","4","5","5","4","7","7","8","8","7","6","8","8","8","7","7","7","7","7","7","7","1","7","7","1","6","7","7","7","7","6","7","7","7","7","7","7","7","7","7","7","7","7","7","7","7","7","7","7","7","7","7","7","7","7","598865314549071872","周","540","Male","[""好他"",""好我"",""坏我"",""坏他""]","[""强他"",""强我"",""弱我"",""弱他""]","","","","","","","","","","","","","","","","","","","","","","","","","","","","","","feedback_test","","","","","","","","",""
"866","","f","psychophysics","116","365165","0.0-8.0-1.0-4.0-0.0-0.4","7","7","7","7","7","5","5","5","5","5","5","2","0","2","1","2","2","2","2","5","5","5","5","5","4","4","5","5","4","7","7","8","8","7","6","8","8","8","7","7","7","7","7","7","7","1","7","7","1","6","7","7","7","7","6","7","7","7","7","7","7","7","7","7","7","7","7","7","7","7","7","7","7","7","7","7","7","7","7","598865314549071872","周","540","Male","[""好他"",""好我"",""坏我"",""坏他""]","[""强他"",""强我"",""弱我"",""弱他""]","","","","","","","","match","","","","","","","","","","key","f","16.65405405405437","768","428","j","false","nonmatch","img/square.png","强他","弱他","ALT2","ability","","","","","","","","",""
"null","<span style='color:red; font-size: 70px;'>错误! </span>","null","html-keyboard-response","117","365667","0.0-8.0-1.0-4.0-0.0-1.4","7","7","7","7","7","5","5","5","5","5","5","2","0","2","1","2","2","2","2","5","5","5","5","5","4","4","5","5","4","7","7","8","8","7","6","8","8","8","7","7","7","7","7","7","7","1","7","7","1","6","7","7","7","7","6","7","7","7","7","7","7","7","7","7","7","7","7","7","7","7","7","7","7","7","7","7","7","7","7","598865314549071872","周","540","Male","[""好他"",""好我"",""坏我"",""坏他""]","[""强他"",""强我"",""弱我"",""弱他""]","","","","","","","","","","","","","","","","","","","","","","","","","","","","","","feedback_test","","","","","","","","",""
"786","","j","psychophysics","118","367455","0.0-8.0-1.0-4.0-0.0-0.5","7","7","7","7","7","5","5","5","5","5","5","2","0","2","1","2","2","2","2","5","5","5","5","5","4","4","5","5","4","7","7","8","8","7","6","8","8","8","7","7","7","7","7","7","7","1","7","7","1","6","7","7","7","7","6","7","7","7","7","7","7","7","7","7","7","7","7","7","7","7","7","7","7","7","7","7","7","7","7","598865314549071872","周","540","Male","[""好他"",""好我"",""坏我"",""坏他""]","[""强他"",""强我"",""弱我"",""弱他""]","","","","","","","","nonmatch","","","","","","","","","","key","j","16.650943396226417","768","428","f","false","match","img/diamond.png","弱我","弱我","ALT2","ability","","","","","","","","",""
"null","<span style='color:red; font-size: 70px;'>错误! </span>","null","html-keyboard-response","119","367956","0.0-8.0-1.0-4.0-0.0-1.5","7","7","7","7","7","5","5","5","5","5","5","2","0","2","1","2","2","2","2","5","5","5","5","5","4","4","5","5","4","7","7","8","8","7","6","8","8","8","7","7","7","7","7","7","7","1","7","7","1","6","7","7","7","7","6","7","7","7","7","7","7","7","7","7","7","7","7","7","7","7","7","7","7","7","7","7","7","7","7","598865314549071872","周","540","Male","[""好他"",""好我"",""坏我"",""坏他""]","[""强他"",""强我"",""弱我"",""弱他""]","","","","","","","","","","","","","","","","","","","","","","","","","","","","","","feedback_test","","","","","","","","",""
"663","","f","psychophysics","120","369621","0.0-8.0-1.0-4.0-0.0-0.6","7","7","7","7","7","5","5","5","5","5","5","2","0","2","1","2","2","2","2","5","5","5","5","5","4","4","5","5","4","7","7","8","8","7","6","8","8","8","7","7","7","7","7","7","7","1","7","7","1","6","7","7","7","7","6","7","7","7","7","7","7","7","7","7","7","7","7","7","7","7","7","7","7","7","7","7","7","7","7","598865314549071872","周","540","Male","[""好他"",""好我"",""坏我"",""坏他""]","[""强他"",""强我"",""弱我"",""弱他""]","","","","","","","","match","","","","","","","","","","key","f","16.651515151515152","768","428","f","true","match","img/circle.png","强我","强我","ALT2","ability","","","","","","","","",""
"null","<span style='color:GreenYellow; font-size: 70px;'>正确! </span>","null","html-keyboard-response","121","370123","0.0-8.0-1.0-4.0-0.0-1.6","7","7","7","7","7","5","5","5","5","5","5","2","0","2","1","2","2","2","2","5","5","5","5","5","4","4","5","5","4","7","7","8","8","7","6","8","8","8","7","7","7","7","7","7","7","1","7","7","1","6","7","7","7","7","6","7","7","7","7","7","7","7","7","7","7","7","7","7","7","7","7","7","7","7","7","7","7","7","7","598865314549071872","周","540","Male","[""好他"",""好我"",""坏我"",""坏他""]","[""强他"",""强我"",""弱我"",""弱他""]","","","","","","","","","","","","","","","","","","","","","","","","","","","","","","feedback_test","","","","","","","","",""
"830","","f","psychophysics","122","371954","0.0-8.0-1.0-4.0-0.0-0.7","7","7","7","7","7","5","5","5","5","5","5","2","0","2","1","2","2","2","2","5","5","5","5","5","4","4","5","5","4","7","7","8","8","7","6","8","8","8","7","7","7","7","7","7","7","1","7","7","1","6","7","7","7","7","6","7","7","7","7","7","7","7","7","7","7","7","7","7","7","7","7","7","7","7","7","7","7","7","7","598865314549071872","周","540","Male","[""好他"",""好我"",""坏我"",""坏他""]","[""强他"",""强我"",""弱我"",""弱他""]","","","","","","","","match","","","","","","","","","","key","f","16.650458715596542","768","428","f","true","match","img/square.png","弱他","弱他","ALT2","ability","","","","","","","","",""
"null","<span style='color:GreenYellow; font-size: 70px;'>正确! </span>","null","html-keyboard-response","123","372455","0.0-8.0-1.0-4.0-0.0-1.7","7","7","7","7","7","5","5","5","5","5","5","2","0","2","1","2","2","2","2","5","5","5","5","5","4","4","5","5","4","7","7","8","8","7","6","8","8","8","7","7","7","7","7","7","7","1","7","7","1","6","7","7","7","7","6","7","7","7","7","7","7","7","7","7","7","7","7","7","7","7","7","7","7","7","7","7","7","7","7","598865314549071872","周","540","Male","[""好他"",""好我"",""坏我"",""坏他""]","[""强他"",""强我"",""弱我"",""弱他""]","","","","","","","","","","","","","","","","","","","","","","","","","","","","","","feedback_test","","","","","","","","",""
"887","","j","psychophysics","124","374343","0.0-8.0-1.0-4.0-0.0-0.8","7","7","7","7","7","5","5","5","5","5","5","2","0","2","1","2","2","2","2","5","5","5","5","5","4","4","5","5","4","7","7","8","8","7","6","8","8","8","7","7","7","7","7","7","7","1","7","7","1","6","7","7","7","7","6","7","7","7","7","7","7","7","7","7","7","7","7","7","7","7","7","7","7","7","7","7","7","7","7","598865314549071872","周","540","Male","[""好他"",""好我"",""坏我"",""坏他""]","[""强他"",""强我"",""弱我"",""弱他""]","","","","","","","","nonmatch","","","","","","","","","","key","j","16.650892857142544","768","428","j","true","nonmatch","img/circle.png","强他","强我","ALT2","ability","","","","","","","","",""
"null","<span style='color:GreenYellow; font-size: 70px;'>正确! </span>","null","html-keyboard-response","125","374844","0.0-8.0-1.0-4.0-0.0-1.8","7","7","7","7","7","5","5","5","5","5","5","2","0","2","1","2","2","2","2","5","5","5","5","5","4","4","5","5","4","7","7","8","8","7","6","8","8","8","7","7","7","7","7","7","7","1","7","7","1","6","7","7","7","7","6","7","7","7","7","7","7","7","7","7","7","7","7","7","7","7","7","7","7","7","7","7","7","7","7","598865314549071872","周","540","Male","[""好他"",""好我"",""坏我"",""坏他""]","[""强他"",""强我"",""弱我"",""弱他""]","","","","","","","","","","","","","","","","","","","","","","","","","","","","","","feedback_test","","","","","","","","",""
"713","","f","psychophysics","126","376558","0.0-8.0-1.0-4.0-0.0-0.9","7","7","7","7","7","5","5","5","5","5","5","2","0","2","1","2","2","2","2","5","5","5","5","5","4","4","5","5","4","7","7","8","8","7","6","8","8","8","7","7","7","7","7","7","7","1","7","7","1","6","7","7","7","7","6","7","7","7","7","7","7","7","7","7","7","7","7","7","7","7","7","7","7","7","7","7","7","7","7","598865314549071872","周","540","Male","[""好他"",""好我"",""坏我"",""坏他""]","[""强他"",""强我"",""弱我"",""弱他""]","","","","","","","","match","","","","","","","","","","key","f","16.650000000000457","768","428","f","true","match","img/hexagon.png","强他","强他","ALT2","ability","","","","","","","","",""
"null","<span style='color:GreenYellow; font-size: 70px;'>正确! </span>","null","html-keyboard-response","127","377060","0.0-8.0-1.0-4.0-0.0-1.9","7","7","7","7","7","5","5","5","5","5","5","2","0","2","1","2","2","2","2","5","5","5","5","5","4","4","5","5","4","7","7","8","8","7","6","8","8","8","7","7","7","7","7","7","7","1","7","7","1","6","7","7","7","7","6","7","7","7","7","7","7","7","7","7","7","7","7","7","7","7","7","7","7","7","7","7","7","7","7","598865314549071872","周","540","Male","[""好他"",""好我"",""坏我"",""坏他""]","[""强他"",""强我"",""弱我"",""弱他""]","","","","","","","","","","","","","","","","","","","","","","","","","","","","","","feedback_test","","","","","","","","",""
"602","","f","psychophysics","128","378664","0.0-8.0-1.0-4.0-0.0-0.10","7","7","7","7","7","5","5","5","5","5","5","2","0","2","1","2","2","2","2","5","5","5","5","5","4","4","5","5","4","7","7","8","8","7","6","8","8","8","7","7","7","7","7","7","7","1","7","7","1","6","7","7","7","7","6","7","7","7","7","7","7","7","7","7","7","7","7","7","7","7","7","7","7","7","7","7","7","7","7","598865314549071872","周","540","Male","[""好他"",""好我"",""坏我"",""坏他""]","[""强他"",""强我"",""弱我"",""弱他""]","","","","","","","","match","","","","","","","","","","key","f","16.652083333333696","768","428","f","true","match","img/hexagon.png","强他","强他","ALT2","ability","","","","","","","","",""
"null","<span style='color:GreenYellow; font-size: 70px;'>正确! </span>","null","html-keyboard-response","129","379165","0.0-8.0-1.0-4.0-0.0-1.10","7","7","7","7","7","5","5","5","5","5","5","2","0","2","1","2","2","2","2","5","5","5","5","5","4","4","5","5","4","7","7","8","8","7","6","8","8","8","7","7","7","7","7","7","7","1","7","7","1","6","7","7","7","7","6","7","7","7","7","7","7","7","7","7","7","7","7","7","7","7","7","7","7","7","7","7","7","7","7","598865314549071872","周","540","Male","[""好他"",""好我"",""坏我"",""坏他""]","[""强他"",""强我"",""弱我"",""弱他""]","","","","","","","","","","","","","","","","","","","","","","","","","","","","","","feedback_test","","","","","","","","",""
"799","","j","psychophysics","130","380965","0.0-8.0-1.0-4.0-0.0-0.11","7","7","7","7","7","5","5","5","5","5","5","2","0","2","1","2","2","2","2","5","5","5","5","5","4","4","5","5","4","7","7","8","8","7","6","8","8","8","7","7","7","7","7","7","7","1","7","7","1","6","7","7","7","7","6","7","7","7","7","7","7","7","7","7","7","7","7","7","7","7","7","7","7","7","7","7","7","7","7","598865314549071872","周","540","Male","[""好他"",""好我"",""坏我"",""坏他""]","[""强他"",""强我"",""弱我"",""弱他""]","","","","","","","","nonmatch","","","","","","","","","","key","j","16.65233644859802","768","428","f","false","match","img/square.png","弱他","弱他","ALT2","ability","","","","","","","","",""
"null","<span style='color:red; font-size: 70px;'>错误! </span>","null","html-keyboard-response","131","381465","0.0-8.0-1.0-4.0-0.0-1.11","7","7","7","7","7","5","5","5","5","5","5","2","0","2","1","2","2","2","2","5","5","5","5","5","4","4","5","5","4","7","7","8","8","7","6","8","8","8","7","7","7","7","7","7","7","1","7","7","1","6","7","7","7","7","6","7","7","7","7","7","7","7","7","7","7","7","7","7","7","7","7","7","7","7","7","7","7","7","7","598865314549071872","周","540","Male","[""好他"",""好我"",""坏我"",""坏他""]","[""强他"",""强我"",""弱我"",""弱他""]","","","","","","","","","","","","","","","","","","","","","","","","","","","","","","feedback_test","","","","","","","","",""
"701","","j","psychophysics","132","383169","0.0-8.0-1.0-4.0-0.0-0.12","7","7","7","7","7","5","5","5","5","5","5","2","0","2","1","2","2","2","2","5","5","5","5","5","4","4","5","5","4","7","7","8","8","7","6","8","8","8","7","7","7","7","7","7","7","1","7","7","1","6","7","7","7","7","6","7","7","7","7","7","7","7","7","7","7","7","7","7","7","7","7","7","7","7","7","7","7","7","7","598865314549071872","周","540","Male","[""好他"",""好我"",""坏我"",""坏他""]","[""强他"",""强我"",""弱我"",""弱他""]","","","","","","","","nonmatch","","","","","","","","","","key","j","16.64950495049482","768","428","j","true","nonmatch","img/diamond.png","强他","弱我","ALT2","ability","","","","","","","","",""
"null","<span style='color:GreenYellow; font-size: 70px;'>正确! </span>","null","html-keyboard-response","133","383670","0.0-8.0-1.0-4.0-0.0-1.12","7","7","7","7","7","5","5","5","5","5","5","2","0","2","1","2","2","2","2","5","5","5","5","5","4","4","5","5","4","7","7","8","8","7","6","8","8","8","7","7","7","7","7","7","7","1","7","7","1","6","7","7","7","7","6","7","7","7","7","7","7","7","7","7","7","7","7","7","7","7","7","7","7","7","7","7","7","7","7","598865314549071872","周","540","Male","[""好他"",""好我"",""坏我"",""坏他""]","[""强他"",""强我"",""弱我"",""弱他""]","","","","","","","","","","","","","","","","","","","","","","","","","","","","","","feedback_test","","","","","","","","",""
"637","","j","psychophysics","134","385308","0.0-8.0-1.0-4.0-0.0-0.13","7","7","7","7","7","5","5","5","5","5","5","2","0","2","1","2","2","2","2","5","5","5","5","5","4","4","5","5","4","7","7","8","8","7","6","8","8","8","7","7","7","7","7","7","7","1","7","7","1","6","7","7","7","7","6","7","7","7","7","7","7","7","7","7","7","7","7","7","7","7","7","7","7","7","7","7","7","7","7","598865314549071872","周","540","Male","[""好他"",""好我"",""坏我"",""坏他""]","[""强他"",""强我"",""弱我"",""弱他""]","","","","","","","","nonmatch","","","","","","","","","","key","j","16.653061224489797","768","428","j","true","nonmatch","img/circle.png","弱我","强我","ALT2","ability","","","","","","","","",""
"null","<span style='color:GreenYellow; font-size: 70px;'>正确! </span>","null","html-keyboard-response","135","385810","0.0-8.0-1.0-4.0-0.0-1.13","7","7","7","7","7","5","5","5","5","5","5","2","0","2","1","2","2","2","2","5","5","5","5","5","4","4","5","5","4","7","7","8","8","7","6","8","8","8","7","7","7","7","7","7","7","1","7","7","1","6","7","7","7","7","6","7","7","7","7","7","7","7","7","7","7","7","7","7","7","7","7","7","7","7","7","7","7","7","7","598865314549071872","周","540","Male","[""好他"",""好我"",""坏我"",""坏他""]","[""强他"",""强我"",""弱我"",""弱他""]","","","","","","","","","","","","","","","","","","","","","","","","","","","","","","feedback_test","","","","","","","","",""
"711","","j","psychophysics","136","387523","0.0-8.0-1.0-4.0-0.0-0.14","7","7","7","7","7","5","5","5","5","5","5","2","0","2","1","2","2","2","2","5","5","5","5","5","4","4","5","5","4","7","7","8","8","7","6","8","8","8","7","7","7","7","7","7","7","1","7","7","1","6","7","7","7","7","6","7","7","7","7","7","7","7","7","7","7","7","7","7","7","7","7","7","7","7","7","7","7","7","7","598865314549071872","周","540","Male","[""好他"",""好我"",""坏我"",""坏他""]","[""强他"",""强我"",""弱我"",""弱他""]","","","","","","","","nonmatch","","","","","","","","","","key","j","16.649999999999885","768","428","j","true","nonmatch","img/square.png","弱我","弱他","ALT2","ability","","","","","","","","",""
"null","<span style='color:GreenYellow; font-size: 70px;'>正确! </span>","null","html-keyboard-response","137","388026","0.0-8.0-1.0-4.0-0.0-1.14","7","7","7","7","7","5","5","5","5","5","5","2","0","2","1","2","2","2","2","5","5","5","5","5","4","4","5","5","4","7","7","8","8","7","6","8","8","8","7","7","7","7","7","7","7","1","7","7","1","6","7","7","7","7","6","7","7","7","7","7","7","7","7","7","7","7","7","7","7","7","7","7","7","7","7","7","7","7","7","598865314549071872","周","540","Male","[""好他"",""好我"",""坏我"",""坏他""]","[""强他"",""强我"",""弱我"",""弱他""]","","","","","","","","","","","","","","","","","","","","","","","","","","","","","","feedback_test","","","","","","","","",""
"676","","f","psychophysics","138","389703","0.0-8.0-1.0-4.0-0.0-0.15","7","7","7","7","7","5","5","5","5","5","5","2","0","2","1","2","2","2","2","5","5","5","5","5","4","4","5","5","4","7","7","8","8","7","6","8","8","8","7","7","7","7","7","7","7","1","7","7","1","6","7","7","7","7","6","7","7","7","7","7","7","7","7","7","7","7","7","7","7","7","7","7","7","7","7","7","7","7","7","598865314549071872","周","540","Male","[""好他"",""好我"",""坏我"",""坏他""]","[""强他"",""强我"",""弱我"",""弱他""]","","","","","","","","match","","","","","","","","","","key","f","16.652000000000115","768","428","f","true","match","img/diamond.png","弱我","弱我","ALT2","ability","","","","","","","","",""
