"rt","stimulus","response","trial_type","trial_index","time_elapsed","internal_node_id","swb_1","swb_2","swb_3","swb_4","swb_5","LOT_1","LOT_2","LOT_3","LOT_4","LOT_5","LOT_6","IPC_1","IPC_2","IPC_3","IPC_4","IPC_5","IPC_6","IPC_7","IPC_8","MorIden_1","MorIden_2","MorIden_3","MorIden_4","MorIden_5","MorIden_6","MorIden_7","MorIden_8","MorIden_9","MorIden_10","moralSeImag_1","moralSeImag_2","moralSeImag_3","moralSeImag_4","moralSeImag_5","moralSeImag_6","moralSeImag_7","moralSeImag_8","moralSeImag_9","sde_1","sde_2","sde_3","sde_4","sde_5","sde_6","sde_7","sde_8","sde_9","sde_10","trap2","sde_11","sde_12","sde_13","sde_14","sde_15","sde_16","sde_17","sde_18","sde_19","sde_20","IM_1","IM_2","IM_3","IM_4","IM_5","IM_6","IM_7","IM_8","IM_9","IM_10","IM_11","IM_12","IM_13","IM_14","IM_15","IM_16","IM_17","IM_18","IM_19","IM_20","subj_idx","friend_name","ParticipantID","Sex","Word","Word2","value","success","timeout","failed_images","failed_audio","failed_video","user_agent","responses","item_order","radio_event_ids","radio_event_times","key_event_times","mouse_event_times","straightlining","zigzagging","honeypot","task_id","screen_id","time_stamp","response_type","key_press","avg_frame_time","center_x","center_y","person","word","valence","domain","math","correct_response","correct","status","view_history","identity","duration","Image","condition","question_order","trap2_item"
"6636","
   <p><div style='color:white; font-size: 25px'>您好，欢迎参加本次实验。</div></p>
   <p><div style='color:white; font-size: 25px'>为充分保障您的权利，请确保您已经知晓并同意《参与实验同意书》以及《数据公开知情同意书》。</div></p>
   <p><div style='color:white; font-size: 25px'>如果您未见过上述内容，请咨询实验员。</div></p>
   <p style='color:white; font-size: 25px'>如果您选择继续实验，则表示您已经清楚两份知情同意书的内容并同意。</p>
   <p><div style = ""color: pink;font-size:30px;"">请确保您记得day0的实验编号，您将在本次实验输入该编号，若您忘记，请咨询实验员后作答。</div></p>
   <p><div style = ""color:lightblue;font-size:25px;"">请您尽可能认真地作答，我们将依据您在各问卷和按键任务中的作答质量发放报酬。</div></p>
   <p> <div style = ""color: green""><按空格键至下页></div> </p>
   "," ","html-keyboard-response","0","6644","0.0-0.0","5","4","5","5","6","5","4","4","4","4","5","-2","-1","1","1","-1","0","1","0","5","5","4","4","5","4","4","5","4","4","6","5","3","6","4","5","5","4","6","5","3","6","5","4","2","5","3","3","2","1","5","3","6","3","3","6","4","4","5","4","2","5","6","5","3","6","5","5","6","5","5","6","4","5","6","5","5","6","3","5","790191134524710914","黄","6","Male","[""坏我"",""好我"",""好他"",""坏他""]","[""弱我"",""强我"",""强他"",""弱他""]","","","","","","","","","","","","","","","","","","","","","","","","","","","","","","","","","","","","","","",""
"","","","call-function","1","6648","0.0-1.0-0.0","5","4","5","5","6","5","4","4","4","4","5","-2","-1","1","1","-1","0","1","0","5","5","4","4","5","4","4","5","4","4","6","5","3","6","4","5","5","4","6","5","3","6","5","4","2","5","3","3","2","1","5","3","6","3","3","6","4","4","5","4","2","5","6","5","3","6","5","5","6","5","5","6","4","5","6","5","5","6","3","5","790191134524710914","黄","6","Male","[""坏我"",""好我"",""好他"",""坏他""]","[""弱我"",""强我"",""强他"",""弱他""]","","","","","","","","","","","","","","","","","","","","","","","","","","","","","","","","","","","","","","",""
"23560","","[{""name"":""Sex"",""value"":""0""},{""name"":""friend_name"",""value"":""黄""},{""name"":""ParticipantID"",""value"":""6""}]","survey-html-form","2","30211","0.0-1.0-1.0","5","4","5","5","6","5","4","4","4","4","5","-2","-1","1","1","-1","0","1","0","5","5","4","4","5","4","4","5","4","4","6","5","3","6","4","5","5","4","6","5","3","6","5","4","2","5","3","3","2","1","5","3","6","3","3","6","4","4","5","4","2","5","6","5","3","6","5","5","6","5","5","6","4","5","6","5","5","6","3","5","790191134524710914","黄","6","Male","[""坏我"",""好我"",""好他"",""坏他""]","[""弱我"",""强我"",""强他"",""弱他""]","","","","","","","","","","","","","","","","","","","","","","","","","","","","","","","","","","","","","","",""
"","","","preload","3","30589","0.0-2.0","5","4","5","5","6","5","4","4","4","4","5","-2","-1","1","1","-1","0","1","0","5","5","4","4","5","4","4","5","4","4","6","5","3","6","4","5","5","4","6","5","3","6","5","4","2","5","3","3","2","1","5","3","6","3","3","6","4","4","5","4","2","5","6","5","3","6","5","5","6","5","5","6","4","5","6","5","5","6","3","5","790191134524710914","黄","6","Male","[""坏我"",""好我"",""好他"",""坏他""]","[""弱我"",""强我"",""强他"",""弱他""]","","true","false","[]","[]","[]","","","","","","","","","","","","","","","","","","","","","","","","","","","","","","","","",""
"","","","fullscreen","4","32193","0.0-3.0","5","4","5","5","6","5","4","4","4","4","5","-2","-1","1","1","-1","0","1","0","5","5","4","4","5","4","4","5","4","4","6","5","3","6","4","5","5","4","6","5","3","6","5","4","2","5","3","3","2","1","5","3","6","3","3","6","4","4","5","4","2","5","6","5","3","6","5","5","6","5","5","6","4","5","6","5","5","6","3","5","790191134524710914","黄","6","Male","[""坏我"",""好我"",""好他"",""坏他""]","[""弱我"",""强我"",""强他"",""弱他""]","","true","","","","","{}","","","","","","","","","","","","","","","","","","","","","","","","","","","","","","","",""
"33604.599999997765","","{""Q01"":""5"",""Q02"":""4"",""Q03"":""5"",""Q04"":""5"",""Q05"":""6""}","survey-template","5","65807","0.0-4.0","5","4","5","5","6","5","4","4","4","4","5","-2","-1","1","1","-1","0","1","0","5","5","4","4","5","4","4","5","4","4","6","5","3","6","4","5","5","4","6","5","3","6","5","4","2","5","3","3","2","1","5","3","6","3","3","6","4","4","5","4","2","5","6","5","3","6","5","5","6","5","5","6","4","5","6","5","5","6","3","5","790191134524710914","黄","6","Male","[""坏我"",""好我"",""好他"",""坏他""]","[""弱我"",""强我"",""强他"",""弱他""]","","","","","","","","{""Q01"":""5"",""Q02"":""4"",""Q03"":""5"",""Q04"":""5"",""Q05"":""6""}","[0,1,2,3,4]","[""Q01"",""Q02"",""Q03"",""Q04"",""Q05""]","[21977.699999999255,23873.599999997765,25241.300000000745,27913.199999999255,29177.199999999255]","[]","[21977.699999999255,23873.599999997765,25241.300000000745,27913.199999999255,29177.199999999255,33601.199999999255]","0.6","0.75","0","","","","","","","","","","","","","","","","","","","","","","",""
"22908.800000000745","","{""Q01"":""5"",""Q02"":""4"",""Q03"":""4"",""Q04"":""4"",""Q05"":""4"",""Q06"":""5""}","survey-template","6","88733","0.0-5.0","5","4","5","5","6","5","4","4","4","4","5","-2","-1","1","1","-1","0","1","0","5","5","4","4","5","4","4","5","4","4","6","5","3","6","4","5","5","4","6","5","3","6","5","4","2","5","3","3","2","1","5","3","6","3","3","6","4","4","5","4","2","5","6","5","3","6","5","5","6","5","5","6","4","5","6","5","5","6","3","5","790191134524710914","黄","6","Male","[""坏我"",""好我"",""好他"",""坏他""]","[""弱我"",""强我"",""强他"",""弱他""]","","","","","","","","{""Q01"":""5"",""Q02"":""4"",""Q03"":""4"",""Q04"":""4"",""Q05"":""4"",""Q06"":""5""}","[0,1,2,3,4,5]","[""Q01"",""Q02"",""Q03"",""Q04"",""Q05"",""Q06""]","[2610.900000002235,4514.900000002235,6154.900000002235,7626.60000000149,8722.800000000745,9970.60000000149]","[]","[2610.900000002235,4514.900000002235,6154.900000002235,7626.60000000149,8722.800000000745,9970.60000000149,22906.60000000149]","0.5","0","0","","","","","","","","","","","","","","","","","","","","","","",""
"22290.699999999255","","{""Q01"":""-2"",""Q02"":""-1"",""Q03"":""1"",""Q04"":""1"",""Q05"":""-1"",""Q06"":""0"",""Q07"":""1"",""Q08"":""0""}","survey-template","7","111039","0.0-6.0","5","4","5","5","6","5","4","4","4","4","5","-2","-1","1","1","-1","0","1","0","5","5","4","4","5","4","4","5","4","4","6","5","3","6","4","5","5","4","6","5","3","6","5","4","2","5","3","3","2","1","5","3","6","3","3","6","4","4","5","4","2","5","6","5","3","6","5","5","6","5","5","6","4","5","6","5","5","6","3","5","790191134524710914","黄","6","Male","[""坏我"",""好我"",""好他"",""坏他""]","[""弱我"",""强我"",""强他"",""弱他""]","","","","","","","","{""Q01"":""-2"",""Q02"":""-1"",""Q03"":""1"",""Q04"":""1"",""Q05"":""-1"",""Q06"":""0"",""Q07"":""1"",""Q08"":""0""}","[0,1,2,3,4,5,6,7]","[""Q01"",""Q02"",""Q03"",""Q04"",""Q05"",""Q06"",""Q07"",""Q08""]","[2815.39999999851,5023.300000000745,6615.5,8279.199999999255,9063.300000000745,10735.300000000745,12023.199999999255,14311.099999997765]","[]","[2815.39999999851,5023.300000000745,6615.5,8279.199999999255,9063.300000000745,10735.300000000745,12023.199999999255,13807.300000000745,14311.099999997765,22287.39999999851]","0.375","0.5714285714285714","0","","","","","","","","","","","","","","","","","","","","","","",""
"44446","
    <p><div style='color:white;font-size:35px; line-height:20px;'>词汇评估任务</div></p><br>
    <p><div style='color:white;font-size:25px; line-height:20px;'>请再次回忆该亲密的朋友，你们至少2年前就认识了，并且最近2年经常见面。</div></p>
    <p><div style='color:white;font-size:25px; line-height:20px;'>在本实验中，您将会看到一些形容词。</div></p>
    <p><div style='color:yellow;font-size:25px; line-height:20px;'>您的任务是判断这些形容词是否符合对您自己或您的朋友的描述。</div></p><p style='font-size:35px'>符合按<span style=""color:lightgreen""> f 键</span>，不符合按<span style=""color:red""> j 键</span></p>","0","html-button-response","8","155499","0.0-7.0-0.0","5","4","5","5","6","5","4","4","4","4","5","-2","-1","1","1","-1","0","1","0","5","5","4","4","5","4","4","5","4","4","6","5","3","6","4","5","5","4","6","5","3","6","5","4","2","5","3","3","2","1","5","3","6","3","3","6","4","4","5","4","2","5","6","5","3","6","5","5","6","5","5","6","4","5","6","5","5","6","3","5","790191134524710914","黄","6","Male","[""坏我"",""好我"",""好他"",""坏他""]","[""弱我"",""强我"",""强他"",""弱他""]","","","","","","","","","","","","","","","","","SRET_EW","EW_instructions","Tue Jan 30 2024 15:20:00 GMT+0800 (中国标准时间)","","","","","","","","","","","","","","","","","","","",""
"989","","j","psychophysics","9","157521","0.0-7.0-1.0-0.0","5","4","5","5","6","5","4","4","4","4","5","-2","-1","1","1","-1","0","1","0","5","5","4","4","5","4","4","5","4","4","6","5","3","6","4","5","5","4","6","5","3","6","5","4","2","5","3","3","2","1","5","3","6","3","3","6","4","4","5","4","2","5","6","5","3","6","5","5","6","5","5","6","4","5","6","5","5","6","3","5","790191134524710914","黄","6","Male","[""坏我"",""好我"",""好他"",""坏他""]","[""弱我"",""强我"",""强他"",""弱他""]","","","","","","","","no","","","","","","","","","SRET_EW","EW_practice","","key","j","16.94604201680695","683","380","朋友","徇私","Negative","morality","","","","","","","","","","",""
"936","","f","psychophysics","10","159465","0.0-7.0-1.0-0.1","5","4","5","5","6","5","4","4","4","4","5","-2","-1","1","1","-1","0","1","0","5","5","4","4","5","4","4","5","4","4","6","5","3","6","4","5","5","4","6","5","3","6","5","4","2","5","3","3","2","1","5","3","6","3","3","6","4","4","5","4","2","5","6","5","3","6","5","5","6","5","5","6","4","5","6","5","5","6","3","5","790191134524710914","黄","6","Male","[""坏我"",""好我"",""好他"",""坏他""]","[""弱我"",""强我"",""强他"",""弱他""]","","","","","","","","yes","","","","","","","","","SRET_EW","EW_practice","","key","f","16.665715517241363","683","380","朋友","忠实","Positive","morality","","","","","","","","","","",""
"1021","","j","psychophysics","11","161497","0.0-7.0-1.0-0.2","5","4","5","5","6","5","4","4","4","4","5","-2","-1","1","1","-1","0","1","0","5","5","4","4","5","4","4","5","4","4","6","5","3","6","4","5","5","4","6","5","3","6","5","4","2","5","3","3","2","1","5","3","6","3","3","6","4","4","5","4","2","5","6","5","3","6","5","5","6","5","5","6","4","5","6","5","5","6","3","5","790191134524710914","黄","6","Male","[""坏我"",""好我"",""好他"",""坏他""]","[""弱我"",""强我"",""强他"",""弱他""]","","","","","","","","no","","","","","","","","","SRET_EW","EW_practice","","key","j","16.665231404958575","683","380","自己","严谨","Positive","ability","","","","","","","","","","",""
"943","","j","psychophysics","12","163449","0.0-7.0-1.0-0.3","5","4","5","5","6","5","4","4","4","4","5","-2","-1","1","1","-1","0","1","0","5","5","4","4","5","4","4","5","4","4","6","5","3","6","4","5","5","4","6","5","3","6","5","4","2","5","3","3","2","1","5","3","6","3","3","6","4","4","5","4","2","5","6","5","3","6","5","5","6","5","5","6","4","5","6","5","5","6","3","5","790191134524710914","黄","6","Male","[""坏我"",""好我"",""好他"",""坏他""]","[""弱我"",""强我"",""强他"",""弱他""]","","","","","","","","no","","","","","","","","","SRET_EW","EW_practice","","key","j","16.665655172413672","683","380","自己","刻板","Negative","ability","","","","","","","","","","",""
"2024","
    <p><div style='color:white;font-size:35px; line-height:20px;'>请您再次阅读实验要求</div></p><br>
    <p><div style='color:white;font-size:25px; line-height:20px;'>请回忆某一个亲密的朋友，你们至少2年前就认识了，并且最近2年经常见面。</div></p>
    <p><div style='color:white;font-size:25px; line-height:20px;'>在本实验中，您将会看到一些形容词。</div></p>
    <p><div style='color:yellow;font-size:25px; line-height:20px;'>您的任务是判断这些形容词是否符合对您自己或您的朋友的描述。</div></p>
    <p><div class='footer' style='font-size:25px; line-height:20px;'>如果对本实验还有不清楚之处，请立即向实验员咨询。</p><p style='font-size:25px; line-height:20px;'>如果您明白了规则：</p><p style='font-size:22px; line-height:20px;'>请按 继续 进入正式实验</p>
    </div>
    <p style='font-size:35px'>符合按<span style=""color:lightgreen""> f 键</span>，不符合按<span style=""color:red""> j 键</span></p>","0","html-button-response","13","165474","0.0-7.0-2.0","5","4","5","5","6","5","4","4","4","4","5","-2","-1","1","1","-1","0","1","0","5","5","4","4","5","4","4","5","4","4","6","5","3","6","4","5","5","4","6","5","3","6","5","4","2","5","3","3","2","1","5","3","6","3","3","6","4","4","5","4","2","5","6","5","3","6","5","5","6","5","5","6","4","5","6","5","5","6","3","5","790191134524710914","黄","6","Male","[""坏我"",""好我"",""好他"",""坏他""]","[""弱我"",""强我"",""强他"",""弱他""]","","","","","","","","","","","","","","","","","SRET_EW","prac_instructions","Tue Jan 30 2024 15:20:00 GMT+0800 (中国标准时间)","","","","","","","","","","","","","","","","","","","",""
"887","","j","psychophysics","14","167365","0.0-7.0-3.0-0.0","5","4","5","5","6","5","4","4","4","4","5","-2","-1","1","1","-1","0","1","0","5","5","4","4","5","4","4","5","4","4","6","5","3","6","4","5","5","4","6","5","3","6","5","4","2","5","3","3","2","1","5","3","6","3","3","6","4","4","5","4","2","5","6","5","3","6","5","5","6","5","5","6","4","5","6","5","5","6","3","5","790191134524710914","黄","6","Male","[""坏我"",""好我"",""好他"",""坏他""]","[""弱我"",""强我"",""强他"",""弱他""]","","","","","","","","no","","","","","","","","","SRET","EW_formal","","key","j","16.814616071428514","683","380","自己","坚贞","Positive","morality","","","","","","","","","","",""
"809","","f","psychophysics","15","169179","0.0-7.0-3.0-0.1","5","4","5","5","6","5","4","4","4","4","5","-2","-1","1","1","-1","0","1","0","5","5","4","4","5","4","4","5","4","4","6","5","3","6","4","5","5","4","6","5","3","6","5","4","2","5","3","3","2","1","5","3","6","3","3","6","4","4","5","4","2","5","6","5","3","6","5","5","6","5","5","6","4","5","6","5","5","6","3","5","790191134524710914","黄","6","Male","[""坏我"",""好我"",""好他"",""坏他""]","[""弱我"",""强我"",""强他"",""弱他""]","","","","","","","","yes","","","","","","","","","SRET","EW_formal","","key","f","16.66537962962967","683","380","朋友","务实","Positive","ability","","","","","","","","","","",""
"1319","","f","psychophysics","16","171505","0.0-7.0-3.0-0.2","5","4","5","5","6","5","4","4","4","4","5","-2","-1","1","1","-1","0","1","0","5","5","4","4","5","4","4","5","4","4","6","5","3","6","4","5","5","4","6","5","3","6","5","4","2","5","3","3","2","1","5","3","6","3","3","6","4","4","5","4","2","5","6","5","3","6","5","5","6","5","5","6","4","5","6","5","5","6","3","5","790191134524710914","黄","6","Male","[""坏我"",""好我"",""好他"",""坏他""]","[""弱我"",""强我"",""强他"",""弱他""]","","","","","","","","yes","","","","","","","","","SRET","EW_formal","","key","f","16.665956521739144","683","380","朋友","迷糊","Negative","ability","","","","","","","","","","",""
"1162","","f","psychophysics","17","173672","0.0-7.0-3.0-0.3","5","4","5","5","6","5","4","4","4","4","5","-2","-1","1","1","-1","0","1","0","5","5","4","4","5","4","4","5","4","4","6","5","3","6","4","5","5","4","6","5","3","6","5","4","2","5","3","3","2","1","5","3","6","3","3","6","4","4","5","4","2","5","6","5","3","6","5","5","6","5","5","6","4","5","6","5","5","6","3","5","790191134524710914","黄","6","Male","[""坏我"",""好我"",""好他"",""坏他""]","[""弱我"",""强我"",""强他"",""弱他""]","","","","","","","","yes","","","","","","","","","SRET","EW_formal","","key","f","16.665821705426158","683","380","自己","说谎","Negative","morality","","","","","","","","","","",""
"819","","f","psychophysics","18","175496","0.0-7.0-3.0-0.4","5","4","5","5","6","5","4","4","4","4","5","-2","-1","1","1","-1","0","1","0","5","5","4","4","5","4","4","5","4","4","6","5","3","6","4","5","5","4","6","5","3","6","5","4","2","5","3","3","2","1","5","3","6","3","3","6","4","4","5","4","2","5","6","5","3","6","5","5","6","5","5","6","4","5","6","5","5","6","3","5","790191134524710914","黄","6","Male","[""坏我"",""好我"",""好他"",""坏他""]","[""弱我"",""强我"",""强他"",""弱他""]","","","","","","","","yes","","","","","","","","","SRET","EW_formal","","key","f","16.666009174311938","683","380","朋友","忠勇","Positive","morality","","","","","","","","","","",""
"1354","","j","psychophysics","19","177865","0.0-7.0-3.0-0.5","5","4","5","5","6","5","4","4","4","4","5","-2","-1","1","1","-1","0","1","0","5","5","4","4","5","4","4","5","4","4","6","5","3","6","4","5","5","4","6","5","3","6","5","4","2","5","3","3","2","1","5","3","6","3","3","6","4","4","5","4","2","5","6","5","3","6","5","5","6","5","5","6","4","5","6","5","5","6","3","5","790191134524710914","黄","6","Male","[""坏我"",""好我"",""好他"",""坏他""]","[""弱我"",""强我"",""强他"",""弱他""]","","","","","","","","no","","","","","","","","","SRET","EW_formal","","key","j","16.66587943262408","683","380","自己","仁爱","Positive","morality","","","","","","","","","","",""
"1094","","f","psychophysics","20","179969","0.0-7.0-3.0-0.6","5","4","5","5","6","5","4","4","4","4","5","-2","-1","1","1","-1","0","1","0","5","5","4","4","5","4","4","5","4","4","6","5","3","6","4","5","5","4","6","5","3","6","5","4","2","5","3","3","2","1","5","3","6","3","3","6","4","4","5","4","2","5","6","5","3","6","5","5","6","5","5","6","4","5","6","5","5","6","3","5","790191134524710914","黄","6","Male","[""坏我"",""好我"",""好他"",""坏他""]","[""弱我"",""强我"",""强他"",""弱他""]","","","","","","","","yes","","","","","","","","","SRET","EW_formal","","key","f","16.799790322580638","683","380","朋友","博学","Positive","ability","","","","","","","","","","",""
"1240","","f","psychophysics","21","182216","0.0-7.0-3.0-0.7","5","4","5","5","6","5","4","4","4","4","5","-2","-1","1","1","-1","0","1","0","5","5","4","4","5","4","4","5","4","4","6","5","3","6","4","5","5","4","6","5","3","6","5","4","2","5","3","3","2","1","5","3","6","3","3","6","4","4","5","4","2","5","6","5","3","6","5","5","6","5","5","6","4","5","6","5","5","6","3","5","790191134524710914","黄","6","Male","[""坏我"",""好我"",""好他"",""坏他""]","[""弱我"",""强我"",""强他"",""弱他""]","","","","","","","","yes","","","","","","","","","SRET","EW_formal","","key","f","16.66553731343284","683","380","自己","自私","Negative","morality","","","","","","","","","","",""
"857","","j","psychophysics","22","184081","0.0-7.0-3.0-0.8","5","4","5","5","6","5","4","4","4","4","5","-2","-1","1","1","-1","0","1","0","5","5","4","4","5","4","4","5","4","4","6","5","3","6","4","5","5","4","6","5","3","6","5","4","2","5","3","3","2","1","5","3","6","3","3","6","4","4","5","4","2","5","6","5","3","6","5","5","6","5","5","6","4","5","6","5","5","6","3","5","790191134524710914","黄","6","Male","[""坏我"",""好我"",""好他"",""坏他""]","[""弱我"",""强我"",""强他"",""弱他""]","","","","","","","","no","","","","","","","","","SRET","EW_formal","","key","j","16.81743636363641","683","380","朋友","窝囊","Negative","ability","","","","","","","","","","",""
"1078","","j","psychophysics","23","186169","0.0-7.0-3.0-0.9","5","4","5","5","6","5","4","4","4","4","5","-2","-1","1","1","-1","0","1","0","5","5","4","4","5","4","4","5","4","4","6","5","3","6","4","5","5","4","6","5","3","6","5","4","2","5","3","3","2","1","5","3","6","3","3","6","4","4","5","4","2","5","6","5","3","6","5","5","6","5","5","6","4","5","6","5","5","6","3","5","790191134524710914","黄","6","Male","[""坏我"",""好我"",""好他"",""坏他""]","[""弱我"",""强我"",""强他"",""弱他""]","","","","","","","","no","","","","","","","","","SRET","EW_formal","","key","j","16.665209677419156","683","380","自己","精干","Positive","ability","","","","","","","","","","",""
"789","","j","psychophysics","24","187963","0.0-7.0-3.0-0.10","5","4","5","5","6","5","4","4","4","4","5","-2","-1","1","1","-1","0","1","0","5","5","4","4","5","4","4","5","4","4","6","5","3","6","4","5","5","4","6","5","3","6","5","4","2","5","3","3","2","1","5","3","6","3","3","6","4","4","5","4","2","5","6","5","3","6","5","5","6","5","5","6","4","5","6","5","5","6","3","5","790191134524710914","黄","6","Male","[""坏我"",""好我"",""好他"",""坏他""]","[""弱我"",""强我"",""强他"",""弱他""]","","","","","","","","no","","","","","","","","","SRET","EW_formal","","key","j","16.823245283018828","683","380","自己","高尚","Positive","morality","","","","","","","","","","",""
"1306","","j","psychophysics","25","190276","0.0-7.0-3.0-0.11","5","4","5","5","6","5","4","4","4","4","5","-2","-1","1","1","-1","0","1","0","5","5","4","4","5","4","4","5","4","4","6","5","3","6","4","5","5","4","6","5","3","6","5","4","2","5","3","3","2","1","5","3","6","3","3","6","4","4","5","4","2","5","6","5","3","6","5","5","6","5","5","6","4","5","6","5","5","6","3","5","790191134524710914","黄","6","Male","[""坏我"",""好我"",""好他"",""坏他""]","[""弱我"",""强我"",""强他"",""弱他""]","","","","","","","","no","","","","","","","","","SRET","EW_formal","","key","j","16.78785294117637","683","380","朋友","贪腐","Negative","morality","","","","","","","","","","",""
"1479","","j","psychophysics","26","192761","0.0-7.0-3.0-0.12","5","4","5","5","6","5","4","4","4","4","5","-2","-1","1","1","-1","0","1","0","5","5","4","4","5","4","4","5","4","4","6","5","3","6","4","5","5","4","6","5","3","6","5","4","2","5","3","3","2","1","5","3","6","3","3","6","4","4","5","4","2","5","6","5","3","6","5","5","6","5","5","6","4","5","6","5","5","6","3","5","790191134524710914","黄","6","Male","[""坏我"",""好我"",""好他"",""坏他""]","[""弱我"",""强我"",""强他"",""弱他""]","","","","","","","","no","","","","","","","","","SRET","EW_formal","","key","j","16.778655405405466","683","380","朋友","偏私","Negative","morality","","","","","","","","","","",""
"1191","","f","psychophysics","27","194961","0.0-7.0-3.0-0.13","5","4","5","5","6","5","4","4","4","4","5","-2","-1","1","1","-1","0","1","0","5","5","4","4","5","4","4","5","4","4","6","5","3","6","4","5","5","4","6","5","3","6","5","4","2","5","3","3","2","1","5","3","6","3","3","6","4","4","5","4","2","5","6","5","3","6","5","5","6","5","5","6","4","5","6","5","5","6","3","5","790191134524710914","黄","6","Male","[""坏我"",""好我"",""好他"",""坏他""]","[""弱我"",""强我"",""强他"",""弱他""]","","","","","","","","yes","","","","","","","","","SRET","EW_formal","","key","f","16.793630769230926","683","380","自己","拙笨","Negative","ability","","","","","","","","","","",""
"823","","f","psychophysics","28","196794","0.0-7.0-3.0-0.14","5","4","5","5","6","5","4","4","4","4","5","-2","-1","1","1","-1","0","1","0","5","5","4","4","5","4","4","5","4","4","6","5","3","6","4","5","5","4","6","5","3","6","5","4","2","5","3","3","2","1","5","3","6","3","3","6","4","4","5","4","2","5","6","5","3","6","5","5","6","5","5","6","4","5","6","5","5","6","3","5","790191134524710914","黄","6","Male","[""坏我"",""好我"",""好他"",""坏他""]","[""弱我"",""强我"",""强他"",""弱他""]","","","","","","","","yes","","","","","","","","","SRET","EW_formal","","key","f","16.665697247706568","683","380","自己","拖延","Negative","ability","","","","","","","","","","",""
"1062","","f","psychophysics","29","198865","0.0-7.0-3.0-0.15","5","4","5","5","6","5","4","4","4","4","5","-2","-1","1","1","-1","0","1","0","5","5","4","4","5","4","4","5","4","4","6","5","3","6","4","5","5","4","6","5","3","6","5","4","2","5","3","3","2","1","5","3","6","3","3","6","4","4","5","4","2","5","6","5","3","6","5","5","6","5","5","6","4","5","6","5","5","6","3","5","790191134524710914","黄","6","Male","[""坏我"",""好我"",""好他"",""坏他""]","[""弱我"",""强我"",""强他"",""弱他""]","","","","","","","","yes","","","","","","","","","SRET","EW_formal","","key","f","16.665910569105744","683","380","自己","外行","Negative","ability","","","","","","","","","","",""
"1068","","f","psychophysics","30","200945","0.0-7.0-3.0-0.16","5","4","5","5","6","5","4","4","4","4","5","-2","-1","1","1","-1","0","1","0","5","5","4","4","5","4","4","5","4","4","6","5","3","6","4","5","5","4","6","5","3","6","5","4","2","5","3","3","2","1","5","3","6","3","3","6","4","4","5","4","2","5","6","5","3","6","5","5","6","5","5","6","4","5","6","5","5","6","3","5","790191134524710914","黄","6","Male","[""坏我"",""好我"",""好他"",""坏他""]","[""弱我"",""强我"",""强他"",""弱他""]","","","","","","","","yes","","","","","","","","","SRET","EW_formal","","key","f","16.66590322580657","683","380","朋友","上进","Positive","ability","","","","","","","","","","",""
"1398","","f","psychophysics","31","203352","0.0-7.0-3.0-0.17","5","4","5","5","6","5","4","4","4","4","5","-2","-1","1","1","-1","0","1","0","5","5","4","4","5","4","4","5","4","4","6","5","3","6","4","5","5","4","6","5","3","6","5","4","2","5","3","3","2","1","5","3","6","3","3","6","4","4","5","4","2","5","6","5","3","6","5","5","6","5","5","6","4","5","6","5","5","6","3","5","790191134524710914","黄","6","Male","[""坏我"",""好我"",""好他"",""坏他""]","[""弱我"",""强我"",""强他"",""弱他""]","","","","","","","","yes","","","","","","","","","SRET","EW_formal","","key","f","16.66542657342649","683","380","自己","淡泊","Positive","morality","","","","","","","","","","",""
"895","","f","psychophysics","32","205249","0.0-7.0-3.0-0.18","5","4","5","5","6","5","4","4","4","4","5","-2","-1","1","1","-1","0","1","0","5","5","4","4","5","4","4","5","4","4","6","5","3","6","4","5","5","4","6","5","3","6","5","4","2","5","3","3","2","1","5","3","6","3","3","6","4","4","5","4","2","5","6","5","3","6","5","5","6","5","5","6","4","5","6","5","5","6","3","5","790191134524710914","黄","6","Male","[""坏我"",""好我"",""好他"",""坏他""]","[""弱我"",""强我"",""强他"",""弱他""]","","","","","","","","yes","","","","","","","","","SRET","EW_formal","","key","f","16.66608849557506","683","380","自己","短浅","Negative","ability","","","","","","","","","","",""
"837","","j","psychophysics","33","207096","0.0-7.0-3.0-0.19","5","4","5","5","6","5","4","4","4","4","5","-2","-1","1","1","-1","0","1","0","5","5","4","4","5","4","4","5","4","4","6","5","3","6","4","5","5","4","6","5","3","6","5","4","2","5","3","3","2","1","5","3","6","3","3","6","4","4","5","4","2","5","6","5","3","6","5","5","6","5","5","6","4","5","6","5","5","6","3","5","790191134524710914","黄","6","Male","[""坏我"",""好我"",""好他"",""坏他""]","[""弱我"",""强我"",""强他"",""弱他""]","","","","","","","","no","","","","","","","","","SRET","EW_formal","","key","j","16.81877981651379","683","380","自己","学霸","Positive","ability","","","","","","","","","","",""
"815","","j","psychophysics","34","208913","0.0-7.0-3.0-0.20","5","4","5","5","6","5","4","4","4","4","5","-2","-1","1","1","-1","0","1","0","5","5","4","4","5","4","4","5","4","4","6","5","3","6","4","5","5","4","6","5","3","6","5","4","2","5","3","3","2","1","5","3","6","3","3","6","4","4","5","4","2","5","6","5","3","6","5","5","6","5","5","6","4","5","6","5","5","6","3","5","790191134524710914","黄","6","Male","[""坏我"",""好我"",""好他"",""坏他""]","[""弱我"",""强我"",""强他"",""弱他""]","","","","","","","","no","","","","","","","","","SRET","EW_formal","","key","j","16.6663333333334","683","380","朋友","贪污","Negative","morality","","","","","","","","","","",""
"1251","","f","psychophysics","35","211177","0.0-7.0-3.0-0.21","5","4","5","5","6","5","4","4","4","4","5","-2","-1","1","1","-1","0","1","0","5","5","4","4","5","4","4","5","4","4","6","5","3","6","4","5","5","4","6","5","3","6","5","4","2","5","3","3","2","1","5","3","6","3","3","6","4","4","5","4","2","5","6","5","3","6","5","5","6","5","5","6","4","5","6","5","5","6","3","5","790191134524710914","黄","6","Male","[""坏我"",""好我"",""好他"",""坏他""]","[""弱我"",""强我"",""强他"",""弱他""]","","","","","","","","yes","","","","","","","","","SRET","EW_formal","","key","f","16.664659259259416","683","380","自己","无知","Negative","ability","","","","","","","","","","",""
"1183","","j","psychophysics","36","213369","0.0-7.0-3.0-0.22","5","4","5","5","6","5","4","4","4","4","5","-2","-1","1","1","-1","0","1","0","5","5","4","4","5","4","4","5","4","4","6","5","3","6","4","5","5","4","6","5","3","6","5","4","2","5","3","3","2","1","5","3","6","3","3","6","4","4","5","4","2","5","6","5","3","6","5","5","6","5","5","6","4","5","6","5","5","6","3","5","790191134524710914","黄","6","Male","[""坏我"",""好我"",""好他"",""坏他""]","[""弱我"",""强我"",""强他"",""弱他""]","","","","","","","","no","","","","","","","","","SRET","EW_formal","","key","j","16.66578461538481","683","380","自己","肯干","Positive","ability","","","","","","","","","","",""
"946","","j","psychophysics","37","215321","0.0-7.0-3.0-0.23","5","4","5","5","6","5","4","4","4","4","5","-2","-1","1","1","-1","0","1","0","5","5","4","4","5","4","4","5","4","4","6","5","3","6","4","5","5","4","6","5","3","6","5","4","2","5","3","3","2","1","5","3","6","3","3","6","4","4","5","4","2","5","6","5","3","6","5","5","6","5","5","6","4","5","6","5","5","6","3","5","790191134524710914","黄","6","Male","[""坏我"",""好我"",""好他"",""坏他""]","[""弱我"",""强我"",""强他"",""弱他""]","","","","","","","","no","","","","","","","","","SRET","EW_formal","","key","j","17.107566371681404","683","380","朋友","狡狯","Negative","morality","","","","","","","","","","",""
"1162","","j","psychophysics","38","217493","0.0-7.0-3.0-0.24","5","4","5","5","6","5","4","4","4","4","5","-2","-1","1","1","-1","0","1","0","5","5","4","4","5","4","4","5","4","4","6","5","3","6","4","5","5","4","6","5","3","6","5","4","2","5","3","3","2","1","5","3","6","3","3","6","4","4","5","4","2","5","6","5","3","6","5","5","6","5","5","6","4","5","6","5","5","6","3","5","790191134524710914","黄","6","Male","[""坏我"",""好我"",""好他"",""坏他""]","[""弱我"",""强我"",""强他"",""弱他""]","","","","","","","","no","","","","","","","","","SRET","EW_formal","","key","j","16.794844961240337","683","380","自己","屈才","Negative","ability","","","","","","","","","","",""
"1351","","f","psychophysics","39","219849","0.0-7.0-3.0-0.25","5","4","5","5","6","5","4","4","4","4","5","-2","-1","1","1","-1","0","1","0","5","5","4","4","5","4","4","5","4","4","6","5","3","6","4","5","5","4","6","5","3","6","5","4","2","5","3","3","2","1","5","3","6","3","3","6","4","4","5","4","2","5","6","5","3","6","5","5","6","5","5","6","4","5","6","5","5","6","3","5","790191134524710914","黄","6","Male","[""坏我"",""好我"",""好他"",""坏他""]","[""弱我"",""强我"",""强他"",""弱他""]","","","","","","","","yes","","","","","","","","","SRET","EW_formal","","key","f","16.66624999999996","683","380","朋友","干练","Positive","ability","","","","","","","","","","",""
"881","","f","psychophysics","40","221737","0.0-7.0-3.0-0.26","5","4","5","5","6","5","4","4","4","4","5","-2","-1","1","1","-1","0","1","0","5","5","4","4","5","4","4","5","4","4","6","5","3","6","4","5","5","4","6","5","3","6","5","4","2","5","3","3","2","1","5","3","6","3","3","6","4","4","5","4","2","5","6","5","3","6","5","5","6","5","5","6","4","5","6","5","5","6","3","5","790191134524710914","黄","6","Male","[""坏我"",""好我"",""好他"",""坏他""]","[""弱我"",""强我"",""强他"",""弱他""]","","","","","","","","yes","","","","","","","","","SRET","EW_formal","","key","f","16.81537837837849","683","380","朋友","廉正","Positive","morality","","","","","","","","","","",""
"1117","","f","psychophysics","41","223860","0.0-7.0-3.0-0.27","5","4","5","5","6","5","4","4","4","4","5","-2","-1","1","1","-1","0","1","0","5","5","4","4","5","4","4","5","4","4","6","5","3","6","4","5","5","4","6","5","3","6","5","4","2","5","3","3","2","1","5","3","6","3","3","6","4","4","5","4","2","5","6","5","3","6","5","5","6","5","5","6","4","5","6","5","5","6","3","5","790191134524710914","黄","6","Male","[""坏我"",""好我"",""好他"",""坏他""]","[""弱我"",""强我"",""强他"",""弱他""]","","","","","","","","yes","","","","","","","","","SRET","EW_formal","","key","f","16.665661417322752","683","380","自己","守信","Positive","morality","","","","","","","","","","",""
"879","","f","psychophysics","42","225744","0.0-7.0-3.0-0.28","5","4","5","5","6","5","4","4","4","4","5","-2","-1","1","1","-1","0","1","0","5","5","4","4","5","4","4","5","4","4","6","5","3","6","4","5","5","4","6","5","3","6","5","4","2","5","3","3","2","1","5","3","6","3","3","6","4","4","5","4","2","5","6","5","3","6","5","5","6","5","5","6","4","5","6","5","5","6","3","5","790191134524710914","黄","6","Male","[""坏我"",""好我"",""好他"",""坏他""]","[""弱我"",""强我"",""强他"",""弱他""]","","","","","","","","yes","","","","","","","","","SRET","EW_formal","","key","f","16.81630630630618","683","380","朋友","爱国","Positive","morality","","","","","","","","","","",""
"1214","","j","psychophysics","43","227960","0.0-7.0-3.0-0.29","5","4","5","5","6","5","4","4","4","4","5","-2","-1","1","1","-1","0","1","0","5","5","4","4","5","4","4","5","4","4","6","5","3","6","4","5","5","4","6","5","3","6","5","4","2","5","3","3","2","1","5","3","6","3","3","6","4","4","5","4","2","5","6","5","3","6","5","5","6","5","5","6","4","5","6","5","5","6","3","5","790191134524710914","黄","6","Male","[""坏我"",""好我"",""好他"",""坏他""]","[""弱我"",""强我"",""强他"",""弱他""]","","","","","","","","no","","","","","","","","","SRET","EW_formal","","key","j","16.665984848484875","683","380","自己","高效","Positive","ability","","","","","","","","","","",""
"967","","j","psychophysics","44","229928","0.0-7.0-3.0-0.30","5","4","5","5","6","5","4","4","4","4","5","-2","-1","1","1","-1","0","1","0","5","5","4","4","5","4","4","5","4","4","6","5","3","6","4","5","5","4","6","5","3","6","5","4","2","5","3","3","2","1","5","3","6","3","3","6","4","4","5","4","2","5","6","5","3","6","5","5","6","5","5","6","4","5","6","5","5","6","3","5","790191134524710914","黄","6","Male","[""坏我"",""好我"",""好他"",""坏他""]","[""弱我"",""强我"",""强他"",""弱他""]","","","","","","","","no","","","","","","","","","SRET","EW_formal","","key","j","16.665658119657976","683","380","朋友","逞能","Negative","ability","","","","","","","","","","",""
"1487","","j","psychophysics","45","232417","0.0-7.0-3.0-0.31","5","4","5","5","6","5","4","4","4","4","5","-2","-1","1","1","-1","0","1","0","5","5","4","4","5","4","4","5","4","4","6","5","3","6","4","5","5","4","6","5","3","6","5","4","2","5","3","3","2","1","5","3","6","3","3","6","4","4","5","4","2","5","6","5","3","6","5","5","6","5","5","6","4","5","6","5","5","6","3","5","790191134524710914","黄","6","Male","[""坏我"",""好我"",""好他"",""坏他""]","[""弱我"",""强我"",""强他"",""弱他""]","","","","","","","","no","","","","","","","","","SRET","EW_formal","","key","j","16.6658783783783","683","380","自己","侠义","Positive","morality","","","","","","","","","","",""
"1005","","j","psychophysics","46","234426","0.0-7.0-3.0-0.32","5","4","5","5","6","5","4","4","4","4","5","-2","-1","1","1","-1","0","1","0","5","5","4","4","5","4","4","5","4","4","6","5","3","6","4","5","5","4","6","5","3","6","5","4","2","5","3","3","2","1","5","3","6","3","3","6","4","4","5","4","2","5","6","5","3","6","5","5","6","5","5","6","4","5","6","5","5","6","3","5","790191134524710914","黄","6","Male","[""坏我"",""好我"",""好他"",""坏他""]","[""弱我"",""强我"",""强他"",""弱他""]","","","","","","","","no","","","","","","","","","SRET","EW_formal","","key","j","16.66572500000014","683","380","自己","敬业","Positive","morality","","","","","","","","","","",""
"841","","f","psychophysics","47","236275","0.0-7.0-3.0-0.33","5","4","5","5","6","5","4","4","4","4","5","-2","-1","1","1","-1","0","1","0","5","5","4","4","5","4","4","5","4","4","6","5","3","6","4","5","5","4","6","5","3","6","5","4","2","5","3","3","2","1","5","3","6","3","3","6","4","4","5","4","2","5","6","5","3","6","5","5","6","5","5","6","4","5","6","5","5","6","3","5","790191134524710914","黄","6","Male","[""坏我"",""好我"",""好他"",""坏他""]","[""弱我"",""强我"",""强他"",""弱他""]","","","","","","","","yes","","","","","","","","","SRET","EW_formal","","key","f","16.665981818181834","683","380","自己","新手","Negative","ability","","","","","","","","","","",""
"870","","f","psychophysics","48","238152","0.0-7.0-3.0-0.34","5","4","5","5","6","5","4","4","4","4","5","-2","-1","1","1","-1","0","1","0","5","5","4","4","5","4","4","5","4","4","6","5","3","6","4","5","5","4","6","5","3","6","5","4","2","5","3","3","2","1","5","3","6","3","3","6","4","4","5","4","2","5","6","5","3","6","5","5","6","5","5","6","4","5","6","5","5","6","3","5","790191134524710914","黄","6","Male","[""坏我"",""好我"",""好他"",""坏他""]","[""弱我"",""强我"",""强他"",""弱他""]","","","","","","","","yes","","","","","","","","","SRET","EW_formal","","key","f","16.665747747747627","683","380","朋友","守时","Positive","morality","","","","","","","","","","",""
"955","","f","psychophysics","49","240113","0.0-7.0-3.0-0.35","5","4","5","5","6","5","4","4","4","4","5","-2","-1","1","1","-1","0","1","0","5","5","4","4","5","4","4","5","4","4","6","5","3","6","4","5","5","4","6","5","3","6","5","4","2","5","3","3","2","1","5","3","6","3","3","6","4","4","5","4","2","5","6","5","3","6","5","5","6","5","5","6","4","5","6","5","5","6","3","5","790191134524710914","黄","6","Male","[""坏我"",""好我"",""好他"",""坏他""]","[""弱我"",""强我"",""强他"",""弱他""]","","","","","","","","yes","","","","","","","","","SRET","EW_formal","","key","f","16.809336206896567","683","380","朋友","稳健","Positive","ability","","","","","","","","","","",""
"1028","","j","psychophysics","50","242153","0.0-7.0-3.0-0.36","5","4","5","5","6","5","4","4","4","4","5","-2","-1","1","1","-1","0","1","0","5","5","4","4","5","4","4","5","4","4","6","5","3","6","4","5","5","4","6","5","3","6","5","4","2","5","3","3","2","1","5","3","6","3","3","6","4","4","5","4","2","5","6","5","3","6","5","5","6","5","5","6","4","5","6","5","5","6","3","5","790191134524710914","黄","6","Male","[""坏我"",""好我"",""好他"",""坏他""]","[""弱我"",""强我"",""强他"",""弱他""]","","","","","","","","no","","","","","","","","","SRET","EW_formal","","key","j","16.804849999999956","683","380","朋友","无助","Negative","ability","","","","","","","","","","",""
"901","","f","psychophysics","51","244059","0.0-7.0-3.0-0.37","5","4","5","5","6","5","4","4","4","4","5","-2","-1","1","1","-1","0","1","0","5","5","4","4","5","4","4","5","4","4","6","5","3","6","4","5","5","4","6","5","3","6","5","4","2","5","3","3","2","1","5","3","6","3","3","6","4","4","5","4","2","5","6","5","3","6","5","5","6","5","5","6","4","5","6","5","5","6","3","5","790191134524710914","黄","6","Male","[""坏我"",""好我"",""好他"",""坏他""]","[""弱我"",""强我"",""强他"",""弱他""]","","","","","","","","yes","","","","","","","","","SRET","EW_formal","","key","f","16.81311504424764","683","380","自己","文明","Positive","morality","","","","","","","","","","",""
"840","","j","psychophysics","52","245906","0.0-7.0-3.0-0.38","5","4","5","5","6","5","4","4","4","4","5","-2","-1","1","1","-1","0","1","0","5","5","4","4","5","4","4","5","4","4","6","5","3","6","4","5","5","4","6","5","3","6","5","4","2","5","3","3","2","1","5","3","6","3","3","6","4","4","5","4","2","5","6","5","3","6","5","5","6","5","5","6","4","5","6","5","5","6","3","5","790191134524710914","黄","6","Male","[""坏我"",""好我"",""好他"",""坏他""]","[""弱我"",""强我"",""强他"",""弱他""]","","","","","","","","no","","","","","","","","","SRET","EW_formal","","key","j","16.66536697247701","683","380","朋友","小人","Negative","morality","","","","","","","","","","",""
"1046","","j","psychophysics","53","247960","0.0-7.0-3.0-0.39","5","4","5","5","6","5","4","4","4","4","5","-2","-1","1","1","-1","0","1","0","5","5","4","4","5","4","4","5","4","4","6","5","3","6","4","5","5","4","6","5","3","6","5","4","2","5","3","3","2","1","5","3","6","3","3","6","4","4","5","4","2","5","6","5","3","6","5","5","6","5","5","6","4","5","6","5","5","6","3","5","790191134524710914","黄","6","Male","[""坏我"",""好我"",""好他"",""坏他""]","[""弱我"",""强我"",""强他"",""弱他""]","","","","","","","","no","","","","","","","","","SRET","EW_formal","","key","j","16.802606557377093","683","380","自己","拜金","Negative","morality","","","","","","","","","","",""
"999","","j","psychophysics","54","249960","0.0-7.0-3.0-0.40","5","4","5","5","6","5","4","4","4","4","5","-2","-1","1","1","-1","0","1","0","5","5","4","4","5","4","4","5","4","4","6","5","3","6","4","5","5","4","6","5","3","6","5","4","2","5","3","3","2","1","5","3","6","3","3","6","4","4","5","4","2","5","6","5","3","6","5","5","6","5","5","6","4","5","6","5","5","6","3","5","790191134524710914","黄","6","Male","[""坏我"",""好我"",""好他"",""坏他""]","[""弱我"",""强我"",""强他"",""弱他""]","","","","","","","","no","","","","","","","","","SRET","EW_formal","","key","j","16.806288135593157","683","380","朋友","庸碌","Negative","ability","","","","","","","","","","",""
"966","","j","psychophysics","55","251939","0.0-7.0-3.0-0.41","5","4","5","5","6","5","4","4","4","4","5","-2","-1","1","1","-1","0","1","0","5","5","4","4","5","4","4","5","4","4","6","5","3","6","4","5","5","4","6","5","3","6","5","4","2","5","3","3","2","1","5","3","6","3","3","6","4","4","5","4","2","5","6","5","3","6","5","5","6","5","5","6","4","5","6","5","5","6","3","5","790191134524710914","黄","6","Male","[""坏我"",""好我"",""好他"",""坏他""]","[""弱我"",""强我"",""强他"",""弱他""]","","","","","","","","no","","","","","","","","","SRET","EW_formal","","key","j","16.665692307692296","683","380","自己","不孝","Negative","morality","","","","","","","","","","",""
"814","","j","psychophysics","56","253760","0.0-7.0-3.0-0.42","5","4","5","5","6","5","4","4","4","4","5","-2","-1","1","1","-1","0","1","0","5","5","4","4","5","4","4","5","4","4","6","5","3","6","4","5","5","4","6","5","3","6","5","4","2","5","3","3","2","1","5","3","6","3","3","6","4","4","5","4","2","5","6","5","3","6","5","5","6","5","5","6","4","5","6","5","5","6","3","5","790191134524710914","黄","6","Male","[""坏我"",""好我"",""好他"",""坏他""]","[""弱我"",""强我"",""强他"",""弱他""]","","","","","","","","no","","","","","","","","","SRET","EW_formal","","key","j","16.665321100917335","683","380","自己","无耻","Negative","morality","","","","","","","","","","",""
"1238","","f","psychophysics","57","256000","0.0-7.0-3.0-0.43","5","4","5","5","6","5","4","4","4","4","5","-2","-1","1","1","-1","0","1","0","5","5","4","4","5","4","4","5","4","4","6","5","3","6","4","5","5","4","6","5","3","6","5","4","2","5","3","3","2","1","5","3","6","3","3","6","4","4","5","4","2","5","6","5","3","6","5","5","6","5","5","6","4","5","6","5","5","6","3","5","790191134524710914","黄","6","Male","[""坏我"",""好我"",""好他"",""坏他""]","[""弱我"",""强我"",""强他"",""弱他""]","","","","","","","","yes","","","","","","","","","SRET","EW_formal","","key","f","16.665541353383404","683","380","朋友","聪明","Positive","ability","","","","","","","","","","",""
"1229","","f","psychophysics","58","258232","0.0-7.0-3.0-0.44","5","4","5","5","6","5","4","4","4","4","5","-2","-1","1","1","-1","0","1","0","5","5","4","4","5","4","4","5","4","4","6","5","3","6","4","5","5","4","6","5","3","6","5","4","2","5","3","3","2","1","5","3","6","3","3","6","4","4","5","4","2","5","6","5","3","6","5","5","6","5","5","6","4","5","6","5","5","6","3","5","790191134524710914","黄","6","Male","[""坏我"",""好我"",""好他"",""坏他""]","[""弱我"",""强我"",""强他"",""弱他""]","","","","","","","","yes","","","","","","","","","SRET","EW_formal","","key","f","16.665563909774356","683","380","朋友","善心","Positive","morality","","","","","","","","","","",""
"872","","f","psychophysics","59","260106","0.0-7.0-3.0-0.45","5","4","5","5","6","5","4","4","4","4","5","-2","-1","1","1","-1","0","1","0","5","5","4","4","5","4","4","5","4","4","6","5","3","6","4","5","5","4","6","5","3","6","5","4","2","5","3","3","2","1","5","3","6","3","3","6","4","4","5","4","2","5","6","5","3","6","5","5","6","5","5","6","4","5","6","5","5","6","3","5","790191134524710914","黄","6","Male","[""坏我"",""好我"",""好他"",""坏他""]","[""弱我"",""强我"",""强他"",""弱他""]","","","","","","","","yes","","","","","","","","","SRET","EW_formal","","key","f","16.66671428571421","683","380","朋友","依靠","Negative","ability","","","","","","","","","","",""
"1078","","f","psychophysics","60","262192","0.0-7.0-3.0-0.46","5","4","5","5","6","5","4","4","4","4","5","-2","-1","1","1","-1","0","1","0","5","5","4","4","5","4","4","5","4","4","6","5","3","6","4","5","5","4","6","5","3","6","5","4","2","5","3","3","2","1","5","3","6","3","3","6","4","4","5","4","2","5","6","5","3","6","5","5","6","5","5","6","4","5","6","5","5","6","3","5","790191134524710914","黄","6","Male","[""坏我"",""好我"",""好他"",""坏他""]","[""弱我"",""强我"",""强他"",""弱他""]","","","","","","","","yes","","","","","","","","","SRET","EW_formal","","key","f","16.66630645161293","683","380","自己","扎实","Positive","ability","","","","","","","","","","",""
"1317","","f","psychophysics","61","264512","0.0-7.0-3.0-0.47","5","4","5","5","6","5","4","4","4","4","5","-2","-1","1","1","-1","0","1","0","5","5","4","4","5","4","4","5","4","4","6","5","3","6","4","5","5","4","6","5","3","6","5","4","2","5","3","3","2","1","5","3","6","3","3","6","4","4","5","4","2","5","6","5","3","6","5","5","6","5","5","6","4","5","6","5","5","6","3","5","790191134524710914","黄","6","Male","[""坏我"",""好我"",""好他"",""坏他""]","[""弱我"",""强我"",""强他"",""弱他""]","","","","","","","","yes","","","","","","","","","SRET","EW_formal","","key","f","16.66556521739129","683","380","朋友","孝顺","Positive","morality","","","","","","","","","","",""
"829","","j","psychophysics","62","266344","0.0-7.0-3.0-0.48","5","4","5","5","6","5","4","4","4","4","5","-2","-1","1","1","-1","0","1","0","5","5","4","4","5","4","4","5","4","4","6","5","3","6","4","5","5","4","6","5","3","6","5","4","2","5","3","3","2","1","5","3","6","3","3","6","4","4","5","4","2","5","6","5","3","6","5","5","6","5","5","6","4","5","6","5","5","6","3","5","790191134524710914","黄","6","Male","[""坏我"",""好我"",""好他"",""坏他""]","[""弱我"",""强我"",""强他"",""弱他""]","","","","","","","","no","","","","","","","","","SRET","EW_formal","","key","j","16.66494495412837","683","380","朋友","下流","Negative","morality","","","","","","","","","","",""
"862","","j","psychophysics","63","268208","0.0-7.0-3.0-0.49","5","4","5","5","6","5","4","4","4","4","5","-2","-1","1","1","-1","0","1","0","5","5","4","4","5","4","4","5","4","4","6","5","3","6","4","5","5","4","6","5","3","6","5","4","2","5","3","3","2","1","5","3","6","3","3","6","4","4","5","4","2","5","6","5","3","6","5","5","6","5","5","6","4","5","6","5","5","6","3","5","790191134524710914","黄","6","Male","[""坏我"",""好我"",""好他"",""坏他""]","[""弱我"",""强我"",""强他"",""弱他""]","","","","","","","","no","","","","","","","","","SRET","EW_formal","","key","j","16.66596396396415","683","380","朋友","歹毒","Negative","morality","","","","","","","","","","",""
"1438","","f","psychophysics","64","270648","0.0-7.0-3.0-0.50","5","4","5","5","6","5","4","4","4","4","5","-2","-1","1","1","-1","0","1","0","5","5","4","4","5","4","4","5","4","4","6","5","3","6","4","5","5","4","6","5","3","6","5","4","2","5","3","3","2","1","5","3","6","3","3","6","4","4","5","4","2","5","6","5","3","6","5","5","6","5","5","6","4","5","6","5","5","6","3","5","790191134524710914","黄","6","Male","[""坏我"",""好我"",""好他"",""坏他""]","[""弱我"",""强我"",""强他"",""弱他""]","","","","","","","","yes","","","","","","","","","SRET","EW_formal","","key","f","16.66642758620678","683","380","自己","宽容","Positive","morality","","","","","","","","","","",""
"798","","f","psychophysics","65","272448","0.0-7.0-3.0-0.51","5","4","5","5","6","5","4","4","4","4","5","-2","-1","1","1","-1","0","1","0","5","5","4","4","5","4","4","5","4","4","6","5","3","6","4","5","5","4","6","5","3","6","5","4","2","5","3","3","2","1","5","3","6","3","3","6","4","4","5","4","2","5","6","5","3","6","5","5","6","5","5","6","4","5","6","5","5","6","3","5","790191134524710914","黄","6","Male","[""坏我"",""好我"",""好他"",""坏他""]","[""弱我"",""强我"",""强他"",""弱他""]","","","","","","","","yes","","","","","","","","","SRET","EW_formal","","key","f","16.665364485981474","683","380","朋友","骁勇","Positive","ability","","","","","","","","","","",""
"806","","j","psychophysics","66","274257","0.0-7.0-3.0-0.52","5","4","5","5","6","5","4","4","4","4","5","-2","-1","1","1","-1","0","1","0","5","5","4","4","5","4","4","5","4","4","6","5","3","6","4","5","5","4","6","5","3","6","5","4","2","5","3","3","2","1","5","3","6","3","3","6","4","4","5","4","2","5","6","5","3","6","5","5","6","5","5","6","4","5","6","5","5","6","3","5","790191134524710914","黄","6","Male","[""坏我"",""好我"",""好他"",""坏他""]","[""弱我"",""强我"",""强他"",""弱他""]","","","","","","","","no","","","","","","","","","SRET","EW_formal","","key","j","16.821747663551093","683","380","自己","蛇蝎","Negative","morality","","","","","","","","","","",""
"1294","","f","psychophysics","67","276560","0.0-7.0-3.0-0.53","5","4","5","5","6","5","4","4","4","4","5","-2","-1","1","1","-1","0","1","0","5","5","4","4","5","4","4","5","4","4","6","5","3","6","4","5","5","4","6","5","3","6","5","4","2","5","3","3","2","1","5","3","6","3","3","6","4","4","5","4","2","5","6","5","3","6","5","5","6","5","5","6","4","5","6","5","5","6","3","5","790191134524710914","黄","6","Male","[""坏我"",""好我"",""好他"",""坏他""]","[""弱我"",""强我"",""强他"",""弱他""]","","","","","","","","yes","","","","","","","","","SRET","EW_formal","","key","f","16.66580291970779","683","380","自己","忠诚","Positive","morality","","","","","","","","","","",""
"782","","j","psychophysics","68","278344","0.0-7.0-3.0-0.54","5","4","5","5","6","5","4","4","4","4","5","-2","-1","1","1","-1","0","1","0","5","5","4","4","5","4","4","5","4","4","6","5","3","6","4","5","5","4","6","5","3","6","5","4","2","5","3","3","2","1","5","3","6","3","3","6","4","4","5","4","2","5","6","5","3","6","5","5","6","5","5","6","4","5","6","5","5","6","3","5","790191134524710914","黄","6","Male","[""坏我"",""好我"",""好他"",""坏他""]","[""弱我"",""强我"",""强他"",""弱他""]","","","","","","","","no","","","","","","","","","SRET","EW_formal","","key","j","16.824399999999773","683","380","朋友","恶劣","Negative","morality","","","","","","","","","","",""
"813","","j","psychophysics","69","280160","0.0-7.0-3.0-0.55","5","4","5","5","6","5","4","4","4","4","5","-2","-1","1","1","-1","0","1","0","5","5","4","4","5","4","4","5","4","4","6","5","3","6","4","5","5","4","6","5","3","6","5","4","2","5","3","3","2","1","5","3","6","3","3","6","4","4","5","4","2","5","6","5","3","6","5","5","6","5","5","6","4","5","6","5","5","6","3","5","790191134524710914","黄","6","Male","[""坏我"",""好我"",""好他"",""坏他""]","[""弱我"",""强我"",""强他"",""弱他""]","","","","","","","","no","","","","","","","","","SRET","EW_formal","","key","j","16.665944444444634","683","380","朋友","奸险","Negative","morality","","","","","","","","","","",""
"1470","","f","psychophysics","70","282632","0.0-7.0-3.0-0.56","5","4","5","5","6","5","4","4","4","4","5","-2","-1","1","1","-1","0","1","0","5","5","4","4","5","4","4","5","4","4","6","5","3","6","4","5","5","4","6","5","3","6","5","4","2","5","3","3","2","1","5","3","6","3","3","6","4","4","5","4","2","5","6","5","3","6","5","5","6","5","5","6","4","5","6","5","5","6","3","5","790191134524710914","黄","6","Male","[""坏我"",""好我"",""好他"",""坏他""]","[""弱我"",""强我"",""强他"",""弱他""]","","","","","","","","yes","","","","","","","","","SRET","EW_formal","","key","f","16.66578231292514","683","380","自己","厚道","Positive","morality","","","","","","","","","","",""
"1054","","j","psychophysics","71","284690","0.0-7.0-3.0-0.57","5","4","5","5","6","5","4","4","4","4","5","-2","-1","1","1","-1","0","1","0","5","5","4","4","5","4","4","5","4","4","6","5","3","6","4","5","5","4","6","5","3","6","5","4","2","5","3","3","2","1","5","3","6","3","3","6","4","4","5","4","2","5","6","5","3","6","5","5","6","5","5","6","4","5","6","5","5","6","3","5","790191134524710914","黄","6","Male","[""坏我"",""好我"",""好他"",""坏他""]","[""弱我"",""强我"",""强他"",""弱他""]","","","","","","","","no","","","","","","","","","SRET","EW_formal","","key","j","16.801852459016402","683","380","自己","高明","Positive","ability","","","","","","","","","","",""
"1255","","f","psychophysics","72","286954","0.0-7.0-3.0-0.58","5","4","5","5","6","5","4","4","4","4","5","-2","-1","1","1","-1","0","1","0","5","5","4","4","5","4","4","5","4","4","6","5","3","6","4","5","5","4","6","5","3","6","5","4","2","5","3","3","2","1","5","3","6","3","3","6","4","4","5","4","2","5","6","5","3","6","5","5","6","5","5","6","4","5","6","5","5","6","3","5","790191134524710914","黄","6","Male","[""坏我"",""好我"",""好他"",""坏他""]","[""弱我"",""强我"",""强他"",""弱他""]","","","","","","","","yes","","","","","","","","","SRET","EW_formal","","key","f","16.665514925373163","683","380","自己","虚伪","Negative","morality","","","","","","","","","","",""
"864","","f","psychophysics","73","288824","0.0-7.0-3.0-0.59","5","4","5","5","6","5","4","4","4","4","5","-2","-1","1","1","-1","0","1","0","5","5","4","4","5","4","4","5","4","4","6","5","3","6","4","5","5","4","6","5","3","6","5","4","2","5","3","3","2","1","5","3","6","3","3","6","4","4","5","4","2","5","6","5","3","6","5","5","6","5","5","6","4","5","6","5","5","6","3","5","790191134524710914","黄","6","Male","[""坏我"",""好我"",""好他"",""坏他""]","[""弱我"",""强我"",""强他"",""弱他""]","","","","","","","","yes","","","","","","","","","SRET","EW_formal","","key","f","16.815567567567488","683","380","自己","娴熟","Positive","ability","","","","","","","","","","",""
"736","","j","psychophysics","74","290571","0.0-7.0-3.0-0.60","5","4","5","5","6","5","4","4","4","4","5","-2","-1","1","1","-1","0","1","0","5","5","4","4","5","4","4","5","4","4","6","5","3","6","4","5","5","4","6","5","3","6","5","4","2","5","3","3","2","1","5","3","6","3","3","6","4","4","5","4","2","5","6","5","3","6","5","5","6","5","5","6","4","5","6","5","5","6","3","5","790191134524710914","黄","6","Male","[""坏我"",""好我"",""好他"",""坏他""]","[""弱我"",""强我"",""强他"",""弱他""]","","","","","","","","no","","","","","","","","","SRET","EW_formal","","key","j","16.665576923076653","683","380","朋友","差生","Negative","ability","","","","","","","","","","",""
"862","","j","psychophysics","75","292440","0.0-7.0-3.0-0.61","5","4","5","5","6","5","4","4","4","4","5","-2","-1","1","1","-1","0","1","0","5","5","4","4","5","4","4","5","4","4","6","5","3","6","4","5","5","4","6","5","3","6","5","4","2","5","3","3","2","1","5","3","6","3","3","6","4","4","5","4","2","5","6","5","3","6","5","5","6","5","5","6","4","5","6","5","5","6","3","5","790191134524710914","黄","6","Male","[""坏我"",""好我"",""好他"",""坏他""]","[""弱我"",""强我"",""强他"",""弱他""]","","","","","","","","no","","","","","","","","","SRET","EW_formal","","key","j","16.665927927927974","683","380","自己","淫乱","Negative","morality","","","","","","","","","","",""
"864","","j","psychophysics","76","294306","0.0-7.0-3.0-0.62","5","4","5","5","6","5","4","4","4","4","5","-2","-1","1","1","-1","0","1","0","5","5","4","4","5","4","4","5","4","4","6","5","3","6","4","5","5","4","6","5","3","6","5","4","2","5","3","3","2","1","5","3","6","3","3","6","4","4","5","4","2","5","6","5","3","6","5","5","6","5","5","6","4","5","6","5","5","6","3","5","790191134524710914","黄","6","Male","[""坏我"",""好我"",""好他"",""坏他""]","[""弱我"",""强我"",""强他"",""弱他""]","","","","","","","","no","","","","","","","","","SRET","EW_formal","","key","j","16.665810810811063","683","380","朋友","缺德","Negative","morality","","","","","","","","","","",""
"1257","","f","psychophysics","77","296571","0.0-7.0-3.0-0.63","5","4","5","5","6","5","4","4","4","4","5","-2","-1","1","1","-1","0","1","0","5","5","4","4","5","4","4","5","4","4","6","5","3","6","4","5","5","4","6","5","3","6","5","4","2","5","3","3","2","1","5","3","6","3","3","6","4","4","5","4","2","5","6","5","3","6","5","5","6","5","5","6","4","5","6","5","5","6","3","5","790191134524710914","黄","6","Male","[""坏我"",""好我"",""好他"",""坏他""]","[""弱我"",""强我"",""强他"",""弱他""]","","","","","","","","yes","","","","","","","","","SRET","EW_formal","","key","f","16.665725925926086","683","380","自己","努力","Positive","ability","","","","","","","","","","",""
"734","","j","psychophysics","78","298312","0.0-7.0-3.0-0.64","5","4","5","5","6","5","4","4","4","4","5","-2","-1","1","1","-1","0","1","0","5","5","4","4","5","4","4","5","4","4","6","5","3","6","4","5","5","4","6","5","3","6","5","4","2","5","3","3","2","1","5","3","6","3","3","6","4","4","5","4","2","5","6","5","3","6","5","5","6","5","5","6","4","5","6","5","5","6","3","5","790191134524710914","黄","6","Male","[""坏我"",""好我"",""好他"",""坏他""]","[""弱我"",""强我"",""强他"",""弱他""]","","","","","","","","no","","","","","","","","","SRET","EW_formal","","key","j","16.666320388349455","683","380","自己","全才","Positive","ability","","","","","","","","","","",""
"928","","f","psychophysics","79","300248","0.0-7.0-3.0-0.65","5","4","5","5","6","5","4","4","4","4","5","-2","-1","1","1","-1","0","1","0","5","5","4","4","5","4","4","5","4","4","6","5","3","6","4","5","5","4","6","5","3","6","5","4","2","5","3","3","2","1","5","3","6","3","3","6","4","4","5","4","2","5","6","5","3","6","5","5","6","5","5","6","4","5","6","5","5","6","3","5","790191134524710914","黄","6","Male","[""坏我"",""好我"",""好他"",""坏他""]","[""弱我"",""强我"",""强他"",""弱他""]","","","","","","","","yes","","","","","","","","","SRET","EW_formal","","key","f","16.812228070175287","683","380","自己","利己","Negative","morality","","","","","","","","","","",""
"843","","j","psychophysics","80","302096","0.0-7.0-3.0-0.66","5","4","5","5","6","5","4","4","4","4","5","-2","-1","1","1","-1","0","1","0","5","5","4","4","5","4","4","5","4","4","6","5","3","6","4","5","5","4","6","5","3","6","5","4","2","5","3","3","2","1","5","3","6","3","3","6","4","4","5","4","2","5","6","5","3","6","5","5","6","5","5","6","4","5","6","5","5","6","3","5","790191134524710914","黄","6","Male","[""坏我"",""好我"",""好他"",""坏他""]","[""弱我"",""强我"",""强他"",""弱他""]","","","","","","","","no","","","","","","","","","SRET","EW_formal","","key","j","17.133056074766568","683","380","朋友","愚钝","Negative","ability","","","","","","","","","","",""
"977","","j","psychophysics","81","304080","0.0-7.0-3.0-0.67","5","4","5","5","6","5","4","4","4","4","5","-2","-1","1","1","-1","0","1","0","5","5","4","4","5","4","4","5","4","4","6","5","3","6","4","5","5","4","6","5","3","6","5","4","2","5","3","3","2","1","5","3","6","3","3","6","4","4","5","4","2","5","6","5","3","6","5","5","6","5","5","6","4","5","6","5","5","6","3","5","790191134524710914","黄","6","Male","[""坏我"",""好我"",""好他"",""坏他""]","[""弱我"",""强我"",""强他"",""弱他""]","","","","","","","","no","","","","","","","","","SRET","EW_formal","","key","j","17.10115652173889","683","380","朋友","畏难","Negative","ability","","","","","","","","","","",""
"900","","f","psychophysics","82","305987","0.0-7.0-3.0-0.68","5","4","5","5","6","5","4","4","4","4","5","-2","-1","1","1","-1","0","1","0","5","5","4","4","5","4","4","5","4","4","6","5","3","6","4","5","5","4","6","5","3","6","5","4","2","5","3","3","2","1","5","3","6","3","3","6","4","4","5","4","2","5","6","5","3","6","5","5","6","5","5","6","4","5","6","5","5","6","3","5","790191134524710914","黄","6","Male","[""坏我"",""好我"",""好他"",""坏他""]","[""弱我"",""强我"",""强他"",""弱他""]","","","","","","","","yes","","","","","","","","","SRET","EW_formal","","key","f","16.665947368421097","683","380","朋友","果断","Positive","ability","","","","","","","","","","",""
"823","","f","psychophysics","83","307818","0.0-7.0-3.0-0.69","5","4","5","5","6","5","4","4","4","4","5","-2","-1","1","1","-1","0","1","0","5","5","4","4","5","4","4","5","4","4","6","5","3","6","4","5","5","4","6","5","3","6","5","4","2","5","3","3","2","1","5","3","6","3","3","6","4","4","5","4","2","5","6","5","3","6","5","5","6","5","5","6","4","5","6","5","5","6","3","5","790191134524710914","黄","6","Male","[""坏我"",""好我"",""好他"",""坏他""]","[""弱我"",""强我"",""强他"",""弱他""]","","","","","","","","yes","","","","","","","","","SRET","EW_formal","","key","f","16.82181308411223","683","380","朋友","沉着","Positive","ability","","","","","","","","","","",""
"814","","f","psychophysics","84","309640","0.0-7.0-3.0-0.70","5","4","5","5","6","5","4","4","4","4","5","-2","-1","1","1","-1","0","1","0","5","5","4","4","5","4","4","5","4","4","6","5","3","6","4","5","5","4","6","5","3","6","5","4","2","5","3","3","2","1","5","3","6","3","3","6","4","4","5","4","2","5","6","5","3","6","5","5","6","5","5","6","4","5","6","5","5","6","3","5","790191134524710914","黄","6","Male","[""坏我"",""好我"",""好他"",""坏他""]","[""弱我"",""强我"",""强他"",""弱他""]","","","","","","","","yes","","","","","","","","","SRET","EW_formal","","key","f","16.977626168224024","683","380","朋友","勤恳","Positive","morality","","","","","","","","","","",""
"897","","f","psychophysics","85","311539","0.0-7.0-3.0-0.71","5","4","5","5","6","5","4","4","4","4","5","-2","-1","1","1","-1","0","1","0","5","5","4","4","5","4","4","5","4","4","6","5","3","6","4","5","5","4","6","5","3","6","5","4","2","5","3","3","2","1","5","3","6","3","3","6","4","4","5","4","2","5","6","5","3","6","5","5","6","5","5","6","4","5","6","5","5","6","3","5","790191134524710914","黄","6","Male","[""坏我"",""好我"",""好他"",""坏他""]","[""弱我"",""强我"",""强他"",""弱他""]","","","","","","","","yes","","","","","","","","","SRET","EW_formal","","key","f","16.665256637168135","683","380","朋友","能干","Positive","ability","","","","","","","","","","",""
"718","","f","psychophysics","86","313264","0.0-7.0-3.0-0.72","5","4","5","5","6","5","4","4","4","4","5","-2","-1","1","1","-1","0","1","0","5","5","4","4","5","4","4","5","4","4","6","5","3","6","4","5","5","4","6","5","3","6","5","4","2","5","3","3","2","1","5","3","6","3","3","6","4","4","5","4","2","5","6","5","3","6","5","5","6","5","5","6","4","5","6","5","5","6","3","5","790191134524710914","黄","6","Male","[""坏我"",""好我"",""好他"",""坏他""]","[""弱我"",""强我"",""强他"",""弱他""]","","","","","","","","yes","","","","","","","","","SRET","EW_formal","","key","f","16.66599019607826","683","380","朋友","智慧","Positive","ability","","","","","","","","","","",""
"1118","","f","psychophysics","87","315392","0.0-7.0-3.0-0.73","5","4","5","5","6","5","4","4","4","4","5","-2","-1","1","1","-1","0","1","0","5","5","4","4","5","4","4","5","4","4","6","5","3","6","4","5","5","4","6","5","3","6","5","4","2","5","3","3","2","1","5","3","6","3","3","6","4","4","5","4","2","5","6","5","3","6","5","5","6","5","5","6","4","5","6","5","5","6","3","5","790191134524710914","黄","6","Male","[""坏我"",""好我"",""好他"",""坏他""]","[""弱我"",""强我"",""强他"",""弱他""]","","","","","","","","yes","","","","","","","","","SRET","EW_formal","","key","f","16.79796825396821","683","380","自己","才尽","Negative","ability","","","","","","","","","","",""
"744","","f","psychophysics","88","317139","0.0-7.0-3.0-0.74","5","4","5","5","6","5","4","4","4","4","5","-2","-1","1","1","-1","0","1","0","5","5","4","4","5","4","4","5","4","4","6","5","3","6","4","5","5","4","6","5","3","6","5","4","2","5","3","3","2","1","5","3","6","3","3","6","4","4","5","4","2","5","6","5","3","6","5","5","6","5","5","6","4","5","6","5","5","6","3","5","790191134524710914","黄","6","Male","[""坏我"",""好我"",""好他"",""坏他""]","[""弱我"",""强我"",""强他"",""弱他""]","","","","","","","","yes","","","","","","","","","SRET","EW_formal","","key","f","16.666269230769384","683","380","自己","马虎","Negative","ability","","","","","","","","","","",""
"840","","f","psychophysics","89","318987","0.0-7.0-3.0-0.75","5","4","5","5","6","5","4","4","4","4","5","-2","-1","1","1","-1","0","1","0","5","5","4","4","5","4","4","5","4","4","6","5","3","6","4","5","5","4","6","5","3","6","5","4","2","5","3","3","2","1","5","3","6","3","3","6","4","4","5","4","2","5","6","5","3","6","5","5","6","5","5","6","4","5","6","5","5","6","3","5","790191134524710914","黄","6","Male","[""坏我"",""好我"",""好他"",""坏他""]","[""弱我"",""强我"",""强他"",""弱他""]","","","","","","","","yes","","","","","","","","","SRET","EW_formal","","key","f","16.664293577981613","683","380","自己","毛糙","Negative","ability","","","","","","","","","","",""
"1069","","f","psychophysics","90","321065","0.0-7.0-3.0-0.76","5","4","5","5","6","5","4","4","4","4","5","-2","-1","1","1","-1","0","1","0","5","5","4","4","5","4","4","5","4","4","6","5","3","6","4","5","5","4","6","5","3","6","5","4","2","5","3","3","2","1","5","3","6","3","3","6","4","4","5","4","2","5","6","5","3","6","5","5","6","5","5","6","4","5","6","5","5","6","3","5","790191134524710914","黄","6","Male","[""坏我"",""好我"",""好他"",""坏他""]","[""弱我"",""强我"",""强他"",""弱他""]","","","","","","","","yes","","","","","","","","","SRET","EW_formal","","key","f","16.665056451612937","683","380","朋友","奉献","Positive","morality","","","","","","","","","","",""
"805","","f","psychophysics","91","322922","0.0-7.0-3.0-0.77","5","4","5","5","6","5","4","4","4","4","5","-2","-1","1","1","-1","0","1","0","5","5","4","4","5","4","4","5","4","4","6","5","3","6","4","5","5","4","6","5","3","6","5","4","2","5","3","3","2","1","5","3","6","3","3","6","4","4","5","4","2","5","6","5","3","6","5","5","6","5","5","6","4","5","6","5","5","6","3","5","790191134524710914","黄","6","Male","[""坏我"",""好我"",""好他"",""坏他""]","[""弱我"",""强我"",""强他"",""弱他""]","","","","","","","","yes","","","","","","","","","SRET","EW_formal","","key","f","16.972541284403516","683","380","朋友","慈悲","Positive","morality","","","","","","","","","","",""
"733","","j","psychophysics","92","324665","0.0-7.0-3.0-0.78","5","4","5","5","6","5","4","4","4","4","5","-2","-1","1","1","-1","0","1","0","5","5","4","4","5","4","4","5","4","4","6","5","3","6","4","5","5","4","6","5","3","6","5","4","2","5","3","3","2","1","5","3","6","3","3","6","4","4","5","4","2","5","6","5","3","6","5","5","6","5","5","6","4","5","6","5","5","6","3","5","790191134524710914","黄","6","Male","[""坏我"",""好我"",""好他"",""坏他""]","[""弱我"",""强我"",""强他"",""弱他""]","","","","","","","","no","","","","","","","","","SRET","EW_formal","","key","j","16.665757281553155","683","380","自己","低劣","Negative","morality","","","","","","","","","","",""
"1089","","f","psychophysics","93","326761","0.0-7.0-3.0-0.79","5","4","5","5","6","5","4","4","4","4","5","-2","-1","1","1","-1","0","1","0","5","5","4","4","5","4","4","5","4","4","6","5","3","6","4","5","5","4","6","5","3","6","5","4","2","5","3","3","2","1","5","3","6","3","3","6","4","4","5","4","2","5","6","5","3","6","5","5","6","5","5","6","4","5","6","5","5","6","3","5","790191134524710914","黄","6","Male","[""坏我"",""好我"",""好他"",""坏他""]","[""弱我"",""强我"",""强他"",""弱他""]","","","","","","","","yes","","","","","","","","","SRET","EW_formal","","key","f","16.800822580644894","683","380","自己","伪善","Negative","morality","","","","","","","","","","",""
"992","","f","psychophysics","94","328756","0.0-7.0-3.0-0.80","5","4","5","5","6","5","4","4","4","4","5","-2","-1","1","1","-1","0","1","0","5","5","4","4","5","4","4","5","4","4","6","5","3","6","4","5","5","4","6","5","3","6","5","4","2","5","3","3","2","1","5","3","6","3","3","6","4","4","5","4","2","5","6","5","3","6","5","5","6","5","5","6","4","5","6","5","5","6","3","5","790191134524710914","黄","6","Male","[""坏我"",""好我"",""好他"",""坏他""]","[""弱我"",""强我"",""强他"",""弱他""]","","","","","","","","yes","","","","","","","","","SRET","EW_formal","","key","f","16.80729661016948","683","380","朋友","诚信","Positive","morality","","","","","","","","","","",""
"1510","","j","psychophysics","95","331273","0.0-7.0-3.0-0.81","5","4","5","5","6","5","4","4","4","4","5","-2","-1","1","1","-1","0","1","0","5","5","4","4","5","4","4","5","4","4","6","5","3","6","4","5","5","4","6","5","3","6","5","4","2","5","3","3","2","1","5","3","6","3","3","6","4","4","5","4","2","5","6","5","3","6","5","5","6","5","5","6","4","5","6","5","5","6","3","5","790191134524710914","黄","6","Male","[""坏我"",""好我"",""好他"",""坏他""]","[""弱我"",""强我"",""强他"",""弱他""]","","","","","","","","no","","","","","","","","","SRET","EW_formal","","key","j","16.66604666666671","683","380","朋友","无为","Negative","ability","","","","","","","","","","",""
"1069","","j","psychophysics","96","333345","0.0-7.0-3.0-0.82","5","4","5","5","6","5","4","4","4","4","5","-2","-1","1","1","-1","0","1","0","5","5","4","4","5","4","4","5","4","4","6","5","3","6","4","5","5","4","6","5","3","6","5","4","2","5","3","3","2","1","5","3","6","3","3","6","4","4","5","4","2","5","6","5","3","6","5","5","6","5","5","6","4","5","6","5","5","6","3","5","790191134524710914","黄","6","Male","[""坏我"",""好我"",""好他"",""坏他""]","[""弱我"",""强我"",""强他"",""弱他""]","","","","","","","","no","","","","","","","","","SRET","EW_formal","","key","j","16.664918699186785","683","380","朋友","草率","Negative","ability","","","","","","","","","","",""
"829","","f","psychophysics","97","335177","0.0-7.0-3.0-0.83","5","4","5","5","6","5","4","4","4","4","5","-2","-1","1","1","-1","0","1","0","5","5","4","4","5","4","4","5","4","4","6","5","3","6","4","5","5","4","6","5","3","6","5","4","2","5","3","3","2","1","5","3","6","3","3","6","4","4","5","4","2","5","6","5","3","6","5","5","6","5","5","6","4","5","6","5","5","6","3","5","790191134524710914","黄","6","Male","[""坏我"",""好我"",""好他"",""坏他""]","[""弱我"",""强我"",""强他"",""弱他""]","","","","","","","","yes","","","","","","","","","SRET","EW_formal","","key","f","16.666128440366506","683","380","自己","坚持","Positive","ability","","","","","","","","","","",""
"965","","j","psychophysics","98","337145","0.0-7.0-3.0-0.84","5","4","5","5","6","5","4","4","4","4","5","-2","-1","1","1","-1","0","1","0","5","5","4","4","5","4","4","5","4","4","6","5","3","6","4","5","5","4","6","5","3","6","5","4","2","5","3","3","2","1","5","3","6","3","3","6","4","4","5","4","2","5","6","5","3","6","5","5","6","5","5","6","4","5","6","5","5","6","3","5","790191134524710914","黄","6","Male","[""坏我"",""好我"",""好他"",""坏他""]","[""弱我"",""强我"",""强他"",""弱他""]","","","","","","","","no","","","","","","","","","SRET","EW_formal","","key","j","16.665743589743528","683","380","自己","主见","Positive","ability","","","","","","","","","","",""
"774","","f","psychophysics","99","338922","0.0-7.0-3.0-0.85","5","4","5","5","6","5","4","4","4","4","5","-2","-1","1","1","-1","0","1","0","5","5","4","4","5","4","4","5","4","4","6","5","3","6","4","5","5","4","6","5","3","6","5","4","2","5","3","3","2","1","5","3","6","3","3","6","4","4","5","4","2","5","6","5","3","6","5","5","6","5","5","6","4","5","6","5","5","6","3","5","790191134524710914","黄","6","Male","[""坏我"",""好我"",""好他"",""坏他""]","[""弱我"",""强我"",""强他"",""弱他""]","","","","","","","","yes","","","","","","","","","SRET","EW_formal","","key","f","16.665481132075172","683","380","自己","缓慢","Negative","ability","","","","","","","","","","",""
"856","","f","psychophysics","100","340787","0.0-7.0-3.0-0.86","5","4","5","5","6","5","4","4","4","4","5","-2","-1","1","1","-1","0","1","0","5","5","4","4","5","4","4","5","4","4","6","5","3","6","4","5","5","4","6","5","3","6","5","4","2","5","3","3","2","1","5","3","6","3","3","6","4","4","5","4","2","5","6","5","3","6","5","5","6","5","5","6","4","5","6","5","5","6","3","5","790191134524710914","黄","6","Male","[""坏我"",""好我"",""好他"",""坏他""]","[""弱我"",""强我"",""强他"",""弱他""]","","","","","","","","yes","","","","","","","","","SRET","EW_formal","","key","f","16.665981981981975","683","380","朋友","素养","Positive","morality","","","","","","","","","","",""
"861","","j","psychophysics","101","342656","0.0-7.0-3.0-0.87","5","4","5","5","6","5","4","4","4","4","5","-2","-1","1","1","-1","0","1","0","5","5","4","4","5","4","4","5","4","4","6","5","3","6","4","5","5","4","6","5","3","6","5","4","2","5","3","3","2","1","5","3","6","3","3","6","4","4","5","4","2","5","6","5","3","6","5","5","6","5","5","6","4","5","6","5","5","6","3","5","790191134524710914","黄","6","Male","[""坏我"",""好我"",""好他"",""坏他""]","[""弱我"",""强我"",""强他"",""弱他""]","","","","","","","","no","","","","","","","","","SRET","EW_formal","","key","j","16.66591891891906","683","380","朋友","低俗","Negative","morality","","","","","","","","","","",""
"1865","
    <p><div style='color:white;font-size:35px; line-height:20px;'>计算任务</div></p><br>
    <p><div style='color:red;font-size:25px; line-height:20px;'>接下来，您将看到一些四则运算题，<b>请从键盘选择 0-9 进行反应。</b></div></p>
    <p><div style='color:red;font-size:25px; line-height:20px;'>请尽可能快地进行计算，计算的速度和正确率将影响报酬的发放。</div></p>
    <p><div class='footer' style='color:white;font-size:25px; line-height:20px;'>如果对本实验还有不清楚之处，请立即向实验员咨询。</p><p style='color:white;font-size:25px; line-height:20px;'>如果您明白了规则：</p><p style='color:white;font-size:22px; line-height:20px;'>请按 继续 进入练习</p>
    </div>
    ","0","html-button-response","102","344523","0.0-7.0-4.0","5","4","5","5","6","5","4","4","4","4","5","-2","-1","1","1","-1","0","1","0","5","5","4","4","5","4","4","5","4","4","6","5","3","6","4","5","5","4","6","5","3","6","5","4","2","5","3","3","2","1","5","3","6","3","3","6","4","4","5","4","2","5","6","5","3","6","5","5","6","5","5","6","4","5","6","5","5","6","3","5","790191134524710914","黄","6","Male","[""坏我"",""好我"",""好他"",""坏他""]","[""弱我"",""强我"",""强他"",""弱他""]","","","","","","","","","","","","","","","","","SRET_math","math_instructions","Tue Jan 30 2024 15:20:00 GMT+0800 (中国标准时间)","","","","","","","","","","","","","","","","","","","",""
"2039","","5","psychophysics","103","346570","0.0-7.0-5.0-0.0","5","4","5","5","6","5","4","4","4","4","5","-2","-1","1","1","-1","0","1","0","5","5","4","4","5","4","4","5","4","4","6","5","3","6","4","5","5","4","6","5","3","6","5","4","2","5","3","3","2","1","5","3","6","3","3","6","4","4","5","4","2","5","6","5","3","6","5","5","6","5","5","6","4","5","6","5","5","6","3","5","790191134524710914","黄","6","Male","[""坏我"",""好我"",""好他"",""坏他""]","[""弱我"",""强我"",""强他"",""弱他""]","","","","","","","","5","","","","","","","","","SRET","SRET_math_calculate","","key","5","16.665439024390615","683","380","","","","","9-4= ?","5","1","","","","","","","",""
"1864","","3","psychophysics","104","348437","0.0-7.0-5.0-0.1","5","4","5","5","6","5","4","4","4","4","5","-2","-1","1","1","-1","0","1","0","5","5","4","4","5","4","4","5","4","4","6","5","3","6","4","5","5","4","6","5","3","6","5","4","2","5","3","3","2","1","5","3","6","3","3","6","4","4","5","4","2","5","6","5","3","6","5","5","6","5","5","6","4","5","6","5","5","6","3","5","790191134524710914","黄","6","Male","[""坏我"",""好我"",""好他"",""坏他""]","[""弱我"",""强我"",""强他"",""弱他""]","","","","","","","","3","","","","","","","","","SRET","SRET_math_calculate","","key","3","16.665576576576715","683","380","","","","","8-5= ?","3","1","","","","","","","",""
"1842","","8","psychophysics","105","350281","0.0-7.0-5.0-0.2","5","4","5","5","6","5","4","4","4","4","5","-2","-1","1","1","-1","0","1","0","5","5","4","4","5","4","4","5","4","4","6","5","3","6","4","5","5","4","6","5","3","6","5","4","2","5","3","3","2","1","5","3","6","3","3","6","4","4","5","4","2","5","6","5","3","6","5","5","6","5","5","6","4","5","6","5","5","6","3","5","790191134524710914","黄","6","Male","[""坏我"",""好我"",""好他"",""坏他""]","[""弱我"",""强我"",""强他"",""弱他""]","","","","","","","","8","","","","","","","","","SRET","SRET_math_calculate","","key","8","16.66572477064232","683","380","","","","","1+7= ?","8","1","","","","","","","",""
"1707","","5","psychophysics","106","352025","0.0-7.0-5.0-0.3","5","4","5","5","6","5","4","4","4","4","5","-2","-1","1","1","-1","0","1","0","5","5","4","4","5","4","4","5","4","4","6","5","3","6","4","5","5","4","6","5","3","6","5","4","2","5","3","3","2","1","5","3","6","3","3","6","4","4","5","4","2","5","6","5","3","6","5","5","6","5","5","6","4","5","6","5","5","6","3","5","790191134524710914","黄","6","Male","[""坏我"",""好我"",""好他"",""坏他""]","[""弱我"",""强我"",""强他"",""弱他""]","","","","","","","","5","","","","","","","","","SRET","SRET_math_calculate","","key","5","16.82794174757273","683","380","","","","","14-9= ?","5","1","","","","","","","",""
"1808","","3","psychophysics","107","353836","0.0-7.0-5.0-0.4","5","4","5","5","6","5","4","4","4","4","5","-2","-1","1","1","-1","0","1","0","5","5","4","4","5","4","4","5","4","4","6","5","3","6","4","5","5","4","6","5","3","6","5","4","2","5","3","3","2","1","5","3","6","3","3","6","4","4","5","4","2","5","6","5","3","6","5","5","6","5","5","6","4","5","6","5","5","6","3","5","790191134524710914","黄","6","Male","[""坏我"",""好我"",""好他"",""坏他""]","[""弱我"",""强我"",""强他"",""弱他""]","","","","","","","","3","","","","","","","","","SRET","SRET_math_calculate","","key","3","16.665787037036758","683","380","","","","","2+1= ?","3","1","","","","","","","",""
"1896","","3","psychophysics","108","355738","0.0-7.0-5.0-0.5","5","4","5","5","6","5","4","4","4","4","5","-2","-1","1","1","-1","0","1","0","5","5","4","4","5","4","4","5","4","4","6","5","3","6","4","5","5","4","6","5","3","6","5","4","2","5","3","3","2","1","5","3","6","3","3","6","4","4","5","4","2","5","6","5","3","6","5","5","6","5","5","6","4","5","6","5","5","6","3","5","790191134524710914","黄","6","Male","[""坏我"",""好我"",""好他"",""坏他""]","[""弱我"",""强我"",""强他"",""弱他""]","","","","","","","","3","","","","","","","","","SRET","SRET_math_calculate","","key","3","16.665699115044138","683","380","","","","","6/2= ?","3","1","","","","","","","",""
"1820","","1","psychophysics","109","357561","0.0-7.0-5.0-0.6","5","4","5","5","6","5","4","4","4","4","5","-2","-1","1","1","-1","0","1","0","5","5","4","4","5","4","4","5","4","4","6","5","3","6","4","5","5","4","6","5","3","6","5","4","2","5","3","3","2","1","5","3","6","3","3","6","4","4","5","4","2","5","6","5","3","6","5","5","6","5","5","6","4","5","6","5","5","6","3","5","790191134524710914","黄","6","Male","[""坏我"",""好我"",""好他"",""坏他""]","[""弱我"",""强我"",""强他"",""弱他""]","","","","","","","","1","","","","","","","","","SRET","SRET_math_calculate","","key","1","16.666425925926347","683","380","","","","","30-29= ?","1","1","","","","","","","",""
"1819","","9","psychophysics","110","359425","0.0-7.0-5.0-0.7","5","4","5","5","6","5","4","4","4","4","5","-2","-1","1","1","-1","0","1","0","5","5","4","4","5","4","4","5","4","4","6","5","3","6","4","5","5","4","6","5","3","6","5","4","2","5","3","3","2","1","5","3","6","3","3","6","4","4","5","4","2","5","6","5","3","6","5","5","6","5","5","6","4","5","6","5","5","6","3","5","790191134524710914","黄","6","Male","[""坏我"",""好我"",""好他"",""坏他""]","[""弱我"",""强我"",""强他"",""弱他""]","","","","","","","","9","","","","","","","","","SRET","SRET_math_calculate","","key","9","16.817790909090863","683","380","","","","","3+6= ?","9","1","","","","","","","",""
"1876","","4","psychophysics","111","361305","0.0-7.0-5.0-0.8","5","4","5","5","6","5","4","4","4","4","5","-2","-1","1","1","-1","0","1","0","5","5","4","4","5","4","4","5","4","4","6","5","3","6","4","5","5","4","6","5","3","6","5","4","2","5","3","3","2","1","5","3","6","3","3","6","4","4","5","4","2","5","6","5","3","6","5","5","6","5","5","6","4","5","6","5","5","6","3","5","790191134524710914","黄","6","Male","[""坏我"",""好我"",""好他"",""坏他""]","[""弱我"",""强我"",""强他"",""弱他""]","","","","","","","","4","","","","","","","","","SRET","SRET_math_calculate","","key","4","16.817909909909915","683","380","","","","","2+2= ?","4","1","","","","","","","",""
"1805","","0","psychophysics","112","363113","0.0-7.0-5.0-0.9","5","4","5","5","6","5","4","4","4","4","5","-2","-1","1","1","-1","0","1","0","5","5","4","4","5","4","4","5","4","4","6","5","3","6","4","5","5","4","6","5","3","6","5","4","2","5","3","3","2","1","5","3","6","3","3","6","4","4","5","4","2","5","6","5","3","6","5","5","6","5","5","6","4","5","6","5","5","6","3","5","790191134524710914","黄","6","Male","[""坏我"",""好我"",""好他"",""坏他""]","[""弱我"",""强我"",""强他"",""弱他""]","","","","","","","","0","","","","","","","","","SRET","SRET_math_calculate","","key","0","16.819471698113222","683","380","","","","","12-12= ?","0","1","","","","","","","",""
"1796","","8","psychophysics","113","364954","0.0-7.0-5.0-0.10","5","4","5","5","6","5","4","4","4","4","5","-2","-1","1","1","-1","0","1","0","5","5","4","4","5","4","4","5","4","4","6","5","3","6","4","5","5","4","6","5","3","6","5","4","2","5","3","3","2","1","5","3","6","3","3","6","4","4","5","4","2","5","6","5","3","6","5","5","6","5","5","6","4","5","6","5","5","6","3","5","790191134524710914","黄","6","Male","[""坏我"",""好我"",""好他"",""坏他""]","[""弱我"",""强我"",""强他"",""弱他""]","","","","","","","","8","","","","","","","","","SRET","SRET_math_calculate","","key","8","16.819000000000074","683","380","","","","","7+1= ?","8","1","","","","","","","",""
"1938","","8","psychophysics","114","366896","0.0-7.0-5.0-0.11","5","4","5","5","6","5","4","4","4","4","5","-2","-1","1","1","-1","0","1","0","5","5","4","4","5","4","4","5","4","4","6","5","3","6","4","5","5","4","6","5","3","6","5","4","2","5","3","3","2","1","5","3","6","3","3","6","4","4","5","4","2","5","6","5","3","6","5","5","6","5","5","6","4","5","6","5","5","6","3","5","790191134524710914","黄","6","Male","[""坏我"",""好我"",""好他"",""坏他""]","[""弱我"",""强我"",""强他"",""弱他""]","","","","","","","","8","","","","","","","","","SRET","SRET_math_calculate","","key","8","16.666139130434527","683","380","","","","","6+2= ?","8","1","","","","","","","",""
"1824","","6","psychophysics","115","368728","0.0-7.0-5.0-0.12","5","4","5","5","6","5","4","4","4","4","5","-2","-1","1","1","-1","0","1","0","5","5","4","4","5","4","4","5","4","4","6","5","3","6","4","5","5","4","6","5","3","6","5","4","2","5","3","3","2","1","5","3","6","3","3","6","4","4","5","4","2","5","6","5","3","6","5","5","6","5","5","6","4","5","6","5","5","6","3","5","790191134524710914","黄","6","Male","[""坏我"",""好我"",""好他"",""坏他""]","[""弱我"",""强我"",""强他"",""弱他""]","","","","","","","","6","","","","","","","","","SRET","SRET_math_calculate","","key","6","16.66533027522943","683","380","","","","","3*2= ?","6","1","","","","","","","",""
"1766","","4","psychophysics","116","370497","0.0-7.0-5.0-0.13","5","4","5","5","6","5","4","4","4","4","5","-2","-1","1","1","-1","0","1","0","5","5","4","4","5","4","4","5","4","4","6","5","3","6","4","5","5","4","6","5","3","6","5","4","2","5","3","3","2","1","5","3","6","3","3","6","4","4","5","4","2","5","6","5","3","6","5","5","6","5","5","6","4","5","6","5","5","6","3","5","790191134524710914","黄","6","Male","[""坏我"",""好我"",""好他"",""坏他""]","[""弱我"",""强我"",""强他"",""弱他""]","","","","","","","","4","","","","","","","","","SRET","SRET_math_calculate","","key","4","16.665638095238023","683","380","","","","","3+1= ?","4","1","","","","","","","",""
"1833","","0","psychophysics","117","372338","0.0-7.0-5.0-0.14","5","4","5","5","6","5","4","4","4","4","5","-2","-1","1","1","-1","0","1","0","5","5","4","4","5","4","4","5","4","4","6","5","3","6","4","5","5","4","6","5","3","6","5","4","2","5","3","3","2","1","5","3","6","3","3","6","4","4","5","4","2","5","6","5","3","6","5","5","6","5","5","6","4","5","6","5","5","6","3","5","790191134524710914","黄","6","Male","[""坏我"",""好我"",""好他"",""坏他""]","[""弱我"",""强我"",""强他"",""弱他""]","","","","","","","","0","","","","","","","","","SRET","SRET_math_calculate","","key","0","16.66459090909074","683","380","","","","","32-32= ?","0","1","","","","","","","",""
"1694","","5","psychophysics","118","374036","0.0-7.0-5.0-0.15","5","4","5","5","6","5","4","4","4","4","5","-2","-1","1","1","-1","0","1","0","5","5","4","4","5","4","4","5","4","4","6","5","3","6","4","5","5","4","6","5","3","6","5","4","2","5","3","3","2","1","5","3","6","3","3","6","4","4","5","4","2","5","6","5","3","6","5","5","6","5","5","6","4","5","6","5","5","6","3","5","790191134524710914","黄","6","Male","[""坏我"",""好我"",""好他"",""坏他""]","[""弱我"",""强我"",""强他"",""弱他""]","","","","","","","","5","","","","","","","","","SRET","SRET_math_calculate","","key","5","16.832139999999782","683","380","","","","","17-12= ? ","5","1","","","","","","","",""
"1907","","7","psychophysics","119","375944","0.0-7.0-5.0-0.16","5","4","5","5","6","5","4","4","4","4","5","-2","-1","1","1","-1","0","1","0","5","5","4","4","5","4","4","5","4","4","6","5","3","6","4","5","5","4","6","5","3","6","5","4","2","5","3","3","2","1","5","3","6","3","3","6","4","4","5","4","2","5","6","5","3","6","5","5","6","5","5","6","4","5","6","5","5","6","3","5","790191134524710914","黄","6","Male","[""坏我"",""好我"",""好他"",""坏他""]","[""弱我"",""强我"",""强他"",""弱他""]","","","","","","","","7","","","","","","","","","SRET","SRET_math_calculate","","key","7","16.666230088495443","683","380","","","","","21/3= ? ","7","1","","","","","","","",""
"1727","","8","psychophysics","120","377673","0.0-7.0-5.0-0.17","5","4","5","5","6","5","4","4","4","4","5","-2","-1","1","1","-1","0","1","0","5","5","4","4","5","4","4","5","4","4","6","5","3","6","4","5","5","4","6","5","3","6","5","4","2","5","3","3","2","1","5","3","6","3","3","6","4","4","5","4","2","5","6","5","3","6","5","5","6","5","5","6","4","5","6","5","5","6","3","5","790191134524710914","黄","6","Male","[""坏我"",""好我"",""好他"",""坏他""]","[""弱我"",""强我"",""强他"",""弱他""]","","","","","","","","8","","","","","","","","","SRET","SRET_math_calculate","","key","8","16.665902912621817","683","380","","","","","9-1= ?","8","1","","","","","","","",""
"1910","","9","psychophysics","121","379587","0.0-7.0-5.0-0.18","5","4","5","5","6","5","4","4","4","4","5","-2","-1","1","1","-1","0","1","0","5","5","4","4","5","4","4","5","4","4","6","5","3","6","4","5","5","4","6","5","3","6","5","4","2","5","3","3","2","1","5","3","6","3","3","6","4","4","5","4","2","5","6","5","3","6","5","5","6","5","5","6","4","5","6","5","5","6","3","5","790191134524710914","黄","6","Male","[""坏我"",""好我"",""好他"",""坏他""]","[""弱我"",""强我"",""强他"",""弱他""]","","","","","","","","9","","","","","","","","","SRET","SRET_math_calculate","","key","9","16.665999999999993","683","380","","","","","32-23= ?","9","1","","","","","","","",""
"1813","","6","psychophysics","122","381403","0.0-7.0-5.0-0.19","5","4","5","5","6","5","4","4","4","4","5","-2","-1","1","1","-1","0","1","0","5","5","4","4","5","4","4","5","4","4","6","5","3","6","4","5","5","4","6","5","3","6","5","4","2","5","3","3","2","1","5","3","6","3","3","6","4","4","5","4","2","5","6","5","3","6","5","5","6","5","5","6","4","5","6","5","5","6","3","5","790191134524710914","黄","6","Male","[""坏我"",""好我"",""好他"",""坏他""]","[""弱我"",""强我"",""强他"",""弱他""]","","","","","","","","6","","","","","","","","","SRET","SRET_math_calculate","","key","6","16.666490740741008","683","380","","","","","3+3= ?","6","1","","","","","","","",""
"1980","","6","psychophysics","123","383387","0.0-7.0-5.0-0.20","5","4","5","5","6","5","4","4","4","4","5","-2","-1","1","1","-1","0","1","0","5","5","4","4","5","4","4","5","4","4","6","5","3","6","4","5","5","4","6","5","3","6","5","4","2","5","3","3","2","1","5","3","6","3","3","6","4","4","5","4","2","5","6","5","3","6","5","5","6","5","5","6","4","5","6","5","5","6","3","5","790191134524710914","黄","6","Male","[""坏我"",""好我"",""好他"",""坏他""]","[""弱我"",""强我"",""强他"",""弱他""]","","","","","","","","6","","","","","","","","","SRET","SRET_math_calculate","","key","6","16.664432203389755","683","380","","","","","4+2= ?","6","1","","","","","","","",""
"1829","","0","psychophysics","124","385219","0.0-7.0-5.0-0.21","5","4","5","5","6","5","4","4","4","4","5","-2","-1","1","1","-1","0","1","0","5","5","4","4","5","4","4","5","4","4","6","5","3","6","4","5","5","4","6","5","3","6","5","4","2","5","3","3","2","1","5","3","6","3","3","6","4","4","5","4","2","5","6","5","3","6","5","5","6","5","5","6","4","5","6","5","5","6","3","5","790191134524710914","黄","6","Male","[""坏我"",""好我"",""好他"",""坏他""]","[""弱我"",""强我"",""强他"",""弱他""]","","","","","","","","0","","","","","","","","","SRET","SRET_math_calculate","","key","0","16.665770642202","683","380","","","","","5*0= ?","0","1","","","","","","","",""
"2450","","3","psychophysics","125","387673","0.0-7.0-5.0-0.22","5","4","5","5","6","5","4","4","4","4","5","-2","-1","1","1","-1","0","1","0","5","5","4","4","5","4","4","5","4","4","6","5","3","6","4","5","5","4","6","5","3","6","5","4","2","5","3","3","2","1","5","3","6","3","3","6","4","4","5","4","2","5","6","5","3","6","5","5","6","5","5","6","4","5","6","5","5","6","3","5","790191134524710914","黄","6","Male","[""坏我"",""好我"",""好他"",""坏他""]","[""弱我"",""强我"",""强他"",""弱他""]","","","","","","","","3","","","","","","","","","SRET","SRET_math_calculate","","key","3","16.665650684931492","683","380","","","","","9/3= ?","3","1","","","","","","","",""
"1831","","0","psychophysics","126","389505","0.0-7.0-5.0-0.23","5","4","5","5","6","5","4","4","4","4","5","-2","-1","1","1","-1","0","1","0","5","5","4","4","5","4","4","5","4","4","6","5","3","6","4","5","5","4","6","5","3","6","5","4","2","5","3","3","2","1","5","3","6","3","3","6","4","4","5","4","2","5","6","5","3","6","5","5","6","5","5","6","4","5","6","5","5","6","3","5","790191134524710914","黄","6","Male","[""坏我"",""好我"",""好他"",""坏他""]","[""弱我"",""强我"",""强他"",""弱他""]","","","","","","","","0","","","","","","","","","SRET","SRET_math_calculate","","key","0","16.819499999999945","683","380","","","","","22-22= ?","0","1","","","","","","","",""
"1916","","0","psychophysics","127","391425","0.0-7.0-5.0-0.24","5","4","5","5","6","5","4","4","4","4","5","-2","-1","1","1","-1","0","1","0","5","5","4","4","5","4","4","5","4","4","6","5","3","6","4","5","5","4","6","5","3","6","5","4","2","5","3","3","2","1","5","3","6","3","3","6","4","4","5","4","2","5","6","5","3","6","5","5","6","5","5","6","4","5","6","5","5","6","3","5","790191134524710914","黄","6","Male","[""坏我"",""好我"",""好他"",""坏他""]","[""弱我"",""强我"",""强他"",""弱他""]","","","","","","","","0","","","","","","","","","SRET","SRET_math_calculate","","key","0","16.665333333333827","683","380","","","","","9-9= ?","0","1","","","","","","","",""
"1951","","9","psychophysics","128","393377","0.0-7.0-5.0-0.25","5","4","5","5","6","5","4","4","4","4","5","-2","-1","1","1","-1","0","1","0","5","5","4","4","5","4","4","5","4","4","6","5","3","6","4","5","5","4","6","5","3","6","5","4","2","5","3","3","2","1","5","3","6","3","3","6","4","4","5","4","2","5","6","5","3","6","5","5","6","5","5","6","4","5","6","5","5","6","3","5","790191134524710914","黄","6","Male","[""坏我"",""好我"",""好他"",""坏他""]","[""弱我"",""强我"",""强他"",""弱他""]","","","","","","","","9","","","","","","","","","SRET","SRET_math_calculate","","key","9","16.666353448276038","683","380","","","","","1*9= ?","9","1","","","","","","","",""
"1919","","1","psychophysics","129","395301","0.0-7.0-5.0-0.26","5","4","5","5","6","5","4","4","4","4","5","-2","-1","1","1","-1","0","1","0","5","5","4","4","5","4","4","5","4","4","6","5","3","6","4","5","5","4","6","5","3","6","5","4","2","5","3","3","2","1","5","3","6","3","3","6","4","4","5","4","2","5","6","5","3","6","5","5","6","5","5","6","4","5","6","5","5","6","3","5","790191134524710914","黄","6","Male","[""坏我"",""好我"",""好他"",""坏他""]","[""弱我"",""强我"",""强他"",""弱他""]","","","","","","","","1","","","","","","","","","SRET","SRET_math_calculate","","key","1","16.81190350877168","683","380","","","","","4/4= ?","1","1","","","","","","","",""
"1799","","9","psychophysics","130","397105","0.0-7.0-5.0-0.27","5","4","5","5","6","5","4","4","4","4","5","-2","-1","1","1","-1","0","1","0","5","5","4","4","5","4","4","5","4","4","6","5","3","6","4","5","5","4","6","5","3","6","5","4","2","5","3","3","2","1","5","3","6","3","3","6","4","4","5","4","2","5","6","5","3","6","5","5","6","5","5","6","4","5","6","5","5","6","3","5","790191134524710914","黄","6","Male","[""坏我"",""好我"",""好他"",""坏他""]","[""弱我"",""强我"",""强他"",""弱他""]","","","","","","","","9","","","","","","","","","SRET","SRET_math_calculate","","key","9","16.665570093458083","683","380","","","","","8+1= ?","9","1","","","","","","","",""
"1870","","9","psychophysics","131","398977","0.0-7.0-5.0-0.28","5","4","5","5","6","5","4","4","4","4","5","-2","-1","1","1","-1","0","1","0","5","5","4","4","5","4","4","5","4","4","6","5","3","6","4","5","5","4","6","5","3","6","5","4","2","5","3","3","2","1","5","3","6","3","3","6","4","4","5","4","2","5","6","5","3","6","5","5","6","5","5","6","4","5","6","5","5","6","3","5","790191134524710914","黄","6","Male","[""坏我"",""好我"",""好他"",""坏他""]","[""弱我"",""强我"",""强他"",""弱他""]","","","","","","","","9","","","","","","","","","SRET","SRET_math_calculate","","key","9","16.666063063062712","683","380","","","","","3*3= ?","9","1","","","","","","","",""
"1966","","3","psychophysics","132","400952","0.0-7.0-5.0-0.29","5","4","5","5","6","5","4","4","4","4","5","-2","-1","1","1","-1","0","1","0","5","5","4","4","5","4","4","5","4","4","6","5","3","6","4","5","5","4","6","5","3","6","5","4","2","5","3","3","2","1","5","3","6","3","3","6","4","4","5","4","2","5","6","5","3","6","5","5","6","5","5","6","4","5","6","5","5","6","3","5","790191134524710914","黄","6","Male","[""坏我"",""好我"",""好他"",""坏他""]","[""弱我"",""强我"",""强他"",""弱他""]","","","","","","","","3","","","","","","","","","SRET","SRET_math_calculate","","key","3","16.665491525423654","683","380","","","","","3*1= ?","3","1","","","","","","","",""
"1823","","0","psychophysics","133","402776","0.0-7.0-5.0-0.30","5","4","5","5","6","5","4","4","4","4","5","-2","-1","1","1","-1","0","1","0","5","5","4","4","5","4","4","5","4","4","6","5","3","6","4","5","5","4","6","5","3","6","5","4","2","5","3","3","2","1","5","3","6","3","3","6","4","4","5","4","2","5","6","5","3","6","5","5","6","5","5","6","4","5","6","5","5","6","3","5","790191134524710914","黄","6","Male","[""坏我"",""好我"",""好他"",""坏他""]","[""弱我"",""强我"",""强他"",""弱他""]","","","","","","","","0","","","","","","","","","SRET","SRET_math_calculate","","key","0","16.66626851851847","683","380","","","","","6*0= ?","0","1","","","","","","","",""
"1942","","5","psychophysics","134","404720","0.0-7.0-5.0-0.31","5","4","5","5","6","5","4","4","4","4","5","-2","-1","1","1","-1","0","1","0","5","5","4","4","5","4","4","5","4","4","6","5","3","6","4","5","5","4","6","5","3","6","5","4","2","5","3","3","2","1","5","3","6","3","3","6","4","4","5","4","2","5","6","5","3","6","5","5","6","5","5","6","4","5","6","5","5","6","3","5","790191134524710914","黄","6","Male","[""坏我"",""好我"",""好他"",""坏他""]","[""弱我"",""强我"",""强他"",""弱他""]","","","","","","","","5","","","","","","","","","SRET","SRET_math_calculate","","key","5","16.665887931034124","683","380","","","","","15-10= ?","5","1","","","","","","","",""
"1903","","7","psychophysics","135","406625","0.0-7.0-5.0-0.32","5","4","5","5","6","5","4","4","4","4","5","-2","-1","1","1","-1","0","1","0","5","5","4","4","5","4","4","5","4","4","6","5","3","6","4","5","5","4","6","5","3","6","5","4","2","5","3","3","2","1","5","3","6","3","3","6","4","4","5","4","2","5","6","5","3","6","5","5","6","5","5","6","4","5","6","5","5","6","3","5","790191134524710914","黄","6","Male","[""坏我"",""好我"",""好他"",""坏他""]","[""弱我"",""强我"",""强他"",""弱他""]","","","","","","","","7","","","","","","","","","SRET","SRET_math_calculate","","key","7","16.665849557522463","683","380","","","","","11-4= ?","7","1","","","","","","","",""
"1798","","3","psychophysics","136","408425","0.0-7.0-5.0-0.33","5","4","5","5","6","5","4","4","4","4","5","-2","-1","1","1","-1","0","1","0","5","5","4","4","5","4","4","5","4","4","6","5","3","6","4","5","5","4","6","5","3","6","5","4","2","5","3","3","2","1","5","3","6","3","3","6","4","4","5","4","2","5","6","5","3","6","5","5","6","5","5","6","4","5","6","5","5","6","3","5","790191134524710914","黄","6","Male","[""坏我"",""好我"",""好他"",""坏他""]","[""弱我"",""强我"",""强他"",""弱他""]","","","","","","","","3","","","","","","","","","SRET","SRET_math_calculate","","key","3","16.665766355139855","683","380","","","","","1+2= ?","3","1","","","","","","","",""
"1910","","2","psychophysics","137","410337","0.0-7.0-5.0-0.34","5","4","5","5","6","5","4","4","4","4","5","-2","-1","1","1","-1","0","1","0","5","5","4","4","5","4","4","5","4","4","6","5","3","6","4","5","5","4","6","5","3","6","5","4","2","5","3","3","2","1","5","3","6","3","3","6","4","4","5","4","2","5","6","5","3","6","5","5","6","5","5","6","4","5","6","5","5","6","3","5","790191134524710914","黄","6","Male","[""坏我"",""好我"",""好他"",""坏他""]","[""弱我"",""强我"",""强他"",""弱他""]","","","","","","","","2","","","","","","","","","SRET","SRET_math_calculate","","key","2","16.665412280701403","683","380","","","","","22/11= ?","2","1","","","","","","","",""
"1870","","4","psychophysics","138","412209","0.0-7.0-5.0-0.35","5","4","5","5","6","5","4","4","4","4","5","-2","-1","1","1","-1","0","1","0","5","5","4","4","5","4","4","5","4","4","6","5","3","6","4","5","5","4","6","5","3","6","5","4","2","5","3","3","2","1","5","3","6","3","3","6","4","4","5","4","2","5","6","5","3","6","5","5","6","5","5","6","4","5","6","5","5","6","3","5","790191134524710914","黄","6","Male","[""坏我"",""好我"",""好他"",""坏他""]","[""弱我"",""强我"",""强他"",""弱他""]","","","","","","","","4","","","","","","","","","SRET","SRET_math_calculate","","key","4","16.816645454545505","683","380","","","","","20/5= ?","4","1","","","","","","","",""
"1860","","6","psychophysics","139","414072","0.0-7.0-5.0-0.36","5","4","5","5","6","5","4","4","4","4","5","-2","-1","1","1","-1","0","1","0","5","5","4","4","5","4","4","5","4","4","6","5","3","6","4","5","5","4","6","5","3","6","5","4","2","5","3","3","2","1","5","3","6","3","3","6","4","4","5","4","2","5","6","5","3","6","5","5","6","5","5","6","4","5","6","5","5","6","3","5","790191134524710914","黄","6","Male","[""坏我"",""好我"",""好他"",""坏他""]","[""弱我"",""强我"",""强他"",""弱他""]","","","","","","","","6","","","","","","","","","SRET","SRET_math_calculate","","key","6","16.665567567567802","683","380","","","","","2*3= ?","6","1","","","","","","","",""
"1879","","2","psychophysics","140","415952","0.0-7.0-5.0-0.37","5","4","5","5","6","5","4","4","4","4","5","-2","-1","1","1","-1","0","1","0","5","5","4","4","5","4","4","5","4","4","6","5","3","6","4","5","5","4","6","5","3","6","5","4","2","5","3","3","2","1","5","3","6","3","3","6","4","4","5","4","2","5","6","5","3","6","5","5","6","5","5","6","4","5","6","5","5","6","3","5","790191134524710914","黄","6","Male","[""坏我"",""好我"",""好他"",""坏他""]","[""弱我"",""强我"",""强他"",""弱他""]","","","","","","","","2","","","","","","","","","SRET","SRET_math_calculate","","key","2","16.666696428571804","683","380","","","","","90/45= ?","2","1","","","","","","","",""
"1815","","6","psychophysics","141","417769","0.0-7.0-5.0-0.38","5","4","5","5","6","5","4","4","4","4","5","-2","-1","1","1","-1","0","1","0","5","5","4","4","5","4","4","5","4","4","6","5","3","6","4","5","5","4","6","5","3","6","5","4","2","5","3","3","2","1","5","3","6","3","3","6","4","4","5","4","2","5","6","5","3","6","5","5","6","5","5","6","4","5","6","5","5","6","3","5","790191134524710914","黄","6","Male","[""坏我"",""好我"",""好他"",""坏他""]","[""弱我"",""强我"",""强他"",""弱他""]","","","","","","","","6","","","","","","","","","SRET","SRET_math_calculate","","key","6","16.666120370370294","683","380","","","","","2+4= ?","6","1","","","","","","","",""
"1943","","2","psychophysics","142","419715","0.0-7.0-5.0-0.39","5","4","5","5","6","5","4","4","4","4","5","-2","-1","1","1","-1","0","1","0","5","5","4","4","5","4","4","5","4","4","6","5","3","6","4","5","5","4","6","5","3","6","5","4","2","5","3","3","2","1","5","3","6","3","3","6","4","4","5","4","2","5","6","5","3","6","5","5","6","5","5","6","4","5","6","5","5","6","3","5","790191134524710914","黄","6","Male","[""坏我"",""好我"",""好他"",""坏他""]","[""弱我"",""强我"",""强他"",""弱他""]","","","","","","","","2","","","","","","","","","SRET","SRET_math_calculate","","key","2","16.665695652173852","683","380","","","","","8/4= ?","2","1","","","","","","","",""
