"rt","stimulus","response","trial_type","trial_index","time_elapsed","internal_node_id","swb_1","swb_2","swb_3","swb_4","swb_5","LOT_1","LOT_2","LOT_3","LOT_4","LOT_5","LOT_6","IPC_1","IPC_2","IPC_3","IPC_4","IPC_5","IPC_6","IPC_7","IPC_8","MorIden_1","MorIden_2","MorIden_3","MorIden_4","MorIden_5","MorIden_6","MorIden_7","MorIden_8","MorIden_9","MorIden_10","moralSeImag_1","moralSeImag_2","moralSeImag_3","moralSeImag_4","moralSeImag_5","moralSeImag_6","moralSeImag_7","moralSeImag_8","moralSeImag_9","sde_1","sde_2","sde_3","sde_4","sde_5","sde_6","sde_7","sde_8","sde_9","sde_10","trap2","sde_11","sde_12","sde_13","sde_14","sde_15","sde_16","sde_17","sde_18","sde_19","sde_20","IM_1","IM_2","IM_3","IM_4","IM_5","IM_6","IM_7","IM_8","IM_9","IM_10","IM_11","IM_12","IM_13","IM_14","IM_15","IM_16","IM_17","IM_18","IM_19","IM_20","subj_idx","friend_name","ParticipantID","Sex","Word","Word2","value","success","timeout","failed_images","failed_audio","failed_video","user_agent","responses","item_order","radio_event_ids","radio_event_times","key_event_times","mouse_event_times","straightlining","zigzagging","honeypot","view_history","response_type","key_press","avg_frame_time","center_x","center_y","correct_response","correct","identity","Image","word","condition","task_id","screen_id","time_stamp","person","valence","domain","math","status","duration","question_order","trap2_item"
"25635","
   <p><div style='color:white; font-size: 25px'>您好，欢迎参加本次实验。</div></p>
   <p><div style='color:white; font-size: 25px'>为充分保障您的权利，请确保您已经知晓并同意《参与实验同意书》以及《数据公开知情同意书》。</div></p>
   <p><div style='color:white; font-size: 25px'>如果您未见过上述内容，请咨询实验员。</div></p>
   <p style='color:white; font-size: 25px'>如果您选择继续实验，则表示您已经清楚两份知情同意书的内容并同意。</p>
   <p><div style = ""color: pink;font-size:30px;"">请确保您记得day0的实验编号，您将在本次实验输入该编号，若您忘记，请咨询实验员后作答。</div></p>
   <p><div style = ""color:lightblue;font-size:25px;"">请您尽可能认真地作答，我们将依据您在各问卷和按键任务中的作答质量发放报酬。</div></p>
   <p> <div style = ""color: green""><按空格键至下页></div> </p>
   "," ","html-keyboard-response","0","25636","0.0-0.0","6","5","7","6","6","5","4","5","5","5","5","1","0","1","0","2","0","1","2","5","5","5","5","5","4","5","5","5","4","3","4","2","7","2","8","6","5","6","7","3","2","7","7","5","6","1","7","3","1","7","6","6","3","5","5","6","3","3","7","3","3","3","2","3","7","3","6","6","7","7","3","6","1","7","5","6","6","5","4","769498068633784321","林","459","Female","[""好我"",""好她"",""坏她"",""坏我""]","[""强我"",""强她"",""弱她"",""弱我""]","","","","","","","","","","","","","","","","","","","","","","","","","","","","","","","","","","","","","","",""
"","","","call-function","1","25638","0.0-1.0-0.0","6","5","7","6","6","5","4","5","5","5","5","1","0","1","0","2","0","1","2","5","5","5","5","5","4","5","5","5","4","3","4","2","7","2","8","6","5","6","7","3","2","7","7","5","6","1","7","3","1","7","6","6","3","5","5","6","3","3","7","3","3","3","2","3","7","3","6","6","7","7","3","6","1","7","5","6","6","5","4","769498068633784321","林","459","Female","[""好我"",""好她"",""坏她"",""坏我""]","[""强我"",""强她"",""弱她"",""弱我""]","","","","","","","","","","","","","","","","","","","","","","","","","","","","","","","","","","","","","","",""
"13229","","[{""name"":""Sex"",""value"":""1""},{""name"":""friend_name"",""value"":""林""},{""name"":""ParticipantID"",""value"":""459""}]","survey-html-form","2","38868","0.0-1.0-1.0","6","5","7","6","6","5","4","5","5","5","5","1","0","1","0","2","0","1","2","5","5","5","5","5","4","5","5","5","4","3","4","2","7","2","8","6","5","6","7","3","2","7","7","5","6","1","7","3","1","7","6","6","3","5","5","6","3","3","7","3","3","3","2","3","7","3","6","6","7","7","3","6","1","7","5","6","6","5","4","769498068633784321","林","459","Female","[""好我"",""好她"",""坏她"",""坏我""]","[""强我"",""强她"",""弱她"",""弱我""]","","","","","","","","","","","","","","","","","","","","","","","","","","","","","","","","","","","","","","",""
"","","","preload","3","39562","0.0-2.0","6","5","7","6","6","5","4","5","5","5","5","1","0","1","0","2","0","1","2","5","5","5","5","5","4","5","5","5","4","3","4","2","7","2","8","6","5","6","7","3","2","7","7","5","6","1","7","3","1","7","6","6","3","5","5","6","3","3","7","3","3","3","2","3","7","3","6","6","7","7","3","6","1","7","5","6","6","5","4","769498068633784321","林","459","Female","[""好我"",""好她"",""坏她"",""坏我""]","[""强我"",""强她"",""弱她"",""弱我""]","","true","false","[]","[]","[]","","","","","","","","","","","","","","","","","","","","","","","","","","","","","","","","",""
"","","","fullscreen","4","42755","0.0-3.0","6","5","7","6","6","5","4","5","5","5","5","1","0","1","0","2","0","1","2","5","5","5","5","5","4","5","5","5","4","3","4","2","7","2","8","6","5","6","7","3","2","7","7","5","6","1","7","3","1","7","6","6","3","5","5","6","3","3","7","3","3","3","2","3","7","3","6","6","7","7","3","6","1","7","5","6","6","5","4","769498068633784321","林","459","Female","[""好我"",""好她"",""坏她"",""坏我""]","[""强我"",""强她"",""弱她"",""弱我""]","","true","","","","","{}","","","","","","","","","","","","","","","","","","","","","","","","","","","","","","","",""
"12467.199999809265","","{""Q01"":""6"",""Q02"":""5"",""Q03"":""7"",""Q04"":""6"",""Q05"":""6""}","survey-template","5","55226","0.0-4.0","6","5","7","6","6","5","4","5","5","5","5","1","0","1","0","2","0","1","2","5","5","5","5","5","4","5","5","5","4","3","4","2","7","2","8","6","5","6","7","3","2","7","7","5","6","1","7","3","1","7","6","6","3","5","5","6","3","3","7","3","3","3","2","3","7","3","6","6","7","7","3","6","1","7","5","6","6","5","4","769498068633784321","林","459","Female","[""好我"",""好她"",""坏她"",""坏我""]","[""强我"",""强她"",""弱她"",""弱我""]","","","","","","","","{""Q01"":""6"",""Q02"":""5"",""Q03"":""7"",""Q04"":""6"",""Q05"":""6""}","[0,1,2,3,4]","[""Q01"",""Q02"",""Q03"",""Q03"",""Q04"",""Q05""]","[2632.1000003814697,4821.900000572205,7229.900000572205,7981.900000572205,9533.699999809265,11759.800000190735]","[]","[2632.1000003814697,3823.9000005722046,4821.900000572205,7229.900000572205,7981.900000572205,9533.699999809265,11759.800000190735,12465.800000190735]","0.6","0.5","0","","","","","","","","","","","","","","","","","","","","","","",""
"20005.60000038147","","{""Q01"":""5"",""Q02"":""4"",""Q03"":""5"",""Q04"":""5"",""Q05"":""5"",""Q06"":""5""}","survey-template","6","75235","0.0-5.0","6","5","7","6","6","5","4","5","5","5","5","1","0","1","0","2","0","1","2","5","5","5","5","5","4","5","5","5","4","3","4","2","7","2","8","6","5","6","7","3","2","7","7","5","6","1","7","3","1","7","6","6","3","5","5","6","3","3","7","3","3","3","2","3","7","3","6","6","7","7","3","6","1","7","5","6","6","5","4","769498068633784321","林","459","Female","[""好我"",""好她"",""坏她"",""坏我""]","[""强我"",""强她"",""弱她"",""弱我""]","","","","","","","","{""Q01"":""5"",""Q02"":""4"",""Q03"":""5"",""Q04"":""5"",""Q05"":""5"",""Q06"":""5""}","[0,1,2,3,4,5]","[""Q01"",""Q02"",""Q03"",""Q04"",""Q05"",""Q06"",""Q05""]","[2796.7000007629395,8394.70000076294,11306.70000076294,13760.800000190735,15288.5,17848.60000038147,19160.800000190735]","[]","[2796.7000007629395,7518.700000762939,8394.70000076294,11306.70000076294,12826.60000038147,13760.800000190735,15288.5,17848.60000038147,19160.800000190735,20004.5]","0.5","0.4","0","","","","","","","","","","","","","","","","","","","","","","",""
"14061.60000038147","","{""Q01"":""1"",""Q02"":""0"",""Q03"":""1"",""Q04"":""0"",""Q05"":""2"",""Q06"":""0"",""Q07"":""1"",""Q08"":""2""}","survey-template","7","89301","0.0-6.0","6","5","7","6","6","5","4","5","5","5","5","1","0","1","0","2","0","1","2","5","5","5","5","5","4","5","5","5","4","3","4","2","7","2","8","6","5","6","7","3","2","7","7","5","6","1","7","3","1","7","6","6","3","5","5","6","3","3","7","3","3","3","2","3","7","3","6","6","7","7","3","6","1","7","5","6","6","5","4","769498068633784321","林","459","Female","[""好我"",""好她"",""坏她"",""坏我""]","[""强我"",""强她"",""弱她"",""弱我""]","","","","","","","","{""Q01"":""1"",""Q02"":""0"",""Q03"":""1"",""Q04"":""0"",""Q05"":""2"",""Q06"":""0"",""Q07"":""1"",""Q08"":""2""}","[0,1,2,3,4,5,6,7]","[""Q01"",""Q02"",""Q03"",""Q04"",""Q05"",""Q06"",""Q06"",""Q07"",""Q08""]","[1873,4612.89999961853,5952.699999809265,7813.5,8879.60000038147,9851.10000038147,11355.199999809265,12079.10000038147,13427]","[]","[1873,4612.89999961853,5952.699999809265,7813.5,8879.60000038147,9851.10000038147,11355.199999809265,12079.10000038147,13427,14059.800000190735]","0.375","0.7142857142857143","0","","","","","","","","","","","","","","","","","","","","","","",""
"13738","","","instructions","8","103042","0.0-7.0","6","5","7","6","6","5","4","5","5","5","5","1","0","1","0","2","0","1","2","5","5","5","5","5","4","5","5","5","4","3","4","2","7","2","8","6","5","6","7","3","2","7","7","5","6","1","7","3","1","7","6","6","3","5","5","6","3","3","7","3","3","3","2","3","7","3","6","6","7","7","3","6","1","7","5","6","6","5","4","769498068633784321","林","459","Female","[""好我"",""好她"",""坏她"",""坏我""]","[""强我"",""强她"",""弱她"",""弱我""]","","","","","","","","","","","","","","","","","[{""page_index"":0,""viewing_time"":13738}]","","","","","","","","","","","","","","","","","","","","","",""
"71411","","","instructions","9","174454","0.0-8.0-1.0-0.0","6","5","7","6","6","5","4","5","5","5","5","1","0","1","0","2","0","1","2","5","5","5","5","5","4","5","5","5","4","3","4","2","7","2","8","6","5","6","7","3","2","7","7","5","6","1","7","3","1","7","6","6","3","5","5","6","3","3","7","3","3","3","2","3","7","3","6","6","7","7","3","6","1","7","5","6","6","5","4","769498068633784321","林","459","Female","[""好我"",""好她"",""坏她"",""坏我""]","[""强我"",""强她"",""弱她"",""弱我""]","","","","","","","","","","","","","","","","","[{""page_index"":0,""viewing_time"":14626},{""page_index"":1,""viewing_time"":50433},{""page_index"":2,""viewing_time"":4133},{""page_index"":3,""viewing_time"":2220}]","","","","","","","","","","","","","","","","","","","","","",""
"null","","null","psychophysics","10","176662","0.0-8.0-1.0-1.0-0.0-0.0","6","5","7","6","6","5","4","5","5","5","5","1","0","1","0","2","0","1","2","5","5","5","5","5","4","5","5","5","4","3","4","2","7","2","8","6","5","6","7","3","2","7","7","5","6","1","7","3","1","7","6","6","3","5","5","6","3","3","7","3","3","3","2","3","7","3","6","6","7","7","3","6","1","7","5","6","6","5","4","769498068633784321","林","459","Female","[""好我"",""好她"",""坏她"",""坏我""]","[""强我"",""强她"",""弱她"",""弱我""]","","","","","","","","null","","","","","","","","","","key","null","16.66793893129771","680","380","j","false","match","img/triangle.png","弱她","弱她","prac_ALT2_ability","practice_ability","","","","","","","","",""
"null","<span class='add_' style='color:yellow; font-size: 70px;'> 太慢! </span>","null","html-keyboard-response","11","177164","0.0-8.0-1.0-1.0-0.0-1.0","6","5","7","6","6","5","4","5","5","5","5","1","0","1","0","2","0","1","2","5","5","5","5","5","4","5","5","5","4","3","4","2","7","2","8","6","5","6","7","3","2","7","7","5","6","1","7","3","1","7","6","6","3","5","5","6","3","3","7","3","3","3","2","3","7","3","6","6","7","7","3","6","1","7","5","6","6","5","4","769498068633784321","林","459","Female","[""好我"",""好她"",""坏她"",""坏我""]","[""强我"",""强她"",""弱她"",""弱我""]","","","","","","","","","","","","","","","","","","","","","","","","","","","","","","feedback_test","","","","","","","","",""
"352","","f","psychophysics","12","178518","0.0-8.0-1.0-1.0-0.0-0.1","6","5","7","6","6","5","4","5","5","5","5","1","0","1","0","2","0","1","2","5","5","5","5","5","4","5","5","5","4","3","4","2","7","2","8","6","5","6","7","3","2","7","7","5","6","1","7","3","1","7","6","6","3","5","5","6","3","3","7","3","3","3","2","3","7","3","6","6","7","7","3","6","1","7","5","6","6","5","4","769498068633784321","林","459","Female","[""好我"",""好她"",""坏她"",""坏我""]","[""强我"",""强她"",""弱她"",""弱我""]","","","","","","","","nonmatch","","","","","","","","","","key","f","16.66750000000029","680","380","j","false","match","img/circle.png","弱我","弱我","prac_ALT2_ability","practice_ability","","","","","","","","",""
"null","<span style='color:red; font-size: 70px;'>错误! </span>","null","html-keyboard-response","13","179020","0.0-8.0-1.0-1.0-0.0-1.1","6","5","7","6","6","5","4","5","5","5","5","1","0","1","0","2","0","1","2","5","5","5","5","5","4","5","5","5","4","3","4","2","7","2","8","6","5","6","7","3","2","7","7","5","6","1","7","3","1","7","6","6","3","5","5","6","3","3","7","3","3","3","2","3","7","3","6","6","7","7","3","6","1","7","5","6","6","5","4","769498068633784321","林","459","Female","[""好我"",""好她"",""坏她"",""坏我""]","[""强我"",""强她"",""弱她"",""弱我""]","","","","","","","","","","","","","","","","","","","","","","","","","","","","","","feedback_test","","","","","","","","",""
"465","","j","psychophysics","14","180487","0.0-8.0-1.0-1.0-0.0-0.2","6","5","7","6","6","5","4","5","5","5","5","1","0","1","0","2","0","1","2","5","5","5","5","5","4","5","5","5","4","3","4","2","7","2","8","6","5","6","7","3","2","7","7","5","6","1","7","3","1","7","6","6","3","5","5","6","3","3","7","3","3","3","2","3","7","3","6","6","7","7","3","6","1","7","5","6","6","5","4","769498068633784321","林","459","Female","[""好我"",""好她"",""坏她"",""坏我""]","[""强我"",""强她"",""弱她"",""弱我""]","","","","","","","","match","","","","","","","","","","key","j","16.66781609195409","680","380","j","true","match","img/trapezoid.png","强我","强我","prac_ALT2_ability","practice_ability","","","","","","","","",""
"null","<span style='color:GreenYellow; font-size: 70px;'>正确! </span>","null","html-keyboard-response","15","180988","0.0-8.0-1.0-1.0-0.0-1.2","6","5","7","6","6","5","4","5","5","5","5","1","0","1","0","2","0","1","2","5","5","5","5","5","4","5","5","5","4","3","4","2","7","2","8","6","5","6","7","3","2","7","7","5","6","1","7","3","1","7","6","6","3","5","5","6","3","3","7","3","3","3","2","3","7","3","6","6","7","7","3","6","1","7","5","6","6","5","4","769498068633784321","林","459","Female","[""好我"",""好她"",""坏她"",""坏我""]","[""强我"",""强她"",""弱她"",""弱我""]","","","","","","","","","","","","","","","","","","","","","","","","","","","","","","feedback_test","","","","","","","","",""
"607","","j","psychophysics","16","182596","0.0-8.0-1.0-1.0-0.0-0.3","6","5","7","6","6","5","4","5","5","5","5","1","0","1","0","2","0","1","2","5","5","5","5","5","4","5","5","5","4","3","4","2","7","2","8","6","5","6","7","3","2","7","7","5","6","1","7","3","1","7","6","6","3","5","5","6","3","3","7","3","3","3","2","3","7","3","6","6","7","7","3","6","1","7","5","6","6","5","4","769498068633784321","林","459","Female","[""好我"",""好她"",""坏她"",""坏我""]","[""强我"",""强她"",""弱她"",""弱我""]","","","","","","","","match","","","","","","","","","","key","j","16.66842105263158","680","380","j","true","match","img/circle.png","弱我","弱我","prac_ALT2_ability","practice_ability","","","","","","","","",""
"null","<span style='color:GreenYellow; font-size: 70px;'>正确! </span>","null","html-keyboard-response","17","183098","0.0-8.0-1.0-1.0-0.0-1.3","6","5","7","6","6","5","4","5","5","5","5","1","0","1","0","2","0","1","2","5","5","5","5","5","4","5","5","5","4","3","4","2","7","2","8","6","5","6","7","3","2","7","7","5","6","1","7","3","1","7","6","6","3","5","5","6","3","3","7","3","3","3","2","3","7","3","6","6","7","7","3","6","1","7","5","6","6","5","4","769498068633784321","林","459","Female","[""好我"",""好她"",""坏她"",""坏我""]","[""强我"",""强她"",""弱她"",""弱我""]","","","","","","","","","","","","","","","","","","","","","","","","","","","","","","feedback_test","","","","","","","","",""
"639","","f","psychophysics","18","184738","0.0-8.0-1.0-1.0-0.0-0.4","6","5","7","6","6","5","4","5","5","5","5","1","0","1","0","2","0","1","2","5","5","5","5","5","4","5","5","5","4","3","4","2","7","2","8","6","5","6","7","3","2","7","7","5","6","1","7","3","1","7","6","6","3","5","5","6","3","3","7","3","3","3","2","3","7","3","6","6","7","7","3","6","1","7","5","6","6","5","4","769498068633784321","林","459","Female","[""好我"",""好她"",""坏她"",""坏我""]","[""强我"",""强她"",""弱她"",""弱我""]","","","","","","","","nonmatch","","","","","","","","","","key","f","16.66597938144336","680","380","f","true","nonmatch","img/triangle.png","弱我","弱她","prac_ALT2_ability","practice_ability","","","","","","","","",""
"null","<span style='color:GreenYellow; font-size: 70px;'>正确! </span>","null","html-keyboard-response","19","185240","0.0-8.0-1.0-1.0-0.0-1.4","6","5","7","6","6","5","4","5","5","5","5","1","0","1","0","2","0","1","2","5","5","5","5","5","4","5","5","5","4","3","4","2","7","2","8","6","5","6","7","3","2","7","7","5","6","1","7","3","1","7","6","6","3","5","5","6","3","3","7","3","3","3","2","3","7","3","6","6","7","7","3","6","1","7","5","6","6","5","4","769498068633784321","林","459","Female","[""好我"",""好她"",""坏她"",""坏我""]","[""强我"",""强她"",""弱她"",""弱我""]","","","","","","","","","","","","","","","","","","","","","","","","","","","","","","feedback_test","","","","","","","","",""
"595","","j","psychophysics","20","186837","0.0-8.0-1.0-1.0-0.0-0.5","6","5","7","6","6","5","4","5","5","5","5","1","0","1","0","2","0","1","2","5","5","5","5","5","4","5","5","5","4","3","4","2","7","2","8","6","5","6","7","3","2","7","7","5","6","1","7","3","1","7","6","6","3","5","5","6","3","3","7","3","3","3","2","3","7","3","6","6","7","7","3","6","1","7","5","6","6","5","4","769498068633784321","林","459","Female","[""好我"",""好她"",""坏她"",""坏我""]","[""强我"",""强她"",""弱她"",""弱我""]","","","","","","","","match","","","","","","","","","","key","j","16.66736842105257","680","380","j","true","match","img/circle.png","弱我","弱我","prac_ALT2_ability","practice_ability","","","","","","","","",""
"null","<span style='color:GreenYellow; font-size: 70px;'>正确! </span>","null","html-keyboard-response","21","187337","0.0-8.0-1.0-1.0-0.0-1.5","6","5","7","6","6","5","4","5","5","5","5","1","0","1","0","2","0","1","2","5","5","5","5","5","4","5","5","5","4","3","4","2","7","2","8","6","5","6","7","3","2","7","7","5","6","1","7","3","1","7","6","6","3","5","5","6","3","3","7","3","3","3","2","3","7","3","6","6","7","7","3","6","1","7","5","6","6","5","4","769498068633784321","林","459","Female","[""好我"",""好她"",""坏她"",""坏我""]","[""强我"",""强她"",""弱她"",""弱我""]","","","","","","","","","","","","","","","","","","","","","","","","","","","","","","feedback_test","","","","","","","","",""
"706","","f","psychophysics","22","189046","0.0-8.0-1.0-1.0-0.0-0.6","6","5","7","6","6","5","4","5","5","5","5","1","0","1","0","2","0","1","2","5","5","5","5","5","4","5","5","5","4","3","4","2","7","2","8","6","5","6","7","3","2","7","7","5","6","1","7","3","1","7","6","6","3","5","5","6","3","3","7","3","3","3","2","3","7","3","6","6","7","7","3","6","1","7","5","6","6","5","4","769498068633784321","林","459","Female","[""好我"",""好她"",""坏她"",""坏我""]","[""强我"",""强她"",""弱她"",""弱我""]","","","","","","","","nonmatch","","","","","","","","","","key","f","16.66732673267321","680","380","f","true","nonmatch","img/circle.png","弱她","弱我","prac_ALT2_ability","practice_ability","","","","","","","","",""
"null","<span style='color:GreenYellow; font-size: 70px;'>正确! </span>","null","html-keyboard-response","23","189548","0.0-8.0-1.0-1.0-0.0-1.6","6","5","7","6","6","5","4","5","5","5","5","1","0","1","0","2","0","1","2","5","5","5","5","5","4","5","5","5","4","3","4","2","7","2","8","6","5","6","7","3","2","7","7","5","6","1","7","3","1","7","6","6","3","5","5","6","3","3","7","3","3","3","2","3","7","3","6","6","7","7","3","6","1","7","5","6","6","5","4","769498068633784321","林","459","Female","[""好我"",""好她"",""坏她"",""坏我""]","[""强我"",""强她"",""弱她"",""弱我""]","","","","","","","","","","","","","","","","","","","","","","","","","","","","","","feedback_test","","","","","","","","",""
"1088","","j","psychophysics","24","191639","0.0-8.0-1.0-1.0-0.0-0.7","6","5","7","6","6","5","4","5","5","5","5","1","0","1","0","2","0","1","2","5","5","5","5","5","4","5","5","5","4","3","4","2","7","2","8","6","5","6","7","3","2","7","7","5","6","1","7","3","1","7","6","6","3","5","5","6","3","3","7","3","3","3","2","3","7","3","6","6","7","7","3","6","1","7","5","6","6","5","4","769498068633784321","林","459","Female","[""好我"",""好她"",""坏她"",""坏我""]","[""强我"",""强她"",""弱她"",""弱我""]","","","","","","","","match","","","","","","","","","","key","j","16.666129032258112","680","380","j","true","match","img/pentagon.png","强她","强她","prac_ALT2_ability","practice_ability","","","","","","","","",""
"null","<span style='color:GreenYellow; font-size: 70px;'>正确! </span>","null","html-keyboard-response","25","192141","0.0-8.0-1.0-1.0-0.0-1.7","6","5","7","6","6","5","4","5","5","5","5","1","0","1","0","2","0","1","2","5","5","5","5","5","4","5","5","5","4","3","4","2","7","2","8","6","5","6","7","3","2","7","7","5","6","1","7","3","1","7","6","6","3","5","5","6","3","3","7","3","3","3","2","3","7","3","6","6","7","7","3","6","1","7","5","6","6","5","4","769498068633784321","林","459","Female","[""好我"",""好她"",""坏她"",""坏我""]","[""强我"",""强她"",""弱她"",""弱我""]","","","","","","","","","","","","","","","","","","","","","","","","","","","","","","feedback_test","","","","","","","","",""
"674","","j","psychophysics","26","193821","0.0-8.0-1.0-1.0-0.0-0.8","6","5","7","6","6","5","4","5","5","5","5","1","0","1","0","2","0","1","2","5","5","5","5","5","4","5","5","5","4","3","4","2","7","2","8","6","5","6","7","3","2","7","7","5","6","1","7","3","1","7","6","6","3","5","5","6","3","3","7","3","3","3","2","3","7","3","6","6","7","7","3","6","1","7","5","6","6","5","4","769498068633784321","林","459","Female","[""好我"",""好她"",""坏她"",""坏我""]","[""强我"",""强她"",""弱她"",""弱我""]","","","","","","","","match","","","","","","","","","","key","j","16.667999999999882","680","380","j","true","match","img/trapezoid.png","强我","强我","prac_ALT2_ability","practice_ability","","","","","","","","",""
"null","<span style='color:GreenYellow; font-size: 70px;'>正确! </span>","null","html-keyboard-response","27","194323","0.0-8.0-1.0-1.0-0.0-1.8","6","5","7","6","6","5","4","5","5","5","5","1","0","1","0","2","0","1","2","5","5","5","5","5","4","5","5","5","4","3","4","2","7","2","8","6","5","6","7","3","2","7","7","5","6","1","7","3","1","7","6","6","3","5","5","6","3","3","7","3","3","3","2","3","7","3","6","6","7","7","3","6","1","7","5","6","6","5","4","769498068633784321","林","459","Female","[""好我"",""好她"",""坏她"",""坏我""]","[""强我"",""强她"",""弱她"",""弱我""]","","","","","","","","","","","","","","","","","","","","","","","","","","","","","","feedback_test","","","","","","","","",""
"772","","f","psychophysics","28","196097","0.0-8.0-1.0-1.0-0.0-0.9","6","5","7","6","6","5","4","5","5","5","5","1","0","1","0","2","0","1","2","5","5","5","5","5","4","5","5","5","4","3","4","2","7","2","8","6","5","6","7","3","2","7","7","5","6","1","7","3","1","7","6","6","3","5","5","6","3","3","7","3","3","3","2","3","7","3","6","6","7","7","3","6","1","7","5","6","6","5","4","769498068633784321","林","459","Female","[""好我"",""好她"",""坏她"",""坏我""]","[""强我"",""强她"",""弱她"",""弱我""]","","","","","","","","nonmatch","","","","","","","","","","key","f","16.6676190476191","680","380","j","false","match","img/triangle.png","弱她","弱她","prac_ALT2_ability","practice_ability","","","","","","","","",""
"null","<span style='color:red; font-size: 70px;'>错误! </span>","null","html-keyboard-response","29","196598","0.0-8.0-1.0-1.0-0.0-1.9","6","5","7","6","6","5","4","5","5","5","5","1","0","1","0","2","0","1","2","5","5","5","5","5","4","5","5","5","4","3","4","2","7","2","8","6","5","6","7","3","2","7","7","5","6","1","7","3","1","7","6","6","3","5","5","6","3","3","7","3","3","3","2","3","7","3","6","6","7","7","3","6","1","7","5","6","6","5","4","769498068633784321","林","459","Female","[""好我"",""好她"",""坏她"",""坏我""]","[""强我"",""强她"",""弱她"",""弱我""]","","","","","","","","","","","","","","","","","","","","","","","","","","","","","","feedback_test","","","","","","","","",""
"629","","j","psychophysics","30","198230","0.0-8.0-1.0-1.0-0.0-0.10","6","5","7","6","6","5","4","5","5","5","5","1","0","1","0","2","0","1","2","5","5","5","5","5","4","5","5","5","4","3","4","2","7","2","8","6","5","6","7","3","2","7","7","5","6","1","7","3","1","7","6","6","3","5","5","6","3","3","7","3","3","3","2","3","7","3","6","6","7","7","3","6","1","7","5","6","6","5","4","769498068633784321","林","459","Female","[""好我"",""好她"",""坏她"",""坏我""]","[""强我"",""强她"",""弱她"",""弱我""]","","","","","","","","match","","","","","","","","","","key","j","16.666666666666668","680","380","f","false","nonmatch","img/pentagon.png","强我","强她","prac_ALT2_ability","practice_ability","","","","","","","","",""
"null","<span style='color:red; font-size: 70px;'>错误! </span>","null","html-keyboard-response","31","198730","0.0-8.0-1.0-1.0-0.0-1.10","6","5","7","6","6","5","4","5","5","5","5","1","0","1","0","2","0","1","2","5","5","5","5","5","4","5","5","5","4","3","4","2","7","2","8","6","5","6","7","3","2","7","7","5","6","1","7","3","1","7","6","6","3","5","5","6","3","3","7","3","3","3","2","3","7","3","6","6","7","7","3","6","1","7","5","6","6","5","4","769498068633784321","林","459","Female","[""好我"",""好她"",""坏她"",""坏我""]","[""强我"",""强她"",""弱她"",""弱我""]","","","","","","","","","","","","","","","","","","","","","","","","","","","","","","feedback_test","","","","","","","","",""
"923","","j","psychophysics","32","200663","0.0-8.0-1.0-1.0-0.0-0.11","6","5","7","6","6","5","4","5","5","5","5","1","0","1","0","2","0","1","2","5","5","5","5","5","4","5","5","5","4","3","4","2","7","2","8","6","5","6","7","3","2","7","7","5","6","1","7","3","1","7","6","6","3","5","5","6","3","3","7","3","3","3","2","3","7","3","6","6","7","7","3","6","1","7","5","6","6","5","4","769498068633784321","林","459","Female","[""好我"",""好她"",""坏她"",""坏我""]","[""强我"",""强她"",""弱她"",""弱我""]","","","","","","","","match","","","","","","","","","","key","j","16.666666666666668","680","380","j","true","match","img/pentagon.png","强她","强她","prac_ALT2_ability","practice_ability","","","","","","","","",""
"null","<span style='color:GreenYellow; font-size: 70px;'>正确! </span>","null","html-keyboard-response","33","201165","0.0-8.0-1.0-1.0-0.0-1.11","6","5","7","6","6","5","4","5","5","5","5","1","0","1","0","2","0","1","2","5","5","5","5","5","4","5","5","5","4","3","4","2","7","2","8","6","5","6","7","3","2","7","7","5","6","1","7","3","1","7","6","6","3","5","5","6","3","3","7","3","3","3","2","3","7","3","6","6","7","7","3","6","1","7","5","6","6","5","4","769498068633784321","林","459","Female","[""好我"",""好她"",""坏她"",""坏我""]","[""强我"",""强她"",""弱她"",""弱我""]","","","","","","","","","","","","","","","","","","","","","","","","","","","","","","feedback_test","","","","","","","","",""
"905","","j","psychophysics","34","203071","0.0-8.0-1.0-1.0-0.0-0.12","6","5","7","6","6","5","4","5","5","5","5","1","0","1","0","2","0","1","2","5","5","5","5","5","4","5","5","5","4","3","4","2","7","2","8","6","5","6","7","3","2","7","7","5","6","1","7","3","1","7","6","6","3","5","5","6","3","3","7","3","3","3","2","3","7","3","6","6","7","7","3","6","1","7","5","6","6","5","4","769498068633784321","林","459","Female","[""好我"",""好她"",""坏她"",""坏我""]","[""强我"",""强她"",""弱她"",""弱我""]","","","","","","","","match","","","","","","","","","","key","j","16.66548672566382","680","380","f","false","nonmatch","img/triangle.png","强我","弱她","prac_ALT2_ability","practice_ability","","","","","","","","",""
"null","<span style='color:red; font-size: 70px;'>错误! </span>","null","html-keyboard-response","35","203572","0.0-8.0-1.0-1.0-0.0-1.12","6","5","7","6","6","5","4","5","5","5","5","1","0","1","0","2","0","1","2","5","5","5","5","5","4","5","5","5","4","3","4","2","7","2","8","6","5","6","7","3","2","7","7","5","6","1","7","3","1","7","6","6","3","5","5","6","3","3","7","3","3","3","2","3","7","3","6","6","7","7","3","6","1","7","5","6","6","5","4","769498068633784321","林","459","Female","[""好我"",""好她"",""坏她"",""坏我""]","[""强我"",""强她"",""弱她"",""弱我""]","","","","","","","","","","","","","","","","","","","","","","","","","","","","","","feedback_test","","","","","","","","",""
"1056","","j","psychophysics","36","205630","0.0-8.0-1.0-1.0-0.0-0.13","6","5","7","6","6","5","4","5","5","5","5","1","0","1","0","2","0","1","2","5","5","5","5","5","4","5","5","5","4","3","4","2","7","2","8","6","5","6","7","3","2","7","7","5","6","1","7","3","1","7","6","6","3","5","5","6","3","3","7","3","3","3","2","3","7","3","6","6","7","7","3","6","1","7","5","6","6","5","4","769498068633784321","林","459","Female","[""好我"",""好她"",""坏她"",""坏我""]","[""强我"",""强她"",""弱她"",""弱我""]","","","","","","","","match","","","","","","","","","","key","j","16.668032786885245","680","380","f","false","nonmatch","img/pentagon.png","弱她","强她","prac_ALT2_ability","practice_ability","","","","","","","","",""
"null","<span style='color:red; font-size: 70px;'>错误! </span>","null","html-keyboard-response","37","206131","0.0-8.0-1.0-1.0-0.0-1.13","6","5","7","6","6","5","4","5","5","5","5","1","0","1","0","2","0","1","2","5","5","5","5","5","4","5","5","5","4","3","4","2","7","2","8","6","5","6","7","3","2","7","7","5","6","1","7","3","1","7","6","6","3","5","5","6","3","3","7","3","3","3","2","3","7","3","6","6","7","7","3","6","1","7","5","6","6","5","4","769498068633784321","林","459","Female","[""好我"",""好她"",""坏她"",""坏我""]","[""强我"",""强她"",""弱她"",""弱我""]","","","","","","","","","","","","","","","","","","","","","","","","","","","","","","feedback_test","","","","","","","","",""
"1051","","f","psychophysics","38","208183","0.0-8.0-1.0-1.0-0.0-0.14","6","5","7","6","6","5","4","5","5","5","5","1","0","1","0","2","0","1","2","5","5","5","5","5","4","5","5","5","4","3","4","2","7","2","8","6","5","6","7","3","2","7","7","5","6","1","7","3","1","7","6","6","3","5","5","6","3","3","7","3","3","3","2","3","7","3","6","6","7","7","3","6","1","7","5","6","6","5","4","769498068633784321","林","459","Female","[""好我"",""好她"",""坏她"",""坏我""]","[""强我"",""强她"",""弱她"",""弱我""]","","","","","","","","nonmatch","","","","","","","","","","key","f","16.667213114754052","680","380","f","true","nonmatch","img/trapezoid.png","弱她","强我","prac_ALT2_ability","practice_ability","","","","","","","","",""
"null","<span style='color:GreenYellow; font-size: 70px;'>正确! </span>","null","html-keyboard-response","39","208683","0.0-8.0-1.0-1.0-0.0-1.14","6","5","7","6","6","5","4","5","5","5","5","1","0","1","0","2","0","1","2","5","5","5","5","5","4","5","5","5","4","3","4","2","7","2","8","6","5","6","7","3","2","7","7","5","6","1","7","3","1","7","6","6","3","5","5","6","3","3","7","3","3","3","2","3","7","3","6","6","7","7","3","6","1","7","5","6","6","5","4","769498068633784321","林","459","Female","[""好我"",""好她"",""坏她"",""坏我""]","[""强我"",""强她"",""弱她"",""弱我""]","","","","","","","","","","","","","","","","","","","","","","","","","","","","","","feedback_test","","","","","","","","",""
"1142","","f","psychophysics","40","210827","0.0-8.0-1.0-1.0-0.0-0.15","6","5","7","6","6","5","4","5","5","5","5","1","0","1","0","2","0","1","2","5","5","5","5","5","4","5","5","5","4","3","4","2","7","2","8","6","5","6","7","3","2","7","7","5","6","1","7","3","1","7","6","6","3","5","5","6","3","3","7","3","3","3","2","3","7","3","6","6","7","7","3","6","1","7","5","6","6","5","4","769498068633784321","林","459","Female","[""好我"",""好她"",""坏她"",""坏我""]","[""强我"",""强她"",""弱她"",""弱我""]","","","","","","","","nonmatch","","","","","","","","","","key","f","16.66692913385813","680","380","f","true","nonmatch","img/trapezoid.png","弱我","强我","prac_ALT2_ability","practice_ability","","","","","","","","",""
"null","<span style='color:GreenYellow; font-size: 70px;'>正确! </span>","null","html-keyboard-response","41","211327","0.0-8.0-1.0-1.0-0.0-1.15","6","5","7","6","6","5","4","5","5","5","5","1","0","1","0","2","0","1","2","5","5","5","5","5","4","5","5","5","4","3","4","2","7","2","8","6","5","6","7","3","2","7","7","5","6","1","7","3","1","7","6","6","3","5","5","6","3","3","7","3","3","3","2","3","7","3","6","6","7","7","3","6","1","7","5","6","6","5","4","769498068633784321","林","459","Female","[""好我"",""好她"",""坏她"",""坏我""]","[""强我"",""强她"",""弱她"",""弱我""]","","","","","","","","","","","","","","","","","","","","","","","","","","","","","","feedback_test","","","","","","","","",""
"732","","j","psychophysics","42","213061","0.0-8.0-1.0-1.0-0.0-0.16","6","5","7","6","6","5","4","5","5","5","5","1","0","1","0","2","0","1","2","5","5","5","5","5","4","5","5","5","4","3","4","2","7","2","8","6","5","6","7","3","2","7","7","5","6","1","7","3","1","7","6","6","3","5","5","6","3","3","7","3","3","3","2","3","7","3","6","6","7","7","3","6","1","7","5","6","6","5","4","769498068633784321","林","459","Female","[""好我"",""好她"",""坏她"",""坏我""]","[""强我"",""强她"",""弱她"",""弱我""]","","","","","","","","match","","","","","","","","","","key","j","16.66699029126225","680","380","j","true","match","img/trapezoid.png","强我","强我","prac_ALT2_ability","practice_ability","","","","","","","","",""
"null","<span style='color:GreenYellow; font-size: 70px;'>正确! </span>","null","html-keyboard-response","43","213562","0.0-8.0-1.0-1.0-0.0-1.16","6","5","7","6","6","5","4","5","5","5","5","1","0","1","0","2","0","1","2","5","5","5","5","5","4","5","5","5","4","3","4","2","7","2","8","6","5","6","7","3","2","7","7","5","6","1","7","3","1","7","6","6","3","5","5","6","3","3","7","3","3","3","2","3","7","3","6","6","7","7","3","6","1","7","5","6","6","5","4","769498068633784321","林","459","Female","[""好我"",""好她"",""坏她"",""坏我""]","[""强我"",""强她"",""弱她"",""弱我""]","","","","","","","","","","","","","","","","","","","","","","","","","","","","","","feedback_test","","","","","","","","",""
"835","","j","psychophysics","44","215400","0.0-8.0-1.0-1.0-0.0-0.17","6","5","7","6","6","5","4","5","5","5","5","1","0","1","0","2","0","1","2","5","5","5","5","5","4","5","5","5","4","3","4","2","7","2","8","6","5","6","7","3","2","7","7","5","6","1","7","3","1","7","6","6","3","5","5","6","3","3","7","3","3","3","2","3","7","3","6","6","7","7","3","6","1","7","5","6","6","5","4","769498068633784321","林","459","Female","[""好我"",""好她"",""坏她"",""坏我""]","[""强我"",""强她"",""弱她"",""弱我""]","","","","","","","","match","","","","","","","","","","key","j","16.667272727272938","680","380","j","true","match","img/pentagon.png","强她","强她","prac_ALT2_ability","practice_ability","","","","","","","","",""
"null","<span style='color:GreenYellow; font-size: 70px;'>正确! </span>","null","html-keyboard-response","45","215901","0.0-8.0-1.0-1.0-0.0-1.17","6","5","7","6","6","5","4","5","5","5","5","1","0","1","0","2","0","1","2","5","5","5","5","5","4","5","5","5","4","3","4","2","7","2","8","6","5","6","7","3","2","7","7","5","6","1","7","3","1","7","6","6","3","5","5","6","3","3","7","3","3","3","2","3","7","3","6","6","7","7","3","6","1","7","5","6","6","5","4","769498068633784321","林","459","Female","[""好我"",""好她"",""坏她"",""坏我""]","[""强我"",""强她"",""弱她"",""弱我""]","","","","","","","","","","","","","","","","","","","","","","","","","","","","","","feedback_test","","","","","","","","",""
"785","","f","psychophysics","46","217687","0.0-8.0-1.0-1.0-0.0-0.18","6","5","7","6","6","5","4","5","5","5","5","1","0","1","0","2","0","1","2","5","5","5","5","5","4","5","5","5","4","3","4","2","7","2","8","6","5","6","7","3","2","7","7","5","6","1","7","3","1","7","6","6","3","5","5","6","3","3","7","3","3","3","2","3","7","3","6","6","7","7","3","6","1","7","5","6","6","5","4","769498068633784321","林","459","Female","[""好我"",""好她"",""坏她"",""坏我""]","[""强我"",""强她"",""弱她"",""弱我""]","","","","","","","","nonmatch","","","","","","","","","","key","f","16.66792452830178","680","380","f","true","nonmatch","img/circle.png","强我","弱我","prac_ALT2_ability","practice_ability","","","","","","","","",""
"null","<span style='color:GreenYellow; font-size: 70px;'>正确! </span>","null","html-keyboard-response","47","218188","0.0-8.0-1.0-1.0-0.0-1.18","6","5","7","6","6","5","4","5","5","5","5","1","0","1","0","2","0","1","2","5","5","5","5","5","4","5","5","5","4","3","4","2","7","2","8","6","5","6","7","3","2","7","7","5","6","1","7","3","1","7","6","6","3","5","5","6","3","3","7","3","3","3","2","3","7","3","6","6","7","7","3","6","1","7","5","6","6","5","4","769498068633784321","林","459","Female","[""好我"",""好她"",""坏她"",""坏我""]","[""强我"",""强她"",""弱她"",""弱我""]","","","","","","","","","","","","","","","","","","","","","","","","","","","","","","feedback_test","","","","","","","","",""
"744","","f","psychophysics","48","219933","0.0-8.0-1.0-1.0-0.0-0.19","6","5","7","6","6","5","4","5","5","5","5","1","0","1","0","2","0","1","2","5","5","5","5","5","4","5","5","5","4","3","4","2","7","2","8","6","5","6","7","3","2","7","7","5","6","1","7","3","1","7","6","6","3","5","5","6","3","3","7","3","3","3","2","3","7","3","6","6","7","7","3","6","1","7","5","6","6","5","4","769498068633784321","林","459","Female","[""好我"",""好她"",""坏她"",""坏我""]","[""强我"",""强她"",""弱她"",""弱我""]","","","","","","","","nonmatch","","","","","","","","","","key","f","16.667307692307638","680","380","f","true","nonmatch","img/circle.png","强她","弱我","prac_ALT2_ability","practice_ability","","","","","","","","",""
"null","<span style='color:GreenYellow; font-size: 70px;'>正确! </span>","null","html-keyboard-response","49","220434","0.0-8.0-1.0-1.0-0.0-1.19","6","5","7","6","6","5","4","5","5","5","5","1","0","1","0","2","0","1","2","5","5","5","5","5","4","5","5","5","4","3","4","2","7","2","8","6","5","6","7","3","2","7","7","5","6","1","7","3","1","7","6","6","3","5","5","6","3","3","7","3","3","3","2","3","7","3","6","6","7","7","3","6","1","7","5","6","6","5","4","769498068633784321","林","459","Female","[""好我"",""好她"",""坏她"",""坏我""]","[""强我"",""强她"",""弱她"",""弱我""]","","","","","","","","","","","","","","","","","","","","","","","","","","","","","","feedback_test","","","","","","","","",""
"733","","f","psychophysics","50","222168","0.0-8.0-1.0-1.0-0.0-0.20","6","5","7","6","6","5","4","5","5","5","5","1","0","1","0","2","0","1","2","5","5","5","5","5","4","5","5","5","4","3","4","2","7","2","8","6","5","6","7","3","2","7","7","5","6","1","7","3","1","7","6","6","3","5","5","6","3","3","7","3","3","3","2","3","7","3","6","6","7","7","3","6","1","7","5","6","6","5","4","769498068633784321","林","459","Female","[""好我"",""好她"",""坏她"",""坏我""]","[""强我"",""强她"",""弱她"",""弱我""]","","","","","","","","nonmatch","","","","","","","","","","key","f","16.666990291261968","680","380","j","false","match","img/triangle.png","弱她","弱她","prac_ALT2_ability","practice_ability","","","","","","","","",""
"null","<span style='color:red; font-size: 70px;'>错误! </span>","null","html-keyboard-response","51","222669","0.0-8.0-1.0-1.0-0.0-1.20","6","5","7","6","6","5","4","5","5","5","5","1","0","1","0","2","0","1","2","5","5","5","5","5","4","5","5","5","4","3","4","2","7","2","8","6","5","6","7","3","2","7","7","5","6","1","7","3","1","7","6","6","3","5","5","6","3","3","7","3","3","3","2","3","7","3","6","6","7","7","3","6","1","7","5","6","6","5","4","769498068633784321","林","459","Female","[""好我"",""好她"",""坏她"",""坏我""]","[""强我"",""强她"",""弱她"",""弱我""]","","","","","","","","","","","","","","","","","","","","","","","","","","","","","","feedback_test","","","","","","","","",""
"1163","","f","psychophysics","52","224835","0.0-8.0-1.0-1.0-0.0-0.21","6","5","7","6","6","5","4","5","5","5","5","1","0","1","0","2","0","1","2","5","5","5","5","5","4","5","5","5","4","3","4","2","7","2","8","6","5","6","7","3","2","7","7","5","6","1","7","3","1","7","6","6","3","5","5","6","3","3","7","3","3","3","2","3","7","3","6","6","7","7","3","6","1","7","5","6","6","5","4","769498068633784321","林","459","Female","[""好我"",""好她"",""坏她"",""坏我""]","[""强我"",""强她"",""弱她"",""弱我""]","","","","","","","","nonmatch","","","","","","","","","","key","f","16.666666666666668","680","380","f","true","nonmatch","img/pentagon.png","弱我","强她","prac_ALT2_ability","practice_ability","","","","","","","","",""
"null","<span style='color:GreenYellow; font-size: 70px;'>正确! </span>","null","html-keyboard-response","53","225337","0.0-8.0-1.0-1.0-0.0-1.21","6","5","7","6","6","5","4","5","5","5","5","1","0","1","0","2","0","1","2","5","5","5","5","5","4","5","5","5","4","3","4","2","7","2","8","6","5","6","7","3","2","7","7","5","6","1","7","3","1","7","6","6","3","5","5","6","3","3","7","3","3","3","2","3","7","3","6","6","7","7","3","6","1","7","5","6","6","5","4","769498068633784321","林","459","Female","[""好我"",""好她"",""坏她"",""坏我""]","[""强我"",""强她"",""弱她"",""弱我""]","","","","","","","","","","","","","","","","","","","","","","","","","","","","","","feedback_test","","","","","","","","",""
"892","","f","psychophysics","54","227231","0.0-8.0-1.0-1.0-0.0-0.22","6","5","7","6","6","5","4","5","5","5","5","1","0","1","0","2","0","1","2","5","5","5","5","5","4","5","5","5","4","3","4","2","7","2","8","6","5","6","7","3","2","7","7","5","6","1","7","3","1","7","6","6","3","5","5","6","3","3","7","3","3","3","2","3","7","3","6","6","7","7","3","6","1","7","5","6","6","5","4","769498068633784321","林","459","Female","[""好我"",""好她"",""坏她"",""坏我""]","[""强我"",""强她"",""弱她"",""弱我""]","","","","","","","","nonmatch","","","","","","","","","","key","f","16.66696428571413","680","380","f","true","nonmatch","img/trapezoid.png","强她","强我","prac_ALT2_ability","practice_ability","","","","","","","","",""
"null","<span style='color:GreenYellow; font-size: 70px;'>正确! </span>","null","html-keyboard-response","55","227732","0.0-8.0-1.0-1.0-0.0-1.22","6","5","7","6","6","5","4","5","5","5","5","1","0","1","0","2","0","1","2","5","5","5","5","5","4","5","5","5","4","3","4","2","7","2","8","6","5","6","7","3","2","7","7","5","6","1","7","3","1","7","6","6","3","5","5","6","3","3","7","3","3","3","2","3","7","3","6","6","7","7","3","6","1","7","5","6","6","5","4","769498068633784321","林","459","Female","[""好我"",""好她"",""坏她"",""坏我""]","[""强我"",""强她"",""弱她"",""弱我""]","","","","","","","","","","","","","","","","","","","","","","","","","","","","","","feedback_test","","","","","","","","",""
"865","","f","psychophysics","56","229599","0.0-8.0-1.0-1.0-0.0-0.23","6","5","7","6","6","5","4","5","5","5","5","1","0","1","0","2","0","1","2","5","5","5","5","5","4","5","5","5","4","3","4","2","7","2","8","6","5","6","7","3","2","7","7","5","6","1","7","3","1","7","6","6","3","5","5","6","3","3","7","3","3","3","2","3","7","3","6","6","7","7","3","6","1","7","5","6","6","5","4","769498068633784321","林","459","Female","[""好我"",""好她"",""坏她"",""坏我""]","[""强我"",""强她"",""弱她"",""弱我""]","","","","","","","","nonmatch","","","","","","","","","","key","f","16.666666666666668","680","380","f","true","nonmatch","img/triangle.png","强她","弱她","prac_ALT2_ability","practice_ability","","","","","","","","",""
"null","<span style='color:GreenYellow; font-size: 70px;'>正确! </span>","null","html-keyboard-response","57","230101","0.0-8.0-1.0-1.0-0.0-1.23","6","5","7","6","6","5","4","5","5","5","5","1","0","1","0","2","0","1","2","5","5","5","5","5","4","5","5","5","4","3","4","2","7","2","8","6","5","6","7","3","2","7","7","5","6","1","7","3","1","7","6","6","3","5","5","6","3","3","7","3","3","3","2","3","7","3","6","6","7","7","3","6","1","7","5","6","6","5","4","769498068633784321","林","459","Female","[""好我"",""好她"",""坏她"",""坏我""]","[""强我"",""强她"",""弱她"",""弱我""]","","","","","","","","","","","","","","","","","","","","","","","","","","","","","","feedback_test","","","","","","","","",""
"614","","j","psychophysics","58","231717","0.0-8.0-1.0-1.0-0.0-0.24","6","5","7","6","6","5","4","5","5","5","5","1","0","1","0","2","0","1","2","5","5","5","5","5","4","5","5","5","4","3","4","2","7","2","8","6","5","6","7","3","2","7","7","5","6","1","7","3","1","7","6","6","3","5","5","6","3","3","7","3","3","3","2","3","7","3","6","6","7","7","3","6","1","7","5","6","6","5","4","769498068633784321","林","459","Female","[""好我"",""好她"",""坏她"",""坏我""]","[""强我"",""强她"",""弱她"",""弱我""]","","","","","","","","match","","","","","","","","","","key","j","16.666666666666668","680","380","j","true","match","img/trapezoid.png","强我","强我","prac_ALT2_ability","practice_ability","","","","","","","","",""
"null","<span style='color:GreenYellow; font-size: 70px;'>正确! </span>","null","html-keyboard-response","59","232217","0.0-8.0-1.0-1.0-0.0-1.24","6","5","7","6","6","5","4","5","5","5","5","1","0","1","0","2","0","1","2","5","5","5","5","5","4","5","5","5","4","3","4","2","7","2","8","6","5","6","7","3","2","7","7","5","6","1","7","3","1","7","6","6","3","5","5","6","3","3","7","3","3","3","2","3","7","3","6","6","7","7","3","6","1","7","5","6","6","5","4","769498068633784321","林","459","Female","[""好我"",""好她"",""坏她"",""坏我""]","[""强我"",""强她"",""弱她"",""弱我""]","","","","","","","","","","","","","","","","","","","","","","","","","","","","","","feedback_test","","","","","","","","",""
"764","","j","psychophysics","60","233984","0.0-8.0-1.0-1.0-0.0-0.25","6","5","7","6","6","5","4","5","5","5","5","1","0","1","0","2","0","1","2","5","5","5","5","5","4","5","5","5","4","3","4","2","7","2","8","6","5","6","7","3","2","7","7","5","6","1","7","3","1","7","6","6","3","5","5","6","3","3","7","3","3","3","2","3","7","3","6","6","7","7","3","6","1","7","5","6","6","5","4","769498068633784321","林","459","Female","[""好我"",""好她"",""坏她"",""坏我""]","[""强我"",""强她"",""弱她"",""弱我""]","","","","","","","","match","","","","","","","","","","key","j","16.666666666666668","680","380","f","false","nonmatch","img/triangle.png","弱我","弱她","prac_ALT2_ability","practice_ability","","","","","","","","",""
"null","<span style='color:red; font-size: 70px;'>错误! </span>","null","html-keyboard-response","61","234486","0.0-8.0-1.0-1.0-0.0-1.25","6","5","7","6","6","5","4","5","5","5","5","1","0","1","0","2","0","1","2","5","5","5","5","5","4","5","5","5","4","3","4","2","7","2","8","6","5","6","7","3","2","7","7","5","6","1","7","3","1","7","6","6","3","5","5","6","3","3","7","3","3","3","2","3","7","3","6","6","7","7","3","6","1","7","5","6","6","5","4","769498068633784321","林","459","Female","[""好我"",""好她"",""坏她"",""坏我""]","[""强我"",""强她"",""弱她"",""弱我""]","","","","","","","","","","","","","","","","","","","","","","","","","","","","","","feedback_test","","","","","","","","",""
"1077","","j","psychophysics","62","236565","0.0-8.0-1.0-1.0-0.0-0.26","6","5","7","6","6","5","4","5","5","5","5","1","0","1","0","2","0","1","2","5","5","5","5","5","4","5","5","5","4","3","4","2","7","2","8","6","5","6","7","3","2","7","7","5","6","1","7","3","1","7","6","6","3","5","5","6","3","3","7","3","3","3","2","3","7","3","6","6","7","7","3","6","1","7","5","6","6","5","4","769498068633784321","林","459","Female","[""好我"",""好她"",""坏她"",""坏我""]","[""强我"",""强她"",""弱她"",""弱我""]","","","","","","","","match","","","","","","","","","","key","j","16.666129032257878","680","380","j","true","match","img/triangle.png","弱她","弱她","prac_ALT2_ability","practice_ability","","","","","","","","",""
"null","<span style='color:GreenYellow; font-size: 70px;'>正确! </span>","null","html-keyboard-response","63","237066","0.0-8.0-1.0-1.0-0.0-1.26","6","5","7","6","6","5","4","5","5","5","5","1","0","1","0","2","0","1","2","5","5","5","5","5","4","5","5","5","4","3","4","2","7","2","8","6","5","6","7","3","2","7","7","5","6","1","7","3","1","7","6","6","3","5","5","6","3","3","7","3","3","3","2","3","7","3","6","6","7","7","3","6","1","7","5","6","6","5","4","769498068633784321","林","459","Female","[""好我"",""好她"",""坏她"",""坏我""]","[""强我"",""强她"",""弱她"",""弱我""]","","","","","","","","","","","","","","","","","","","","","","","","","","","","","","feedback_test","","","","","","","","",""
"561","","j","psychophysics","64","238628","0.0-8.0-1.0-1.0-0.0-0.27","6","5","7","6","6","5","4","5","5","5","5","1","0","1","0","2","0","1","2","5","5","5","5","5","4","5","5","5","4","3","4","2","7","2","8","6","5","6","7","3","2","7","7","5","6","1","7","3","1","7","6","6","3","5","5","6","3","3","7","3","3","3","2","3","7","3","6","6","7","7","3","6","1","7","5","6","6","5","4","769498068633784321","林","459","Female","[""好我"",""好她"",""坏她"",""坏我""]","[""强我"",""强她"",""弱她"",""弱我""]","","","","","","","","match","","","","","","","","","","key","j","16.667391304347763","680","380","f","false","nonmatch","img/pentagon.png","弱她","强她","prac_ALT2_ability","practice_ability","","","","","","","","",""
"null","<span style='color:red; font-size: 70px;'>错误! </span>","null","html-keyboard-response","65","239129","0.0-8.0-1.0-1.0-0.0-1.27","6","5","7","6","6","5","4","5","5","5","5","1","0","1","0","2","0","1","2","5","5","5","5","5","4","5","5","5","4","3","4","2","7","2","8","6","5","6","7","3","2","7","7","5","6","1","7","3","1","7","6","6","3","5","5","6","3","3","7","3","3","3","2","3","7","3","6","6","7","7","3","6","1","7","5","6","6","5","4","769498068633784321","林","459","Female","[""好我"",""好她"",""坏她"",""坏我""]","[""强我"",""强她"",""弱她"",""弱我""]","","","","","","","","","","","","","","","","","","","","","","","","","","","","","","feedback_test","","","","","","","","",""
"739","","f","psychophysics","66","240870","0.0-8.0-1.0-1.0-0.0-0.28","6","5","7","6","6","5","4","5","5","5","5","1","0","1","0","2","0","1","2","5","5","5","5","5","4","5","5","5","4","3","4","2","7","2","8","6","5","6","7","3","2","7","7","5","6","1","7","3","1","7","6","6","3","5","5","6","3","3","7","3","3","3","2","3","7","3","6","6","7","7","3","6","1","7","5","6","6","5","4","769498068633784321","林","459","Female","[""好我"",""好她"",""坏她"",""坏我""]","[""强我"",""强她"",""弱她"",""弱我""]","","","","","","","","nonmatch","","","","","","","","","","key","f","16.665384615384447","680","380","f","true","nonmatch","img/circle.png","弱她","弱我","prac_ALT2_ability","practice_ability","","","","","","","","",""
"null","<span style='color:GreenYellow; font-size: 70px;'>正确! </span>","null","html-keyboard-response","67","241371","0.0-8.0-1.0-1.0-0.0-1.28","6","5","7","6","6","5","4","5","5","5","5","1","0","1","0","2","0","1","2","5","5","5","5","5","4","5","5","5","4","3","4","2","7","2","8","6","5","6","7","3","2","7","7","5","6","1","7","3","1","7","6","6","3","5","5","6","3","3","7","3","3","3","2","3","7","3","6","6","7","7","3","6","1","7","5","6","6","5","4","769498068633784321","林","459","Female","[""好我"",""好她"",""坏她"",""坏我""]","[""强我"",""强她"",""弱她"",""弱我""]","","","","","","","","","","","","","","","","","","","","","","","","","","","","","","feedback_test","","","","","","","","",""
"637","","j","psychophysics","68","243010","0.0-8.0-1.0-1.0-0.0-0.29","6","5","7","6","6","5","4","5","5","5","5","1","0","1","0","2","0","1","2","5","5","5","5","5","4","5","5","5","4","3","4","2","7","2","8","6","5","6","7","3","2","7","7","5","6","1","7","3","1","7","6","6","3","5","5","6","3","3","7","3","3","3","2","3","7","3","6","6","7","7","3","6","1","7","5","6","6","5","4","769498068633784321","林","459","Female","[""好我"",""好她"",""坏她"",""坏我""]","[""强我"",""强她"",""弱她"",""弱我""]","","","","","","","","match","","","","","","","","","","key","j","16.66701030927847","680","380","j","true","match","img/trapezoid.png","强我","强我","prac_ALT2_ability","practice_ability","","","","","","","","",""
"null","<span style='color:GreenYellow; font-size: 70px;'>正确! </span>","null","html-keyboard-response","69","243511","0.0-8.0-1.0-1.0-0.0-1.29","6","5","7","6","6","5","4","5","5","5","5","1","0","1","0","2","0","1","2","5","5","5","5","5","4","5","5","5","4","3","4","2","7","2","8","6","5","6","7","3","2","7","7","5","6","1","7","3","1","7","6","6","3","5","5","6","3","3","7","3","3","3","2","3","7","3","6","6","7","7","3","6","1","7","5","6","6","5","4","769498068633784321","林","459","Female","[""好我"",""好她"",""坏她"",""坏我""]","[""强我"",""强她"",""弱她"",""弱我""]","","","","","","","","","","","","","","","","","","","","","","","","","","","","","","feedback_test","","","","","","","","",""
"701","","f","psychophysics","70","245213","0.0-8.0-1.0-1.0-0.0-0.30","6","5","7","6","6","5","4","5","5","5","5","1","0","1","0","2","0","1","2","5","5","5","5","5","4","5","5","5","4","3","4","2","7","2","8","6","5","6","7","3","2","7","7","5","6","1","7","3","1","7","6","6","3","5","5","6","3","3","7","3","3","3","2","3","7","3","6","6","7","7","3","6","1","7","5","6","6","5","4","769498068633784321","林","459","Female","[""好我"",""好她"",""坏她"",""坏我""]","[""强我"",""强她"",""弱她"",""弱我""]","","","","","","","","nonmatch","","","","","","","","","","key","f","16.667326732673498","680","380","f","true","nonmatch","img/circle.png","强我","弱我","prac_ALT2_ability","practice_ability","","","","","","","","",""
"null","<span style='color:GreenYellow; font-size: 70px;'>正确! </span>","null","html-keyboard-response","71","245714","0.0-8.0-1.0-1.0-0.0-1.30","6","5","7","6","6","5","4","5","5","5","5","1","0","1","0","2","0","1","2","5","5","5","5","5","4","5","5","5","4","3","4","2","7","2","8","6","5","6","7","3","2","7","7","5","6","1","7","3","1","7","6","6","3","5","5","6","3","3","7","3","3","3","2","3","7","3","6","6","7","7","3","6","1","7","5","6","6","5","4","769498068633784321","林","459","Female","[""好我"",""好她"",""坏她"",""坏我""]","[""强我"",""强她"",""弱她"",""弱我""]","","","","","","","","","","","","","","","","","","","","","","","","","","","","","","feedback_test","","","","","","","","",""
"765","","j","psychophysics","72","247480","0.0-8.0-1.0-1.0-0.0-0.31","6","5","7","6","6","5","4","5","5","5","5","1","0","1","0","2","0","1","2","5","5","5","5","5","4","5","5","5","4","3","4","2","7","2","8","6","5","6","7","3","2","7","7","5","6","1","7","3","1","7","6","6","3","5","5","6","3","3","7","3","3","3","2","3","7","3","6","6","7","7","3","6","1","7","5","6","6","5","4","769498068633784321","林","459","Female","[""好我"",""好她"",""坏她"",""坏我""]","[""强我"",""强她"",""弱她"",""弱我""]","","","","","","","","match","","","","","","","","","","key","j","16.667307692307638","680","380","j","true","match","img/trapezoid.png","强我","强我","prac_ALT2_ability","practice_ability","","","","","","","","",""
"null","<span style='color:GreenYellow; font-size: 70px;'>正确! </span>","null","html-keyboard-response","73","247982","0.0-8.0-1.0-1.0-0.0-1.31","6","5","7","6","6","5","4","5","5","5","5","1","0","1","0","2","0","1","2","5","5","5","5","5","4","5","5","5","4","3","4","2","7","2","8","6","5","6","7","3","2","7","7","5","6","1","7","3","1","7","6","6","3","5","5","6","3","3","7","3","3","3","2","3","7","3","6","6","7","7","3","6","1","7","5","6","6","5","4","769498068633784321","林","459","Female","[""好我"",""好她"",""坏她"",""坏我""]","[""强我"",""强她"",""弱她"",""弱我""]","","","","","","","","","","","","","","","","","","","","","","","","","","","","","","feedback_test","","","","","","","","",""
"637","","j","psychophysics","74","249621","0.0-8.0-1.0-1.0-0.0-0.32","6","5","7","6","6","5","4","5","5","5","5","1","0","1","0","2","0","1","2","5","5","5","5","5","4","5","5","5","4","3","4","2","7","2","8","6","5","6","7","3","2","7","7","5","6","1","7","3","1","7","6","6","3","5","5","6","3","3","7","3","3","3","2","3","7","3","6","6","7","7","3","6","1","7","5","6","6","5","4","769498068633784321","林","459","Female","[""好我"",""好她"",""坏她"",""坏我""]","[""强我"",""强她"",""弱她"",""弱我""]","","","","","","","","match","","","","","","","","","","key","j","16.668041237113282","680","380","j","true","match","img/circle.png","弱我","弱我","prac_ALT2_ability","practice_ability","","","","","","","","",""
"null","<span style='color:GreenYellow; font-size: 70px;'>正确! </span>","null","html-keyboard-response","75","250123","0.0-8.0-1.0-1.0-0.0-1.32","6","5","7","6","6","5","4","5","5","5","5","1","0","1","0","2","0","1","2","5","5","5","5","5","4","5","5","5","4","3","4","2","7","2","8","6","5","6","7","3","2","7","7","5","6","1","7","3","1","7","6","6","3","5","5","6","3","3","7","3","3","3","2","3","7","3","6","6","7","7","3","6","1","7","5","6","6","5","4","769498068633784321","林","459","Female","[""好我"",""好她"",""坏她"",""坏我""]","[""强我"",""强她"",""弱她"",""弱我""]","","","","","","","","","","","","","","","","","","","","","","","","","","","","","","feedback_test","","","","","","","","",""
"826","","f","psychophysics","76","251950","0.0-8.0-1.0-1.0-0.0-0.33","6","5","7","6","6","5","4","5","5","5","5","1","0","1","0","2","0","1","2","5","5","5","5","5","4","5","5","5","4","3","4","2","7","2","8","6","5","6","7","3","2","7","7","5","6","1","7","3","1","7","6","6","3","5","5","6","3","3","7","3","3","3","2","3","7","3","6","6","7","7","3","6","1","7","5","6","6","5","4","769498068633784321","林","459","Female","[""好我"",""好她"",""坏她"",""坏我""]","[""强我"",""强她"",""弱她"",""弱我""]","","","","","","","","nonmatch","","","","","","","","","","key","f","16.666972477064327","680","380","f","true","nonmatch","img/triangle.png","强我","弱她","prac_ALT2_ability","practice_ability","","","","","","","","",""
"null","<span style='color:GreenYellow; font-size: 70px;'>正确! </span>","null","html-keyboard-response","77","252451","0.0-8.0-1.0-1.0-0.0-1.33","6","5","7","6","6","5","4","5","5","5","5","1","0","1","0","2","0","1","2","5","5","5","5","5","4","5","5","5","4","3","4","2","7","2","8","6","5","6","7","3","2","7","7","5","6","1","7","3","1","7","6","6","3","5","5","6","3","3","7","3","3","3","2","3","7","3","6","6","7","7","3","6","1","7","5","6","6","5","4","769498068633784321","林","459","Female","[""好我"",""好她"",""坏她"",""坏我""]","[""强我"",""强她"",""弱她"",""弱我""]","","","","","","","","","","","","","","","","","","","","","","","","","","","","","","feedback_test","","","","","","","","",""
"706","","j","psychophysics","78","254158","0.0-8.0-1.0-1.0-0.0-0.34","6","5","7","6","6","5","4","5","5","5","5","1","0","1","0","2","0","1","2","5","5","5","5","5","4","5","5","5","4","3","4","2","7","2","8","6","5","6","7","3","2","7","7","5","6","1","7","3","1","7","6","6","3","5","5","6","3","3","7","3","3","3","2","3","7","3","6","6","7","7","3","6","1","7","5","6","6","5","4","769498068633784321","林","459","Female","[""好我"",""好她"",""坏她"",""坏我""]","[""强我"",""强她"",""弱她"",""弱我""]","","","","","","","","match","","","","","","","","","","key","j","16.667326732673498","680","380","j","true","match","img/pentagon.png","强她","强她","prac_ALT2_ability","practice_ability","","","","","","","","",""
"null","<span style='color:GreenYellow; font-size: 70px;'>正确! </span>","null","html-keyboard-response","79","254660","0.0-8.0-1.0-1.0-0.0-1.34","6","5","7","6","6","5","4","5","5","5","5","1","0","1","0","2","0","1","2","5","5","5","5","5","4","5","5","5","4","3","4","2","7","2","8","6","5","6","7","3","2","7","7","5","6","1","7","3","1","7","6","6","3","5","5","6","3","3","7","3","3","3","2","3","7","3","6","6","7","7","3","6","1","7","5","6","6","5","4","769498068633784321","林","459","Female","[""好我"",""好她"",""坏她"",""坏我""]","[""强我"",""强她"",""弱她"",""弱我""]","","","","","","","","","","","","","","","","","","","","","","","","","","","","","","feedback_test","","","","","","","","",""
"850","","f","psychophysics","80","256511","0.0-8.0-1.0-1.0-0.0-0.35","6","5","7","6","6","5","4","5","5","5","5","1","0","1","0","2","0","1","2","5","5","5","5","5","4","5","5","5","4","3","4","2","7","2","8","6","5","6","7","3","2","7","7","5","6","1","7","3","1","7","6","6","3","5","5","6","3","3","7","3","3","3","2","3","7","3","6","6","7","7","3","6","1","7","5","6","6","5","4","769498068633784321","林","459","Female","[""好我"",""好她"",""坏她"",""坏我""]","[""强我"",""强她"",""弱她"",""弱我""]","","","","","","","","nonmatch","","","","","","","","","","key","f","16.668181818181818","680","380","f","true","nonmatch","img/pentagon.png","强我","强她","prac_ALT2_ability","practice_ability","","","","","","","","",""
"null","<span style='color:GreenYellow; font-size: 70px;'>正确! </span>","null","html-keyboard-response","81","257013","0.0-8.0-1.0-1.0-0.0-1.35","6","5","7","6","6","5","4","5","5","5","5","1","0","1","0","2","0","1","2","5","5","5","5","5","4","5","5","5","4","3","4","2","7","2","8","6","5","6","7","3","2","7","7","5","6","1","7","3","1","7","6","6","3","5","5","6","3","3","7","3","3","3","2","3","7","3","6","6","7","7","3","6","1","7","5","6","6","5","4","769498068633784321","林","459","Female","[""好我"",""好她"",""坏她"",""坏我""]","[""强我"",""强她"",""弱她"",""弱我""]","","","","","","","","","","","","","","","","","","","","","","","","","","","","","","feedback_test","","","","","","","","",""
"997","","f","psychophysics","82","259011","0.0-8.0-1.0-1.0-0.0-0.36","6","5","7","6","6","5","4","5","5","5","5","1","0","1","0","2","0","1","2","5","5","5","5","5","4","5","5","5","4","3","4","2","7","2","8","6","5","6","7","3","2","7","7","5","6","1","7","3","1","7","6","6","3","5","5","6","3","3","7","3","3","3","2","3","7","3","6","6","7","7","3","6","1","7","5","6","6","5","4","769498068633784321","林","459","Female","[""好我"",""好她"",""坏她"",""坏我""]","[""强我"",""强她"",""弱她"",""弱我""]","","","","","","","","nonmatch","","","","","","","","","","key","f","16.661016949152543","680","380","f","true","nonmatch","img/trapezoid.png","弱她","强我","prac_ALT2_ability","practice_ability","","","","","","","","",""
"null","<span style='color:GreenYellow; font-size: 70px;'>正确! </span>","null","html-keyboard-response","83","259512","0.0-8.0-1.0-1.0-0.0-1.36","6","5","7","6","6","5","4","5","5","5","5","1","0","1","0","2","0","1","2","5","5","5","5","5","4","5","5","5","4","3","4","2","7","2","8","6","5","6","7","3","2","7","7","5","6","1","7","3","1","7","6","6","3","5","5","6","3","3","7","3","3","3","2","3","7","3","6","6","7","7","3","6","1","7","5","6","6","5","4","769498068633784321","林","459","Female","[""好我"",""好她"",""坏她"",""坏我""]","[""强我"",""强她"",""弱她"",""弱我""]","","","","","","","","","","","","","","","","","","","","","","","","","","","","","","feedback_test","","","","","","","","",""
"759","","j","psychophysics","84","261274","0.0-8.0-1.0-1.0-0.0-0.37","6","5","7","6","6","5","4","5","5","5","5","1","0","1","0","2","0","1","2","5","5","5","5","5","4","5","5","5","4","3","4","2","7","2","8","6","5","6","7","3","2","7","7","5","6","1","7","3","1","7","6","6","3","5","5","6","3","3","7","3","3","3","2","3","7","3","6","6","7","7","3","6","1","7","5","6","6","5","4","769498068633784321","林","459","Female","[""好我"",""好她"",""坏她"",""坏我""]","[""强我"",""强她"",""弱她"",""弱我""]","","","","","","","","match","","","","","","","","","","key","j","16.666666666666945","680","380","j","true","match","img/circle.png","弱我","弱我","prac_ALT2_ability","practice_ability","","","","","","","","",""
"null","<span style='color:GreenYellow; font-size: 70px;'>正确! </span>","null","html-keyboard-response","85","261787","0.0-8.0-1.0-1.0-0.0-1.37","6","5","7","6","6","5","4","5","5","5","5","1","0","1","0","2","0","1","2","5","5","5","5","5","4","5","5","5","4","3","4","2","7","2","8","6","5","6","7","3","2","7","7","5","6","1","7","3","1","7","6","6","3","5","5","6","3","3","7","3","3","3","2","3","7","3","6","6","7","7","3","6","1","7","5","6","6","5","4","769498068633784321","林","459","Female","[""好我"",""好她"",""坏她"",""坏我""]","[""强我"",""强她"",""弱她"",""弱我""]","","","","","","","","","","","","","","","","","","","","","","","","","","","","","","feedback_test","","","","","","","","",""
"823","","f","psychophysics","86","263610","0.0-8.0-1.0-1.0-0.0-0.38","6","5","7","6","6","5","4","5","5","5","5","1","0","1","0","2","0","1","2","5","5","5","5","5","4","5","5","5","4","3","4","2","7","2","8","6","5","6","7","3","2","7","7","5","6","1","7","3","1","7","6","6","3","5","5","6","3","3","7","3","3","3","2","3","7","3","6","6","7","7","3","6","1","7","5","6","6","5","4","769498068633784321","林","459","Female","[""好我"",""好她"",""坏她"",""坏我""]","[""强我"",""强她"",""弱她"",""弱我""]","","","","","","","","nonmatch","","","","","","","","","","key","f","16.666666666666668","680","380","f","true","nonmatch","img/trapezoid.png","强她","强我","prac_ALT2_ability","practice_ability","","","","","","","","",""
"null","<span style='color:GreenYellow; font-size: 70px;'>正确! </span>","null","html-keyboard-response","87","264112","0.0-8.0-1.0-1.0-0.0-1.38","6","5","7","6","6","5","4","5","5","5","5","1","0","1","0","2","0","1","2","5","5","5","5","5","4","5","5","5","4","3","4","2","7","2","8","6","5","6","7","3","2","7","7","5","6","1","7","3","1","7","6","6","3","5","5","6","3","3","7","3","3","3","2","3","7","3","6","6","7","7","3","6","1","7","5","6","6","5","4","769498068633784321","林","459","Female","[""好我"",""好她"",""坏她"",""坏我""]","[""强我"",""强她"",""弱她"",""弱我""]","","","","","","","","","","","","","","","","","","","","","","","","","","","","","","feedback_test","","","","","","","","",""
"922","","j","psychophysics","88","266037","0.0-8.0-1.0-1.0-0.0-0.39","6","5","7","6","6","5","4","5","5","5","5","1","0","1","0","2","0","1","2","5","5","5","5","5","4","5","5","5","4","3","4","2","7","2","8","6","5","6","7","3","2","7","7","5","6","1","7","3","1","7","6","6","3","5","5","6","3","3","7","3","3","3","2","3","7","3","6","6","7","7","3","6","1","7","5","6","6","5","4","769498068633784321","林","459","Female","[""好我"",""好她"",""坏她"",""坏我""]","[""强我"",""强她"",""弱她"",""弱我""]","","","","","","","","match","","","","","","","","","","key","j","16.666956521738726","680","380","f","false","nonmatch","img/triangle.png","强她","弱她","prac_ALT2_ability","practice_ability","","","","","","","","",""
"null","<span style='color:red; font-size: 70px;'>错误! </span>","null","html-keyboard-response","89","266538","0.0-8.0-1.0-1.0-0.0-1.39","6","5","7","6","6","5","4","5","5","5","5","1","0","1","0","2","0","1","2","5","5","5","5","5","4","5","5","5","4","3","4","2","7","2","8","6","5","6","7","3","2","7","7","5","6","1","7","3","1","7","6","6","3","5","5","6","3","3","7","3","3","3","2","3","7","3","6","6","7","7","3","6","1","7","5","6","6","5","4","769498068633784321","林","459","Female","[""好我"",""好她"",""坏她"",""坏我""]","[""强我"",""强她"",""弱她"",""弱我""]","","","","","","","","","","","","","","","","","","","","","","","","","","","","","","feedback_test","","","","","","","","",""
"587","","j","psychophysics","90","268126","0.0-8.0-1.0-1.0-0.0-0.40","6","5","7","6","6","5","4","5","5","5","5","1","0","1","0","2","0","1","2","5","5","5","5","5","4","5","5","5","4","3","4","2","7","2","8","6","5","6","7","3","2","7","7","5","6","1","7","3","1","7","6","6","3","5","5","6","3","3","7","3","3","3","2","3","7","3","6","6","7","7","3","6","1","7","5","6","6","5","4","769498068633784321","林","459","Female","[""好我"",""好她"",""坏她"",""坏我""]","[""强我"",""强她"",""弱她"",""弱我""]","","","","","","","","match","","","","","","","","","","key","j","16.667021276595868","680","380","j","true","match","img/pentagon.png","强她","强她","prac_ALT2_ability","practice_ability","","","","","","","","",""
"null","<span style='color:GreenYellow; font-size: 70px;'>正确! </span>","null","html-keyboard-response","91","268627","0.0-8.0-1.0-1.0-0.0-1.40","6","5","7","6","6","5","4","5","5","5","5","1","0","1","0","2","0","1","2","5","5","5","5","5","4","5","5","5","4","3","4","2","7","2","8","6","5","6","7","3","2","7","7","5","6","1","7","3","1","7","6","6","3","5","5","6","3","3","7","3","3","3","2","3","7","3","6","6","7","7","3","6","1","7","5","6","6","5","4","769498068633784321","林","459","Female","[""好我"",""好她"",""坏她"",""坏我""]","[""强我"",""强她"",""弱她"",""弱我""]","","","","","","","","","","","","","","","","","","","","","","","","","","","","","","feedback_test","","","","","","","","",""
"573","","j","psychophysics","92","270202","0.0-8.0-1.0-1.0-0.0-0.41","6","5","7","6","6","5","4","5","5","5","5","1","0","1","0","2","0","1","2","5","5","5","5","5","4","5","5","5","4","3","4","2","7","2","8","6","5","6","7","3","2","7","7","5","6","1","7","3","1","7","6","6","3","5","5","6","3","3","7","3","3","3","2","3","7","3","6","6","7","7","3","6","1","7","5","6","6","5","4","769498068633784321","林","459","Female","[""好我"",""好她"",""坏她"",""坏我""]","[""强我"",""强她"",""弱她"",""弱我""]","","","","","","","","match","","","","","","","","","","key","j","16.665957446808882","680","380","j","true","match","img/pentagon.png","强她","强她","prac_ALT2_ability","practice_ability","","","","","","","","",""
"null","<span style='color:GreenYellow; font-size: 70px;'>正确! </span>","null","html-keyboard-response","93","270703","0.0-8.0-1.0-1.0-0.0-1.41","6","5","7","6","6","5","4","5","5","5","5","1","0","1","0","2","0","1","2","5","5","5","5","5","4","5","5","5","4","3","4","2","7","2","8","6","5","6","7","3","2","7","7","5","6","1","7","3","1","7","6","6","3","5","5","6","3","3","7","3","3","3","2","3","7","3","6","6","7","7","3","6","1","7","5","6","6","5","4","769498068633784321","林","459","Female","[""好我"",""好她"",""坏她"",""坏我""]","[""强我"",""强她"",""弱她"",""弱我""]","","","","","","","","","","","","","","","","","","","","","","","","","","","","","","feedback_test","","","","","","","","",""
"726","","j","psychophysics","94","272430","0.0-8.0-1.0-1.0-0.0-0.42","6","5","7","6","6","5","4","5","5","5","5","1","0","1","0","2","0","1","2","5","5","5","5","5","4","5","5","5","4","3","4","2","7","2","8","6","5","6","7","3","2","7","7","5","6","1","7","3","1","7","6","6","3","5","5","6","3","3","7","3","3","3","2","3","7","3","6","6","7","7","3","6","1","7","5","6","6","5","4","769498068633784321","林","459","Female","[""好我"",""好她"",""坏她"",""坏我""]","[""强我"",""强她"",""弱她"",""弱我""]","","","","","","","","match","","","","","","","","","","key","j","16.666666666666668","680","380","j","true","match","img/circle.png","弱我","弱我","prac_ALT2_ability","practice_ability","","","","","","","","",""
"null","<span style='color:GreenYellow; font-size: 70px;'>正确! </span>","null","html-keyboard-response","95","272932","0.0-8.0-1.0-1.0-0.0-1.42","6","5","7","6","6","5","4","5","5","5","5","1","0","1","0","2","0","1","2","5","5","5","5","5","4","5","5","5","4","3","4","2","7","2","8","6","5","6","7","3","2","7","7","5","6","1","7","3","1","7","6","6","3","5","5","6","3","3","7","3","3","3","2","3","7","3","6","6","7","7","3","6","1","7","5","6","6","5","4","769498068633784321","林","459","Female","[""好我"",""好她"",""坏她"",""坏我""]","[""强我"",""强她"",""弱她"",""弱我""]","","","","","","","","","","","","","","","","","","","","","","","","","","","","","","feedback_test","","","","","","","","",""
"1163","","f","psychophysics","96","275097","0.0-8.0-1.0-1.0-0.0-0.43","6","5","7","6","6","5","4","5","5","5","5","1","0","1","0","2","0","1","2","5","5","5","5","5","4","5","5","5","4","3","4","2","7","2","8","6","5","6","7","3","2","7","7","5","6","1","7","3","1","7","6","6","3","5","5","6","3","3","7","3","3","3","2","3","7","3","6","6","7","7","3","6","1","7","5","6","6","5","4","769498068633784321","林","459","Female","[""好我"",""好她"",""坏她"",""坏我""]","[""强我"",""强她"",""弱她"",""弱我""]","","","","","","","","nonmatch","","","","","","","","","","key","f","16.667187499999727","680","380","j","false","match","img/triangle.png","弱她","弱她","prac_ALT2_ability","practice_ability","","","","","","","","",""
"null","<span style='color:red; font-size: 70px;'>错误! </span>","null","html-keyboard-response","97","275597","0.0-8.0-1.0-1.0-0.0-1.43","6","5","7","6","6","5","4","5","5","5","5","1","0","1","0","2","0","1","2","5","5","5","5","5","4","5","5","5","4","3","4","2","7","2","8","6","5","6","7","3","2","7","7","5","6","1","7","3","1","7","6","6","3","5","5","6","3","3","7","3","3","3","2","3","7","3","6","6","7","7","3","6","1","7","5","6","6","5","4","769498068633784321","林","459","Female","[""好我"",""好她"",""坏她"",""坏我""]","[""强我"",""强她"",""弱她"",""弱我""]","","","","","","","","","","","","","","","","","","","","","","","","","","","","","","feedback_test","","","","","","","","",""
"738","","f","psychophysics","98","277336","0.0-8.0-1.0-1.0-0.0-0.44","6","5","7","6","6","5","4","5","5","5","5","1","0","1","0","2","0","1","2","5","5","5","5","5","4","5","5","5","4","3","4","2","7","2","8","6","5","6","7","3","2","7","7","5","6","1","7","3","1","7","6","6","3","5","5","6","3","3","7","3","3","3","2","3","7","3","6","6","7","7","3","6","1","7","5","6","6","5","4","769498068633784321","林","459","Female","[""好我"",""好她"",""坏她"",""坏我""]","[""强我"",""强她"",""弱她"",""弱我""]","","","","","","","","nonmatch","","","","","","","","","","key","f","16.666990291261683","680","380","f","true","nonmatch","img/pentagon.png","弱我","强她","prac_ALT2_ability","practice_ability","","","","","","","","",""
"null","<span style='color:GreenYellow; font-size: 70px;'>正确! </span>","null","html-keyboard-response","99","277839","0.0-8.0-1.0-1.0-0.0-1.44","6","5","7","6","6","5","4","5","5","5","5","1","0","1","0","2","0","1","2","5","5","5","5","5","4","5","5","5","4","3","4","2","7","2","8","6","5","6","7","3","2","7","7","5","6","1","7","3","1","7","6","6","3","5","5","6","3","3","7","3","3","3","2","3","7","3","6","6","7","7","3","6","1","7","5","6","6","5","4","769498068633784321","林","459","Female","[""好我"",""好她"",""坏她"",""坏我""]","[""强我"",""强她"",""弱她"",""弱我""]","","","","","","","","","","","","","","","","","","","","","","","","","","","","","","feedback_test","","","","","","","","",""
"1074","","f","psychophysics","100","279917","0.0-8.0-1.0-1.0-0.0-0.45","6","5","7","6","6","5","4","5","5","5","5","1","0","1","0","2","0","1","2","5","5","5","5","5","4","5","5","5","4","3","4","2","7","2","8","6","5","6","7","3","2","7","7","5","6","1","7","3","1","7","6","6","3","5","5","6","3","3","7","3","3","3","2","3","7","3","6","6","7","7","3","6","1","7","5","6","6","5","4","769498068633784321","林","459","Female","[""好我"",""好她"",""坏她"",""坏我""]","[""强我"",""强她"",""弱她"",""弱我""]","","","","","","","","nonmatch","","","","","","","","","","key","f","16.666129032258347","680","380","f","true","nonmatch","img/trapezoid.png","弱我","强我","prac_ALT2_ability","practice_ability","","","","","","","","",""
"null","<span style='color:GreenYellow; font-size: 70px;'>正确! </span>","null","html-keyboard-response","101","280418","0.0-8.0-1.0-1.0-0.0-1.45","6","5","7","6","6","5","4","5","5","5","5","1","0","1","0","2","0","1","2","5","5","5","5","5","4","5","5","5","4","3","4","2","7","2","8","6","5","6","7","3","2","7","7","5","6","1","7","3","1","7","6","6","3","5","5","6","3","3","7","3","3","3","2","3","7","3","6","6","7","7","3","6","1","7","5","6","6","5","4","769498068633784321","林","459","Female","[""好我"",""好她"",""坏她"",""坏我""]","[""强我"",""强她"",""弱她"",""弱我""]","","","","","","","","","","","","","","","","","","","","","","","","","","","","","","feedback_test","","","","","","","","",""
"669","","f","psychophysics","102","282089","0.0-8.0-1.0-1.0-0.0-0.46","6","5","7","6","6","5","4","5","5","5","5","1","0","1","0","2","0","1","2","5","5","5","5","5","4","5","5","5","4","3","4","2","7","2","8","6","5","6","7","3","2","7","7","5","6","1","7","3","1","7","6","6","3","5","5","6","3","3","7","3","3","3","2","3","7","3","6","6","7","7","3","6","1","7","5","6","6","5","4","769498068633784321","林","459","Female","[""好我"",""好她"",""坏她"",""坏我""]","[""强我"",""强她"",""弱她"",""弱我""]","","","","","","","","nonmatch","","","","","","","","","","key","f","16.667676767677122","680","380","f","true","nonmatch","img/circle.png","强她","弱我","prac_ALT2_ability","practice_ability","","","","","","","","",""
"null","<span style='color:GreenYellow; font-size: 70px;'>正确! </span>","null","html-keyboard-response","103","282590","0.0-8.0-1.0-1.0-0.0-1.46","6","5","7","6","6","5","4","5","5","5","5","1","0","1","0","2","0","1","2","5","5","5","5","5","4","5","5","5","4","3","4","2","7","2","8","6","5","6","7","3","2","7","7","5","6","1","7","3","1","7","6","6","3","5","5","6","3","3","7","3","3","3","2","3","7","3","6","6","7","7","3","6","1","7","5","6","6","5","4","769498068633784321","林","459","Female","[""好我"",""好她"",""坏她"",""坏我""]","[""强我"",""强她"",""弱她"",""弱我""]","","","","","","","","","","","","","","","","","","","","","","","","","","","","","","feedback_test","","","","","","","","",""
"1120","","f","psychophysics","104","284712","0.0-8.0-1.0-1.0-0.0-0.47","6","5","7","6","6","5","4","5","5","5","5","1","0","1","0","2","0","1","2","5","5","5","5","5","4","5","5","5","4","3","4","2","7","2","8","6","5","6","7","3","2","7","7","5","6","1","7","3","1","7","6","6","3","5","5","6","3","3","7","3","3","3","2","3","7","3","6","6","7","7","3","6","1","7","5","6","6","5","4","769498068633784321","林","459","Female","[""好我"",""好她"",""坏她"",""坏我""]","[""强我"",""强她"",""弱她"",""弱我""]","","","","","","","","nonmatch","","","","","","","","","","key","f","16.667460317460595","680","380","j","false","match","img/triangle.png","弱她","弱她","prac_ALT2_ability","practice_ability","","","","","","","","",""
"null","<span style='color:red; font-size: 70px;'>错误! </span>","null","html-keyboard-response","105","285213","0.0-8.0-1.0-1.0-0.0-1.47","6","5","7","6","6","5","4","5","5","5","5","1","0","1","0","2","0","1","2","5","5","5","5","5","4","5","5","5","4","3","4","2","7","2","8","6","5","6","7","3","2","7","7","5","6","1","7","3","1","7","6","6","3","5","5","6","3","3","7","3","3","3","2","3","7","3","6","6","7","7","3","6","1","7","5","6","6","5","4","769498068633784321","林","459","Female","[""好我"",""好她"",""坏她"",""坏我""]","[""强我"",""强她"",""弱她"",""弱我""]","","","","","","","","","","","","","","","","","","","","","","","","","","","","","","feedback_test","","","","","","","","",""
"23245","<style>.context{color:white; font-size: 35px; line-height:40px}</style>                          <div><p class='context'>您正确回答了75% 的试次。</p><p class='context'>您的平均反应时为789毫秒。</p><p class='context'>恭喜您完成练习。按空格键进入正式实验。</p><p class='footer' style='color:white;font-size: 35px; line-height:40px;'>请在进入正式实验实验之前将您的<span style='color: lightgreen;'>食指</span>放在电脑键盘的相应键位上进行按键。</p>"," ","html-keyboard-response","106","308461","0.0-8.0-1.0-2.0","6","5","7","6","6","5","4","5","5","5","5","1","0","1","0","2","0","1","2","5","5","5","5","5","4","5","5","5","4","3","4","2","7","2","8","6","5","6","7","3","2","7","7","5","6","1","7","3","1","7","6","6","3","5","5","6","3","3","7","3","3","3","2","3","7","3","6","6","7","7","3","6","1","7","5","6","6","5","4","769498068633784321","林","459","Female","[""好我"",""好她"",""坏她"",""坏我""]","[""强我"",""强她"",""弱她"",""弱我""]","","","","","","","","","","","","","","","","","","","","","","","","","","","","","","","","","","","","","","",""
"3156","
  <p style='color: white; font-size: 22px'>请您将手指放在按键上，准备进入正式的匹配任务。</p>
  <p> <div style = ""color: green""><按空格键进入下一阶段的匹配任务></div></p>
  "," ","html-keyboard-response","107","311620","0.0-8.0-1.0-3.0","6","5","7","6","6","5","4","5","5","5","5","1","0","1","0","2","0","1","2","5","5","5","5","5","4","5","5","5","4","3","4","2","7","2","8","6","5","6","7","3","2","7","7","5","6","1","7","3","1","7","6","6","3","5","5","6","3","3","7","3","3","3","2","3","7","3","6","6","7","7","3","6","1","7","5","6","6","5","4","769498068633784321","林","459","Female","[""好我"",""好她"",""坏她"",""坏我""]","[""强我"",""强她"",""弱她"",""弱我""]","","","","","","","","","","","","","","","","","","","","","","","","","","","","","","","","","","","","","","",""
"932","","f","psychophysics","108","313553","0.0-8.0-1.0-4.0-0.0-0.0","6","5","7","6","6","5","4","5","5","5","5","1","0","1","0","2","0","1","2","5","5","5","5","5","4","5","5","5","4","3","4","2","7","2","8","6","5","6","7","3","2","7","7","5","6","1","7","3","1","7","6","6","3","5","5","6","3","3","7","3","3","3","2","3","7","3","6","6","7","7","3","6","1","7","5","6","6","5","4","769498068633784321","林","459","Female","[""好我"",""好她"",""坏她"",""坏我""]","[""强我"",""强她"",""弱她"",""弱我""]","","","","","","","","nonmatch","","","","","","","","","","key","f","16.667826086956925","680","380","j","false","match","img/triangle.png","弱她","弱她","ALT2","ability","","","","","","","","",""
"null","<span style='color:red; font-size: 70px;'>错误! </span>","null","html-keyboard-response","109","314054","0.0-8.0-1.0-4.0-0.0-1.0","6","5","7","6","6","5","4","5","5","5","5","1","0","1","0","2","0","1","2","5","5","5","5","5","4","5","5","5","4","3","4","2","7","2","8","6","5","6","7","3","2","7","7","5","6","1","7","3","1","7","6","6","3","5","5","6","3","3","7","3","3","3","2","3","7","3","6","6","7","7","3","6","1","7","5","6","6","5","4","769498068633784321","林","459","Female","[""好我"",""好她"",""坏她"",""坏我""]","[""强我"",""强她"",""弱她"",""弱我""]","","","","","","","","","","","","","","","","","","","","","","","","","","","","","","feedback_test","","","","","","","","",""
"733","","f","psychophysics","110","315788","0.0-8.0-1.0-4.0-0.0-0.1","6","5","7","6","6","5","4","5","5","5","5","1","0","1","0","2","0","1","2","5","5","5","5","5","4","5","5","5","4","3","4","2","7","2","8","6","5","6","7","3","2","7","7","5","6","1","7","3","1","7","6","6","3","5","5","6","3","3","7","3","3","3","2","3","7","3","6","6","7","7","3","6","1","7","5","6","6","5","4","769498068633784321","林","459","Female","[""好我"",""好她"",""坏她"",""坏我""]","[""强我"",""强她"",""弱她"",""弱我""]","","","","","","","","nonmatch","","","","","","","","","","key","f","16.66699029126225","680","380","f","true","nonmatch","img/trapezoid.png","弱她","强我","ALT2","ability","","","","","","","","",""
"null","<span style='color:GreenYellow; font-size: 70px;'>正确! </span>","null","html-keyboard-response","111","316289","0.0-8.0-1.0-4.0-0.0-1.1","6","5","7","6","6","5","4","5","5","5","5","1","0","1","0","2","0","1","2","5","5","5","5","5","4","5","5","5","4","3","4","2","7","2","8","6","5","6","7","3","2","7","7","5","6","1","7","3","1","7","6","6","3","5","5","6","3","3","7","3","3","3","2","3","7","3","6","6","7","7","3","6","1","7","5","6","6","5","4","769498068633784321","林","459","Female","[""好我"",""好她"",""坏她"",""坏我""]","[""强我"",""强她"",""弱她"",""弱我""]","","","","","","","","","","","","","","","","","","","","","","","","","","","","","","feedback_test","","","","","","","","",""
"569","","j","psychophysics","112","317861","0.0-8.0-1.0-4.0-0.0-0.2","6","5","7","6","6","5","4","5","5","5","5","1","0","1","0","2","0","1","2","5","5","5","5","5","4","5","5","5","4","3","4","2","7","2","8","6","5","6","7","3","2","7","7","5","6","1","7","3","1","7","6","6","3","5","5","6","3","3","7","3","3","3","2","3","7","3","6","6","7","7","3","6","1","7","5","6","6","5","4","769498068633784321","林","459","Female","[""好我"",""好她"",""坏她"",""坏我""]","[""强我"",""强她"",""弱她"",""弱我""]","","","","","","","","match","","","","","","","","","","key","j","16.667741935484248","680","380","j","true","match","img/trapezoid.png","强我","强我","ALT2","ability","","","","","","","","",""
"null","<span style='color:GreenYellow; font-size: 70px;'>正确! </span>","null","html-keyboard-response","113","318362","0.0-8.0-1.0-4.0-0.0-1.2","6","5","7","6","6","5","4","5","5","5","5","1","0","1","0","2","0","1","2","5","5","5","5","5","4","5","5","5","4","3","4","2","7","2","8","6","5","6","7","3","2","7","7","5","6","1","7","3","1","7","6","6","3","5","5","6","3","3","7","3","3","3","2","3","7","3","6","6","7","7","3","6","1","7","5","6","6","5","4","769498068633784321","林","459","Female","[""好我"",""好她"",""坏她"",""坏我""]","[""强我"",""强她"",""弱她"",""弱我""]","","","","","","","","","","","","","","","","","","","","","","","","","","","","","","feedback_test","","","","","","","","",""
"649","","f","psychophysics","114","320012","0.0-8.0-1.0-4.0-0.0-0.3","6","5","7","6","6","5","4","5","5","5","5","1","0","1","0","2","0","1","2","5","5","5","5","5","4","5","5","5","4","3","4","2","7","2","8","6","5","6","7","3","2","7","7","5","6","1","7","3","1","7","6","6","3","5","5","6","3","3","7","3","3","3","2","3","7","3","6","6","7","7","3","6","1","7","5","6","6","5","4","769498068633784321","林","459","Female","[""好我"",""好她"",""坏她"",""坏我""]","[""强我"",""强她"",""弱她"",""弱我""]","","","","","","","","nonmatch","","","","","","","","","","key","f","16.667346938775747","680","380","f","true","nonmatch","img/trapezoid.png","强她","强我","ALT2","ability","","","","","","","","",""
"null","<span style='color:GreenYellow; font-size: 70px;'>正确! </span>","null","html-keyboard-response","115","320513","0.0-8.0-1.0-4.0-0.0-1.3","6","5","7","6","6","5","4","5","5","5","5","1","0","1","0","2","0","1","2","5","5","5","5","5","4","5","5","5","4","3","4","2","7","2","8","6","5","6","7","3","2","7","7","5","6","1","7","3","1","7","6","6","3","5","5","6","3","3","7","3","3","3","2","3","7","3","6","6","7","7","3","6","1","7","5","6","6","5","4","769498068633784321","林","459","Female","[""好我"",""好她"",""坏她"",""坏我""]","[""强我"",""强她"",""弱她"",""弱我""]","","","","","","","","","","","","","","","","","","","","","","","","","","","","","","feedback_test","","","","","","","","",""
"751","","j","psychophysics","116","322266","0.0-8.0-1.0-4.0-0.0-0.4","6","5","7","6","6","5","4","5","5","5","5","1","0","1","0","2","0","1","2","5","5","5","5","5","4","5","5","5","4","3","4","2","7","2","8","6","5","6","7","3","2","7","7","5","6","1","7","3","1","7","6","6","3","5","5","6","3","3","7","3","3","3","2","3","7","3","6","6","7","7","3","6","1","7","5","6","6","5","4","769498068633784321","林","459","Female","[""好我"",""好她"",""坏她"",""坏我""]","[""强我"",""强她"",""弱她"",""弱我""]","","","","","","","","match","","","","","","","","","","key","j","16.65961538461516","680","380","j","true","match","img/circle.png","弱我","弱我","ALT2","ability","","","","","","","","",""
"null","<span style='color:GreenYellow; font-size: 70px;'>正确! </span>","null","html-keyboard-response","117","322768","0.0-8.0-1.0-4.0-0.0-1.4","6","5","7","6","6","5","4","5","5","5","5","1","0","1","0","2","0","1","2","5","5","5","5","5","4","5","5","5","4","3","4","2","7","2","8","6","5","6","7","3","2","7","7","5","6","1","7","3","1","7","6","6","3","5","5","6","3","3","7","3","3","3","2","3","7","3","6","6","7","7","3","6","1","7","5","6","6","5","4","769498068633784321","林","459","Female","[""好我"",""好她"",""坏她"",""坏我""]","[""强我"",""强她"",""弱她"",""弱我""]","","","","","","","","","","","","","","","","","","","","","","","","","","","","","","feedback_test","","","","","","","","",""
"692","","j","psychophysics","118","324461","0.0-8.0-1.0-4.0-0.0-0.5","6","5","7","6","6","5","4","5","5","5","5","1","0","1","0","2","0","1","2","5","5","5","5","5","4","5","5","5","4","3","4","2","7","2","8","6","5","6","7","3","2","7","7","5","6","1","7","3","1","7","6","6","3","5","5","6","3","3","7","3","3","3","2","3","7","3","6","6","7","7","3","6","1","7","5","6","6","5","4","769498068633784321","林","459","Female","[""好我"",""好她"",""坏她"",""坏我""]","[""强我"",""强她"",""弱她"",""弱我""]","","","","","","","","match","","","","","","","","","","key","j","16.668000000000465","680","380","j","true","match","img/trapezoid.png","强我","强我","ALT2","ability","","","","","","","","",""
"null","<span style='color:GreenYellow; font-size: 70px;'>正确! </span>","null","html-keyboard-response","119","324963","0.0-8.0-1.0-4.0-0.0-1.5","6","5","7","6","6","5","4","5","5","5","5","1","0","1","0","2","0","1","2","5","5","5","5","5","4","5","5","5","4","3","4","2","7","2","8","6","5","6","7","3","2","7","7","5","6","1","7","3","1","7","6","6","3","5","5","6","3","3","7","3","3","3","2","3","7","3","6","6","7","7","3","6","1","7","5","6","6","5","4","769498068633784321","林","459","Female","[""好我"",""好她"",""坏她"",""坏我""]","[""强我"",""强她"",""弱她"",""弱我""]","","","","","","","","","","","","","","","","","","","","","","","","","","","","","","feedback_test","","","","","","","","",""
"877","","f","psychophysics","120","326842","0.0-8.0-1.0-4.0-0.0-0.6","6","5","7","6","6","5","4","5","5","5","5","1","0","1","0","2","0","1","2","5","5","5","5","5","4","5","5","5","4","3","4","2","7","2","8","6","5","6","7","3","2","7","7","5","6","1","7","3","1","7","6","6","3","5","5","6","3","3","7","3","3","3","2","3","7","3","6","6","7","7","3","6","1","7","5","6","6","5","4","769498068633784321","林","459","Female","[""好我"",""好她"",""坏她"",""坏我""]","[""强我"",""强她"",""弱她"",""弱我""]","","","","","","","","nonmatch","","","","","","","","","","key","f","16.66216216216216","680","380","f","true","nonmatch","img/circle.png","强我","弱我","ALT2","ability","","","","","","","","",""
"null","<span style='color:GreenYellow; font-size: 70px;'>正确! </span>","null","html-keyboard-response","121","327343","0.0-8.0-1.0-4.0-0.0-1.6","6","5","7","6","6","5","4","5","5","5","5","1","0","1","0","2","0","1","2","5","5","5","5","5","4","5","5","5","4","3","4","2","7","2","8","6","5","6","7","3","2","7","7","5","6","1","7","3","1","7","6","6","3","5","5","6","3","3","7","3","3","3","2","3","7","3","6","6","7","7","3","6","1","7","5","6","6","5","4","769498068633784321","林","459","Female","[""好我"",""好她"",""坏她"",""坏我""]","[""强我"",""强她"",""弱她"",""弱我""]","","","","","","","","","","","","","","","","","","","","","","","","","","","","","","feedback_test","","","","","","","","",""
"650","","f","psychophysics","122","328996","0.0-8.0-1.0-4.0-0.0-0.7","6","5","7","6","6","5","4","5","5","5","5","1","0","1","0","2","0","1","2","5","5","5","5","5","4","5","5","5","4","3","4","2","7","2","8","6","5","6","7","3","2","7","7","5","6","1","7","3","1","7","6","6","3","5","5","6","3","3","7","3","3","3","2","3","7","3","6","6","7","7","3","6","1","7","5","6","6","5","4","769498068633784321","林","459","Female","[""好我"",""好她"",""坏她"",""坏我""]","[""强我"",""强她"",""弱她"",""弱我""]","","","","","","","","nonmatch","","","","","","","","","","key","f","16.667346938775747","680","380","f","true","nonmatch","img/trapezoid.png","弱我","强我","ALT2","ability","","","","","","","","",""
"null","<span style='color:GreenYellow; font-size: 70px;'>正确! </span>","null","html-keyboard-response","123","329497","0.0-8.0-1.0-4.0-0.0-1.7","6","5","7","6","6","5","4","5","5","5","5","1","0","1","0","2","0","1","2","5","5","5","5","5","4","5","5","5","4","3","4","2","7","2","8","6","5","6","7","3","2","7","7","5","6","1","7","3","1","7","6","6","3","5","5","6","3","3","7","3","3","3","2","3","7","3","6","6","7","7","3","6","1","7","5","6","6","5","4","769498068633784321","林","459","Female","[""好我"",""好她"",""坏她"",""坏我""]","[""强我"",""强她"",""弱她"",""弱我""]","","","","","","","","","","","","","","","","","","","","","","","","","","","","","","feedback_test","","","","","","","","",""
"640","","j","psychophysics","124","331138","0.0-8.0-1.0-4.0-0.0-0.8","6","5","7","6","6","5","4","5","5","5","5","1","0","1","0","2","0","1","2","5","5","5","5","5","4","5","5","5","4","3","4","2","7","2","8","6","5","6","7","3","2","7","7","5","6","1","7","3","1","7","6","6","3","5","5","6","3","3","7","3","3","3","2","3","7","3","6","6","7","7","3","6","1","7","5","6","6","5","4","769498068633784321","林","459","Female","[""好我"",""好她"",""坏她"",""坏我""]","[""强我"",""强她"",""弱她"",""弱我""]","","","","","","","","match","","","","","","","","","","key","j","16.66701030927847","680","380","j","true","match","img/circle.png","弱我","弱我","ALT2","ability","","","","","","","","",""
"null","<span style='color:GreenYellow; font-size: 70px;'>正确! </span>","null","html-keyboard-response","125","331639","0.0-8.0-1.0-4.0-0.0-1.8","6","5","7","6","6","5","4","5","5","5","5","1","0","1","0","2","0","1","2","5","5","5","5","5","4","5","5","5","4","3","4","2","7","2","8","6","5","6","7","3","2","7","7","5","6","1","7","3","1","7","6","6","3","5","5","6","3","3","7","3","3","3","2","3","7","3","6","6","7","7","3","6","1","7","5","6","6","5","4","769498068633784321","林","459","Female","[""好我"",""好她"",""坏她"",""坏我""]","[""强我"",""强她"",""弱她"",""弱我""]","","","","","","","","","","","","","","","","","","","","","","","","","","","","","","feedback_test","","","","","","","","",""
"691","","f","psychophysics","126","333331","0.0-8.0-1.0-4.0-0.0-0.9","6","5","7","6","6","5","4","5","5","5","5","1","0","1","0","2","0","1","2","5","5","5","5","5","4","5","5","5","4","3","4","2","7","2","8","6","5","6","7","3","2","7","7","5","6","1","7","3","1","7","6","6","3","5","5","6","3","3","7","3","3","3","2","3","7","3","6","6","7","7","3","6","1","7","5","6","6","5","4","769498068633784321","林","459","Female","[""好我"",""好她"",""坏她"",""坏我""]","[""强我"",""强她"",""弱她"",""弱我""]","","","","","","","","nonmatch","","","","","","","","","","key","f","16.666336633663253","680","380","f","true","nonmatch","img/circle.png","强她","弱我","ALT2","ability","","","","","","","","",""
"null","<span style='color:GreenYellow; font-size: 70px;'>正确! </span>","null","html-keyboard-response","127","333833","0.0-8.0-1.0-4.0-0.0-1.9","6","5","7","6","6","5","4","5","5","5","5","1","0","1","0","2","0","1","2","5","5","5","5","5","4","5","5","5","4","3","4","2","7","2","8","6","5","6","7","3","2","7","7","5","6","1","7","3","1","7","6","6","3","5","5","6","3","3","7","3","3","3","2","3","7","3","6","6","7","7","3","6","1","7","5","6","6","5","4","769498068633784321","林","459","Female","[""好我"",""好她"",""坏她"",""坏我""]","[""强我"",""强她"",""弱她"",""弱我""]","","","","","","","","","","","","","","","","","","","","","","","","","","","","","","feedback_test","","","","","","","","",""
"842","","f","psychophysics","128","335676","0.0-8.0-1.0-4.0-0.0-0.10","6","5","7","6","6","5","4","5","5","5","5","1","0","1","0","2","0","1","2","5","5","5","5","5","4","5","5","5","4","3","4","2","7","2","8","6","5","6","7","3","2","7","7","5","6","1","7","3","1","7","6","6","3","5","5","6","3","3","7","3","3","3","2","3","7","3","6","6","7","7","3","6","1","7","5","6","6","5","4","769498068633784321","林","459","Female","[""好我"",""好她"",""坏她"",""坏我""]","[""强我"",""强她"",""弱她"",""弱我""]","","","","","","","","nonmatch","","","","","","","","","","key","f","16.666972477063794","680","380","f","true","nonmatch","img/triangle.png","弱我","弱她","ALT2","ability","","","","","","","","",""
"null","<span style='color:GreenYellow; font-size: 70px;'>正确! </span>","null","html-keyboard-response","129","336177","0.0-8.0-1.0-4.0-0.0-1.10","6","5","7","6","6","5","4","5","5","5","5","1","0","1","0","2","0","1","2","5","5","5","5","5","4","5","5","5","4","3","4","2","7","2","8","6","5","6","7","3","2","7","7","5","6","1","7","3","1","7","6","6","3","5","5","6","3","3","7","3","3","3","2","3","7","3","6","6","7","7","3","6","1","7","5","6","6","5","4","769498068633784321","林","459","Female","[""好我"",""好她"",""坏她"",""坏我""]","[""强我"",""强她"",""弱她"",""弱我""]","","","","","","","","","","","","","","","","","","","","","","","","","","","","","","feedback_test","","","","","","","","",""
"620","","f","psychophysics","130","337799","0.0-8.0-1.0-4.0-0.0-0.11","6","5","7","6","6","5","4","5","5","5","5","1","0","1","0","2","0","1","2","5","5","5","5","5","4","5","5","5","4","3","4","2","7","2","8","6","5","6","7","3","2","7","7","5","6","1","7","3","1","7","6","6","3","5","5","6","3","3","7","3","3","3","2","3","7","3","6","6","7","7","3","6","1","7","5","6","6","5","4","769498068633784321","林","459","Female","[""好我"",""好她"",""坏她"",""坏我""]","[""强我"",""强她"",""弱她"",""弱我""]","","","","","","","","nonmatch","","","","","","","","","","key","f","16.66701030927847","680","380","f","true","nonmatch","img/pentagon.png","弱她","强她","ALT2","ability","","","","","","","","",""
"null","<span style='color:GreenYellow; font-size: 70px;'>正确! </span>","null","html-keyboard-response","131","338301","0.0-8.0-1.0-4.0-0.0-1.11","6","5","7","6","6","5","4","5","5","5","5","1","0","1","0","2","0","1","2","5","5","5","5","5","4","5","5","5","4","3","4","2","7","2","8","6","5","6","7","3","2","7","7","5","6","1","7","3","1","7","6","6","3","5","5","6","3","3","7","3","3","3","2","3","7","3","6","6","7","7","3","6","1","7","5","6","6","5","4","769498068633784321","林","459","Female","[""好我"",""好她"",""坏她"",""坏我""]","[""强我"",""强她"",""弱她"",""弱我""]","","","","","","","","","","","","","","","","","","","","","","","","","","","","","","feedback_test","","","","","","","","",""
"573","","j","psychophysics","132","339876","0.0-8.0-1.0-4.0-0.0-0.12","6","5","7","6","6","5","4","5","5","5","5","1","0","1","0","2","0","1","2","5","5","5","5","5","4","5","5","5","4","3","4","2","7","2","8","6","5","6","7","3","2","7","7","5","6","1","7","3","1","7","6","6","3","5","5","6","3","3","7","3","3","3","2","3","7","3","6","6","7","7","3","6","1","7","5","6","6","5","4","769498068633784321","林","459","Female","[""好我"",""好她"",""坏她"",""坏我""]","[""强我"",""强她"",""弱她"",""弱我""]","","","","","","","","match","","","","","","","","","","key","j","16.666666666666668","680","380","j","true","match","img/pentagon.png","强她","强她","ALT2","ability","","","","","","","","",""
"null","<span style='color:GreenYellow; font-size: 70px;'>正确! </span>","null","html-keyboard-response","133","340378","0.0-8.0-1.0-4.0-0.0-1.12","6","5","7","6","6","5","4","5","5","5","5","1","0","1","0","2","0","1","2","5","5","5","5","5","4","5","5","5","4","3","4","2","7","2","8","6","5","6","7","3","2","7","7","5","6","1","7","3","1","7","6","6","3","5","5","6","3","3","7","3","3","3","2","3","7","3","6","6","7","7","3","6","1","7","5","6","6","5","4","769498068633784321","林","459","Female","[""好我"",""好她"",""坏她"",""坏我""]","[""强我"",""强她"",""弱她"",""弱我""]","","","","","","","","","","","","","","","","","","","","","","","","","","","","","","feedback_test","","","","","","","","",""
"555","","j","psychophysics","134","341935","0.0-8.0-1.0-4.0-0.0-0.13","6","5","7","6","6","5","4","5","5","5","5","1","0","1","0","2","0","1","2","5","5","5","5","5","4","5","5","5","4","3","4","2","7","2","8","6","5","6","7","3","2","7","7","5","6","1","7","3","1","7","6","6","3","5","5","6","3","3","7","3","3","3","2","3","7","3","6","6","7","7","3","6","1","7","5","6","6","5","4","769498068633784321","林","459","Female","[""好我"",""好她"",""坏她"",""坏我""]","[""强我"",""强她"",""弱她"",""弱我""]","","","","","","","","match","","","","","","","","","","key","j","16.66774193548362","680","380","j","true","match","img/pentagon.png","强她","强她","ALT2","ability","","","","","","","","",""
"null","<span style='color:GreenYellow; font-size: 70px;'>正确! </span>","null","html-keyboard-response","135","342436","0.0-8.0-1.0-4.0-0.0-1.13","6","5","7","6","6","5","4","5","5","5","5","1","0","1","0","2","0","1","2","5","5","5","5","5","4","5","5","5","4","3","4","2","7","2","8","6","5","6","7","3","2","7","7","5","6","1","7","3","1","7","6","6","3","5","5","6","3","3","7","3","3","3","2","3","7","3","6","6","7","7","3","6","1","7","5","6","6","5","4","769498068633784321","林","459","Female","[""好我"",""好她"",""坏她"",""坏我""]","[""强我"",""强她"",""弱她"",""弱我""]","","","","","","","","","","","","","","","","","","","","","","","","","","","","","","feedback_test","","","","","","","","",""
"521","","j","psychophysics","136","343959","0.0-8.0-1.0-4.0-0.0-0.14","6","5","7","6","6","5","4","5","5","5","5","1","0","1","0","2","0","1","2","5","5","5","5","5","4","5","5","5","4","3","4","2","7","2","8","6","5","6","7","3","2","7","7","5","6","1","7","3","1","7","6","6","3","5","5","6","3","3","7","3","3","3","2","3","7","3","6","6","7","7","3","6","1","7","5","6","6","5","4","769498068633784321","林","459","Female","[""好我"",""好她"",""坏她"",""坏我""]","[""强我"",""强她"",""弱她"",""弱我""]","","","","","","","","match","","","","","","","","","","key","j","16.667777777778166","680","380","j","true","match","img/pentagon.png","强她","强她","ALT2","ability","","","","","","","","",""
"null","<span style='color:GreenYellow; font-size: 70px;'>正确! </span>","null","html-keyboard-response","137","344460","0.0-8.0-1.0-4.0-0.0-1.14","6","5","7","6","6","5","4","5","5","5","5","1","0","1","0","2","0","1","2","5","5","5","5","5","4","5","5","5","4","3","4","2","7","2","8","6","5","6","7","3","2","7","7","5","6","1","7","3","1","7","6","6","3","5","5","6","3","3","7","3","3","3","2","3","7","3","6","6","7","7","3","6","1","7","5","6","6","5","4","769498068633784321","林","459","Female","[""好我"",""好她"",""坏她"",""坏我""]","[""强我"",""强她"",""弱她"",""弱我""]","","","","","","","","","","","","","","","","","","","","","","","","","","","","","","feedback_test","","","","","","","","",""
