"rt","stimulus","response","trial_type","trial_index","time_elapsed","internal_node_id","swb_1","swb_2","swb_3","swb_4","swb_5","LOT_1","LOT_2","LOT_3","LOT_4","LOT_5","LOT_6","IPC_1","IPC_2","IPC_3","IPC_4","IPC_5","IPC_6","IPC_7","IPC_8","MorIden_1","MorIden_2","MorIden_3","MorIden_4","MorIden_5","MorIden_6","MorIden_7","MorIden_8","MorIden_9","MorIden_10","moralSeImag_1","moralSeImag_2","moralSeImag_3","moralSeImag_4","moralSeImag_5","moralSeImag_6","moralSeImag_7","moralSeImag_8","moralSeImag_9","sde_1","sde_2","sde_3","sde_4","sde_5","sde_6","sde_7","sde_8","sde_9","sde_10","trap2","sde_11","sde_12","sde_13","sde_14","sde_15","sde_16","sde_17","sde_18","sde_19","sde_20","IM_1","IM_2","IM_3","IM_4","IM_5","IM_6","IM_7","IM_8","IM_9","IM_10","IM_11","IM_12","IM_13","IM_14","IM_15","IM_16","IM_17","IM_18","IM_19","IM_20","subj_idx","friend_name","ParticipantID","Sex","Word","Word2","value","success","timeout","failed_images","failed_audio","failed_video","user_agent","responses","item_order","radio_event_ids","radio_event_times","key_event_times","mouse_event_times","straightlining","zigzagging","honeypot","task_id","screen_id","time_stamp","response_type","key_press","avg_frame_time","center_x","center_y","person","word","valence","domain","math","correct_response","correct","status","view_history","identity","duration","Image","condition","question_order","trap2_item"
"5742","
   <p><div style='color:white; font-size: 25px'>您好，欢迎参加本次实验。</div></p>
   <p><div style='color:white; font-size: 25px'>为充分保障您的权利，请确保您已经知晓并同意《参与实验同意书》以及《数据公开知情同意书》。</div></p>
   <p><div style='color:white; font-size: 25px'>如果您未见过上述内容，请咨询实验员。</div></p>
   <p style='color:white; font-size: 25px'>如果您选择继续实验，则表示您已经清楚两份知情同意书的内容并同意。</p>
   <p><div style = ""color: pink;font-size:30px;"">请确保您记得day0的实验编号，您将在本次实验输入该编号，若您忘记，请咨询实验员后作答。</div></p>
   <p><div style = ""color:lightblue;font-size:25px;"">请您尽可能认真地作答，我们将依据您在各问卷和按键任务中的作答质量发放报酬。</div></p>
   <p> <div style = ""color: green""><按空格键至下页></div> </p>
   "," ","html-keyboard-response","0","5750","0.0-0.0","6","6","7","5","2","4","4","4","5","4","5","1","-1","1","-1","1","2","1","1","5","4","5","4","3","1","3","4","3","5","5","6","5","6","5","5","6","5","5","6","5","4","6","5","4","5","6","6","5","1","5","4","7","5","2","5","6","4","6","6","3","6","3","3","2","6","6","4","5","6","4","5","3","3","2","7","3","1","3","6","779748154852773890","余","458","Female","[""好我"",""好她"",""坏我"",""坏她""]","[""强我"",""强她"",""弱我"",""弱她""]","","","","","","","","","","","","","","","","","","","","","","","","","","","","","","","","","","","","","","",""
"","","","call-function","1","5752","0.0-1.0-0.0","6","6","7","5","2","4","4","4","5","4","5","1","-1","1","-1","1","2","1","1","5","4","5","4","3","1","3","4","3","5","5","6","5","6","5","5","6","5","5","6","5","4","6","5","4","5","6","6","5","1","5","4","7","5","2","5","6","4","6","6","3","6","3","3","2","6","6","4","5","6","4","5","3","3","2","7","3","1","3","6","779748154852773890","余","458","Female","[""好我"",""好她"",""坏我"",""坏她""]","[""强我"",""强她"",""弱我"",""弱她""]","","","","","","","","","","","","","","","","","","","","","","","","","","","","","","","","","","","","","","",""
"14046","","[{""name"":""Sex"",""value"":""1""},{""name"":""friend_name"",""value"":""余""},{""name"":""ParticipantID"",""value"":""458""}]","survey-html-form","2","19798","0.0-1.0-1.0","6","6","7","5","2","4","4","4","5","4","5","1","-1","1","-1","1","2","1","1","5","4","5","4","3","1","3","4","3","5","5","6","5","6","5","5","6","5","5","6","5","4","6","5","4","5","6","6","5","1","5","4","7","5","2","5","6","4","6","6","3","6","3","3","2","6","6","4","5","6","4","5","3","3","2","7","3","1","3","6","779748154852773890","余","458","Female","[""好我"",""好她"",""坏我"",""坏她""]","[""强我"",""强她"",""弱我"",""弱她""]","","","","","","","","","","","","","","","","","","","","","","","","","","","","","","","","","","","","","","",""
"","","","preload","3","20305","0.0-2.0","6","6","7","5","2","4","4","4","5","4","5","1","-1","1","-1","1","2","1","1","5","4","5","4","3","1","3","4","3","5","5","6","5","6","5","5","6","5","5","6","5","4","6","5","4","5","6","6","5","1","5","4","7","5","2","5","6","4","6","6","3","6","3","3","2","6","6","4","5","6","4","5","3","3","2","7","3","1","3","6","779748154852773890","余","458","Female","[""好我"",""好她"",""坏我"",""坏她""]","[""强我"",""强她"",""弱我"",""弱她""]","","true","false","[]","[]","[]","","","","","","","","","","","","","","","","","","","","","","","","","","","","","","","","",""
"","","","fullscreen","4","27893","0.0-3.0","6","6","7","5","2","4","4","4","5","4","5","1","-1","1","-1","1","2","1","1","5","4","5","4","3","1","3","4","3","5","5","6","5","6","5","5","6","5","5","6","5","4","6","5","4","5","6","6","5","1","5","4","7","5","2","5","6","4","6","6","3","6","3","3","2","6","6","4","5","6","4","5","3","3","2","7","3","1","3","6","779748154852773890","余","458","Female","[""好我"",""好她"",""坏我"",""坏她""]","[""强我"",""强她"",""弱我"",""弱她""]","","true","","","","","{}","","","","","","","","","","","","","","","","","","","","","","","","","","","","","","","",""
"13465","","{""Q01"":""6"",""Q02"":""6"",""Q03"":""7"",""Q04"":""5"",""Q05"":""2""}","survey-template","5","41365","0.0-4.0","6","6","7","5","2","4","4","4","5","4","5","1","-1","1","-1","1","2","1","1","5","4","5","4","3","1","3","4","3","5","5","6","5","6","5","5","6","5","5","6","5","4","6","5","4","5","6","6","5","1","5","4","7","5","2","5","6","4","6","6","3","6","3","3","2","6","6","4","5","6","4","5","3","3","2","7","3","1","3","6","779748154852773890","余","458","Female","[""好我"",""好她"",""坏我"",""坏她""]","[""强我"",""强她"",""弱我"",""弱她""]","","","","","","","","{""Q01"":""6"",""Q02"":""6"",""Q03"":""7"",""Q04"":""5"",""Q05"":""2""}","[0,1,2,3,4]","[""Q01"",""Q02"",""Q03"",""Q04"",""Q05""]","[3352,4706,6459,8546,11611]","[]","[3352,4706,6459,8546,11611,13465]","0.4","0.25","0","","","","","","","","","","","","","","","","","","","","","","",""
"15421","","{""Q01"":""4"",""Q02"":""4"",""Q03"":""4"",""Q04"":""5"",""Q05"":""4"",""Q06"":""5""}","survey-template","6","56798","0.0-5.0","6","6","7","5","2","4","4","4","5","4","5","1","-1","1","-1","1","2","1","1","5","4","5","4","3","1","3","4","3","5","5","6","5","6","5","5","6","5","5","6","5","4","6","5","4","5","6","6","5","1","5","4","7","5","2","5","6","4","6","6","3","6","3","3","2","6","6","4","5","6","4","5","3","3","2","7","3","1","3","6","779748154852773890","余","458","Female","[""好我"",""好她"",""坏我"",""坏她""]","[""强我"",""强她"",""弱我"",""弱她""]","","","","","","","","{""Q01"":""4"",""Q02"":""4"",""Q03"":""4"",""Q04"":""5"",""Q05"":""4"",""Q06"":""5""}","[0,1,2,3,4,5]","[""Q01"",""Q02"",""Q03"",""Q04"",""Q05"",""Q06""]","[2473,5543,7958,9966,11663,13604]","[]","[2473,5543,7958,9966,11663,13604,15421]","0.3333333333333333","0.2","0","","","","","","","","","","","","","","","","","","","","","","",""
"27639","","{""Q01"":""1"",""Q02"":""-1"",""Q03"":""1"",""Q04"":""-1"",""Q05"":""1"",""Q06"":""2"",""Q07"":""1"",""Q08"":""1""}","survey-template","7","84447","0.0-6.0","6","6","7","5","2","4","4","4","5","4","5","1","-1","1","-1","1","2","1","1","5","4","5","4","3","1","3","4","3","5","5","6","5","6","5","5","6","5","5","6","5","4","6","5","4","5","6","6","5","1","5","4","7","5","2","5","6","4","6","6","3","6","3","3","2","6","6","4","5","6","4","5","3","3","2","7","3","1","3","6","779748154852773890","余","458","Female","[""好我"",""好她"",""坏我"",""坏她""]","[""强我"",""强她"",""弱我"",""弱她""]","","","","","","","","{""Q01"":""1"",""Q02"":""-1"",""Q03"":""1"",""Q04"":""-1"",""Q05"":""1"",""Q06"":""2"",""Q07"":""1"",""Q08"":""1""}","[0,1,2,3,4,5,6,7]","[""Q01"",""Q02"",""Q03"",""Q04"",""Q05"",""Q06"",""Q05"",""Q06"",""Q07"",""Q08""]","[2669,7234,9748,12742,16673,18109,19338,23495,24354,25969]","[]","[2669,7234,9748,12742,16673,18109,19338,20197,23495,24354,25969,27624]","0.625","0.2857142857142857","0","","","","","","","","","","","","","","","","","","","","","","",""
"34998","
    <p><div style='color:white;font-size:35px; line-height:20px;'>词汇评估任务</div></p><br>
    <p><div style='color:white;font-size:25px; line-height:20px;'>请再次回忆该亲密的朋友，你们至少2年前就认识了，并且最近2年经常见面。</div></p>
    <p><div style='color:white;font-size:25px; line-height:20px;'>在本实验中，您将会看到一些形容词。</div></p>
    <p><div style='color:yellow;font-size:25px; line-height:20px;'>您的任务是判断这些形容词是否符合对您自己或您的朋友的描述。</div></p><p style='font-size:35px'>符合按<span style=""color:lightgreen""> f 键</span>，不符合按<span style=""color:red""> j 键</span></p>","0","html-button-response","8","119446","0.0-7.0-0.0","6","6","7","5","2","4","4","4","5","4","5","1","-1","1","-1","1","2","1","1","5","4","5","4","3","1","3","4","3","5","5","6","5","6","5","5","6","5","5","6","5","4","6","5","4","5","6","6","5","1","5","4","7","5","2","5","6","4","6","6","3","6","3","3","2","6","6","4","5","6","4","5","3","3","2","7","3","1","3","6","779748154852773890","余","458","Female","[""好我"",""好她"",""坏我"",""坏她""]","[""强我"",""强她"",""弱我"",""弱她""]","","","","","","","","","","","","","","","","","SRET_EW","EW_instructions","Tue Jan 30 2024 19:22:12 GMT+0800 (中國標準時間)","","","","","","","","","","","","","","","","","","","",""
"981","","j","psychophysics","9","121432","0.0-7.0-1.0-0.0","6","6","7","5","2","4","4","4","5","4","5","1","-1","1","-1","1","2","1","1","5","4","5","4","3","1","3","4","3","5","5","6","5","6","5","5","6","5","5","6","5","4","6","5","4","5","6","6","5","1","5","4","7","5","2","5","6","4","6","6","3","6","3","3","2","6","6","4","5","6","4","5","3","3","2","7","3","1","3","6","779748154852773890","余","458","Female","[""好我"",""好她"",""坏我"",""坏她""]","[""强我"",""强她"",""弱我"",""弱她""]","","","","","","","","no","","","","","","","","","SRET_EW","EW_practice","","key","j","16.521058823529362","720","446","自己","刻板","Negative","ability","","","","","","","","","","",""
"983","","f","psychophysics","10","123417","0.0-7.0-1.0-0.1","6","6","7","5","2","4","4","4","5","4","5","1","-1","1","-1","1","2","1","1","5","4","5","4","3","1","3","4","3","5","5","6","5","6","5","5","6","5","5","6","5","4","6","5","4","5","6","6","5","1","5","4","7","5","2","5","6","4","6","6","3","6","3","3","2","6","6","4","5","6","4","5","3","3","2","7","3","1","3","6","779748154852773890","余","458","Female","[""好我"",""好她"",""坏我"",""坏她""]","[""强我"",""强她"",""弱我"",""弱她""]","","","","","","","","yes","","","","","","","","","SRET_EW","EW_practice","","key","f","16.66949152542373","720","446","朋友","忠实","Positive","morality","","","","","","","","","","",""
"1082","","j","psychophysics","11","125522","0.0-7.0-1.0-0.2","6","6","7","5","2","4","4","4","5","4","5","1","-1","1","-1","1","2","1","1","5","4","5","4","3","1","3","4","3","5","5","6","5","6","5","5","6","5","5","6","5","4","6","5","4","5","6","6","5","1","5","4","7","5","2","5","6","4","6","6","3","6","3","3","2","6","6","4","5","6","4","5","3","3","2","7","3","1","3","6","779748154852773890","余","458","Female","[""好我"",""好她"",""坏我"",""坏她""]","[""强我"",""强她"",""弱我"",""弱她""]","","","","","","","","no","","","","","","","","","SRET_EW","EW_practice","","key","j","16.943089430894307","720","446","朋友","徇私","Negative","morality","","","","","","","","","","",""
"1241","","f","psychophysics","12","127763","0.0-7.0-1.0-0.3","6","6","7","5","2","4","4","4","5","4","5","1","-1","1","-1","1","2","1","1","5","4","5","4","3","1","3","4","3","5","5","6","5","6","5","5","6","5","5","6","5","4","6","5","4","5","6","6","5","1","5","4","7","5","2","5","6","4","6","6","3","6","3","3","2","6","6","4","5","6","4","5","3","3","2","7","3","1","3","6","779748154852773890","余","458","Female","[""好我"",""好她"",""坏我"",""坏她""]","[""强我"",""强她"",""弱我"",""弱她""]","","","","","","","","yes","","","","","","","","","SRET_EW","EW_practice","","key","f","16.66417910447761","720","446","自己","严谨","Positive","ability","","","","","","","","","","",""
"7706","
    <p><div style='color:white;font-size:35px; line-height:20px;'>请您再次阅读实验要求</div></p><br>
    <p><div style='color:white;font-size:25px; line-height:20px;'>请回忆某一个亲密的朋友，你们至少2年前就认识了，并且最近2年经常见面。</div></p>
    <p><div style='color:white;font-size:25px; line-height:20px;'>在本实验中，您将会看到一些形容词。</div></p>
    <p><div style='color:yellow;font-size:25px; line-height:20px;'>您的任务是判断这些形容词是否符合对您自己或您的朋友的描述。</div></p>
    <p><div class='footer' style='font-size:25px; line-height:20px;'>如果对本实验还有不清楚之处，请立即向实验员咨询。</p><p style='font-size:25px; line-height:20px;'>如果您明白了规则：</p><p style='font-size:22px; line-height:20px;'>请按 继续 进入正式实验</p>
    </div>
    <p style='font-size:35px'>符合按<span style=""color:lightgreen""> f 键</span>，不符合按<span style=""color:red""> j 键</span></p>","0","html-button-response","13","135471","0.0-7.0-2.0","6","6","7","5","2","4","4","4","5","4","5","1","-1","1","-1","1","2","1","1","5","4","5","4","3","1","3","4","3","5","5","6","5","6","5","5","6","5","5","6","5","4","6","5","4","5","6","6","5","1","5","4","7","5","2","5","6","4","6","6","3","6","3","3","2","6","6","4","5","6","4","5","3","3","2","7","3","1","3","6","779748154852773890","余","458","Female","[""好我"",""好她"",""坏我"",""坏她""]","[""强我"",""强她"",""弱我"",""弱她""]","","","","","","","","","","","","","","","","","SRET_EW","prac_instructions","Tue Jan 30 2024 19:22:12 GMT+0800 (中國標準時間)","","","","","","","","","","","","","","","","","","","",""
"988","","f","psychophysics","14","137462","0.0-7.0-3.0-0.0","6","6","7","5","2","4","4","4","5","4","5","1","-1","1","-1","1","2","1","1","5","4","5","4","3","1","3","4","3","5","5","6","5","6","5","5","6","5","5","6","5","4","6","5","4","5","6","6","5","1","5","4","7","5","2","5","6","4","6","6","3","6","3","3","2","6","6","4","5","6","4","5","3","3","2","7","3","1","3","6","779748154852773890","余","458","Female","[""好我"",""好她"",""坏我"",""坏她""]","[""强我"",""强她"",""弱我"",""弱她""]","","","","","","","","yes","","","","","","","","","SRET","EW_formal","","key","f","17.389631578947412","720","446","朋友","迷糊","Negative","ability","","","","","","","","","","",""
"1002","","f","psychophysics","15","139466","0.0-7.0-3.0-0.1","6","6","7","5","2","4","4","4","5","4","5","1","-1","1","-1","1","2","1","1","5","4","5","4","3","1","3","4","3","5","5","6","5","6","5","5","6","5","5","6","5","4","6","5","4","5","6","6","5","1","5","4","7","5","2","5","6","4","6","6","3","6","3","3","2","6","6","4","5","6","4","5","3","3","2","7","3","1","3","6","779748154852773890","余","458","Female","[""好我"",""好她"",""坏我"",""坏她""]","[""强我"",""强她"",""弱我"",""弱她""]","","","","","","","","yes","","","","","","","","","SRET","EW_formal","","key","f","16.805084745762713","720","446","自己","坚贞","Positive","morality","","","","","","","","","","",""
"836","","f","psychophysics","16","141304","0.0-7.0-3.0-0.2","6","6","7","5","2","4","4","4","5","4","5","1","-1","1","-1","1","2","1","1","5","4","5","4","3","1","3","4","3","5","5","6","5","6","5","5","6","5","5","6","5","4","6","5","4","5","6","6","5","1","5","4","7","5","2","5","6","4","6","6","3","6","3","3","2","6","6","4","5","6","4","5","3","3","2","7","3","1","3","6","779748154852773890","余","458","Female","[""好我"",""好她"",""坏我"",""坏她""]","[""强我"",""强她"",""弱我"",""弱她""]","","","","","","","","yes","","","","","","","","","SRET","EW_formal","","key","f","16.824074074074073","720","446","朋友","务实","Positive","ability","","","","","","","","","","",""
"1381","","j","psychophysics","17","143685","0.0-7.0-3.0-0.3","6","6","7","5","2","4","4","4","5","4","5","1","-1","1","-1","1","2","1","1","5","4","5","4","3","1","3","4","3","5","5","6","5","6","5","5","6","5","5","6","5","4","6","5","4","5","6","6","5","1","5","4","7","5","2","5","6","4","6","6","3","6","3","3","2","6","6","4","5","6","4","5","3","3","2","7","3","1","3","6","779748154852773890","余","458","Female","[""好我"",""好她"",""坏我"",""坏她""]","[""强我"",""强她"",""弱我"",""弱她""]","","","","","","","","no","","","","","","","","","SRET","EW_formal","","key","j","16.669014084507044","720","446","自己","说谎","Negative","morality","","","","","","","","","","",""
"1096","","j","psychophysics","18","145781","0.0-7.0-3.0-0.4","6","6","7","5","2","4","4","4","5","4","5","1","-1","1","-1","1","2","1","1","5","4","5","4","3","1","3","4","3","5","5","6","5","6","5","5","6","5","5","6","5","4","6","5","4","5","6","6","5","1","5","4","7","5","2","5","6","4","6","6","3","6","3","3","2","6","6","4","5","6","4","5","3","3","2","7","3","1","3","6","779748154852773890","余","458","Female","[""好我"",""好她"",""坏我"",""坏她""]","[""强我"",""强她"",""弱我"",""弱她""]","","","","","","","","no","","","","","","","","","SRET","EW_formal","","key","j","16.672","720","446","朋友","下流","Negative","morality","","","","","","","","","","",""
"1099","","f","psychophysics","19","147881","0.0-7.0-3.0-0.5","6","6","7","5","2","4","4","4","5","4","5","1","-1","1","-1","1","2","1","1","5","4","5","4","3","1","3","4","3","5","5","6","5","6","5","5","6","5","5","6","5","4","6","5","4","5","6","6","5","1","5","4","7","5","2","5","6","4","6","6","3","6","3","3","2","6","6","4","5","6","4","5","3","3","2","7","3","1","3","6","779748154852773890","余","458","Female","[""好我"",""好她"",""坏我"",""坏她""]","[""强我"",""强她"",""弱我"",""弱她""]","","","","","","","","yes","","","","","","","","","SRET","EW_formal","","key","f","16.664","720","446","自己","仁厚","Positive","morality","","","","","","","","","","",""
"1035","","j","psychophysics","20","149917","0.0-7.0-3.0-0.6","6","6","7","5","2","4","4","4","5","4","5","1","-1","1","-1","1","2","1","1","5","4","5","4","3","1","3","4","3","5","5","6","5","6","5","5","6","5","5","6","5","4","6","5","4","5","6","6","5","1","5","4","7","5","2","5","6","4","6","6","3","6","3","3","2","6","6","4","5","6","4","5","3","3","2","7","3","1","3","6","779748154852773890","余","458","Female","[""好我"",""好她"",""坏我"",""坏她""]","[""强我"",""强她"",""弱我"",""弱她""]","","","","","","","","no","","","","","","","","","SRET","EW_formal","","key","j","16.66115702479339","720","446","自己","昏庸","Negative","ability","","","","","","","","","","",""
"1330","","f","psychophysics","21","152249","0.0-7.0-3.0-0.7","6","6","7","5","2","4","4","4","5","4","5","1","-1","1","-1","1","2","1","1","5","4","5","4","3","1","3","4","3","5","5","6","5","6","5","5","6","5","5","6","5","4","6","5","4","5","6","6","5","1","5","4","7","5","2","5","6","4","6","6","3","6","3","3","2","6","6","4","5","6","4","5","3","3","2","7","3","1","3","6","779748154852773890","余","458","Female","[""好我"",""好她"",""坏我"",""坏她""]","[""强我"",""强她"",""弱我"",""弱她""]","","","","","","","","yes","","","","","","","","","SRET","EW_formal","","key","f","16.782608695652176","720","446","自己","马虎","Negative","ability","","","","","","","","","","",""
"1595","","f","psychophysics","22","154845","0.0-7.0-3.0-0.8","6","6","7","5","2","4","4","4","5","4","5","1","-1","1","-1","1","2","1","1","5","4","5","4","3","1","3","4","3","5","5","6","5","6","5","5","6","5","5","6","5","4","6","5","4","5","6","6","5","1","5","4","7","5","2","5","6","4","6","6","3","6","3","3","2","6","6","4","5","6","4","5","3","3","2","7","3","1","3","6","779748154852773890","余","458","Female","[""好我"",""好她"",""坏我"",""坏她""]","[""强我"",""强她"",""弱我"",""弱她""]","","","","","","","","yes","","","","","","","","","SRET","EW_formal","","key","f","16.664516129032258","720","446","自己","精干","Positive","ability","","","","","","","","","","",""
"1067","","f","psychophysics","23","156932","0.0-7.0-3.0-0.9","6","6","7","5","2","4","4","4","5","4","5","1","-1","1","-1","1","2","1","1","5","4","5","4","3","1","3","4","3","5","5","6","5","6","5","5","6","5","5","6","5","4","6","5","4","5","6","6","5","1","5","4","7","5","2","5","6","4","6","6","3","6","3","3","2","6","6","4","5","6","4","5","3","3","2","7","3","1","3","6","779748154852773890","余","458","Female","[""好我"",""好她"",""坏我"",""坏她""]","[""强我"",""强她"",""弱我"",""弱她""]","","","","","","","","yes","","","","","","","","","SRET","EW_formal","","key","f","16.669354838709676","720","446","自己","诚信","Positive","morality","","","","","","","","","","",""
"904","","j","psychophysics","24","158838","0.0-7.0-3.0-0.10","6","6","7","5","2","4","4","4","5","4","5","1","-1","1","-1","1","2","1","1","5","4","5","4","3","1","3","4","3","5","5","6","5","6","5","5","6","5","5","6","5","4","6","5","4","5","6","6","5","1","5","4","7","5","2","5","6","4","6","6","3","6","3","3","2","6","6","4","5","6","4","5","3","3","2","7","3","1","3","6","779748154852773890","余","458","Female","[""好我"",""好她"",""坏我"",""坏她""]","[""强我"",""强她"",""弱我"",""弱她""]","","","","","","","","no","","","","","","","","","SRET","EW_formal","","key","j","16.654867256637168","720","446","朋友","不仁","Negative","morality","","","","","","","","","","",""
"1443","","f","psychophysics","25","161283","0.0-7.0-3.0-0.11","6","6","7","5","2","4","4","4","5","4","5","1","-1","1","-1","1","2","1","1","5","4","5","4","3","1","3","4","3","5","5","6","5","6","5","5","6","5","5","6","5","4","6","5","4","5","6","6","5","1","5","4","7","5","2","5","6","4","6","6","3","6","3","3","2","6","6","4","5","6","4","5","3","3","2","7","3","1","3","6","779748154852773890","余","458","Female","[""好我"",""好她"",""坏我"",""坏她""]","[""强我"",""强她"",""弱我"",""弱她""]","","","","","","","","yes","","","","","","","","","SRET","EW_formal","","key","f","16.671232876712327","720","446","朋友","变通","Positive","ability","","","","","","","","","","",""
"1382","","j","psychophysics","26","163665","0.0-7.0-3.0-0.12","6","6","7","5","2","4","4","4","5","4","5","1","-1","1","-1","1","2","1","1","5","4","5","4","3","1","3","4","3","5","5","6","5","6","5","5","6","5","5","6","5","4","6","5","4","5","6","6","5","1","5","4","7","5","2","5","6","4","6","6","3","6","3","3","2","6","6","4","5","6","4","5","3","3","2","7","3","1","3","6","779748154852773890","余","458","Female","[""好我"",""好她"",""坏我"",""坏她""]","[""强我"",""强她"",""弱我"",""弱她""]","","","","","","","","no","","","","","","","","","SRET","EW_formal","","key","j","16.669014084507044","720","446","朋友","无敌","Positive","ability","","","","","","","","","","",""
"1270","","f","psychophysics","27","165936","0.0-7.0-3.0-0.13","6","6","7","5","2","4","4","4","5","4","5","1","-1","1","-1","1","2","1","1","5","4","5","4","3","1","3","4","3","5","5","6","5","6","5","5","6","5","5","6","5","4","6","5","4","5","6","6","5","1","5","4","7","5","2","5","6","4","6","6","3","6","3","3","2","6","6","4","5","6","4","5","3","3","2","7","3","1","3","6","779748154852773890","余","458","Female","[""好我"",""好她"",""坏我"",""坏她""]","[""强我"",""强她"",""弱我"",""弱她""]","","","","","","","","yes","","","","","","","","","SRET","EW_formal","","key","f","16.666666666666668","720","446","自己","勤奋","Positive","ability","","","","","","","","","","",""
"1957","","j","psychophysics","28","168895","0.0-7.0-3.0-0.14","6","6","7","5","2","4","4","4","5","4","5","1","-1","1","-1","1","2","1","1","5","4","5","4","3","1","3","4","3","5","5","6","5","6","5","5","6","5","5","6","5","4","6","5","4","5","6","6","5","1","5","4","7","5","2","5","6","4","6","6","3","6","3","3","2","6","6","4","5","6","4","5","3","3","2","7","3","1","3","6","779748154852773890","余","458","Female","[""好我"",""好她"",""坏我"",""坏她""]","[""强我"",""强她"",""弱我"",""弱她""]","","","","","","","","no","","","","","","","","","SRET","EW_formal","","key","j","16.85632183908046","720","446","自己","拖拉","Negative","ability","","","","","","","","","","",""
"1349","","f","psychophysics","29","171249","0.0-7.0-3.0-0.15","6","6","7","5","2","4","4","4","5","4","5","1","-1","1","-1","1","2","1","1","5","4","5","4","3","1","3","4","3","5","5","6","5","6","5","5","6","5","5","6","5","4","6","5","4","5","6","6","5","1","5","4","7","5","2","5","6","4","6","6","3","6","3","3","2","6","6","4","5","6","4","5","3","3","2","7","3","1","3","6","779748154852773890","余","458","Female","[""好我"",""好她"",""坏我"",""坏她""]","[""强我"",""强她"",""弱我"",""弱她""]","","","","","","","","yes","","","","","","","","","SRET","EW_formal","","key","f","16.666666666666668","720","446","自己","娴熟","Positive","ability","","","","","","","","","","",""
"1064","","j","psychophysics","30","173314","0.0-7.0-3.0-0.16","6","6","7","5","2","4","4","4","5","4","5","1","-1","1","-1","1","2","1","1","5","4","5","4","3","1","3","4","3","5","5","6","5","6","5","5","6","5","5","6","5","4","6","5","4","5","6","6","5","1","5","4","7","5","2","5","6","4","6","6","3","6","3","3","2","6","6","4","5","6","4","5","3","3","2","7","3","1","3","6","779748154852773890","余","458","Female","[""好我"",""好她"",""坏我"",""坏她""]","[""强我"",""强她"",""弱我"",""弱她""]","","","","","","","","no","","","","","","","","","SRET","EW_formal","","key","j","16.577235772357724","720","446","自己","黑心","Negative","morality","","","","","","","","","","",""
"998","","f","psychophysics","31","175312","0.0-7.0-3.0-0.17","6","6","7","5","2","4","4","4","5","4","5","1","-1","1","-1","1","2","1","1","5","4","5","4","3","1","3","4","3","5","5","6","5","6","5","5","6","5","5","6","5","4","6","5","4","5","6","6","5","1","5","4","7","5","2","5","6","4","6","6","3","6","3","3","2","6","6","4","5","6","4","5","3","3","2","7","3","1","3","6","779748154852773890","余","458","Female","[""好我"",""好她"",""坏我"",""坏她""]","[""强我"",""强她"",""弱我"",""弱她""]","","","","","","","","yes","","","","","","","","","SRET","EW_formal","","key","f","16.605042016806724","720","446","自己","正气","Positive","morality","","","","","","","","","","",""
"1035","","j","psychophysics","32","177348","0.0-7.0-3.0-0.18","6","6","7","5","2","4","4","4","5","4","5","1","-1","1","-1","1","2","1","1","5","4","5","4","3","1","3","4","3","5","5","6","5","6","5","5","6","5","5","6","5","4","6","5","4","5","6","6","5","1","5","4","7","5","2","5","6","4","6","6","3","6","3","3","2","6","6","4","5","6","4","5","3","3","2","7","3","1","3","6","779748154852773890","余","458","Female","[""好我"",""好她"",""坏我"",""坏她""]","[""强我"",""强她"",""弱我"",""弱她""]","","","","","","","","no","","","","","","","","","SRET","EW_formal","","key","j","16.636363636363637","720","446","朋友","愚痴","Negative","ability","","","","","","","","","","",""
"913","","f","psychophysics","33","179263","0.0-7.0-3.0-0.19","6","6","7","5","2","4","4","4","5","4","5","1","-1","1","-1","1","2","1","1","5","4","5","4","3","1","3","4","3","5","5","6","5","6","5","5","6","5","5","6","5","4","6","5","4","5","6","6","5","1","5","4","7","5","2","5","6","4","6","6","3","6","3","3","2","6","6","4","5","6","4","5","3","3","2","7","3","1","3","6","779748154852773890","余","458","Female","[""好我"",""好她"",""坏我"",""坏她""]","[""强我"",""强她"",""弱我"",""弱她""]","","","","","","","","yes","","","","","","","","","SRET","EW_formal","","key","f","16.605263157894736","720","446","朋友","博识","Positive","ability","","","","","","","","","","",""
"1260","","f","psychophysics","34","181525","0.0-7.0-3.0-0.20","6","6","7","5","2","4","4","4","5","4","5","1","-1","1","-1","1","2","1","1","5","4","5","4","3","1","3","4","3","5","5","6","5","6","5","5","6","5","5","6","5","4","6","5","4","5","6","6","5","1","5","4","7","5","2","5","6","4","6","6","3","6","3","3","2","6","6","4","5","6","4","5","3","3","2","7","3","1","3","6","779748154852773890","余","458","Female","[""好我"",""好她"",""坏我"",""坏她""]","[""强我"",""强她"",""弱我"",""弱她""]","","","","","","","","yes","","","","","","","","","SRET","EW_formal","","key","f","16.619402985074625","720","446","朋友","仁爱","Positive","morality","","","","","","","","","","",""
"1110","","f","psychophysics","35","183638","0.0-7.0-3.0-0.21","6","6","7","5","2","4","4","4","5","4","5","1","-1","1","-1","1","2","1","1","5","4","5","4","3","1","3","4","3","5","5","6","5","6","5","5","6","5","5","6","5","4","6","5","4","5","6","6","5","1","5","4","7","5","2","5","6","4","6","6","3","6","3","3","2","6","6","4","5","6","4","5","3","3","2","7","3","1","3","6","779748154852773890","余","458","Female","[""好我"",""好她"",""坏我"",""坏她""]","[""强我"",""强她"",""弱我"",""弱她""]","","","","","","","","yes","","","","","","","","","SRET","EW_formal","","key","f","16.776","720","446","朋友","爱国","Positive","morality","","","","","","","","","","",""
"1075","","f","psychophysics","36","185714","0.0-7.0-3.0-0.22","6","6","7","5","2","4","4","4","5","4","5","1","-1","1","-1","1","2","1","1","5","4","5","4","3","1","3","4","3","5","5","6","5","6","5","5","6","5","5","6","5","4","6","5","4","5","6","6","5","1","5","4","7","5","2","5","6","4","6","6","3","6","3","3","2","6","6","4","5","6","4","5","3","3","2","7","3","1","3","6","779748154852773890","余","458","Female","[""好我"",""好她"",""坏我"",""坏她""]","[""强我"",""强她"",""弱我"",""弱她""]","","","","","","","","yes","","","","","","","","","SRET","EW_formal","","key","f","16.677419354838708","720","446","朋友","敏捷","Positive","ability","","","","","","","","","","",""
"868","","j","psychophysics","37","187582","0.0-7.0-3.0-0.23","6","6","7","5","2","4","4","4","5","4","5","1","-1","1","-1","1","2","1","1","5","4","5","4","3","1","3","4","3","5","5","6","5","6","5","5","6","5","5","6","5","4","6","5","4","5","6","6","5","1","5","4","7","5","2","5","6","4","6","6","3","6","3","3","2","6","6","4","5","6","4","5","3","3","2","7","3","1","3","6","779748154852773890","余","458","Female","[""好我"",""好她"",""坏我"",""坏她""]","[""强我"",""强她"",""弱我"",""弱她""]","","","","","","","","no","","","","","","","","","SRET","EW_formal","","key","j","16.603603603603602","720","446","自己","歹毒","Negative","morality","","","","","","","","","","",""
"1182","","j","psychophysics","38","189765","0.0-7.0-3.0-0.24","6","6","7","5","2","4","4","4","5","4","5","1","-1","1","-1","1","2","1","1","5","4","5","4","3","1","3","4","3","5","5","6","5","6","5","5","6","5","5","6","5","4","6","5","4","5","6","6","5","1","5","4","7","5","2","5","6","4","6","6","3","6","3","3","2","6","6","4","5","6","4","5","3","3","2","7","3","1","3","6","779748154852773890","余","458","Female","[""好我"",""好她"",""坏我"",""坏她""]","[""强我"",""强她"",""弱我"",""弱她""]","","","","","","","","no","","","","","","","","","SRET","EW_formal","","key","j","16.607692307692307","720","446","自己","全才","Positive","ability","","","","","","","","","","",""
"1385","","j","psychophysics","39","192151","0.0-7.0-3.0-0.25","6","6","7","5","2","4","4","4","5","4","5","1","-1","1","-1","1","2","1","1","5","4","5","4","3","1","3","4","3","5","5","6","5","6","5","5","6","5","5","6","5","4","6","5","4","5","6","6","5","1","5","4","7","5","2","5","6","4","6","6","3","6","3","3","2","6","6","4","5","6","4","5","3","3","2","7","3","1","3","6","779748154852773890","余","458","Female","[""好我"",""好她"",""坏我"",""坏她""]","[""强我"",""强她"",""弱我"",""弱她""]","","","","","","","","no","","","","","","","","","SRET","EW_formal","","key","j","16.6056338028169","720","446","朋友","拙笨","Negative","ability","","","","","","","","","","",""
"1377","","j","psychophysics","40","194531","0.0-7.0-3.0-0.26","6","6","7","5","2","4","4","4","5","4","5","1","-1","1","-1","1","2","1","1","5","4","5","4","3","1","3","4","3","5","5","6","5","6","5","5","6","5","5","6","5","4","6","5","4","5","6","6","5","1","5","4","7","5","2","5","6","4","6","6","3","6","3","3","2","6","6","4","5","6","4","5","3","3","2","7","3","1","3","6","779748154852773890","余","458","Female","[""好我"",""好她"",""坏我"",""坏她""]","[""强我"",""强她"",""弱我"",""弱她""]","","","","","","","","no","","","","","","","","","SRET","EW_formal","","key","j","16.669014084507044","720","446","自己","不孝","Negative","morality","","","","","","","","","","",""
"781","","f","psychophysics","41","196312","0.0-7.0-3.0-0.27","6","6","7","5","2","4","4","4","5","4","5","1","-1","1","-1","1","2","1","1","5","4","5","4","3","1","3","4","3","5","5","6","5","6","5","5","6","5","5","6","5","4","6","5","4","5","6","6","5","1","5","4","7","5","2","5","6","4","6","6","3","6","3","3","2","6","6","4","5","6","4","5","3","3","2","7","3","1","3","6","779748154852773890","余","458","Female","[""好我"",""好她"",""坏我"",""坏她""]","[""强我"",""强她"",""弱我"",""弱她""]","","","","","","","","yes","","","","","","","","","SRET","EW_formal","","key","f","16.58490566037736","720","446","朋友","敬业","Positive","morality","","","","","","","","","","",""
"968","","j","psychophysics","42","198281","0.0-7.0-3.0-0.28","6","6","7","5","2","4","4","4","5","4","5","1","-1","1","-1","1","2","1","1","5","4","5","4","3","1","3","4","3","5","5","6","5","6","5","5","6","5","5","6","5","4","6","5","4","5","6","6","5","1","5","4","7","5","2","5","6","4","6","6","3","6","3","3","2","6","6","4","5","6","4","5","3","3","2","7","3","1","3","6","779748154852773890","余","458","Female","[""好我"",""好她"",""坏我"",""坏她""]","[""强我"",""强她"",""弱我"",""弱她""]","","","","","","","","no","","","","","","","","","SRET","EW_formal","","key","j","16.632478632478634","720","446","朋友","拖延","Negative","ability","","","","","","","","","","",""
"1247","","j","psychophysics","43","200530","0.0-7.0-3.0-0.29","6","6","7","5","2","4","4","4","5","4","5","1","-1","1","-1","1","2","1","1","5","4","5","4","3","1","3","4","3","5","5","6","5","6","5","5","6","5","5","6","5","4","6","5","4","5","6","6","5","1","5","4","7","5","2","5","6","4","6","6","3","6","3","3","2","6","6","4","5","6","4","5","3","3","2","7","3","1","3","6","779748154852773890","余","458","Female","[""好我"",""好她"",""坏我"",""坏她""]","[""强我"",""强她"",""弱我"",""弱她""]","","","","","","","","no","","","","","","","","","SRET","EW_formal","","key","j","16.58955223880597","720","446","自己","逞能","Negative","ability","","","","","","","","","","",""
"1016","","f","psychophysics","44","202546","0.0-7.0-3.0-0.30","6","6","7","5","2","4","4","4","5","4","5","1","-1","1","-1","1","2","1","1","5","4","5","4","3","1","3","4","3","5","5","6","5","6","5","5","6","5","5","6","5","4","6","5","4","5","6","6","5","1","5","4","7","5","2","5","6","4","6","6","3","6","3","3","2","6","6","4","5","6","4","5","3","3","2","7","3","1","3","6","779748154852773890","余","458","Female","[""好我"",""好她"",""坏我"",""坏她""]","[""强我"",""强她"",""弱我"",""弱她""]","","","","","","","","yes","","","","","","","","","SRET","EW_formal","","key","f","16.716666666666665","720","446","自己","扎实","Positive","ability","","","","","","","","","","",""
"1185","","f","psychophysics","45","204734","0.0-7.0-3.0-0.31","6","6","7","5","2","4","4","4","5","4","5","1","-1","1","-1","1","2","1","1","5","4","5","4","3","1","3","4","3","5","5","6","5","6","5","5","6","5","5","6","5","4","6","5","4","5","6","6","5","1","5","4","7","5","2","5","6","4","6","6","3","6","3","3","2","6","6","4","5","6","4","5","3","3","2","7","3","1","3","6","779748154852773890","余","458","Female","[""好我"",""好她"",""坏我"",""坏她""]","[""强我"",""强她"",""弱我"",""弱她""]","","","","","","","","yes","","","","","","","","","SRET","EW_formal","","key","f","16.607692307692307","720","446","朋友","利落","Positive","ability","","","","","","","","","","",""
"1064","","j","psychophysics","46","206799","0.0-7.0-3.0-0.32","6","6","7","5","2","4","4","4","5","4","5","1","-1","1","-1","1","2","1","1","5","4","5","4","3","1","3","4","3","5","5","6","5","6","5","5","6","5","5","6","5","4","6","5","4","5","6","6","5","1","5","4","7","5","2","5","6","4","6","6","3","6","3","3","2","6","6","4","5","6","4","5","3","3","2","7","3","1","3","6","779748154852773890","余","458","Female","[""好我"",""好她"",""坏我"",""坏她""]","[""强我"",""强她"",""弱我"",""弱她""]","","","","","","","","no","","","","","","","","","SRET","EW_formal","","key","j","16.601626016260163","720","446","朋友","狡诈","Negative","morality","","","","","","","","","","",""
"1437","","j","psychophysics","47","209236","0.0-7.0-3.0-0.33","6","6","7","5","2","4","4","4","5","4","5","1","-1","1","-1","1","2","1","1","5","4","5","4","3","1","3","4","3","5","5","6","5","6","5","5","6","5","5","6","5","4","6","5","4","5","6","6","5","1","5","4","7","5","2","5","6","4","6","6","3","6","3","3","2","6","6","4","5","6","4","5","3","3","2","7","3","1","3","6","779748154852773890","余","458","Female","[""好我"",""好她"",""坏我"",""坏她""]","[""强我"",""强她"",""弱我"",""弱她""]","","","","","","","","no","","","","","","","","","SRET","EW_formal","","key","j","16.613793103448277","720","446","自己","无耻","Negative","morality","","","","","","","","","","",""
"1125","","f","psychophysics","48","211363","0.0-7.0-3.0-0.34","6","6","7","5","2","4","4","4","5","4","5","1","-1","1","-1","1","2","1","1","5","4","5","4","3","1","3","4","3","5","5","6","5","6","5","5","6","5","5","6","5","4","6","5","4","5","6","6","5","1","5","4","7","5","2","5","6","4","6","6","3","6","3","3","2","6","6","4","5","6","4","5","3","3","2","7","3","1","3","6","779748154852773890","余","458","Female","[""好我"",""好她"",""坏我"",""坏她""]","[""强我"",""强她"",""弱我"",""弱她""]","","","","","","","","yes","","","","","","","","","SRET","EW_formal","","key","f","16.559055118110237","720","446","朋友","勤恳","Positive","morality","","","","","","","","","","",""
"1654","","j","psychophysics","49","214018","0.0-7.0-3.0-0.35","6","6","7","5","2","4","4","4","5","4","5","1","-1","1","-1","1","2","1","1","5","4","5","4","3","1","3","4","3","5","5","6","5","6","5","5","6","5","5","6","5","4","6","5","4","5","6","6","5","1","5","4","7","5","2","5","6","4","6","6","3","6","3","3","2","6","6","4","5","6","4","5","3","3","2","7","3","1","3","6","779748154852773890","余","458","Female","[""好我"",""好她"",""坏我"",""坏她""]","[""强我"",""强她"",""弱我"",""弱她""]","","","","","","","","no","","","","","","","","","SRET","EW_formal","","key","j","16.670886075949365","720","446","自己","博学","Positive","ability","","","","","","","","","","",""
"1264","","j","psychophysics","50","216283","0.0-7.0-3.0-0.36","6","6","7","5","2","4","4","4","5","4","5","1","-1","1","-1","1","2","1","1","5","4","5","4","3","1","3","4","3","5","5","6","5","6","5","5","6","5","5","6","5","4","6","5","4","5","6","6","5","1","5","4","7","5","2","5","6","4","6","6","3","6","3","3","2","6","6","4","5","6","4","5","3","3","2","7","3","1","3","6","779748154852773890","余","458","Female","[""好我"",""好她"",""坏我"",""坏她""]","[""强我"",""强她"",""弱我"",""弱她""]","","","","","","","","no","","","","","","","","","SRET","EW_formal","","key","j","16.659259259259258","720","446","自己","屈才","Negative","ability","","","","","","","","","","",""
"1117","","j","psychophysics","51","218401","0.0-7.0-3.0-0.37","6","6","7","5","2","4","4","4","5","4","5","1","-1","1","-1","1","2","1","1","5","4","5","4","3","1","3","4","3","5","5","6","5","6","5","5","6","5","5","6","5","4","6","5","4","5","6","6","5","1","5","4","7","5","2","5","6","4","6","6","3","6","3","3","2","6","6","4","5","6","4","5","3","3","2","7","3","1","3","6","779748154852773890","余","458","Female","[""好我"",""好她"",""坏我"",""坏她""]","[""强我"",""强她"",""弱我"",""弱她""]","","","","","","","","no","","","","","","","","","SRET","EW_formal","","key","j","16.61111111111111","720","446","自己","独断","Negative","ability","","","","","","","","","","",""
"1011","","j","psychophysics","52","220413","0.0-7.0-3.0-0.38","6","6","7","5","2","4","4","4","5","4","5","1","-1","1","-1","1","2","1","1","5","4","5","4","3","1","3","4","3","5","5","6","5","6","5","5","6","5","5","6","5","4","6","5","4","5","6","6","5","1","5","4","7","5","2","5","6","4","6","6","3","6","3","3","2","6","6","4","5","6","4","5","3","3","2","7","3","1","3","6","779748154852773890","余","458","Female","[""好我"",""好她"",""坏我"",""坏她""]","[""强我"",""强她"",""弱我"",""弱她""]","","","","","","","","no","","","","","","","","","SRET","EW_formal","","key","j","16.666666666666668","720","446","自己","浅薄","Negative","ability","","","","","","","","","","",""
"957","","f","psychophysics","53","222372","0.0-7.0-3.0-0.39","6","6","7","5","2","4","4","4","5","4","5","1","-1","1","-1","1","2","1","1","5","4","5","4","3","1","3","4","3","5","5","6","5","6","5","5","6","5","5","6","5","4","6","5","4","5","6","6","5","1","5","4","7","5","2","5","6","4","6","6","3","6","3","3","2","6","6","4","5","6","4","5","3","3","2","7","3","1","3","6","779748154852773890","余","458","Female","[""好我"",""好她"",""坏我"",""坏她""]","[""强我"",""强她"",""弱我"",""弱她""]","","","","","","","","yes","","","","","","","","","SRET","EW_formal","","key","f","16.603448275862068","720","446","朋友","孝顺","Positive","morality","","","","","","","","","","",""
"1324","","f","psychophysics","54","224697","0.0-7.0-3.0-0.40","6","6","7","5","2","4","4","4","5","4","5","1","-1","1","-1","1","2","1","1","5","4","5","4","3","1","3","4","3","5","5","6","5","6","5","5","6","5","5","6","5","4","6","5","4","5","6","6","5","1","5","4","7","5","2","5","6","4","6","6","3","6","3","3","2","6","6","4","5","6","4","5","3","3","2","7","3","1","3","6","779748154852773890","余","458","Female","[""好我"",""好她"",""坏我"",""坏她""]","[""强我"",""强她"",""弱我"",""弱她""]","","","","","","","","yes","","","","","","","","","SRET","EW_formal","","key","f","16.676258992805757","720","446","自己","忠良","Positive","morality","","","","","","","","","","",""
"981","","j","psychophysics","55","226680","0.0-7.0-3.0-0.41","6","6","7","5","2","4","4","4","5","4","5","1","-1","1","-1","1","2","1","1","5","4","5","4","3","1","3","4","3","5","5","6","5","6","5","5","6","5","5","6","5","4","6","5","4","5","6","6","5","1","5","4","7","5","2","5","6","4","6","6","3","6","3","3","2","6","6","4","5","6","4","5","3","3","2","7","3","1","3","6","779748154852773890","余","458","Female","[""好我"",""好她"",""坏我"",""坏她""]","[""强我"",""强她"",""弱我"",""弱她""]","","","","","","","","no","","","","","","","","","SRET","EW_formal","","key","j","16.593220338983052","720","446","朋友","邪恶","Negative","morality","","","","","","","","","","",""
"1003","","f","psychophysics","56","228686","0.0-7.0-3.0-0.42","6","6","7","5","2","4","4","4","5","4","5","1","-1","1","-1","1","2","1","1","5","4","5","4","3","1","3","4","3","5","5","6","5","6","5","5","6","5","5","6","5","4","6","5","4","5","6","6","5","1","5","4","7","5","2","5","6","4","6","6","3","6","3","3","2","6","6","4","5","6","4","5","3","3","2","7","3","1","3","6","779748154852773890","余","458","Female","[""好我"",""好她"",""坏我"",""坏她""]","[""强我"",""强她"",""弱我"",""弱她""]","","","","","","","","yes","","","","","","","","","SRET","EW_formal","","key","f","17.43859649122807","720","446","朋友","热心","Positive","morality","","","","","","","","","","",""
"1097","","j","psychophysics","57","230784","0.0-7.0-3.0-0.43","6","6","7","5","2","4","4","4","5","4","5","1","-1","1","-1","1","2","1","1","5","4","5","4","3","1","3","4","3","5","5","6","5","6","5","5","6","5","5","6","5","4","6","5","4","5","6","6","5","1","5","4","7","5","2","5","6","4","6","6","3","6","3","3","2","6","6","4","5","6","4","5","3","3","2","7","3","1","3","6","779748154852773890","余","458","Female","[""好我"",""好她"",""坏我"",""坏她""]","[""强我"",""强她"",""弱我"",""弱她""]","","","","","","","","no","","","","","","","","","SRET","EW_formal","","key","j","16.568","720","446","自己","高明","Positive","ability","","","","","","","","","","",""
"1449","","f","psychophysics","58","233234","0.0-7.0-3.0-0.44","6","6","7","5","2","4","4","4","5","4","5","1","-1","1","-1","1","2","1","1","5","4","5","4","3","1","3","4","3","5","5","6","5","6","5","5","6","5","5","6","5","4","6","5","4","5","6","6","5","1","5","4","7","5","2","5","6","4","6","6","3","6","3","3","2","6","6","4","5","6","4","5","3","3","2","7","3","1","3","6","779748154852773890","余","458","Female","[""好我"",""好她"",""坏我"",""坏她""]","[""强我"",""强她"",""弱我"",""弱她""]","","","","","","","","yes","","","","","","","","","SRET","EW_formal","","key","f","16.65753424657534","720","446","朋友","慈悲","Positive","morality","","","","","","","","","","",""
"1066","","j","psychophysics","59","235300","0.0-7.0-3.0-0.45","6","6","7","5","2","4","4","4","5","4","5","1","-1","1","-1","1","2","1","1","5","4","5","4","3","1","3","4","3","5","5","6","5","6","5","5","6","5","5","6","5","4","6","5","4","5","6","6","5","1","5","4","7","5","2","5","6","4","6","6","3","6","3","3","2","6","6","4","5","6","4","5","3","3","2","7","3","1","3","6","779748154852773890","余","458","Female","[""好我"",""好她"",""坏我"",""坏她""]","[""强我"",""强她"",""弱我"",""弱她""]","","","","","","","","no","","","","","","","","","SRET","EW_formal","","key","j","16.56910569105691","720","446","朋友","才尽","Negative","ability","","","","","","","","","","",""
"1668","","f","psychophysics","60","237970","0.0-7.0-3.0-0.46","6","6","7","5","2","4","4","4","5","4","5","1","-1","1","-1","1","2","1","1","5","4","5","4","3","1","3","4","3","5","5","6","5","6","5","5","6","5","5","6","5","4","6","5","4","5","6","6","5","1","5","4","7","5","2","5","6","4","6","6","3","6","3","3","2","6","6","4","5","6","4","5","3","3","2","7","3","1","3","6","779748154852773890","余","458","Female","[""好我"",""好她"",""坏我"",""坏她""]","[""强我"",""强她"",""弱我"",""弱她""]","","","","","","","","yes","","","","","","","","","SRET","EW_formal","","key","f","16.60377358490566","720","446","朋友","偏私","Negative","morality","","","","","","","","","","",""
"961","","j","psychophysics","61","239931","0.0-7.0-3.0-0.47","6","6","7","5","2","4","4","4","5","4","5","1","-1","1","-1","1","2","1","1","5","4","5","4","3","1","3","4","3","5","5","6","5","6","5","5","6","5","5","6","5","4","6","5","4","5","6","6","5","1","5","4","7","5","2","5","6","4","6","6","3","6","3","3","2","6","6","4","5","6","4","5","3","3","2","7","3","1","3","6","779748154852773890","余","458","Female","[""好我"",""好她"",""坏我"",""坏她""]","[""强我"",""强她"",""弱我"",""弱她""]","","","","","","","","no","","","","","","","","","SRET","EW_formal","","key","j","16.564102564102566","720","446","朋友","无能","Negative","ability","","","","","","","","","","",""
"968","","j","psychophysics","62","241902","0.0-7.0-3.0-0.48","6","6","7","5","2","4","4","4","5","4","5","1","-1","1","-1","1","2","1","1","5","4","5","4","3","1","3","4","3","5","5","6","5","6","5","5","6","5","5","6","5","4","6","5","4","5","6","6","5","1","5","4","7","5","2","5","6","4","6","6","3","6","3","3","2","6","6","4","5","6","4","5","3","3","2","7","3","1","3","6","779748154852773890","余","458","Female","[""好我"",""好她"",""坏我"",""坏她""]","[""强我"",""强她"",""弱我"",""弱她""]","","","","","","","","no","","","","","","","","","SRET","EW_formal","","key","j","16.853448275862068","720","446","朋友","贪腐","Negative","morality","","","","","","","","","","",""
"766","","f","psychophysics","63","243670","0.0-7.0-3.0-0.49","6","6","7","5","2","4","4","4","5","4","5","1","-1","1","-1","1","2","1","1","5","4","5","4","3","1","3","4","3","5","5","6","5","6","5","5","6","5","5","6","5","4","6","5","4","5","6","6","5","1","5","4","7","5","2","5","6","4","6","6","3","6","3","3","2","6","6","4","5","6","4","5","3","3","2","7","3","1","3","6","779748154852773890","余","458","Female","[""好我"",""好她"",""坏我"",""坏她""]","[""强我"",""强她"",""弱我"",""弱她""]","","","","","","","","yes","","","","","","","","","SRET","EW_formal","","key","f","16.676190476190477","720","446","朋友","上进","Positive","ability","","","","","","","","","","",""
"1213","","f","psychophysics","64","245885","0.0-7.0-3.0-0.50","6","6","7","5","2","4","4","4","5","4","5","1","-1","1","-1","1","2","1","1","5","4","5","4","3","1","3","4","3","5","5","6","5","6","5","5","6","5","5","6","5","4","6","5","4","5","6","6","5","1","5","4","7","5","2","5","6","4","6","6","3","6","3","3","2","6","6","4","5","6","4","5","3","3","2","7","3","1","3","6","779748154852773890","余","458","Female","[""好我"",""好她"",""坏我"",""坏她""]","[""强我"",""强她"",""弱我"",""弱她""]","","","","","","","","yes","","","","","","","","","SRET","EW_formal","","key","f","16.6793893129771","720","446","自己","奉献","Positive","morality","","","","","","","","","","",""
"1408","","j","psychophysics","65","248295","0.0-7.0-3.0-0.51","6","6","7","5","2","4","4","4","5","4","5","1","-1","1","-1","1","2","1","1","5","4","5","4","3","1","3","4","3","5","5","6","5","6","5","5","6","5","5","6","5","4","6","5","4","5","6","6","5","1","5","4","7","5","2","5","6","4","6","6","3","6","3","3","2","6","6","4","5","6","4","5","3","3","2","7","3","1","3","6","779748154852773890","余","458","Female","[""好我"",""好她"",""坏我"",""坏她""]","[""强我"",""强她"",""弱我"",""弱她""]","","","","","","","","no","","","","","","","","","SRET","EW_formal","","key","j","16.666666666666668","720","446","朋友","刻薄","Negative","morality","","","","","","","","","","",""
"1074","","f","psychophysics","66","250369","0.0-7.0-3.0-0.52","6","6","7","5","2","4","4","4","5","4","5","1","-1","1","-1","1","2","1","1","5","4","5","4","3","1","3","4","3","5","5","6","5","6","5","5","6","5","5","6","5","4","6","5","4","5","6","6","5","1","5","4","7","5","2","5","6","4","6","6","3","6","3","3","2","6","6","4","5","6","4","5","3","3","2","7","3","1","3","6","779748154852773890","余","458","Female","[""好我"",""好她"",""坏我"",""坏她""]","[""强我"",""强她"",""弱我"",""弱她""]","","","","","","","","yes","","","","","","","","","SRET","EW_formal","","key","f","16.666666666666668","720","446","自己","中用","Positive","ability","","","","","","","","","","",""
"1308","","j","psychophysics","67","252679","0.0-7.0-3.0-0.53","6","6","7","5","2","4","4","4","5","4","5","1","-1","1","-1","1","2","1","1","5","4","5","4","3","1","3","4","3","5","5","6","5","6","5","5","6","5","5","6","5","4","6","5","4","5","6","6","5","1","5","4","7","5","2","5","6","4","6","6","3","6","3","3","2","6","6","4","5","6","4","5","3","3","2","7","3","1","3","6","779748154852773890","余","458","Female","[""好我"",""好她"",""坏我"",""坏她""]","[""强我"",""强她"",""弱我"",""弱她""]","","","","","","","","no","","","","","","","","","SRET","EW_formal","","key","j","16.659420289855074","720","446","朋友","愚钝","Negative","ability","","","","","","","","","","",""
"1151","","f","psychophysics","68","254830","0.0-7.0-3.0-0.54","6","6","7","5","2","4","4","4","5","4","5","1","-1","1","-1","1","2","1","1","5","4","5","4","3","1","3","4","3","5","5","6","5","6","5","5","6","5","5","6","5","4","6","5","4","5","6","6","5","1","5","4","7","5","2","5","6","4","6","6","3","6","3","3","2","6","6","4","5","6","4","5","3","3","2","7","3","1","3","6","779748154852773890","余","458","Female","[""好我"",""好她"",""坏我"",""坏她""]","[""强我"",""强她"",""弱我"",""弱她""]","","","","","","","","yes","","","","","","","","","SRET","EW_formal","","key","f","16.65625","720","446","自己","文明","Positive","morality","","","","","","","","","","",""
"1363","","f","psychophysics","69","257195","0.0-7.0-3.0-0.55","6","6","7","5","2","4","4","4","5","4","5","1","-1","1","-1","1","2","1","1","5","4","5","4","3","1","3","4","3","5","5","6","5","6","5","5","6","5","5","6","5","4","6","5","4","5","6","6","5","1","5","4","7","5","2","5","6","4","6","6","3","6","3","3","2","6","6","4","5","6","4","5","3","3","2","7","3","1","3","6","779748154852773890","余","458","Female","[""好我"",""好她"",""坏我"",""坏她""]","[""强我"",""强她"",""弱我"",""弱她""]","","","","","","","","yes","","","","","","","","","SRET","EW_formal","","key","f","16.666666666666668","720","446","自己","高效","Positive","ability","","","","","","","","","","",""
"1500","","j","psychophysics","70","259696","0.0-7.0-3.0-0.56","6","6","7","5","2","4","4","4","5","4","5","1","-1","1","-1","1","2","1","1","5","4","5","4","3","1","3","4","3","5","5","6","5","6","5","5","6","5","5","6","5","4","6","5","4","5","6","6","5","1","5","4","7","5","2","5","6","4","6","6","3","6","3","3","2","6","6","4","5","6","4","5","3","3","2","7","3","1","3","6","779748154852773890","余","458","Female","[""好我"",""好她"",""坏我"",""坏她""]","[""强我"",""强她"",""弱我"",""弱她""]","","","","","","","","no","","","","","","","","","SRET","EW_formal","","key","j","16.65771812080537","720","446","自己","差生","Negative","ability","","","","","","","","","","",""
"936","","f","psychophysics","71","261645","0.0-7.0-3.0-0.57","6","6","7","5","2","4","4","4","5","4","5","1","-1","1","-1","1","2","1","1","5","4","5","4","3","1","3","4","3","5","5","6","5","6","5","5","6","5","5","6","5","4","6","5","4","5","6","6","5","1","5","4","7","5","2","5","6","4","6","6","3","6","3","3","2","6","6","4","5","6","4","5","3","3","2","7","3","1","3","6","779748154852773890","余","458","Female","[""好我"",""好她"",""坏我"",""坏她""]","[""强我"",""强她"",""弱我"",""弱她""]","","","","","","","","yes","","","","","","","","","SRET","EW_formal","","key","f","16.663793103448278","720","446","自己","刻苦","Positive","ability","","","","","","","","","","",""
"1051","","f","psychophysics","72","263712","0.0-7.0-3.0-0.58","6","6","7","5","2","4","4","4","5","4","5","1","-1","1","-1","1","2","1","1","5","4","5","4","3","1","3","4","3","5","5","6","5","6","5","5","6","5","5","6","5","4","6","5","4","5","6","6","5","1","5","4","7","5","2","5","6","4","6","6","3","6","3","3","2","6","6","4","5","6","4","5","3","3","2","7","3","1","3","6","779748154852773890","余","458","Female","[""好我"",""好她"",""坏我"",""坏她""]","[""强我"",""强她"",""弱我"",""弱她""]","","","","","","","","yes","","","","","","","","","SRET","EW_formal","","key","f","16.658536585365855","720","446","朋友","坚持","Positive","ability","","","","","","","","","","",""
"1016","","f","psychophysics","73","265728","0.0-7.0-3.0-0.59","6","6","7","5","2","4","4","4","5","4","5","1","-1","1","-1","1","2","1","1","5","4","5","4","3","1","3","4","3","5","5","6","5","6","5","5","6","5","5","6","5","4","6","5","4","5","6","6","5","1","5","4","7","5","2","5","6","4","6","6","3","6","3","3","2","6","6","4","5","6","4","5","3","3","2","7","3","1","3","6","779748154852773890","余","458","Female","[""好我"",""好她"",""坏我"",""坏她""]","[""强我"",""强她"",""弱我"",""弱她""]","","","","","","","","yes","","","","","","","","","SRET","EW_formal","","key","f","16.658333333333335","720","446","自己","好心","Positive","morality","","","","","","","","","","",""
"1870","","j","psychophysics","74","268599","0.0-7.0-3.0-0.60","6","6","7","5","2","4","4","4","5","4","5","1","-1","1","-1","1","2","1","1","5","4","5","4","3","1","3","4","3","5","5","6","5","6","5","5","6","5","5","6","5","4","6","5","4","5","6","6","5","1","5","4","7","5","2","5","6","4","6","6","3","6","3","3","2","6","6","4","5","6","4","5","3","3","2","7","3","1","3","6","779748154852773890","余","458","Female","[""好我"",""好她"",""坏我"",""坏她""]","[""强我"",""强她"",""弱我"",""弱她""]","","","","","","","","no","","","","","","","","","SRET","EW_formal","","key","j","16.666666666666668","720","446","自己","忠勇","Positive","morality","","","","","","","","","","",""
"966","","f","psychophysics","75","270566","0.0-7.0-3.0-0.61","6","6","7","5","2","4","4","4","5","4","5","1","-1","1","-1","1","2","1","1","5","4","5","4","3","1","3","4","3","5","5","6","5","6","5","5","6","5","5","6","5","4","6","5","4","5","6","6","5","1","5","4","7","5","2","5","6","4","6","6","3","6","3","3","2","6","6","4","5","6","4","5","3","3","2","7","3","1","3","6","779748154852773890","余","458","Female","[""好我"",""好她"",""坏我"",""坏她""]","[""强我"",""强她"",""弱我"",""弱她""]","","","","","","","","yes","","","","","","","","","SRET","EW_formal","","key","f","16.666666666666668","720","446","朋友","坦荡","Positive","morality","","","","","","","","","","",""
"1377","","f","psychophysics","76","272945","0.0-7.0-3.0-0.62","6","6","7","5","2","4","4","4","5","4","5","1","-1","1","-1","1","2","1","1","5","4","5","4","3","1","3","4","3","5","5","6","5","6","5","5","6","5","5","6","5","4","6","5","4","5","6","6","5","1","5","4","7","5","2","5","6","4","6","6","3","6","3","3","2","6","6","4","5","6","4","5","3","3","2","7","3","1","3","6","779748154852773890","余","458","Female","[""好我"",""好她"",""坏我"",""坏她""]","[""强我"",""强她"",""弱我"",""弱她""]","","","","","","","","yes","","","","","","","","","SRET","EW_formal","","key","f","16.661971830985916","720","446","自己","依靠","Negative","ability","","","","","","","","","","",""
"1400","","f","psychophysics","77","275347","0.0-7.0-3.0-0.63","6","6","7","5","2","4","4","4","5","4","5","1","-1","1","-1","1","2","1","1","5","4","5","4","3","1","3","4","3","5","5","6","5","6","5","5","6","5","5","6","5","4","6","5","4","5","6","6","5","1","5","4","7","5","2","5","6","4","6","6","3","6","3","3","2","6","6","4","5","6","4","5","3","3","2","7","3","1","3","6","779748154852773890","余","458","Female","[""好我"",""好她"",""坏我"",""坏她""]","[""强我"",""强她"",""弱我"",""弱她""]","","","","","","","","yes","","","","","","","","","SRET","EW_formal","","key","f","16.664335664335663","720","446","朋友","肯干","Positive","ability","","","","","","","","","","",""
"845","","j","psychophysics","78","277194","0.0-7.0-3.0-0.64","6","6","7","5","2","4","4","4","5","4","5","1","-1","1","-1","1","2","1","1","5","4","5","4","3","1","3","4","3","5","5","6","5","6","5","5","6","5","5","6","5","4","6","5","4","5","6","6","5","1","5","4","7","5","2","5","6","4","6","6","3","6","3","3","2","6","6","4","5","6","4","5","3","3","2","7","3","1","3","6","779748154852773890","余","458","Female","[""好我"",""好她"",""坏我"",""坏她""]","[""强我"",""强她"",""弱我"",""弱她""]","","","","","","","","no","","","","","","","","","SRET","EW_formal","","key","j","16.654545454545456","720","446","自己","诡诈","Negative","morality","","","","","","","","","","",""
"718","","f","psychophysics","79","278926","0.0-7.0-3.0-0.65","6","6","7","5","2","4","4","4","5","4","5","1","-1","1","-1","1","2","1","1","5","4","5","4","3","1","3","4","3","5","5","6","5","6","5","5","6","5","5","6","5","4","6","5","4","5","6","6","5","1","5","4","7","5","2","5","6","4","6","6","3","6","3","3","2","6","6","4","5","6","4","5","3","3","2","7","3","1","3","6","779748154852773890","余","458","Female","[""好我"",""好她"",""坏我"",""坏她""]","[""强我"",""强她"",""弱我"",""弱她""]","","","","","","","","yes","","","","","","","","","SRET","EW_formal","","key","f","16.650485436893202","720","446","朋友","善良","Positive","morality","","","","","","","","","","",""
"1001","","j","psychophysics","80","280930","0.0-7.0-3.0-0.66","6","6","7","5","2","4","4","4","5","4","5","1","-1","1","-1","1","2","1","1","5","4","5","4","3","1","3","4","3","5","5","6","5","6","5","5","6","5","5","6","5","4","6","5","4","5","6","6","5","1","5","4","7","5","2","5","6","4","6","6","3","6","3","3","2","6","6","4","5","6","4","5","3","3","2","7","3","1","3","6","779748154852773890","余","458","Female","[""好我"",""好她"",""坏我"",""坏她""]","[""强我"",""强她"",""弱我"",""弱她""]","","","","","","","","no","","","","","","","","","SRET","EW_formal","","key","j","16.66386554621849","720","446","朋友","无为","Negative","ability","","","","","","","","","","",""
"1329","","f","psychophysics","81","283264","0.0-7.0-3.0-0.67","6","6","7","5","2","4","4","4","5","4","5","1","-1","1","-1","1","2","1","1","5","4","5","4","3","1","3","4","3","5","5","6","5","6","5","5","6","5","5","6","5","4","6","5","4","5","6","6","5","1","5","4","7","5","2","5","6","4","6","6","3","6","3","3","2","6","6","4","5","6","4","5","3","3","2","7","3","1","3","6","779748154852773890","余","458","Female","[""好我"",""好她"",""坏我"",""坏她""]","[""强我"",""强她"",""弱我"",""弱她""]","","","","","","","","yes","","","","","","","","","SRET","EW_formal","","key","f","16.66906474820144","720","446","朋友","逞强","Negative","ability","","","","","","","","","","",""
"1172","","f","psychophysics","82","285436","0.0-7.0-3.0-0.68","6","6","7","5","2","4","4","4","5","4","5","1","-1","1","-1","1","2","1","1","5","4","5","4","3","1","3","4","3","5","5","6","5","6","5","5","6","5","5","6","5","4","6","5","4","5","6","6","5","1","5","4","7","5","2","5","6","4","6","6","3","6","3","3","2","6","6","4","5","6","4","5","3","3","2","7","3","1","3","6","779748154852773890","余","458","Female","[""好我"",""好她"",""坏我"",""坏她""]","[""强我"",""强她"",""弱我"",""弱她""]","","","","","","","","yes","","","","","","","","","SRET","EW_formal","","key","f","16.674418604651162","720","446","自己","礼貌","Positive","morality","","","","","","","","","","",""
"1148","","f","psychophysics","83","287584","0.0-7.0-3.0-0.69","6","6","7","5","2","4","4","4","5","4","5","1","-1","1","-1","1","2","1","1","5","4","5","4","3","1","3","4","3","5","5","6","5","6","5","5","6","5","5","6","5","4","6","5","4","5","6","6","5","1","5","4","7","5","2","5","6","4","6","6","3","6","3","3","2","6","6","4","5","6","4","5","3","3","2","7","3","1","3","6","779748154852773890","余","458","Female","[""好我"",""好她"",""坏我"",""坏她""]","[""强我"",""强她"",""弱我"",""弱她""]","","","","","","","","yes","","","","","","","","","SRET","EW_formal","","key","f","16.6640625","720","446","朋友","忠诚","Positive","morality","","","","","","","","","","",""
"951","","j","psychophysics","84","289536","0.0-7.0-3.0-0.70","6","6","7","5","2","4","4","4","5","4","5","1","-1","1","-1","1","2","1","1","5","4","5","4","3","1","3","4","3","5","5","6","5","6","5","5","6","5","5","6","5","4","6","5","4","5","6","6","5","1","5","4","7","5","2","5","6","4","6","6","3","6","3","3","2","6","6","4","5","6","4","5","3","3","2","7","3","1","3","6","779748154852773890","余","458","Female","[""好我"",""好她"",""坏我"",""坏她""]","[""强我"",""强她"",""弱我"",""弱她""]","","","","","","","","no","","","","","","","","","SRET","EW_formal","","key","j","17.581818181818182","720","446","朋友","虚假","Negative","morality","","","","","","","","","","",""
"1020","","j","psychophysics","85","291563","0.0-7.0-3.0-0.71","6","6","7","5","2","4","4","4","5","4","5","1","-1","1","-1","1","2","1","1","5","4","5","4","3","1","3","4","3","5","5","6","5","6","5","5","6","5","5","6","5","4","6","5","4","5","6","6","5","1","5","4","7","5","2","5","6","4","6","6","3","6","3","3","2","6","6","4","5","6","4","5","3","3","2","7","3","1","3","6","779748154852773890","余","458","Female","[""好我"",""好她"",""坏我"",""坏她""]","[""强我"",""强她"",""弱我"",""弱她""]","","","","","","","","no","","","","","","","","","SRET","EW_formal","","key","j","16.669421487603305","720","446","自己","小人","Negative","morality","","","","","","","","","","",""
"882","","f","psychophysics","86","293445","0.0-7.0-3.0-0.72","6","6","7","5","2","4","4","4","5","4","5","1","-1","1","-1","1","2","1","1","5","4","5","4","3","1","3","4","3","5","5","6","5","6","5","5","6","5","5","6","5","4","6","5","4","5","6","6","5","1","5","4","7","5","2","5","6","4","6","6","3","6","3","3","2","6","6","4","5","6","4","5","3","3","2","7","3","1","3","6","779748154852773890","余","458","Female","[""好我"",""好她"",""坏我"",""坏她""]","[""强我"",""强她"",""弱我"",""弱她""]","","","","","","","","yes","","","","","","","","","SRET","EW_formal","","key","f","16.660714285714285","720","446","自己","义气","Positive","morality","","","","","","","","","","",""
"1100","","f","psychophysics","87","295552","0.0-7.0-3.0-0.73","6","6","7","5","2","4","4","4","5","4","5","1","-1","1","-1","1","2","1","1","5","4","5","4","3","1","3","4","3","5","5","6","5","6","5","5","6","5","5","6","5","4","6","5","4","5","6","6","5","1","5","4","7","5","2","5","6","4","6","6","3","6","3","3","2","6","6","4","5","6","4","5","3","3","2","7","3","1","3","6","779748154852773890","余","458","Female","[""好我"",""好她"",""坏我"",""坏她""]","[""强我"",""强她"",""弱我"",""弱她""]","","","","","","","","yes","","","","","","","","","SRET","EW_formal","","key","f","16.672","720","446","朋友","能干","Positive","ability","","","","","","","","","","",""
"1266","","f","psychophysics","88","297820","0.0-7.0-3.0-0.74","6","6","7","5","2","4","4","4","5","4","5","1","-1","1","-1","1","2","1","1","5","4","5","4","3","1","3","4","3","5","5","6","5","6","5","5","6","5","5","6","5","4","6","5","4","5","6","6","5","1","5","4","7","5","2","5","6","4","6","6","3","6","3","3","2","6","6","4","5","6","4","5","3","3","2","7","3","1","3","6","779748154852773890","余","458","Female","[""好我"",""好她"",""坏我"",""坏她""]","[""强我"",""强她"",""弱我"",""弱她""]","","","","","","","","yes","","","","","","","","","SRET","EW_formal","","key","f","16.917293233082706","720","446","自己","拜金","Negative","morality","","","","","","","","","","",""
"1095","","j","psychophysics","89","299918","0.0-7.0-3.0-0.75","6","6","7","5","2","4","4","4","5","4","5","1","-1","1","-1","1","2","1","1","5","4","5","4","3","1","3","4","3","5","5","6","5","6","5","5","6","5","5","6","5","4","6","5","4","5","6","6","5","1","5","4","7","5","2","5","6","4","6","6","3","6","3","3","2","6","6","4","5","6","4","5","3","3","2","7","3","1","3","6","779748154852773890","余","458","Female","[""好我"",""好她"",""坏我"",""坏她""]","[""强我"",""强她"",""弱我"",""弱她""]","","","","","","","","no","","","","","","","","","SRET","EW_formal","","key","j","16.672","720","446","朋友","笨蛋","Negative","ability","","","","","","","","","","",""
"1008","","j","psychophysics","90","301928","0.0-7.0-3.0-0.76","6","6","7","5","2","4","4","4","5","4","5","1","-1","1","-1","1","2","1","1","5","4","5","4","3","1","3","4","3","5","5","6","5","6","5","5","6","5","5","6","5","4","6","5","4","5","6","6","5","1","5","4","7","5","2","5","6","4","6","6","3","6","3","3","2","6","6","4","5","6","4","5","3","3","2","7","3","1","3","6","779748154852773890","余","458","Female","[""好我"",""好她"",""坏我"",""坏她""]","[""强我"",""强她"",""弱我"",""弱她""]","","","","","","","","no","","","","","","","","","SRET","EW_formal","","key","j","16.658333333333335","720","446","朋友","怠惰","Negative","ability","","","","","","","","","","",""
"851","","f","psychophysics","91","303780","0.0-7.0-3.0-0.77","6","6","7","5","2","4","4","4","5","4","5","1","-1","1","-1","1","2","1","1","5","4","5","4","3","1","3","4","3","5","5","6","5","6","5","5","6","5","5","6","5","4","6","5","4","5","6","6","5","1","5","4","7","5","2","5","6","4","6","6","3","6","3","3","2","6","6","4","5","6","4","5","3","3","2","7","3","1","3","6","779748154852773890","余","458","Female","[""好我"",""好她"",""坏我"",""坏她""]","[""强我"",""强她"",""弱我"",""弱她""]","","","","","","","","yes","","","","","","","","","SRET","EW_formal","","key","f","16.663636363636364","720","446","朋友","智慧","Positive","ability","","","","","","","","","","",""
"1144","","j","psychophysics","92","305928","0.0-7.0-3.0-0.78","6","6","7","5","2","4","4","4","5","4","5","1","-1","1","-1","1","2","1","1","5","4","5","4","3","1","3","4","3","5","5","6","5","6","5","5","6","5","5","6","5","4","6","5","4","5","6","6","5","1","5","4","7","5","2","5","6","4","6","6","3","6","3","3","2","6","6","4","5","6","4","5","3","3","2","7","3","1","3","6","779748154852773890","余","458","Female","[""好我"",""好她"",""坏我"",""坏她""]","[""强我"",""强她"",""弱我"",""弱她""]","","","","","","","","no","","","","","","","","","SRET","EW_formal","","key","j","16.6640625","720","446","朋友","背叛","Negative","morality","","","","","","","","","","",""
"736","","j","psychophysics","93","307666","0.0-7.0-3.0-0.79","6","6","7","5","2","4","4","4","5","4","5","1","-1","1","-1","1","2","1","1","5","4","5","4","3","1","3","4","3","5","5","6","5","6","5","5","6","5","5","6","5","4","6","5","4","5","6","6","5","1","5","4","7","5","2","5","6","4","6","6","3","6","3","3","2","6","6","4","5","6","4","5","3","3","2","7","3","1","3","6","779748154852773890","余","458","Female","[""好我"",""好她"",""坏我"",""坏她""]","[""强我"",""强她"",""弱我"",""弱她""]","","","","","","","","no","","","","","","","","","SRET","EW_formal","","key","j","16.66990291262136","720","446","朋友","恶劣","Negative","morality","","","","","","","","","","",""
"1517","","f","psychophysics","94","310185","0.0-7.0-3.0-0.80","6","6","7","5","2","4","4","4","5","4","5","1","-1","1","-1","1","2","1","1","5","4","5","4","3","1","3","4","3","5","5","6","5","6","5","5","6","5","5","6","5","4","6","5","4","5","6","6","5","1","5","4","7","5","2","5","6","4","6","6","3","6","3","3","2","6","6","4","5","6","4","5","3","3","2","7","3","1","3","6","779748154852773890","余","458","Female","[""好我"",""好她"",""坏我"",""坏她""]","[""强我"",""强她"",""弱我"",""弱她""]","","","","","","","","yes","","","","","","","","","SRET","EW_formal","","key","f","16.673333333333332","720","446","自己","势利","Negative","morality","","","","","","","","","","",""
"1426","","f","psychophysics","95","312611","0.0-7.0-3.0-0.81","6","6","7","5","2","4","4","4","5","4","5","1","-1","1","-1","1","2","1","1","5","4","5","4","3","1","3","4","3","5","5","6","5","6","5","5","6","5","5","6","5","4","6","5","4","5","6","6","5","1","5","4","7","5","2","5","6","4","6","6","3","6","3","3","2","6","6","4","5","6","4","5","3","3","2","7","3","1","3","6","779748154852773890","余","458","Female","[""好我"",""好她"",""坏我"",""坏她""]","[""强我"",""强她"",""弱我"",""弱她""]","","","","","","","","yes","","","","","","","","","SRET","EW_formal","","key","f","16.662068965517243","720","446","自己","新手","Negative","ability","","","","","","","","","","",""
"1180","","j","psychophysics","96","314793","0.0-7.0-3.0-0.82","6","6","7","5","2","4","4","4","5","4","5","1","-1","1","-1","1","2","1","1","5","4","5","4","3","1","3","4","3","5","5","6","5","6","5","5","6","5","5","6","5","4","6","5","4","5","6","6","5","1","5","4","7","5","2","5","6","4","6","6","3","6","3","3","2","6","6","4","5","6","4","5","3","3","2","7","3","1","3","6","779748154852773890","余","458","Female","[""好我"",""好她"",""坏我"",""坏她""]","[""强我"",""强她"",""弱我"",""弱她""]","","","","","","","","no","","","","","","","","","SRET","EW_formal","","key","j","16.66923076923077","720","446","自己","不良","Negative","morality","","","","","","","","","","",""
"1800","","j","psychophysics","97","317595","0.0-7.0-3.0-0.83","6","6","7","5","2","4","4","4","5","4","5","1","-1","1","-1","1","2","1","1","5","4","5","4","3","1","3","4","3","5","5","6","5","6","5","5","6","5","5","6","5","4","6","5","4","5","6","6","5","1","5","4","7","5","2","5","6","4","6","6","3","6","3","3","2","6","6","4","5","6","4","5","3","3","2","7","3","1","3","6","779748154852773890","余","458","Female","[""好我"",""好她"",""坏我"",""坏她""]","[""强我"",""强她"",""弱我"",""弱她""]","","","","","","","","no","","","","","","","","","SRET","EW_formal","","key","j","16.67065868263473","720","446","自己","贪污","Negative","morality","","","","","","","","","","",""
"1452","","j","psychophysics","98","320063","0.0-7.0-3.0-0.84","6","6","7","5","2","4","4","4","5","4","5","1","-1","1","-1","1","2","1","1","5","4","5","4","3","1","3","4","3","5","5","6","5","6","5","5","6","5","5","6","5","4","6","5","4","5","6","6","5","1","5","4","7","5","2","5","6","4","6","6","3","6","3","3","2","6","6","4","5","6","4","5","3","3","2","7","3","1","3","6","779748154852773890","余","458","Female","[""好我"",""好她"",""坏我"",""坏她""]","[""强我"",""强她"",""弱我"",""弱她""]","","","","","","","","no","","","","","","","","","SRET","EW_formal","","key","j","16.666666666666668","720","446","自己","缓慢","Negative","ability","","","","","","","","","","",""
"1100","","f","psychophysics","99","322165","0.0-7.0-3.0-0.85","6","6","7","5","2","4","4","4","5","4","5","1","-1","1","-1","1","2","1","1","5","4","5","4","3","1","3","4","3","5","5","6","5","6","5","5","6","5","5","6","5","4","6","5","4","5","6","6","5","1","5","4","7","5","2","5","6","4","6","6","3","6","3","3","2","6","6","4","5","6","4","5","3","3","2","7","3","1","3","6","779748154852773890","余","458","Female","[""好我"",""好她"",""坏我"",""坏她""]","[""强我"",""强她"",""弱我"",""弱她""]","","","","","","","","yes","","","","","","","","","SRET","EW_formal","","key","f","16.672","720","446","朋友","素养","Positive","morality","","","","","","","","","","",""
"753","","j","psychophysics","100","323919","0.0-7.0-3.0-0.86","6","6","7","5","2","4","4","4","5","4","5","1","-1","1","-1","1","2","1","1","5","4","5","4","3","1","3","4","3","5","5","6","5","6","5","5","6","5","5","6","5","4","6","5","4","5","6","6","5","1","5","4","7","5","2","5","6","4","6","6","3","6","3","3","2","6","6","4","5","6","4","5","3","3","2","7","3","1","3","6","779748154852773890","余","458","Female","[""好我"",""好她"",""坏我"",""坏她""]","[""强我"",""强她"",""弱我"",""弱她""]","","","","","","","","no","","","","","","","","","SRET","EW_formal","","key","j","16.66346153846154","720","446","朋友","低俗","Negative","morality","","","","","","","","","","",""
"1008","","f","psychophysics","101","325930","0.0-7.0-3.0-0.87","6","6","7","5","2","4","4","4","5","4","5","1","-1","1","-1","1","2","1","1","5","4","5","4","3","1","3","4","3","5","5","6","5","6","5","5","6","5","5","6","5","4","6","5","4","5","6","6","5","1","5","4","7","5","2","5","6","4","6","6","3","6","3","3","2","6","6","4","5","6","4","5","3","3","2","7","3","1","3","6","779748154852773890","余","458","Female","[""好我"",""好她"",""坏我"",""坏她""]","[""强我"",""强她"",""弱我"",""弱她""]","","","","","","","","yes","","","","","","","","","SRET","EW_formal","","key","f","16.666666666666668","720","446","自己","主见","Positive","ability","","","","","","","","","","",""
"3732","
    <p><div style='color:white;font-size:35px; line-height:20px;'>计算任务</div></p><br>
    <p><div style='color:red;font-size:25px; line-height:20px;'>接下来，您将看到一些四则运算题，<b>请从键盘选择 0-9 进行反应。</b></div></p>
    <p><div style='color:red;font-size:25px; line-height:20px;'>请尽可能快地进行计算，计算的速度和正确率将影响报酬的发放。</div></p>
    <p><div class='footer' style='color:white;font-size:25px; line-height:20px;'>如果对本实验还有不清楚之处，请立即向实验员咨询。</p><p style='color:white;font-size:25px; line-height:20px;'>如果您明白了规则：</p><p style='color:white;font-size:22px; line-height:20px;'>请按 继续 进入练习</p>
    </div>
    ","0","html-button-response","102","329663","0.0-7.0-4.0","6","6","7","5","2","4","4","4","5","4","5","1","-1","1","-1","1","2","1","1","5","4","5","4","3","1","3","4","3","5","5","6","5","6","5","5","6","5","5","6","5","4","6","5","4","5","6","6","5","1","5","4","7","5","2","5","6","4","6","6","3","6","3","3","2","6","6","4","5","6","4","5","3","3","2","7","3","1","3","6","779748154852773890","余","458","Female","[""好我"",""好她"",""坏我"",""坏她""]","[""强我"",""强她"",""弱我"",""弱她""]","","","","","","","","","","","","","","","","","SRET_math","math_instructions","Tue Jan 30 2024 19:22:12 GMT+0800 (中國標準時間)","","","","","","","","","","","","","","","","","","","",""
"2587","","5","psychophysics","103","332266","0.0-7.0-5.0-0.0","6","6","7","5","2","4","4","4","5","4","5","1","-1","1","-1","1","2","1","1","5","4","5","4","3","1","3","4","3","5","5","6","5","6","5","5","6","5","5","6","5","4","6","5","4","5","6","6","5","1","5","4","7","5","2","5","6","4","6","6","3","6","3","3","2","6","6","4","5","6","4","5","3","3","2","7","3","1","3","6","779748154852773890","余","458","Female","[""好我"",""好她"",""坏我"",""坏她""]","[""强我"",""强她"",""弱我"",""弱她""]","","","","","","","","5","","","","","","","","","SRET","SRET_math_calculate","","key","5","16.562012820512816","720","446","","","","","14-9= ?","5","1","","","","","","","",""
"2059","","5","psychophysics","104","334328","0.0-7.0-5.0-0.1","6","6","7","5","2","4","4","4","5","4","5","1","-1","1","-1","1","2","1","1","5","4","5","4","3","1","3","4","3","5","5","6","5","6","5","5","6","5","5","6","5","4","6","5","4","5","6","6","5","1","5","4","7","5","2","5","6","4","6","6","3","6","3","3","2","6","6","4","5","6","4","5","3","3","2","7","3","1","3","6","779748154852773890","余","458","Female","[""好我"",""好她"",""坏我"",""坏她""]","[""强我"",""强她"",""弱我"",""弱她""]","","","","","","","","5","","","","","","","","","SRET","SRET_math_calculate","","key","5","16.67479674796748","720","446","","","","","15-10= ?","5","1","","","","","","","",""
"1961","","3","psychophysics","105","336309","0.0-7.0-5.0-0.2","6","6","7","5","2","4","4","4","5","4","5","1","-1","1","-1","1","2","1","1","5","4","5","4","3","1","3","4","3","5","5","6","5","6","5","5","6","5","5","6","5","4","6","5","4","5","6","6","5","1","5","4","7","5","2","5","6","4","6","6","3","6","3","3","2","6","6","4","5","6","4","5","3","3","2","7","3","1","3","6","779748154852773890","余","458","Female","[""好我"",""好她"",""坏我"",""坏她""]","[""强我"",""强她"",""弱我"",""弱她""]","","","","","","","","3","","","","","","","","","SRET","SRET_math_calculate","","key","3","16.661016949152543","720","446","","","","","3+0= ?","3","1","","","","","","","",""
"2291","","8","psychophysics","106","338601","0.0-7.0-5.0-0.3","6","6","7","5","2","4","4","4","5","4","5","1","-1","1","-1","1","2","1","1","5","4","5","4","3","1","3","4","3","5","5","6","5","6","5","5","6","5","5","6","5","4","6","5","4","5","6","6","5","1","5","4","7","5","2","5","6","4","6","6","3","6","3","3","2","6","6","4","5","6","4","5","3","3","2","7","3","1","3","6","779748154852773890","余","458","Female","[""好我"",""好她"",""坏我"",""坏她""]","[""强我"",""强她"",""弱我"",""弱她""]","","","","","","","","8","","","","","","","","","SRET","SRET_math_calculate","","key","8","16.66176470588235","720","446","","","","","4*2= ?","8","1","","","","","","","",""
"1960","","4","psychophysics","107","340578","0.0-7.0-5.0-0.4","6","6","7","5","2","4","4","4","5","4","5","1","-1","1","-1","1","2","1","1","5","4","5","4","3","1","3","4","3","5","5","6","5","6","5","5","6","5","5","6","5","4","6","5","4","5","6","6","5","1","5","4","7","5","2","5","6","4","6","6","3","6","3","3","2","6","6","4","5","6","4","5","3","3","2","7","3","1","3","6","779748154852773890","余","458","Female","[""好我"",""好她"",""坏我"",""坏她""]","[""强我"",""强她"",""弱我"",""弱她""]","","","","","","","","4","","","","","","","","","SRET","SRET_math_calculate","","key","4","16.677966101694917","720","446","","","","","4*1= ?","4","1","","","","","","","",""
"1966","","6","psychophysics","108","342547","0.0-7.0-5.0-0.5","6","6","7","5","2","4","4","4","5","4","5","1","-1","1","-1","1","2","1","1","5","4","5","4","3","1","3","4","3","5","5","6","5","6","5","5","6","5","5","6","5","4","6","5","4","5","6","6","5","1","5","4","7","5","2","5","6","4","6","6","3","6","3","3","2","6","6","4","5","6","4","5","3","3","2","7","3","1","3","6","779748154852773890","余","458","Female","[""好我"",""好她"",""坏我"",""坏她""]","[""强我"",""强她"",""弱我"",""弱她""]","","","","","","","","6","","","","","","","","","SRET","SRET_math_calculate","","key","6","16.683760683760685","720","446","","","","","3+3= ?","6","1","","","","","","","",""
"2668","","9","psychophysics","109","345216","0.0-7.0-5.0-0.6","6","6","7","5","2","4","4","4","5","4","5","1","-1","1","-1","1","2","1","1","5","4","5","4","3","1","3","4","3","5","5","6","5","6","5","5","6","5","5","6","5","4","6","5","4","5","6","6","5","1","5","4","7","5","2","5","6","4","6","6","3","6","3","3","2","6","6","4","5","6","4","5","3","3","2","7","3","1","3","6","779748154852773890","余","458","Female","[""好我"",""好她"",""坏我"",""坏她""]","[""强我"",""强她"",""弱我"",""弱她""]","","","","","","","","9","","","","","","","","","SRET","SRET_math_calculate","","key","9","16.62264150943396","720","446","","","","","43-34= ?","9","1","","","","","","","",""
"1907","","3","psychophysics","110","347142","0.0-7.0-5.0-0.7","6","6","7","5","2","4","4","4","5","4","5","1","-1","1","-1","1","2","1","1","5","4","5","4","3","1","3","4","3","5","5","6","5","6","5","5","6","5","5","6","5","4","6","5","4","5","6","6","5","1","5","4","7","5","2","5","6","4","6","6","3","6","3","3","2","6","6","4","5","6","4","5","3","3","2","7","3","1","3","6","779748154852773890","余","458","Female","[""好我"",""好她"",""坏我"",""坏她""]","[""强我"",""强她"",""弱我"",""弱她""]","","","","","","","","3","","","","","","","","","SRET","SRET_math_calculate","","key","3","16.652173913043477","720","446","","","","","1+2= ?","3","1","","","","","","","",""
"3417","","3","psychophysics","111","350559","0.0-7.0-5.0-0.8","6","6","7","5","2","4","4","4","5","4","5","1","-1","1","-1","1","2","1","1","5","4","5","4","3","1","3","4","3","5","5","6","5","6","5","5","6","5","5","6","5","4","6","5","4","5","6","6","5","1","5","4","7","5","2","5","6","4","6","6","3","6","3","3","2","6","6","4","5","6","4","5","3","3","2","7","3","1","3","6","779748154852773890","余","458","Female","[""好我"",""好她"",""坏我"",""坏她""]","[""强我"",""强她"",""弱我"",""弱她""]","","","","","","","","3","","","","","","","","","SRET","SRET_math_calculate","","key","3","16.748768472906406","720","446","","","","","21/7=  ?","3","1","","","","","","","",""
"1942","","2","psychophysics","112","352520","0.0-7.0-5.0-0.9","6","6","7","5","2","4","4","4","5","4","5","1","-1","1","-1","1","2","1","1","5","4","5","4","3","1","3","4","3","5","5","6","5","6","5","5","6","5","5","6","5","4","6","5","4","5","6","6","5","1","5","4","7","5","2","5","6","4","6","6","3","6","3","3","2","6","6","4","5","6","4","5","3","3","2","7","3","1","3","6","779748154852773890","余","458","Female","[""好我"",""好她"",""坏我"",""坏她""]","[""强我"",""强她"",""弱我"",""弱她""]","","","","","","","","2","","","","","","","","","SRET","SRET_math_calculate","","key","2","16.75","720","446","","","","","9-7= ?","2","1","","","","","","","",""
"2100","","7","psychophysics","113","354626","0.0-7.0-5.0-0.10","6","6","7","5","2","4","4","4","5","4","5","1","-1","1","-1","1","2","1","1","5","4","5","4","3","1","3","4","3","5","5","6","5","6","5","5","6","5","5","6","5","4","6","5","4","5","6","6","5","1","5","4","7","5","2","5","6","4","6","6","3","6","3","3","2","6","6","4","5","6","4","5","3","3","2","7","3","1","3","6","779748154852773890","余","458","Female","[""好我"",""好她"",""坏我"",""坏她""]","[""强我"",""强她"",""弱我"",""弱她""]","","","","","","","","7","","","","","","","","","SRET","SRET_math_calculate","","key","7","16.666666666666668","720","446","","","","","2+5= ?","7","1","","","","","","","",""
"2756","","0","psychophysics","114","357401","0.0-7.0-5.0-0.11","6","6","7","5","2","4","4","4","5","4","5","1","-1","1","-1","1","2","1","1","5","4","5","4","3","1","3","4","3","5","5","6","5","6","5","5","6","5","5","6","5","4","6","5","4","5","6","6","5","1","5","4","7","5","2","5","6","4","6","6","3","6","3","3","2","6","6","4","5","6","4","5","3","3","2","7","3","1","3","6","779748154852773890","余","458","Female","[""好我"",""好她"",""坏我"",""坏她""]","[""强我"",""强她"",""弱我"",""弱她""]","","","","","","","","0","","","","","","","","","SRET","SRET_math_calculate","","key","0","16.64242424242424","720","446","","","","","22-22= ?","0","1","","","","","","","",""
"2241","","2","psychophysics","115","359644","0.0-7.0-5.0-0.12","6","6","7","5","2","4","4","4","5","4","5","1","-1","1","-1","1","2","1","1","5","4","5","4","3","1","3","4","3","5","5","6","5","6","5","5","6","5","5","6","5","4","6","5","4","5","6","6","5","1","5","4","7","5","2","5","6","4","6","6","3","6","3","3","2","6","6","4","5","6","4","5","3","3","2","7","3","1","3","6","779748154852773890","余","458","Female","[""好我"",""好她"",""坏我"",""坏她""]","[""强我"",""强她"",""弱我"",""弱她""]","","","","","","","","2","","","","","","","","","SRET","SRET_math_calculate","","key","2","16.634328358208954","720","446","","","","","29-27= ?","2","1","","","","","","","",""
"2150","","5","psychophysics","116","361795","0.0-7.0-5.0-0.13","6","6","7","5","2","4","4","4","5","4","5","1","-1","1","-1","1","2","1","1","5","4","5","4","3","1","3","4","3","5","5","6","5","6","5","5","6","5","5","6","5","4","6","5","4","5","6","6","5","1","5","4","7","5","2","5","6","4","6","6","3","6","3","3","2","6","6","4","5","6","4","5","3","3","2","7","3","1","3","6","779748154852773890","余","458","Female","[""好我"",""好她"",""坏我"",""坏她""]","[""强我"",""强她"",""弱我"",""弱她""]","","","","","","","","5","","","","","","","","","SRET","SRET_math_calculate","","key","5","16.748031496062993","720","446","","","","","10-5= ?","5","1","","","","","","","",""
"2283","","6","psychophysics","117","364096","0.0-7.0-5.0-0.14","6","6","7","5","2","4","4","4","5","4","5","1","-1","1","-1","1","2","1","1","5","4","5","4","3","1","3","4","3","5","5","6","5","6","5","5","6","5","5","6","5","4","6","5","4","5","6","6","5","1","5","4","7","5","2","5","6","4","6","6","3","6","3","3","2","6","6","4","5","6","4","5","3","3","2","7","3","1","3","6","779748154852773890","余","458","Female","[""好我"",""好她"",""坏我"",""坏她""]","[""强我"",""强她"",""弱我"",""弱她""]","","","","","","","","6","","","","","","","","","SRET","SRET_math_calculate","","key","6","16.613138686131386","720","446","","","","","8-2= ?","6","1","","","","","","","",""
"1932","","2","psychophysics","118","366030","0.0-7.0-5.0-0.15","6","6","7","5","2","4","4","4","5","4","5","1","-1","1","-1","1","2","1","1","5","4","5","4","3","1","3","4","3","5","5","6","5","6","5","5","6","5","5","6","5","4","6","5","4","5","6","6","5","1","5","4","7","5","2","5","6","4","6","6","3","6","3","3","2","6","6","4","5","6","4","5","3","3","2","7","3","1","3","6","779748154852773890","余","458","Female","[""好我"",""好她"",""坏我"",""坏她""]","[""强我"",""强她"",""弱我"",""弱她""]","","","","","","","","2","","","","","","","","","SRET","SRET_math_calculate","","key","2","16.660869565217393","720","446","","","","","1+1= ?","2","1","","","","","","","",""
"2980","","1","psychophysics","119","369046","0.0-7.0-5.0-0.16","6","6","7","5","2","4","4","4","5","4","5","1","-1","1","-1","1","2","1","1","5","4","5","4","3","1","3","4","3","5","5","6","5","6","5","5","6","5","5","6","5","4","6","5","4","5","6","6","5","1","5","4","7","5","2","5","6","4","6","6","3","6","3","3","2","6","6","4","5","6","4","5","3","3","2","7","3","1","3","6","779748154852773890","余","458","Female","[""好我"",""好她"",""坏我"",""坏她""]","[""强我"",""强她"",""弱我"",""弱她""]","","","","","","","","1","","","","","","","","","SRET","SRET_math_calculate","","key","1","16.66111111111111","720","446","","","","","50-42= ?","8","0","","","","","","","",""
"114","","2","psychophysics","120","369179","0.0-7.0-5.0-0.17","6","6","7","5","2","4","4","4","5","4","5","1","-1","1","-1","1","2","1","1","5","4","5","4","3","1","3","4","3","5","5","6","5","6","5","5","6","5","5","6","5","4","6","5","4","5","6","6","5","1","5","4","7","5","2","5","6","4","6","6","3","6","3","3","2","6","6","4","5","6","4","5","3","3","2","7","3","1","3","6","779748154852773890","余","458","Female","[""好我"",""好她"",""坏我"",""坏她""]","[""强我"",""强她"",""弱我"",""弱她""]","","","","","","","","2","","","","","","","","","SRET","SRET_math_calculate","","key","2","15.571428571428571","720","446","","","","","2+4= ?","6","0","","","","","","","",""
"2167","","9","psychophysics","121","371347","0.0-7.0-5.0-0.18","6","6","7","5","2","4","4","4","5","4","5","1","-1","1","-1","1","2","1","1","5","4","5","4","3","1","3","4","3","5","5","6","5","6","5","5","6","5","5","6","5","4","6","5","4","5","6","6","5","1","5","4","7","5","2","5","6","4","6","6","3","6","3","3","2","6","6","4","5","6","4","5","3","3","2","7","3","1","3","6","779748154852773890","余","458","Female","[""好我"",""好她"",""坏我"",""坏她""]","[""强我"",""强她"",""弱我"",""弱她""]","","","","","","","","9","","","","","","","","","SRET","SRET_math_calculate","","key","9","16.666666666666668","720","446","","","","","8+1= ?","9","1","","","","","","","",""
"2443","","7","psychophysics","122","373809","0.0-7.0-5.0-0.19","6","6","7","5","2","4","4","4","5","4","5","1","-1","1","-1","1","2","1","1","5","4","5","4","3","1","3","4","3","5","5","6","5","6","5","5","6","5","5","6","5","4","6","5","4","5","6","6","5","1","5","4","7","5","2","5","6","4","6","6","3","6","3","3","2","6","6","4","5","6","4","5","3","3","2","7","3","1","3","6","779748154852773890","余","458","Female","[""好我"",""好她"",""坏我"",""坏她""]","[""强我"",""强她"",""弱我"",""弱她""]","","","","","","","","7","","","","","","","","","SRET","SRET_math_calculate","","key","7","16.598639455782312","720","446","","","","","6+1= ?","7","1","","","","","","","",""
"2518","","4","psychophysics","123","376348","0.0-7.0-5.0-0.20","6","6","7","5","2","4","4","4","5","4","5","1","-1","1","-1","1","2","1","1","5","4","5","4","3","1","3","4","3","5","5","6","5","6","5","5","6","5","5","6","5","4","6","5","4","5","6","6","5","1","5","4","7","5","2","5","6","4","6","6","3","6","3","3","2","6","6","4","5","6","4","5","3","3","2","7","3","1","3","6","779748154852773890","余","458","Female","[""好我"",""好她"",""坏我"",""坏她""]","[""强我"",""强她"",""弱我"",""弱她""]","","","","","","","","4","","","","","","","","","SRET","SRET_math_calculate","","key","4","16.688741721854306","720","446","","","","","3+1= ?","4","1","","","","","","","",""
"2166","","9","psychophysics","124","378533","0.0-7.0-5.0-0.21","6","6","7","5","2","4","4","4","5","4","5","1","-1","1","-1","1","2","1","1","5","4","5","4","3","1","3","4","3","5","5","6","5","6","5","5","6","5","5","6","5","4","6","5","4","5","6","6","5","1","5","4","7","5","2","5","6","4","6","6","3","6","3","3","2","6","6","4","5","6","4","5","3","3","2","7","3","1","3","6","779748154852773890","余","458","Female","[""好我"",""好她"",""坏我"",""坏她""]","[""强我"",""强她"",""弱我"",""弱她""]","","","","","","","","9","","","","","","","","","SRET","SRET_math_calculate","","key","9","16.592307692307692","720","446","","","","","6+3= ?","9","1","","","","","","","",""
"2099","","2","psychophysics","125","380634","0.0-7.0-5.0-0.22","6","6","7","5","2","4","4","4","5","4","5","1","-1","1","-1","1","2","1","1","5","4","5","4","3","1","3","4","3","5","5","6","5","6","5","5","6","5","5","6","5","4","6","5","4","5","6","6","5","1","5","4","7","5","2","5","6","4","6","6","3","6","3","3","2","6","6","4","5","6","4","5","3","3","2","7","3","1","3","6","779748154852773890","余","458","Female","[""好我"",""好她"",""坏我"",""坏她""]","[""强我"",""强她"",""弱我"",""弱她""]","","","","","","","","2","","","","","","","","","SRET","SRET_math_calculate","","key","2","16.576","720","446","","","","","8/4= ?","2","1","","","","","","","",""
"2264","","3","psychophysics","126","382917","0.0-7.0-5.0-0.23","6","6","7","5","2","4","4","4","5","4","5","1","-1","1","-1","1","2","1","1","5","4","5","4","3","1","3","4","3","5","5","6","5","6","5","5","6","5","5","6","5","4","6","5","4","5","6","6","5","1","5","4","7","5","2","5","6","4","6","6","3","6","3","3","2","6","6","4","5","6","4","5","3","3","2","7","3","1","3","6","779748154852773890","余","458","Female","[""好我"",""好她"",""坏我"",""坏她""]","[""强我"",""强她"",""弱我"",""弱她""]","","","","","","","","3","","","","","","","","","SRET","SRET_math_calculate","","key","3","16.639705882352942","720","446","","","","","9/3= ?","3","1","","","","","","","",""
"2041","","8","psychophysics","127","384959","0.0-7.0-5.0-0.24","6","6","7","5","2","4","4","4","5","4","5","1","-1","1","-1","1","2","1","1","5","4","5","4","3","1","3","4","3","5","5","6","5","6","5","5","6","5","5","6","5","4","6","5","4","5","6","6","5","1","5","4","7","5","2","5","6","4","6","6","3","6","3","3","2","6","6","4","5","6","4","5","3","3","2","7","3","1","3","6","779748154852773890","余","458","Female","[""好我"",""好她"",""坏我"",""坏她""]","[""强我"",""强她"",""弱我"",""弱她""]","","","","","","","","8","","","","","","","","","SRET","SRET_math_calculate","","key","8","16.66393442622951","720","446","","","","","8*1= ?","8","1","","","","","","","",""
"2717","","8","psychophysics","128","387695","0.0-7.0-5.0-0.25","6","6","7","5","2","4","4","4","5","4","5","1","-1","1","-1","1","2","1","1","5","4","5","4","3","1","3","4","3","5","5","6","5","6","5","5","6","5","5","6","5","4","6","5","4","5","6","6","5","1","5","4","7","5","2","5","6","4","6","6","3","6","3","3","2","6","6","4","5","6","4","5","3","3","2","7","3","1","3","6","779748154852773890","余","458","Female","[""好我"",""好她"",""坏我"",""坏她""]","[""强我"",""强她"",""弱我"",""弱她""]","","","","","","","","8","","","","","","","","","SRET","SRET_math_calculate","","key","8","16.63803680981595","720","446","","","","","56/7= ?","8","1","","","","","","","",""
"2432","","7","psychophysics","129","390129","0.0-7.0-5.0-0.26","6","6","7","5","2","4","4","4","5","4","5","1","-1","1","-1","1","2","1","1","5","4","5","4","3","1","3","4","3","5","5","6","5","6","5","5","6","5","5","6","5","4","6","5","4","5","6","6","5","1","5","4","7","5","2","5","6","4","6","6","3","6","3","3","2","6","6","4","5","6","4","5","3","3","2","7","3","1","3","6","779748154852773890","余","458","Female","[""好我"",""好她"",""坏我"",""坏她""]","[""强我"",""强她"",""弱我"",""弱她""]","","","","","","","","7","","","","","","","","","SRET","SRET_math_calculate","","key","7","16.620689655172413","720","446","","","","","8-1= ?","7","1","","","","","","","",""
"2596","","0","psychophysics","130","392727","0.0-7.0-5.0-0.27","6","6","7","5","2","4","4","4","5","4","5","1","-1","1","-1","1","2","1","1","5","4","5","4","3","1","3","4","3","5","5","6","5","6","5","5","6","5","5","6","5","4","6","5","4","5","6","6","5","1","5","4","7","5","2","5","6","4","6","6","3","6","3","3","2","6","6","4","5","6","4","5","3","3","2","7","3","1","3","6","779748154852773890","余","458","Female","[""好我"",""好她"",""坏我"",""坏她""]","[""强我"",""强她"",""弱我"",""弱她""]","","","","","","","","0","","","","","","","","","SRET","SRET_math_calculate","","key","0","16.56774193548387","720","446","","","","","1-1= ?","0","1","","","","","","","",""
"2054","","5","psychophysics","131","394783","0.0-7.0-5.0-0.28","6","6","7","5","2","4","4","4","5","4","5","1","-1","1","-1","1","2","1","1","5","4","5","4","3","1","3","4","3","5","5","6","5","6","5","5","6","5","5","6","5","4","6","5","4","5","6","6","5","1","5","4","7","5","2","5","6","4","6","6","3","6","3","3","2","6","6","4","5","6","4","5","3","3","2","7","3","1","3","6","779748154852773890","余","458","Female","[""好我"",""好她"",""坏我"",""坏她""]","[""强我"",""强她"",""弱我"",""弱她""]","","","","","","","","5","","","","","","","","","SRET","SRET_math_calculate","","key","5","16.614754098360656","720","446","","","","","3+2= ?","5","1","","","","","","","",""
"2131","","8","psychophysics","132","396915","0.0-7.0-5.0-0.29","6","6","7","5","2","4","4","4","5","4","5","1","-1","1","-1","1","2","1","1","5","4","5","4","3","1","3","4","3","5","5","6","5","6","5","5","6","5","5","6","5","4","6","5","4","5","6","6","5","1","5","4","7","5","2","5","6","4","6","6","3","6","3","3","2","6","6","4","5","6","4","5","3","3","2","7","3","1","3","6","779748154852773890","余","458","Female","[""好我"",""好她"",""坏我"",""坏她""]","[""强我"",""强她"",""弱我"",""弱她""]","","","","","","","","8","","","","","","","","","SRET","SRET_math_calculate","","key","8","16.566929133858267","720","446","","","","","1+7= ?","8","1","","","","","","","",""
"2352","","0","psychophysics","133","399269","0.0-7.0-5.0-0.30","6","6","7","5","2","4","4","4","5","4","5","1","-1","1","-1","1","2","1","1","5","4","5","4","3","1","3","4","3","5","5","6","5","6","5","5","6","5","5","6","5","4","6","5","4","5","6","6","5","1","5","4","7","5","2","5","6","4","6","6","3","6","3","3","2","6","6","4","5","6","4","5","3","3","2","7","3","1","3","6","779748154852773890","余","458","Female","[""好我"",""好她"",""坏我"",""坏她""]","[""强我"",""强她"",""弱我"",""弱她""]","","","","","","","","0","","","","","","","","","SRET","SRET_math_calculate","","key","0","16.67142857142857","720","446","","","","","5*0= ?","0","1","","","","","","","",""
"2086","","7","psychophysics","134","401378","0.0-7.0-5.0-0.31","6","6","7","5","2","4","4","4","5","4","5","1","-1","1","-1","1","2","1","1","5","4","5","4","3","1","3","4","3","5","5","6","5","6","5","5","6","5","5","6","5","4","6","5","4","5","6","6","5","1","5","4","7","5","2","5","6","4","6","6","3","6","3","3","2","6","6","4","5","6","4","5","3","3","2","7","3","1","3","6","779748154852773890","余","458","Female","[""好我"",""好她"",""坏我"",""坏她""]","[""强我"",""强她"",""弱我"",""弱她""]","","","","","","","","7","","","","","","","","","SRET","SRET_math_calculate","","key","7","16.650793650793652","720","446","","","","","4+3= ?","7","1","","","","","","","",""
"2346","","8","psychophysics","135","403726","0.0-7.0-5.0-0.32","6","6","7","5","2","4","4","4","5","4","5","1","-1","1","-1","1","2","1","1","5","4","5","4","3","1","3","4","3","5","5","6","5","6","5","5","6","5","5","6","5","4","6","5","4","5","6","6","5","1","5","4","7","5","2","5","6","4","6","6","3","6","3","3","2","6","6","4","5","6","4","5","3","3","2","7","3","1","3","6","779748154852773890","余","458","Female","[""好我"",""好她"",""坏我"",""坏她""]","[""强我"",""强她"",""弱我"",""弱她""]","","","","","","","","8","","","","","","","","","SRET","SRET_math_calculate","","key","8","16.607142857142858","720","446","","","","","9-1= ?","8","1","","","","","","","",""
"2423","","2","psychophysics","136","406169","0.0-7.0-5.0-0.33","6","6","7","5","2","4","4","4","5","4","5","1","-1","1","-1","1","2","1","1","5","4","5","4","3","1","3","4","3","5","5","6","5","6","5","5","6","5","5","6","5","4","6","5","4","5","6","6","5","1","5","4","7","5","2","5","6","4","6","6","3","6","3","3","2","6","6","4","5","6","4","5","3","3","2","7","3","1","3","6","779748154852773890","余","458","Female","[""好我"",""好她"",""坏我"",""坏她""]","[""强我"",""强她"",""弱我"",""弱她""]","","","","","","","","2","","","","","","","","","SRET","SRET_math_calculate","","key","2","16.63448275862069","720","446","","","","","22/11= ?","2","1","","","","","","","",""
"2086","","9","psychophysics","137","408279","0.0-7.0-5.0-0.34","6","6","7","5","2","4","4","4","5","4","5","1","-1","1","-1","1","2","1","1","5","4","5","4","3","1","3","4","3","5","5","6","5","6","5","5","6","5","5","6","5","4","6","5","4","5","6","6","5","1","5","4","7","5","2","5","6","4","6","6","3","6","3","3","2","6","6","4","5","6","4","5","3","3","2","7","3","1","3","6","779748154852773890","余","458","Female","[""好我"",""好她"",""坏我"",""坏她""]","[""强我"",""强她"",""弱我"",""弱她""]","","","","","","","","9","","","","","","","","","SRET","SRET_math_calculate","","key","9","17.355371900826448","720","446","","","","","4+5= ?","9","1","","","","","","","",""
"2563","","8","psychophysics","138","410843","0.0-7.0-5.0-0.35","6","6","7","5","2","4","4","4","5","4","5","1","-1","1","-1","1","2","1","1","5","4","5","4","3","1","3","4","3","5","5","6","5","6","5","5","6","5","5","6","5","4","6","5","4","5","6","6","5","1","5","4","7","5","2","5","6","4","6","6","3","6","3","3","2","6","6","4","5","6","4","5","3","3","2","7","3","1","3","6","779748154852773890","余","458","Female","[""好我"",""好她"",""坏我"",""坏她""]","[""强我"",""强她"",""弱我"",""弱她""]","","","","","","","","8","","","","","","","","","SRET","SRET_math_calculate","","key","8","16.61437908496732","720","446","","","","","72/9= ?","8","1","","","","","","","",""
"2902","","8","psychophysics","139","413763","0.0-7.0-5.0-0.36","6","6","7","5","2","4","4","4","5","4","5","1","-1","1","-1","1","2","1","1","5","4","5","4","3","1","3","4","3","5","5","6","5","6","5","5","6","5","5","6","5","4","6","5","4","5","6","6","5","1","5","4","7","5","2","5","6","4","6","6","3","6","3","3","2","6","6","4","5","6","4","5","3","3","2","7","3","1","3","6","779748154852773890","余","458","Female","[""好我"",""好她"",""坏我"",""坏她""]","[""强我"",""强她"",""弱我"",""弱她""]","","","","","","","","8","","","","","","","","","SRET","SRET_math_calculate","","key","8","16.637931034482758","720","446","","","","","13-5= ?","8","1","","","","","","","",""
"2186","","0","psychophysics","140","415969","0.0-7.0-5.0-0.37","6","6","7","5","2","4","4","4","5","4","5","1","-1","1","-1","1","2","1","1","5","4","5","4","3","1","3","4","3","5","5","6","5","6","5","5","6","5","5","6","5","4","6","5","4","5","6","6","5","1","5","4","7","5","2","5","6","4","6","6","3","6","3","3","2","6","6","4","5","6","4","5","3","3","2","7","3","1","3","6","779748154852773890","余","458","Female","[""好我"",""好她"",""坏我"",""坏她""]","[""强我"",""强她"",""弱我"",""弱她""]","","","","","","","","0","","","","","","","","","SRET","SRET_math_calculate","","key","0","16.595419847328245","720","446","","","","","12-12= ?","0","1","","","","","","","",""
"3093","","4","psychophysics","141","419063","0.0-7.0-5.0-0.38","6","6","7","5","2","4","4","4","5","4","5","1","-1","1","-1","1","2","1","1","5","4","5","4","3","1","3","4","3","5","5","6","5","6","5","5","6","5","5","6","5","4","6","5","4","5","6","6","5","1","5","4","7","5","2","5","6","4","6","6","3","6","3","3","2","6","6","4","5","6","4","5","3","3","2","7","3","1","3","6","779748154852773890","余","458","Female","[""好我"",""好她"",""坏我"",""坏她""]","[""强我"",""强她"",""弱我"",""弱她""]","","","","","","","","4","","","","","","","","","SRET","SRET_math_calculate","","key","4","16.63783783783784","720","446","","","","","8-4= ?","4","1","","","","","","","",""
"3340","","2","psychophysics","142","422423","0.0-7.0-5.0-0.39","6","6","7","5","2","4","4","4","5","4","5","1","-1","1","-1","1","2","1","1","5","4","5","4","3","1","3","4","3","5","5","6","5","6","5","5","6","5","5","6","5","4","6","5","4","5","6","6","5","1","5","4","7","5","2","5","6","4","6","6","3","6","3","3","2","6","6","4","5","6","4","5","3","3","2","7","3","1","3","6","779748154852773890","余","458","Female","[""好我"",""好她"",""坏我"",""坏她""]","[""强我"",""强她"",""弱我"",""弱她""]","","","","","","","","2","","","","","","","","","SRET","SRET_math_calculate","","key","2","16.7035175879397","720","446","","","","","90/45= ?","2","1","","","","","","","",""
"2203","","8","psychophysics","143","424647","0.0-7.0-5.0-0.40","6","6","7","5","2","4","4","4","5","4","5","1","-1","1","-1","1","2","1","1","5","4","5","4","3","1","3","4","3","5","5","6","5","6","5","5","6","5","5","6","5","4","6","5","4","5","6","6","5","1","5","4","7","5","2","5","6","4","6","6","3","6","3","3","2","6","6","4","5","6","4","5","3","3","2","7","3","1","3","6","779748154852773890","余","458","Female","[""好我"",""好她"",""坏我"",""坏她""]","[""强我"",""强她"",""弱我"",""弱她""]","","","","","","","","8","","","","","","","","","SRET","SRET_math_calculate","","key","8","16.661654135338345","720","446","","","","","7+1= ?","8","1","","","","","","","",""
