"rt","stimulus","response","trial_type","trial_index","time_elapsed","internal_node_id","swb_1","swb_2","swb_3","swb_4","swb_5","LOT_1","LOT_2","LOT_3","LOT_4","LOT_5","LOT_6","IPC_1","IPC_2","IPC_3","IPC_4","IPC_5","IPC_6","IPC_7","IPC_8","MorIden_1","MorIden_2","MorIden_3","MorIden_4","MorIden_5","MorIden_6","MorIden_7","MorIden_8","MorIden_9","MorIden_10","moralSeImag_1","moralSeImag_2","moralSeImag_3","moralSeImag_4","moralSeImag_5","moralSeImag_6","moralSeImag_7","moralSeImag_8","moralSeImag_9","sde_1","sde_2","sde_3","sde_4","sde_5","sde_6","sde_7","sde_8","sde_9","sde_10","trap2","sde_11","sde_12","sde_13","sde_14","sde_15","sde_16","sde_17","sde_18","sde_19","sde_20","IM_1","IM_2","IM_3","IM_4","IM_5","IM_6","IM_7","IM_8","IM_9","IM_10","IM_11","IM_12","IM_13","IM_14","IM_15","IM_16","IM_17","IM_18","IM_19","IM_20","subj_idx","friend_name","ParticipantID","Sex","Word","Word2","value","success","timeout","failed_images","failed_audio","failed_video","user_agent","responses","item_order","radio_event_ids","radio_event_times","key_event_times","mouse_event_times","straightlining","zigzagging","honeypot","task_id","screen_id","time_stamp","response_type","key_press","avg_frame_time","center_x","center_y","person","word","valence","domain","math","correct_response","correct","status","view_history","identity","duration","Image","condition","question_order","trap2_item"
"14881","
   <p><div style='color:white; font-size: 25px'>您好，欢迎参加本次实验。</div></p>
   <p><div style='color:white; font-size: 25px'>为充分保障您的权利，请确保您已经知晓并同意《参与实验同意书》以及《数据公开知情同意书》。</div></p>
   <p><div style='color:white; font-size: 25px'>如果您未见过上述内容，请咨询实验员。</div></p>
   <p style='color:white; font-size: 25px'>如果您选择继续实验，则表示您已经清楚两份知情同意书的内容并同意。</p>
   <p><div style = ""color: pink;font-size:30px;"">请确保您记得day0的实验编号，您将在本次实验输入该编号，若您忘记，请咨询实验员后作答。</div></p>
   <p><div style = ""color:lightblue;font-size:25px;"">请您尽可能认真地作答，我们将依据您在各问卷和按键任务中的作答质量发放报酬。</div></p>
   <p> <div style = ""color: green""><按空格键至下页></div> </p>
   "," ","html-keyboard-response","0","14882","0.0-0.0","4","4","5","4","3","5","3","2","4","3","5","-1","-1","-1","-1","0","0","0","0","4","4","5","5","4","4","4","4","4","4","6","6","6","7","6","7","7","7","7","5","3","5","4","4","3","4","2","4","3","1","4","3","4","5","3","5","4","4","4","4","3","3","3","3","3","5","3","4","4","6","6","4","4","5","3","4","2","4","3","4","800009629605175298","武","369","Female","[""坏我"",""好她"",""坏她"",""好我""]","[""弱我"",""强她"",""弱她"",""强我""]","","","","","","","","","","","","","","","","","","","","","","","","","","","","","","","","","","","","","","",""
"","","","call-function","1","14884","0.0-1.0-0.0","4","4","5","4","3","5","3","2","4","3","5","-1","-1","-1","-1","0","0","0","0","4","4","5","5","4","4","4","4","4","4","6","6","6","7","6","7","7","7","7","5","3","5","4","4","3","4","2","4","3","1","4","3","4","5","3","5","4","4","4","4","3","3","3","3","3","5","3","4","4","6","6","4","4","5","3","4","2","4","3","4","800009629605175298","武","369","Female","[""坏我"",""好她"",""坏她"",""好我""]","[""弱我"",""强她"",""弱她"",""强我""]","","","","","","","","","","","","","","","","","","","","","","","","","","","","","","","","","","","","","","",""
"19256","","[{""name"":""Sex"",""value"":""1""},{""name"":""friend_name"",""value"":""武""},{""name"":""ParticipantID"",""value"":""369""}]","survey-html-form","2","34141","0.0-1.0-1.0","4","4","5","4","3","5","3","2","4","3","5","-1","-1","-1","-1","0","0","0","0","4","4","5","5","4","4","4","4","4","4","6","6","6","7","6","7","7","7","7","5","3","5","4","4","3","4","2","4","3","1","4","3","4","5","3","5","4","4","4","4","3","3","3","3","3","5","3","4","4","6","6","4","4","5","3","4","2","4","3","4","800009629605175298","武","369","Female","[""坏我"",""好她"",""坏她"",""好我""]","[""弱我"",""强她"",""弱她"",""强我""]","","","","","","","","","","","","","","","","","","","","","","","","","","","","","","","","","","","","","","",""
"","","","preload","3","34247","0.0-2.0","4","4","5","4","3","5","3","2","4","3","5","-1","-1","-1","-1","0","0","0","0","4","4","5","5","4","4","4","4","4","4","6","6","6","7","6","7","7","7","7","5","3","5","4","4","3","4","2","4","3","1","4","3","4","5","3","5","4","4","4","4","3","3","3","3","3","5","3","4","4","6","6","4","4","5","3","4","2","4","3","4","800009629605175298","武","369","Female","[""坏我"",""好她"",""坏她"",""好我""]","[""弱我"",""强她"",""弱她"",""强我""]","","true","false","[]","[]","[]","","","","","","","","","","","","","","","","","","","","","","","","","","","","","","","","",""
"","","","fullscreen","4","35903","0.0-3.0","4","4","5","4","3","5","3","2","4","3","5","-1","-1","-1","-1","0","0","0","0","4","4","5","5","4","4","4","4","4","4","6","6","6","7","6","7","7","7","7","5","3","5","4","4","3","4","2","4","3","1","4","3","4","5","3","5","4","4","4","4","3","3","3","3","3","5","3","4","4","6","6","4","4","5","3","4","2","4","3","4","800009629605175298","武","369","Female","[""坏我"",""好她"",""坏她"",""好我""]","[""弱我"",""强她"",""弱她"",""强我""]","","true","","","","","{}","","","","","","","","","","","","","","","","","","","","","","","","","","","","","","","",""
"17679","","{""Q01"":""4"",""Q02"":""4"",""Q03"":""5"",""Q04"":""4"",""Q05"":""3""}","survey-template","5","53587","0.0-4.0","4","4","5","4","3","5","3","2","4","3","5","-1","-1","-1","-1","0","0","0","0","4","4","5","5","4","4","4","4","4","4","6","6","6","7","6","7","7","7","7","5","3","5","4","4","3","4","2","4","3","1","4","3","4","5","3","5","4","4","4","4","3","3","3","3","3","5","3","4","4","6","6","4","4","5","3","4","2","4","3","4","800009629605175298","武","369","Female","[""坏我"",""好她"",""坏她"",""好我""]","[""弱我"",""强她"",""弱她"",""强我""]","","","","","","","","{""Q01"":""4"",""Q02"":""4"",""Q03"":""5"",""Q04"":""4"",""Q05"":""3""}","[0,1,2,3,4]","[""Q01"",""Q01"",""Q02"",""Q03"",""Q04"",""Q05""]","[2612.899999999907,9739.299999999814,10369,11772.799999999814,13578.799999999814,15082.799999999814]","[]","[2612.899999999907,9739.299999999814,10369,11772.799999999814,13578.799999999814,15082.799999999814,17676.899999999907]","0.6","0.75","0","","","","","","","","","","","","","","","","","","","","","","",""
"48034","","{""Q01"":""5"",""Q02"":""3"",""Q03"":""2"",""Q04"":""4"",""Q05"":""3"",""Q06"":""5""}","survey-template","6","101626","0.0-5.0","4","4","5","4","3","5","3","2","4","3","5","-1","-1","-1","-1","0","0","0","0","4","4","5","5","4","4","4","4","4","4","6","6","6","7","6","7","7","7","7","5","3","5","4","4","3","4","2","4","3","1","4","3","4","5","3","5","4","4","4","4","3","3","3","3","3","5","3","4","4","6","6","4","4","5","3","4","2","4","3","4","800009629605175298","武","369","Female","[""坏我"",""好她"",""坏她"",""好我""]","[""弱我"",""强她"",""弱她"",""强我""]","","","","","","","","{""Q01"":""5"",""Q02"":""3"",""Q03"":""2"",""Q04"":""4"",""Q05"":""3"",""Q06"":""5""}","[0,1,2,3,4,5]","[""Q01"",""Q02"",""Q03"",""Q04"",""Q05"",""Q06"",""Q04"",""Q04"",""Q04""]","[5635.299999999814,8309.19999999972,11581.19999999972,17287.19999999972,28207,31549.19999999972,41301,43163,44105.5]","[]","[5635.299999999814,8309.19999999972,11581.19999999972,17287.19999999972,28207,31549.19999999972,41301,43163,44105.5,48032.799999999814]","0.3333333333333333","0.4","0","","","","","","","","","","","","","","","","","","","","","","",""
"22202.19999999972","","{""Q01"":""-1"",""Q02"":""-1"",""Q03"":""-1"",""Q04"":""-1"",""Q05"":""0"",""Q06"":""0"",""Q07"":""0"",""Q08"":""0""}","survey-template","7","123833","0.0-6.0","4","4","5","4","3","5","3","2","4","3","5","-1","-1","-1","-1","0","0","0","0","4","4","5","5","4","4","4","4","4","4","6","6","6","7","6","7","7","7","7","5","3","5","4","4","3","4","2","4","3","1","4","3","4","5","3","5","4","4","4","4","3","3","3","3","3","5","3","4","4","6","6","4","4","5","3","4","2","4","3","4","800009629605175298","武","369","Female","[""坏我"",""好她"",""坏她"",""好我""]","[""弱我"",""强她"",""弱她"",""强我""]","","","","","","","","{""Q01"":""-1"",""Q02"":""-1"",""Q03"":""-1"",""Q04"":""-1"",""Q05"":""0"",""Q06"":""0"",""Q07"":""0"",""Q08"":""0""}","[0,1,2,3,4,5,6,7]","[""Q01"",""Q02"",""Q03"",""Q04"",""Q05"",""Q06"",""Q07"",""Q08""]","[2340.2999999998137,3376.100000000093,4928.299999999814,6892.199999999721,11786.19999999972,13158.299999999814,19028.299999999814,21070.19999999972]","[]","[2340.2999999998137,3376.100000000093,4928.299999999814,6892.199999999721,11786.19999999972,13158.299999999814,19028.299999999814,21070.19999999972,22200.100000000093]","0.5","0.14285714285714285","0","","","","","","","","","","","","","","","","","","","","","","",""
"8929","
    <p><div style='color:white;font-size:35px; line-height:20px;'>词汇评估任务</div></p><br>
    <p><div style='color:white;font-size:25px; line-height:20px;'>请再次回忆该亲密的朋友，你们至少2年前就认识了，并且最近2年经常见面。</div></p>
    <p><div style='color:white;font-size:25px; line-height:20px;'>在本实验中，您将会看到一些形容词。</div></p>
    <p><div style='color:yellow;font-size:25px; line-height:20px;'>您的任务是判断这些形容词是否符合对您自己或您的朋友的描述。</div></p><p style='font-size:35px'>符合按<span style=""color:lightgreen""> j 键</span>，不符合按<span style=""color:red""> f 键</span></p>","0","html-button-response","8","132767","0.0-7.0-0.0","4","4","5","4","3","5","3","2","4","3","5","-1","-1","-1","-1","0","0","0","0","4","4","5","5","4","4","4","4","4","4","6","6","6","7","6","7","7","7","7","5","3","5","4","4","3","4","2","4","3","1","4","3","4","5","3","5","4","4","4","4","3","3","3","3","3","5","3","4","4","6","6","4","4","5","3","4","2","4","3","4","800009629605175298","武","369","Female","[""坏我"",""好她"",""坏她"",""好我""]","[""弱我"",""强她"",""弱她"",""强我""]","","","","","","","","","","","","","","","","","SRET_EW","EW_instructions","Tue Jan 30 2024 10:03:31 GMT+0800 (中国标准时间)","","","","","","","","","","","","","","","","","","","",""
"null","","null","psychophysics","9","135791","0.0-7.0-1.0-0.0","4","4","5","4","3","5","3","2","4","3","5","-1","-1","-1","-1","0","0","0","0","4","4","5","5","4","4","4","4","4","4","6","6","6","7","6","7","7","7","7","5","3","5","4","4","3","4","2","4","3","1","4","3","4","5","3","5","4","4","4","4","3","3","3","3","3","5","3","4","4","6","6","4","4","5","3","4","2","4","3","4","800009629605175298","武","369","Female","[""坏我"",""好她"",""坏她"",""好我""]","[""弱我"",""强她"",""弱她"",""强我""]","","","","","","","","","","","","","","","","","SRET_EW","EW_practice","","key","null","16.66600000000001","720","446","朋友","忠实","Positive","morality","","","","","","","","","","",""
"null","","null","psychophysics","10","138814","0.0-7.0-1.0-0.1","4","4","5","4","3","5","3","2","4","3","5","-1","-1","-1","-1","0","0","0","0","4","4","5","5","4","4","4","4","4","4","6","6","6","7","6","7","7","7","7","5","3","5","4","4","3","4","2","4","3","1","4","3","4","5","3","5","4","4","4","4","3","3","3","3","3","5","3","4","4","6","6","4","4","5","3","4","2","4","3","4","800009629605175298","武","369","Female","[""坏我"",""好她"",""坏她"",""好我""]","[""弱我"",""强她"",""弱她"",""强我""]","","","","","","","","","","","","","","","","","SRET_EW","EW_practice","","key","null","16.666000000000025","720","446","自己","严谨","Positive","ability","","","","","","","","","","",""
"null","","null","psychophysics","11","141833","0.0-7.0-1.0-0.2","4","4","5","4","3","5","3","2","4","3","5","-1","-1","-1","-1","0","0","0","0","4","4","5","5","4","4","4","4","4","4","6","6","6","7","6","7","7","7","7","5","3","5","4","4","3","4","2","4","3","1","4","3","4","5","3","5","4","4","4","4","3","3","3","3","3","5","3","4","4","6","6","4","4","5","3","4","2","4","3","4","800009629605175298","武","369","Female","[""坏我"",""好她"",""坏她"",""好我""]","[""弱我"",""强她"",""弱她"",""强我""]","","","","","","","","","","","","","","","","","SRET_EW","EW_practice","","key","null","16.67844444444458","720","446","朋友","徇私","Negative","morality","","","","","","","","","","",""
"null","","null","psychophysics","12","144852","0.0-7.0-1.0-0.3","4","4","5","4","3","5","3","2","4","3","5","-1","-1","-1","-1","0","0","0","0","4","4","5","5","4","4","4","4","4","4","6","6","6","7","6","7","7","7","7","5","3","5","4","4","3","4","2","4","3","1","4","3","4","5","3","5","4","4","4","4","3","3","3","3","3","5","3","4","4","6","6","4","4","5","3","4","2","4","3","4","800009629605175298","武","369","Female","[""坏我"",""好她"",""坏她"",""好我""]","[""弱我"",""强她"",""弱她"",""强我""]","","","","","","","","","","","","","","","","","SRET_EW","EW_practice","","key","null","16.665999999999865","720","446","自己","刻板","Negative","ability","","","","","","","","","","",""
"10795","
    <p><div style='color:white;font-size:35px; line-height:20px;'>请您再次阅读实验要求</div></p><br>
    <p><div style='color:white;font-size:25px; line-height:20px;'>请回忆某一个亲密的朋友，你们至少2年前就认识了，并且最近2年经常见面。</div></p>
    <p><div style='color:white;font-size:25px; line-height:20px;'>在本实验中，您将会看到一些形容词。</div></p>
    <p><div style='color:yellow;font-size:25px; line-height:20px;'>您的任务是判断这些形容词是否符合对您自己或您的朋友的描述。</div></p>
    <p><div class='footer' style='font-size:25px; line-height:20px;'>如果对本实验还有不清楚之处，请立即向实验员咨询。</p><p style='font-size:25px; line-height:20px;'>如果您明白了规则：</p><p style='font-size:22px; line-height:20px;'>请按 继续 进入正式实验</p>
    </div>
    <p style='font-size:35px'>符合按<span style=""color:lightgreen""> j 键</span>，不符合按<span style=""color:red""> f 键</span></p>","0","html-button-response","13","155649","0.0-7.0-2.0","4","4","5","4","3","5","3","2","4","3","5","-1","-1","-1","-1","0","0","0","0","4","4","5","5","4","4","4","4","4","4","6","6","6","7","6","7","7","7","7","5","3","5","4","4","3","4","2","4","3","1","4","3","4","5","3","5","4","4","4","4","3","3","3","3","3","5","3","4","4","6","6","4","4","5","3","4","2","4","3","4","800009629605175298","武","369","Female","[""坏我"",""好她"",""坏她"",""好我""]","[""弱我"",""强她"",""弱她"",""强我""]","","","","","","","","","","","","","","","","","SRET_EW","prac_instructions","Tue Jan 30 2024 10:03:31 GMT+0800 (中国标准时间)","","","","","","","","","","","","","","","","","","","",""
"944","","f","psychophysics","14","157598","0.0-7.0-3.0-0.0","4","4","5","4","3","5","3","2","4","3","5","-1","-1","-1","-1","0","0","0","0","4","4","5","5","4","4","4","4","4","4","6","6","6","7","6","7","7","7","7","5","3","5","4","4","3","4","2","4","3","1","4","3","4","5","3","5","4","4","4","4","3","3","3","3","3","5","3","4","4","6","6","4","4","5","3","4","2","4","3","4","800009629605175298","武","369","Female","[""坏我"",""好她"",""坏她"",""好我""]","[""弱我"",""强她"",""弱她"",""强我""]","","","","","","","","no","","","","","","","","","SRET","EW_formal","","key","f","16.665999999999926","720","446","自己","说谎","Negative","morality","","","","","","","","","","",""
"898","","j","psychophysics","15","159499","0.0-7.0-3.0-0.1","4","4","5","4","3","5","3","2","4","3","5","-1","-1","-1","-1","0","0","0","0","4","4","5","5","4","4","4","4","4","4","6","6","6","7","6","7","7","7","7","5","3","5","4","4","3","4","2","4","3","1","4","3","4","5","3","5","4","4","4","4","3","3","3","3","3","5","3","4","4","6","6","4","4","5","3","4","2","4","3","4","800009629605175298","武","369","Female","[""坏我"",""好她"",""坏她"",""好我""]","[""弱我"",""强她"",""弱她"",""强我""]","","","","","","","","yes","","","","","","","","","SRET","EW_formal","","key","j","16.666000000000015","720","446","自己","坚贞","Positive","morality","","","","","","","","","","",""
"827","","j","psychophysics","16","161330","0.0-7.0-3.0-0.2","4","4","5","4","3","5","3","2","4","3","5","-1","-1","-1","-1","0","0","0","0","4","4","5","5","4","4","4","4","4","4","6","6","6","7","6","7","7","7","7","5","3","5","4","4","3","4","2","4","3","1","4","3","4","5","3","5","4","4","4","4","3","3","3","3","3","5","3","4","4","6","6","4","4","5","3","4","2","4","3","4","800009629605175298","武","369","Female","[""坏我"",""好她"",""坏她"",""好我""]","[""弱我"",""强她"",""弱她"",""强我""]","","","","","","","","yes","","","","","","","","","SRET","EW_formal","","key","j","16.66600000000011","720","446","朋友","务实","Positive","ability","","","","","","","","","","",""
"1181","","j","psychophysics","17","163515","0.0-7.0-3.0-0.3","4","4","5","4","3","5","3","2","4","3","5","-1","-1","-1","-1","0","0","0","0","4","4","5","5","4","4","4","4","4","4","6","6","6","7","6","7","7","7","7","5","3","5","4","4","3","4","2","4","3","1","4","3","4","5","3","5","4","4","4","4","3","3","3","3","3","5","3","4","4","6","6","4","4","5","3","4","2","4","3","4","800009629605175298","武","369","Female","[""坏我"",""好她"",""坏她"",""好我""]","[""弱我"",""强她"",""弱她"",""强我""]","","","","","","","","yes","","","","","","","","","SRET","EW_formal","","key","j","16.6659999999999","720","446","朋友","迷糊","Negative","ability","","","","","","","","","","",""
"1411","","f","psychophysics","18","165930","0.0-7.0-3.0-0.4","4","4","5","4","3","5","3","2","4","3","5","-1","-1","-1","-1","0","0","0","0","4","4","5","5","4","4","4","4","4","4","6","6","6","7","6","7","7","7","7","5","3","5","4","4","3","4","2","4","3","1","4","3","4","5","3","5","4","4","4","4","3","3","3","3","3","5","3","4","4","6","6","4","4","5","3","4","2","4","3","4","800009629605175298","武","369","Female","[""坏我"",""好她"",""坏她"",""好我""]","[""弱我"",""强她"",""弱她"",""强我""]","","","","","","","","no","","","","","","","","","SRET","EW_formal","","key","f","16.671861111111056","720","446","自己","伪善","Negative","morality","","","","","","","","","","",""
"1169","","f","psychophysics","19","168104","0.0-7.0-3.0-0.5","4","4","5","4","3","5","3","2","4","3","5","-1","-1","-1","-1","0","0","0","0","4","4","5","5","4","4","4","4","4","4","6","6","6","7","6","7","7","7","7","5","3","5","4","4","3","4","2","4","3","1","4","3","4","5","3","5","4","4","4","4","3","3","3","3","3","5","3","4","4","6","6","4","4","5","3","4","2","4","3","4","800009629605175298","武","369","Female","[""坏我"",""好她"",""坏她"",""好我""]","[""弱我"",""强她"",""弱她"",""强我""]","","","","","","","","no","","","","","","","","","SRET","EW_formal","","key","f","16.665999999999922","720","446","自己","恶劣","Negative","morality","","","","","","","","","","",""
"1389","","f","psychophysics","20","170496","0.0-7.0-3.0-0.6","4","4","5","4","3","5","3","2","4","3","5","-1","-1","-1","-1","0","0","0","0","4","4","5","5","4","4","4","4","4","4","6","6","6","7","6","7","7","7","7","5","3","5","4","4","3","4","2","4","3","1","4","3","4","5","3","5","4","4","4","4","3","3","3","3","3","5","3","4","4","6","6","4","4","5","3","4","2","4","3","4","800009629605175298","武","369","Female","[""坏我"",""好她"",""坏她"",""好我""]","[""弱我"",""强她"",""弱她"",""强我""]","","","","","","","","no","","","","","","","","","SRET","EW_formal","","key","f","16.666000000000086","720","446","朋友","短浅","Negative","ability","","","","","","","","","","",""
"836","","f","psychophysics","21","172338","0.0-7.0-3.0-0.7","4","4","5","4","3","5","3","2","4","3","5","-1","-1","-1","-1","0","0","0","0","4","4","5","5","4","4","4","4","4","4","6","6","6","7","6","7","7","7","7","5","3","5","4","4","3","4","2","4","3","1","4","3","4","5","3","5","4","4","4","4","3","3","3","3","3","5","3","4","4","6","6","4","4","5","3","4","2","4","3","4","800009629605175298","武","369","Female","[""坏我"",""好她"",""坏她"",""好我""]","[""弱我"",""强她"",""弱她"",""强我""]","","","","","","","","no","","","","","","","","","SRET","EW_formal","","key","f","16.66600000000011","720","446","朋友","虚假","Negative","morality","","","","","","","","","","",""
"976","","f","psychophysics","22","174316","0.0-7.0-3.0-0.8","4","4","5","4","3","5","3","2","4","3","5","-1","-1","-1","-1","0","0","0","0","4","4","5","5","4","4","4","4","4","4","6","6","6","7","6","7","7","7","7","5","3","5","4","4","3","4","2","4","3","1","4","3","4","5","3","5","4","4","4","4","3","3","3","3","3","5","3","4","4","6","6","4","4","5","3","4","2","4","3","4","800009629605175298","武","369","Female","[""坏我"",""好她"",""坏她"",""好我""]","[""弱我"",""强她"",""弱她"",""强我""]","","","","","","","","no","","","","","","","","","SRET","EW_formal","","key","f","16.66866949152535","720","446","朋友","愚蠢","Negative","ability","","","","","","","","","","",""
"818","","f","psychophysics","23","176137","0.0-7.0-3.0-0.9","4","4","5","4","3","5","3","2","4","3","5","-1","-1","-1","-1","0","0","0","0","4","4","5","5","4","4","4","4","4","4","6","6","6","7","6","7","7","7","7","5","3","5","4","4","3","4","2","4","3","1","4","3","4","5","3","5","4","4","4","4","3","3","3","3","3","5","3","4","4","6","6","4","4","5","3","4","2","4","3","4","800009629605175298","武","369","Female","[""坏我"",""好她"",""坏她"",""好我""]","[""弱我"",""强她"",""弱她"",""强我""]","","","","","","","","no","","","","","","","","","SRET","EW_formal","","key","f","16.666000000000135","720","446","朋友","无耻","Negative","morality","","","","","","","","","","",""
"1424","","j","psychophysics","24","178563","0.0-7.0-3.0-0.10","4","4","5","4","3","5","3","2","4","3","5","-1","-1","-1","-1","0","0","0","0","4","4","5","5","4","4","4","4","4","4","6","6","6","7","6","7","7","7","7","5","3","5","4","4","3","4","2","4","3","1","4","3","4","5","3","5","4","4","4","4","3","3","3","3","3","5","3","4","4","6","6","4","4","5","3","4","2","4","3","4","800009629605175298","武","369","Female","[""坏我"",""好她"",""坏她"",""好我""]","[""弱我"",""强她"",""弱她"",""强我""]","","","","","","","","yes","","","","","","","","","SRET","EW_formal","","key","j","16.665999999999848","720","446","自己","盲目","Negative","ability","","","","","","","","","","",""
"1939","","f","psychophysics","25","181504","0.0-7.0-3.0-0.11","4","4","5","4","3","5","3","2","4","3","5","-1","-1","-1","-1","0","0","0","0","4","4","5","5","4","4","4","4","4","4","6","6","6","7","6","7","7","7","7","5","3","5","4","4","3","4","2","4","3","1","4","3","4","5","3","5","4","4","4","4","3","3","3","3","3","5","3","4","4","6","6","4","4","5","3","4","2","4","3","4","800009629605175298","武","369","Female","[""坏我"",""好她"",""坏她"",""好我""]","[""弱我"",""强她"",""弱她"",""强我""]","","","","","","","","no","","","","","","","","","SRET","EW_formal","","key","f","16.665999999999933","720","446","朋友","淡泊","Positive","morality","","","","","","","","","","",""
"769","","j","psychophysics","26","183280","0.0-7.0-3.0-0.12","4","4","5","4","3","5","3","2","4","3","5","-1","-1","-1","-1","0","0","0","0","4","4","5","5","4","4","4","4","4","4","6","6","6","7","6","7","7","7","7","5","3","5","4","4","3","4","2","4","3","1","4","3","4","5","3","5","4","4","4","4","3","3","3","3","3","5","3","4","4","6","6","4","4","5","3","4","2","4","3","4","800009629605175298","武","369","Female","[""坏我"",""好她"",""坏她"",""好我""]","[""弱我"",""强她"",""弱她"",""强我""]","","","","","","","","yes","","","","","","","","","SRET","EW_formal","","key","j","16.66599999999991","720","446","自己","孝顺","Positive","morality","","","","","","","","","","",""
"926","","f","psychophysics","27","185212","0.0-7.0-3.0-0.13","4","4","5","4","3","5","3","2","4","3","5","-1","-1","-1","-1","0","0","0","0","4","4","5","5","4","4","4","4","4","4","6","6","6","7","6","7","7","7","7","5","3","5","4","4","3","4","2","4","3","1","4","3","4","5","3","5","4","4","4","4","3","3","3","3","3","5","3","4","4","6","6","4","4","5","3","4","2","4","3","4","800009629605175298","武","369","Female","[""坏我"",""好她"",""坏她"",""好我""]","[""弱我"",""强她"",""弱她"",""强我""]","","","","","","","","no","","","","","","","","","SRET","EW_formal","","key","f","16.6682956521741","720","446","自己","无赖","Negative","morality","","","","","","","","","","",""
"922","","f","psychophysics","28","187137","0.0-7.0-3.0-0.14","4","4","5","4","3","5","3","2","4","3","5","-1","-1","-1","-1","0","0","0","0","4","4","5","5","4","4","4","4","4","4","6","6","6","7","6","7","7","7","7","5","3","5","4","4","3","4","2","4","3","1","4","3","4","5","3","5","4","4","4","4","3","3","3","3","3","5","3","4","4","6","6","4","4","5","3","4","2","4","3","4","800009629605175298","武","369","Female","[""坏我"",""好她"",""坏她"",""好我""]","[""弱我"",""强她"",""弱她"",""强我""]","","","","","","","","no","","","","","","","","","SRET","EW_formal","","key","f","16.665999999999993","720","446","自己","粗心","Negative","ability","","","","","","","","","","",""
"809","","j","psychophysics","29","188951","0.0-7.0-3.0-0.15","4","4","5","4","3","5","3","2","4","3","5","-1","-1","-1","-1","0","0","0","0","4","4","5","5","4","4","4","4","4","4","6","6","6","7","6","7","7","7","7","5","3","5","4","4","3","4","2","4","3","1","4","3","4","5","3","5","4","4","4","4","3","3","3","3","3","5","3","4","4","6","6","4","4","5","3","4","2","4","3","4","800009629605175298","武","369","Female","[""坏我"",""好她"",""坏她"",""好我""]","[""弱我"",""强她"",""弱她"",""强我""]","","","","","","","","yes","","","","","","","","","SRET","EW_formal","","key","j","16.665999999999865","720","446","朋友","上进","Positive","ability","","","","","","","","","","",""
"1124","","f","psychophysics","30","191078","0.0-7.0-3.0-0.16","4","4","5","4","3","5","3","2","4","3","5","-1","-1","-1","-1","0","0","0","0","4","4","5","5","4","4","4","4","4","4","6","6","6","7","6","7","7","7","7","5","3","5","4","4","3","4","2","4","3","1","4","3","4","5","3","5","4","4","4","4","3","3","3","3","3","5","3","4","4","6","6","4","4","5","3","4","2","4","3","4","800009629605175298","武","369","Female","[""坏我"",""好她"",""坏她"",""好我""]","[""弱我"",""强她"",""弱她"",""强我""]","","","","","","","","no","","","","","","","","","SRET","EW_formal","","key","f","16.66599999999996","720","446","自己","笨蛋","Negative","ability","","","","","","","","","","",""
"915","","j","psychophysics","31","192995","0.0-7.0-3.0-0.17","4","4","5","4","3","5","3","2","4","3","5","-1","-1","-1","-1","0","0","0","0","4","4","5","5","4","4","4","4","4","4","6","6","6","7","6","7","7","7","7","5","3","5","4","4","3","4","2","4","3","1","4","3","4","5","3","5","4","4","4","4","3","3","3","3","3","5","3","4","4","6","6","4","4","5","3","4","2","4","3","4","800009629605175298","武","369","Female","[""坏我"",""好她"",""坏她"",""好我""]","[""弱我"",""强她"",""弱她"",""强我""]","","","","","","","","yes","","","","","","","","","SRET","EW_formal","","key","j","16.665999999999993","720","446","自己","坚持","Positive","ability","","","","","","","","","","",""
"1182","","f","psychophysics","32","195184","0.0-7.0-3.0-0.18","4","4","5","4","3","5","3","2","4","3","5","-1","-1","-1","-1","0","0","0","0","4","4","5","5","4","4","4","4","4","4","6","6","6","7","6","7","7","7","7","5","3","5","4","4","3","4","2","4","3","1","4","3","4","5","3","5","4","4","4","4","3","3","3","3","3","5","3","4","4","6","6","4","4","5","3","4","2","4","3","4","800009629605175298","武","369","Female","[""坏我"",""好她"",""坏她"",""好我""]","[""弱我"",""强她"",""弱她"",""强我""]","","","","","","","","no","","","","","","","","","SRET","EW_formal","","key","f","16.668061538461526","720","446","朋友","驽钝","Negative","ability","","","","","","","","","","",""
"1650","","j","psychophysics","33","197844","0.0-7.0-3.0-0.19","4","4","5","4","3","5","3","2","4","3","5","-1","-1","-1","-1","0","0","0","0","4","4","5","5","4","4","4","4","4","4","6","6","6","7","6","7","7","7","7","5","3","5","4","4","3","4","2","4","3","1","4","3","4","5","3","5","4","4","4","4","3","3","3","3","3","5","3","4","4","6","6","4","4","5","3","4","2","4","3","4","800009629605175298","武","369","Female","[""坏我"",""好她"",""坏她"",""好我""]","[""弱我"",""强她"",""弱她"",""强我""]","","","","","","","","yes","","","","","","","","","SRET","EW_formal","","key","j","16.666000000000018","720","446","朋友","草率","Negative","ability","","","","","","","","","","",""
"778","","j","psychophysics","34","199626","0.0-7.0-3.0-0.20","4","4","5","4","3","5","3","2","4","3","5","-1","-1","-1","-1","0","0","0","0","4","4","5","5","4","4","4","4","4","4","6","6","6","7","6","7","7","7","7","5","3","5","4","4","3","4","2","4","3","1","4","3","4","5","3","5","4","4","4","4","3","3","3","3","3","5","3","4","4","6","6","4","4","5","3","4","2","4","3","4","800009629605175298","武","369","Female","[""坏我"",""好她"",""坏她"",""好我""]","[""弱我"",""强她"",""弱她"",""强我""]","","","","","","","","yes","","","","","","","","","SRET","EW_formal","","key","j","16.66599999999991","720","446","朋友","学霸","Positive","ability","","","","","","","","","","",""
"848","","j","psychophysics","35","201479","0.0-7.0-3.0-0.21","4","4","5","4","3","5","3","2","4","3","5","-1","-1","-1","-1","0","0","0","0","4","4","5","5","4","4","4","4","4","4","6","6","6","7","6","7","7","7","7","5","3","5","4","4","3","4","2","4","3","1","4","3","4","5","3","5","4","4","4","4","3","3","3","3","3","5","3","4","4","6","6","4","4","5","3","4","2","4","3","4","800009629605175298","武","369","Female","[""坏我"",""好她"",""坏她"",""好我""]","[""弱我"",""强她"",""弱她"",""强我""]","","","","","","","","yes","","","","","","","","","SRET","EW_formal","","key","j","16.666000000000086","720","446","自己","刻苦","Positive","ability","","","","","","","","","","",""
"1887","","j","psychophysics","36","204375","0.0-7.0-3.0-0.22","4","4","5","4","3","5","3","2","4","3","5","-1","-1","-1","-1","0","0","0","0","4","4","5","5","4","4","4","4","4","4","6","6","6","7","6","7","7","7","7","5","3","5","4","4","3","4","2","4","3","1","4","3","4","5","3","5","4","4","4","4","3","3","3","3","3","5","3","4","4","6","6","4","4","5","3","4","2","4","3","4","800009629605175298","武","369","Female","[""坏我"",""好她"",""坏她"",""好我""]","[""弱我"",""强她"",""弱她"",""强我""]","","","","","","","","yes","","","","","","","","","SRET","EW_formal","","key","j","16.667546511627904","720","446","朋友","娴熟","Positive","ability","","","","","","","","","","",""
"884","","j","psychophysics","37","206269","0.0-7.0-3.0-0.23","4","4","5","4","3","5","3","2","4","3","5","-1","-1","-1","-1","0","0","0","0","4","4","5","5","4","4","4","4","4","4","6","6","6","7","6","7","7","7","7","5","3","5","4","4","3","4","2","4","3","1","4","3","4","5","3","5","4","4","4","4","3","3","3","3","3","5","3","4","4","6","6","4","4","5","3","4","2","4","3","4","800009629605175298","武","369","Female","[""坏我"",""好她"",""坏她"",""好我""]","[""弱我"",""强她"",""弱她"",""强我""]","","","","","","","","yes","","","","","","","","","SRET","EW_formal","","key","j","16.666000000000015","720","446","自己","狡诈","Negative","morality","","","","","","","","","","",""
"687","","j","psychophysics","38","207962","0.0-7.0-3.0-0.24","4","4","5","4","3","5","3","2","4","3","5","-1","-1","-1","-1","0","0","0","0","4","4","5","5","4","4","4","4","4","4","6","6","6","7","6","7","7","7","7","5","3","5","4","4","3","4","2","4","3","1","4","3","4","5","3","5","4","4","4","4","3","3","3","3","3","5","3","4","4","6","6","4","4","5","3","4","2","4","3","4","800009629605175298","武","369","Female","[""坏我"",""好她"",""坏她"",""好我""]","[""弱我"",""强她"",""弱她"",""强我""]","","","","","","","","yes","","","","","","","","","SRET","EW_formal","","key","j","16.666000000000057","720","446","朋友","爱国","Positive","morality","","","","","","","","","","",""
"587","","j","psychophysics","39","209555","0.0-7.0-3.0-0.25","4","4","5","4","3","5","3","2","4","3","5","-1","-1","-1","-1","0","0","0","0","4","4","5","5","4","4","4","4","4","4","6","6","6","7","6","7","7","7","7","5","3","5","4","4","3","4","2","4","3","1","4","3","4","5","3","5","4","4","4","4","3","3","3","3","3","5","3","4","4","6","6","4","4","5","3","4","2","4","3","4","800009629605175298","武","369","Female","[""坏我"",""好她"",""坏她"",""好我""]","[""弱我"",""强她"",""弱她"",""强我""]","","","","","","","","yes","","","","","","","","","SRET","EW_formal","","key","j","16.666000000000196","720","446","自己","专注","Positive","ability","","","","","","","","","","",""
"722","","f","psychophysics","40","211281","0.0-7.0-3.0-0.26","4","4","5","4","3","5","3","2","4","3","5","-1","-1","-1","-1","0","0","0","0","4","4","5","5","4","4","4","4","4","4","6","6","6","7","6","7","7","7","7","5","3","5","4","4","3","4","2","4","3","1","4","3","4","5","3","5","4","4","4","4","3","3","3","3","3","5","3","4","4","6","6","4","4","5","3","4","2","4","3","4","800009629605175298","武","369","Female","[""坏我"",""好她"",""坏她"",""好我""]","[""弱我"",""强她"",""弱她"",""强我""]","","","","","","","","no","","","","","","","","","SRET","EW_formal","","key","f","16.666000000000007","720","446","朋友","不端","Negative","morality","","","","","","","","","","",""
"800","","j","psychophysics","41","213091","0.0-7.0-3.0-0.27","4","4","5","4","3","5","3","2","4","3","5","-1","-1","-1","-1","0","0","0","0","4","4","5","5","4","4","4","4","4","4","6","6","6","7","6","7","7","7","7","5","3","5","4","4","3","4","2","4","3","1","4","3","4","5","3","5","4","4","4","4","3","3","3","3","3","5","3","4","4","6","6","4","4","5","3","4","2","4","3","4","800009629605175298","武","369","Female","[""坏我"",""好她"",""坏她"",""好我""]","[""弱我"",""强她"",""弱她"",""强我""]","","","","","","","","yes","","","","","","","","","SRET","EW_formal","","key","j","16.665999999999865","720","446","自己","犹豫","Negative","ability","","","","","","","","","","",""
"678","","j","psychophysics","42","214775","0.0-7.0-3.0-0.28","4","4","5","4","3","5","3","2","4","3","5","-1","-1","-1","-1","0","0","0","0","4","4","5","5","4","4","4","4","4","4","6","6","6","7","6","7","7","7","7","5","3","5","4","4","3","4","2","4","3","1","4","3","4","5","3","5","4","4","4","4","3","3","3","3","3","5","3","4","4","6","6","4","4","5","3","4","2","4","3","4","800009629605175298","武","369","Female","[""坏我"",""好她"",""坏她"",""好我""]","[""弱我"",""强她"",""弱她"",""强我""]","","","","","","","","yes","","","","","","","","","SRET","EW_formal","","key","j","16.668620000000228","720","446","自己","肯干","Positive","ability","","","","","","","","","","",""
"803","","j","psychophysics","43","216580","0.0-7.0-3.0-0.29","4","4","5","4","3","5","3","2","4","3","5","-1","-1","-1","-1","0","0","0","0","4","4","5","5","4","4","4","4","4","4","6","6","6","7","6","7","7","7","7","5","3","5","4","4","3","4","2","4","3","1","4","3","4","5","3","5","4","4","4","4","3","3","3","3","3","5","3","4","4","6","6","4","4","5","3","4","2","4","3","4","800009629605175298","武","369","Female","[""坏我"",""好她"",""坏她"",""好我""]","[""弱我"",""强她"",""弱她"",""强我""]","","","","","","","","yes","","","","","","","","","SRET","EW_formal","","key","j","16.665999999999887","720","446","自己","愚钝","Negative","ability","","","","","","","","","","",""
"925","","f","psychophysics","44","218511","0.0-7.0-3.0-0.30","4","4","5","4","3","5","3","2","4","3","5","-1","-1","-1","-1","0","0","0","0","4","4","5","5","4","4","4","4","4","4","6","6","6","7","6","7","7","7","7","5","3","5","4","4","3","4","2","4","3","1","4","3","4","5","3","5","4","4","4","4","3","3","3","3","3","5","3","4","4","6","6","4","4","5","3","4","2","4","3","4","800009629605175298","武","369","Female","[""坏我"",""好她"",""坏她"",""好我""]","[""弱我"",""强她"",""弱她"",""强我""]","","","","","","","","no","","","","","","","","","SRET","EW_formal","","key","f","16.66599999999997","720","446","朋友","畏难","Negative","ability","","","","","","","","","","",""
"828","","f","psychophysics","45","220346","0.0-7.0-3.0-0.31","4","4","5","4","3","5","3","2","4","3","5","-1","-1","-1","-1","0","0","0","0","4","4","5","5","4","4","4","4","4","4","6","6","6","7","6","7","7","7","7","5","3","5","4","4","3","4","2","4","3","1","4","3","4","5","3","5","4","4","4","4","3","3","3","3","3","5","3","4","4","6","6","4","4","5","3","4","2","4","3","4","800009629605175298","武","369","Female","[""坏我"",""好她"",""坏她"",""好我""]","[""弱我"",""强她"",""弱她"",""强我""]","","","","","","","","no","","","","","","","","","SRET","EW_formal","","key","f","16.66600000000011","720","446","自己","缺德","Negative","morality","","","","","","","","","","",""
"599","","f","psychophysics","46","221948","0.0-7.0-3.0-0.32","4","4","5","4","3","5","3","2","4","3","5","-1","-1","-1","-1","0","0","0","0","4","4","5","5","4","4","4","4","4","4","6","6","6","7","6","7","7","7","7","5","3","5","4","4","3","4","2","4","3","1","4","3","4","5","3","5","4","4","4","4","3","3","3","3","3","5","3","4","4","6","6","4","4","5","3","4","2","4","3","4","800009629605175298","武","369","Female","[""坏我"",""好她"",""坏她"",""好我""]","[""弱我"",""强她"",""弱她"",""强我""]","","","","","","","","no","","","","","","","","","SRET","EW_formal","","key","f","16.66599999999989","720","446","自己","诡诈","Negative","morality","","","","","","","","","","",""
"628","","f","psychophysics","47","223581","0.0-7.0-3.0-0.33","4","4","5","4","3","5","3","2","4","3","5","-1","-1","-1","-1","0","0","0","0","4","4","5","5","4","4","4","4","4","4","6","6","6","7","6","7","7","7","7","5","3","5","4","4","3","4","2","4","3","1","4","3","4","5","3","5","4","4","4","4","3","3","3","3","3","5","3","4","4","6","6","4","4","5","3","4","2","4","3","4","800009629605175298","武","369","Female","[""坏我"",""好她"",""坏她"",""好我""]","[""弱我"",""强她"",""弱她"",""强我""]","","","","","","","","no","","","","","","","","","SRET","EW_formal","","key","f","16.66599999999984","720","446","朋友","窝囊","Negative","ability","","","","","","","","","","",""
"683","","j","psychophysics","48","225269","0.0-7.0-3.0-0.34","4","4","5","4","3","5","3","2","4","3","5","-1","-1","-1","-1","0","0","0","0","4","4","5","5","4","4","4","4","4","4","6","6","6","7","6","7","7","7","7","5","3","5","4","4","3","4","2","4","3","1","4","3","4","5","3","5","4","4","4","4","3","3","3","3","3","5","3","4","4","6","6","4","4","5","3","4","2","4","3","4","800009629605175298","武","369","Female","[""坏我"",""好她"",""坏她"",""好我""]","[""弱我"",""强她"",""弱她"",""强我""]","","","","","","","","yes","","","","","","","","","SRET","EW_formal","","key","j","16.66866000000009","720","446","自己","君子","Positive","morality","","","","","","","","","","",""
"558","","j","psychophysics","49","226830","0.0-7.0-3.0-0.35","4","4","5","4","3","5","3","2","4","3","5","-1","-1","-1","-1","0","0","0","0","4","4","5","5","4","4","4","4","4","4","6","6","6","7","6","7","7","7","7","5","3","5","4","4","3","4","2","4","3","1","4","3","4","5","3","5","4","4","4","4","3","3","3","3","3","5","3","4","4","6","6","4","4","5","3","4","2","4","3","4","800009629605175298","武","369","Female","[""坏我"",""好她"",""坏她"",""好我""]","[""弱我"",""强她"",""弱她"",""强我""]","","","","","","","","yes","","","","","","","","","SRET","EW_formal","","key","j","16.665999999999944","720","446","朋友","礼貌","Positive","morality","","","","","","","","","","",""
"589","","j","psychophysics","50","228424","0.0-7.0-3.0-0.36","4","4","5","4","3","5","3","2","4","3","5","-1","-1","-1","-1","0","0","0","0","4","4","5","5","4","4","4","4","4","4","6","6","6","7","6","7","7","7","7","5","3","5","4","4","3","4","2","4","3","1","4","3","4","5","3","5","4","4","4","4","3","3","3","3","3","5","3","4","4","6","6","4","4","5","3","4","2","4","3","4","800009629605175298","武","369","Female","[""坏我"",""好她"",""坏她"",""好我""]","[""弱我"",""强她"",""弱她"",""强我""]","","","","","","","","yes","","","","","","","","","SRET","EW_formal","","key","j","16.665999999999915","720","446","朋友","自律","Positive","ability","","","","","","","","","","",""
"804","","f","psychophysics","51","230232","0.0-7.0-3.0-0.37","4","4","5","4","3","5","3","2","4","3","5","-1","-1","-1","-1","0","0","0","0","4","4","5","5","4","4","4","4","4","4","6","6","6","7","6","7","7","7","7","5","3","5","4","4","3","4","2","4","3","1","4","3","4","5","3","5","4","4","4","4","3","3","3","3","3","5","3","4","4","6","6","4","4","5","3","4","2","4","3","4","800009629605175298","武","369","Female","[""坏我"",""好她"",""坏她"",""好我""]","[""弱我"",""强她"",""弱她"",""强我""]","","","","","","","","no","","","","","","","","","SRET","EW_formal","","key","f","16.665999999999865","720","446","朋友","低劣","Negative","morality","","","","","","","","","","",""
"730","","j","psychophysics","52","231966","0.0-7.0-3.0-0.38","4","4","5","4","3","5","3","2","4","3","5","-1","-1","-1","-1","0","0","0","0","4","4","5","5","4","4","4","4","4","4","6","6","6","7","6","7","7","7","7","5","3","5","4","4","3","4","2","4","3","1","4","3","4","5","3","5","4","4","4","4","3","3","3","3","3","5","3","4","4","6","6","4","4","5","3","4","2","4","3","4","800009629605175298","武","369","Female","[""坏我"",""好她"",""坏她"",""好我""]","[""弱我"",""强她"",""弱她"",""强我""]","","","","","","","","yes","","","","","","","","","SRET","EW_formal","","key","j","16.665999999999983","720","446","自己","侠义","Positive","morality","","","","","","","","","","",""
"663","","j","psychophysics","53","233631","0.0-7.0-3.0-0.39","4","4","5","4","3","5","3","2","4","3","5","-1","-1","-1","-1","0","0","0","0","4","4","5","5","4","4","4","4","4","4","6","6","6","7","6","7","7","7","7","5","3","5","4","4","3","4","2","4","3","1","4","3","4","5","3","5","4","4","4","4","3","3","3","3","3","5","3","4","4","6","6","4","4","5","3","4","2","4","3","4","800009629605175298","武","369","Female","[""坏我"",""好她"",""坏她"",""好我""]","[""弱我"",""强她"",""弱她"",""强我""]","","","","","","","","yes","","","","","","","","","SRET","EW_formal","","key","j","16.666000000000086","720","446","自己","庸碌","Negative","ability","","","","","","","","","","",""
"617","","j","psychophysics","54","235250","0.0-7.0-3.0-0.40","4","4","5","4","3","5","3","2","4","3","5","-1","-1","-1","-1","0","0","0","0","4","4","5","5","4","4","4","4","4","4","6","6","6","7","6","7","7","7","7","5","3","5","4","4","3","4","2","4","3","1","4","3","4","5","3","5","4","4","4","4","3","3","3","3","3","5","3","4","4","6","6","4","4","5","3","4","2","4","3","4","800009629605175298","武","369","Female","[""坏我"",""好她"",""坏她"",""好我""]","[""弱我"",""强她"",""弱她"",""强我""]","","","","","","","","yes","","","","","","","","","SRET","EW_formal","","key","j","16.66877083333323","720","446","自己","仁厚","Positive","morality","","","","","","","","","","",""
"699","","j","psychophysics","55","236952","0.0-7.0-3.0-0.41","4","4","5","4","3","5","3","2","4","3","5","-1","-1","-1","-1","0","0","0","0","4","4","5","5","4","4","4","4","4","4","6","6","6","7","6","7","7","7","7","5","3","5","4","4","3","4","2","4","3","1","4","3","4","5","3","5","4","4","4","4","3","3","3","3","3","5","3","4","4","6","6","4","4","5","3","4","2","4","3","4","800009629605175298","武","369","Female","[""坏我"",""好她"",""坏她"",""好我""]","[""弱我"",""强她"",""弱她"",""强我""]","","","","","","","","yes","","","","","","","","","SRET","EW_formal","","key","j","16.665999999999745","720","446","朋友","扎实","Positive","ability","","","","","","","","","","",""
"836","","f","psychophysics","56","238791","0.0-7.0-3.0-0.42","4","4","5","4","3","5","3","2","4","3","5","-1","-1","-1","-1","0","0","0","0","4","4","5","5","4","4","4","4","4","4","6","6","6","7","6","7","7","7","7","5","3","5","4","4","3","4","2","4","3","1","4","3","4","5","3","5","4","4","4","4","3","3","3","3","3","5","3","4","4","6","6","4","4","5","3","4","2","4","3","4","800009629605175298","武","369","Female","[""坏我"",""好她"",""坏她"",""好我""]","[""弱我"",""强她"",""弱她"",""强我""]","","","","","","","","no","","","","","","","","","SRET","EW_formal","","key","f","16.66599999999984","720","446","朋友","失信","Negative","morality","","","","","","","","","","",""
"759","","j","psychophysics","57","240558","0.0-7.0-3.0-0.43","4","4","5","4","3","5","3","2","4","3","5","-1","-1","-1","-1","0","0","0","0","4","4","5","5","4","4","4","4","4","4","6","6","6","7","6","7","7","7","7","5","3","5","4","4","3","4","2","4","3","1","4","3","4","5","3","5","4","4","4","4","3","3","3","3","3","5","3","4","4","6","6","4","4","5","3","4","2","4","3","4","800009629605175298","武","369","Female","[""坏我"",""好她"",""坏她"",""好我""]","[""弱我"",""强她"",""弱她"",""强我""]","","","","","","","","yes","","","","","","","","","SRET","EW_formal","","key","j","16.665999999999933","720","446","朋友","善心","Positive","morality","","","","","","","","","","",""
"855","","j","psychophysics","58","242417","0.0-7.0-3.0-0.44","4","4","5","4","3","5","3","2","4","3","5","-1","-1","-1","-1","0","0","0","0","4","4","5","5","4","4","4","4","4","4","6","6","6","7","6","7","7","7","7","5","3","5","4","4","3","4","2","4","3","1","4","3","4","5","3","5","4","4","4","4","3","3","3","3","3","5","3","4","4","6","6","4","4","5","3","4","2","4","3","4","800009629605175298","武","369","Female","[""坏我"",""好她"",""坏她"",""好我""]","[""弱我"",""强她"",""弱她"",""强我""]","","","","","","","","yes","","","","","","","","","SRET","EW_formal","","key","j","16.665999999999798","720","446","自己","独断","Negative","ability","","","","","","","","","","",""
"668","","j","psychophysics","59","244089","0.0-7.0-3.0-0.45","4","4","5","4","3","5","3","2","4","3","5","-1","-1","-1","-1","0","0","0","0","4","4","5","5","4","4","4","4","4","4","6","6","6","7","6","7","7","7","7","5","3","5","4","4","3","4","2","4","3","1","4","3","4","5","3","5","4","4","4","4","3","3","3","3","3","5","3","4","4","6","6","4","4","5","3","4","2","4","3","4","800009629605175298","武","369","Female","[""坏我"",""好她"",""坏她"",""好我""]","[""弱我"",""强她"",""弱她"",""强我""]","","","","","","","","yes","","","","","","","","","SRET","EW_formal","","key","j","16.668676767676992","720","446","自己","忠勇","Positive","morality","","","","","","","","","","",""
"751","","f","psychophysics","60","245842","0.0-7.0-3.0-0.46","4","4","5","4","3","5","3","2","4","3","5","-1","-1","-1","-1","0","0","0","0","4","4","5","5","4","4","4","4","4","4","6","6","6","7","6","7","7","7","7","5","3","5","4","4","3","4","2","4","3","1","4","3","4","5","3","5","4","4","4","4","3","3","3","3","3","5","3","4","4","6","6","4","4","5","3","4","2","4","3","4","800009629605175298","武","369","Female","[""坏我"",""好她"",""坏她"",""好我""]","[""弱我"",""强她"",""弱她"",""强我""]","","","","","","","","no","","","","","","","","","SRET","EW_formal","","key","f","16.665999999999958","720","446","朋友","浅薄","Negative","ability","","","","","","","","","","",""
"756","","f","psychophysics","61","247600","0.0-7.0-3.0-0.47","4","4","5","4","3","5","3","2","4","3","5","-1","-1","-1","-1","0","0","0","0","4","4","5","5","4","4","4","4","4","4","6","6","6","7","6","7","7","7","7","5","3","5","4","4","3","4","2","4","3","1","4","3","4","5","3","5","4","4","4","4","3","3","3","3","3","5","3","4","4","6","6","4","4","5","3","4","2","4","3","4","800009629605175298","武","369","Female","[""坏我"",""好她"",""坏她"",""好我""]","[""弱我"",""强她"",""弱她"",""强我""]","","","","","","","","no","","","","","","","","","SRET","EW_formal","","key","f","16.665999999999933","720","446","朋友","蛇蝎","Negative","morality","","","","","","","","","","",""
"916","","j","psychophysics","62","249518","0.0-7.0-3.0-0.48","4","4","5","4","3","5","3","2","4","3","5","-1","-1","-1","-1","0","0","0","0","4","4","5","5","4","4","4","4","4","4","6","6","6","7","6","7","7","7","7","5","3","5","4","4","3","4","2","4","3","1","4","3","4","5","3","5","4","4","4","4","3","3","3","3","3","5","3","4","4","6","6","4","4","5","3","4","2","4","3","4","800009629605175298","武","369","Female","[""坏我"",""好她"",""坏她"",""好我""]","[""弱我"",""强她"",""弱她"",""强我""]","","","","","","","","yes","","","","","","","","","SRET","EW_formal","","key","j","16.665999999999993","720","446","朋友","谦逊","Positive","morality","","","","","","","","","","",""
"712","","f","psychophysics","63","251233","0.0-7.0-3.0-0.49","4","4","5","4","3","5","3","2","4","3","5","-1","-1","-1","-1","0","0","0","0","4","4","5","5","4","4","4","4","4","4","6","6","6","7","6","7","7","7","7","5","3","5","4","4","3","4","2","4","3","1","4","3","4","5","3","5","4","4","4","4","3","3","3","3","3","5","3","4","4","6","6","4","4","5","3","4","2","4","3","4","800009629605175298","武","369","Female","[""坏我"",""好她"",""坏她"",""好我""]","[""弱我"",""强她"",""弱她"",""强我""]","","","","","","","","no","","","","","","","","","SRET","EW_formal","","key","f","16.666000000000007","720","446","朋友","短视","Negative","ability","","","","","","","","","","",""
"601","","j","psychophysics","64","252835","0.0-7.0-3.0-0.50","4","4","5","4","3","5","3","2","4","3","5","-1","-1","-1","-1","0","0","0","0","4","4","5","5","4","4","4","4","4","4","6","6","6","7","6","7","7","7","7","5","3","5","4","4","3","4","2","4","3","1","4","3","4","5","3","5","4","4","4","4","3","3","3","3","3","5","3","4","4","6","6","4","4","5","3","4","2","4","3","4","800009629605175298","武","369","Female","[""坏我"",""好她"",""坏她"",""好我""]","[""弱我"",""强她"",""弱她"",""强我""]","","","","","","","","yes","","","","","","","","","SRET","EW_formal","","key","j","16.666000000000196","720","446","朋友","沉着","Positive","ability","","","","","","","","","","",""
"761","","f","psychophysics","65","254599","0.0-7.0-3.0-0.51","4","4","5","4","3","5","3","2","4","3","5","-1","-1","-1","-1","0","0","0","0","4","4","5","5","4","4","4","4","4","4","6","6","6","7","6","7","7","7","7","5","3","5","4","4","3","4","2","4","3","1","4","3","4","5","3","5","4","4","4","4","3","3","3","3","3","5","3","4","4","6","6","4","4","5","3","4","2","4","3","4","800009629605175298","武","369","Female","[""坏我"",""好她"",""坏她"",""好我""]","[""弱我"",""强她"",""弱她"",""强我""]","","","","","","","","no","","","","","","","","","SRET","EW_formal","","key","f","16.668542857142718","720","446","自己","卑鄙","Negative","morality","","","","","","","","","","",""
"676","","f","psychophysics","66","256277","0.0-7.0-3.0-0.52","4","4","5","4","3","5","3","2","4","3","5","-1","-1","-1","-1","0","0","0","0","4","4","5","5","4","4","4","4","4","4","6","6","6","7","6","7","7","7","7","5","3","5","4","4","3","4","2","4","3","1","4","3","4","5","3","5","4","4","4","4","3","3","3","3","3","5","3","4","4","6","6","4","4","5","3","4","2","4","3","4","800009629605175298","武","369","Female","[""坏我"",""好她"",""坏她"",""好我""]","[""弱我"",""强她"",""弱她"",""强我""]","","","","","","","","no","","","","","","","","","SRET","EW_formal","","key","f","16.666000000000086","720","446","自己","迂拙","Negative","ability","","","","","","","","","","",""
"672","","j","psychophysics","67","257951","0.0-7.0-3.0-0.53","4","4","5","4","3","5","3","2","4","3","5","-1","-1","-1","-1","0","0","0","0","4","4","5","5","4","4","4","4","4","4","6","6","6","7","6","7","7","7","7","5","3","5","4","4","3","4","2","4","3","1","4","3","4","5","3","5","4","4","4","4","3","3","3","3","3","5","3","4","4","6","6","4","4","5","3","4","2","4","3","4","800009629605175298","武","369","Female","[""坏我"",""好她"",""坏她"",""好我""]","[""弱我"",""强她"",""弱她"",""强我""]","","","","","","","","yes","","","","","","","","","SRET","EW_formal","","key","j","16.666000000000057","720","446","朋友","毅力","Positive","ability","","","","","","","","","","",""
"784","","f","psychophysics","68","259738","0.0-7.0-3.0-0.54","4","4","5","4","3","5","3","2","4","3","5","-1","-1","-1","-1","0","0","0","0","4","4","5","5","4","4","4","4","4","4","6","6","6","7","6","7","7","7","7","5","3","5","4","4","3","4","2","4","3","1","4","3","4","5","3","5","4","4","4","4","3","3","3","3","3","5","3","4","4","6","6","4","4","5","3","4","2","4","3","4","800009629605175298","武","369","Female","[""坏我"",""好她"",""坏她"",""好我""]","[""弱我"",""强她"",""弱她"",""强我""]","","","","","","","","no","","","","","","","","","SRET","EW_formal","","key","f","16.66599999999991","720","446","朋友","逞强","Negative","ability","","","","","","","","","","",""
"627","","j","psychophysics","69","261367","0.0-7.0-3.0-0.55","4","4","5","4","3","5","3","2","4","3","5","-1","-1","-1","-1","0","0","0","0","4","4","5","5","4","4","4","4","4","4","6","6","6","7","6","7","7","7","7","5","3","5","4","4","3","4","2","4","3","1","4","3","4","5","3","5","4","4","4","4","3","3","3","3","3","5","3","4","4","6","6","4","4","5","3","4","2","4","3","4","800009629605175298","武","369","Female","[""坏我"",""好她"",""坏她"",""好我""]","[""弱我"",""强她"",""弱她"",""强我""]","","","","","","","","yes","","","","","","","","","SRET","EW_formal","","key","j","16.66599999999984","720","446","朋友","懂行","Positive","ability","","","","","","","","","","",""
"787","","j","psychophysics","70","263160","0.0-7.0-3.0-0.56","4","4","5","4","3","5","3","2","4","3","5","-1","-1","-1","-1","0","0","0","0","4","4","5","5","4","4","4","4","4","4","6","6","6","7","6","7","7","7","7","5","3","5","4","4","3","4","2","4","3","1","4","3","4","5","3","5","4","4","4","4","3","3","3","3","3","5","3","4","4","6","6","4","4","5","3","4","2","4","3","4","800009629605175298","武","369","Female","[""坏我"",""好她"",""坏她"",""好我""]","[""弱我"",""强她"",""弱她"",""强我""]","","","","","","","","yes","","","","","","","","","SRET","EW_formal","","key","j","16.66599999999991","720","446","自己","中用","Positive","ability","","","","","","","","","","",""
"570","","f","psychophysics","71","264737","0.0-7.0-3.0-0.57","4","4","5","4","3","5","3","2","4","3","5","-1","-1","-1","-1","0","0","0","0","4","4","5","5","4","4","4","4","4","4","6","6","6","7","6","7","7","7","7","5","3","5","4","4","3","4","2","4","3","1","4","3","4","5","3","5","4","4","4","4","3","3","3","3","3","5","3","4","4","6","6","4","4","5","3","4","2","4","3","4","800009629605175298","武","369","Female","[""坏我"",""好她"",""坏她"",""好我""]","[""弱我"",""强她"",""弱她"",""强我""]","","","","","","","","no","","","","","","","","","SRET","EW_formal","","key","f","16.668829787233992","720","446","朋友","不仁","Negative","morality","","","","","","","","","","",""
"563","","j","psychophysics","72","266301","0.0-7.0-3.0-0.58","4","4","5","4","3","5","3","2","4","3","5","-1","-1","-1","-1","0","0","0","0","4","4","5","5","4","4","4","4","4","4","6","6","6","7","6","7","7","7","7","5","3","5","4","4","3","4","2","4","3","1","4","3","4","5","3","5","4","4","4","4","3","3","3","3","3","5","3","4","4","6","6","4","4","5","3","4","2","4","3","4","800009629605175298","武","369","Female","[""坏我"",""好她"",""坏她"",""好我""]","[""弱我"",""强她"",""弱她"",""强我""]","","","","","","","","yes","","","","","","","","","SRET","EW_formal","","key","j","16.666000000000256","720","446","自己","正气","Positive","morality","","","","","","","","","","",""
"634","","f","psychophysics","73","267940","0.0-7.0-3.0-0.59","4","4","5","4","3","5","3","2","4","3","5","-1","-1","-1","-1","0","0","0","0","4","4","5","5","4","4","4","4","4","4","6","6","6","7","6","7","7","7","7","5","3","5","4","4","3","4","2","4","3","1","4","3","4","5","3","5","4","4","4","4","3","3","3","3","3","5","3","4","4","6","6","4","4","5","3","4","2","4","3","4","800009629605175298","武","369","Female","[""坏我"",""好她"",""坏她"",""好我""]","[""弱我"",""强她"",""弱她"",""强我""]","","","","","","","","no","","","","","","","","","SRET","EW_formal","","key","f","16.66599999999954","720","446","朋友","奸险","Negative","morality","","","","","","","","","","",""
"610","","j","psychophysics","74","269552","0.0-7.0-3.0-0.60","4","4","5","4","3","5","3","2","4","3","5","-1","-1","-1","-1","0","0","0","0","4","4","5","5","4","4","4","4","4","4","6","6","6","7","6","7","7","7","7","5","3","5","4","4","3","4","2","4","3","1","4","3","4","5","3","5","4","4","4","4","3","3","3","3","3","5","3","4","4","6","6","4","4","5","3","4","2","4","3","4","800009629605175298","武","369","Female","[""坏我"",""好她"",""坏她"",""好我""]","[""弱我"",""强她"",""弱她"",""强我""]","","","","","","","","yes","","","","","","","","","SRET","EW_formal","","key","j","16.665999999999865","720","446","自己","好心","Positive","morality","","","","","","","","","","",""
"1062","","f","psychophysics","75","271617","0.0-7.0-3.0-0.61","4","4","5","4","3","5","3","2","4","3","5","-1","-1","-1","-1","0","0","0","0","4","4","5","5","4","4","4","4","4","4","6","6","6","7","6","7","7","7","7","5","3","5","4","4","3","4","2","4","3","1","4","3","4","5","3","5","4","4","4","4","3","3","3","3","3","5","3","4","4","6","6","4","4","5","3","4","2","4","3","4","800009629605175298","武","369","Female","[""坏我"",""好她"",""坏她"",""好我""]","[""弱我"",""强她"",""弱她"",""强我""]","","","","","","","","no","","","","","","","","","SRET","EW_formal","","key","f","16.666000000000043","720","446","自己","龌龊","Negative","morality","","","","","","","","","","",""
"683","","j","psychophysics","76","273301","0.0-7.0-3.0-0.62","4","4","5","4","3","5","3","2","4","3","5","-1","-1","-1","-1","0","0","0","0","4","4","5","5","4","4","4","4","4","4","6","6","6","7","6","7","7","7","7","5","3","5","4","4","3","4","2","4","3","1","4","3","4","5","3","5","4","4","4","4","3","3","3","3","3","5","3","4","4","6","6","4","4","5","3","4","2","4","3","4","800009629605175298","武","369","Female","[""坏我"",""好她"",""坏她"",""好我""]","[""弱我"",""强她"",""弱她"",""强我""]","","","","","","","","yes","","","","","","","","","SRET","EW_formal","","key","j","16.66600000000035","720","446","朋友","清廉","Positive","morality","","","","","","","","","","",""
"814","","j","psychophysics","77","275117","0.0-7.0-3.0-0.63","4","4","5","4","3","5","3","2","4","3","5","-1","-1","-1","-1","0","0","0","0","4","4","5","5","4","4","4","4","4","4","6","6","6","7","6","7","7","7","7","5","3","5","4","4","3","4","2","4","3","1","4","3","4","5","3","5","4","4","4","4","3","3","3","3","3","5","3","4","4","6","6","4","4","5","3","4","2","4","3","4","800009629605175298","武","369","Female","[""坏我"",""好她"",""坏她"",""好我""]","[""弱我"",""强她"",""弱她"",""强我""]","","","","","","","","yes","","","","","","","","","SRET","EW_formal","","key","j","16.66828703703693","720","446","朋友","仁爱","Positive","morality","","","","","","","","","","",""
"1078","","f","psychophysics","78","277200","0.0-7.0-3.0-0.64","4","4","5","4","3","5","3","2","4","3","5","-1","-1","-1","-1","0","0","0","0","4","4","5","5","4","4","4","4","4","4","6","6","6","7","6","7","7","7","7","5","3","5","4","4","3","4","2","4","3","1","4","3","4","5","3","5","4","4","4","4","3","3","3","3","3","5","3","4","4","6","6","4","4","5","3","4","2","4","3","4","800009629605175298","武","369","Female","[""坏我"",""好她"",""坏她"",""好我""]","[""弱我"",""强她"",""弱她"",""强我""]","","","","","","","","no","","","","","","","","","SRET","EW_formal","","key","f","16.665999999999787","720","446","朋友","小人","Negative","morality","","","","","","","","","","",""
"705","","j","psychophysics","79","278907","0.0-7.0-3.0-0.65","4","4","5","4","3","5","3","2","4","3","5","-1","-1","-1","-1","0","0","0","0","4","4","5","5","4","4","4","4","4","4","6","6","6","7","6","7","7","7","7","5","3","5","4","4","3","4","2","4","3","1","4","3","4","5","3","5","4","4","4","4","3","3","3","3","3","5","3","4","4","6","6","4","4","5","3","4","2","4","3","4","800009629605175298","武","369","Female","[""坏我"",""好她"",""坏她"",""好我""]","[""弱我"",""强她"",""弱她"",""强我""]","","","","","","","","yes","","","","","","","","","SRET","EW_formal","","key","j","16.666000000000032","720","446","自己","全才","Positive","ability","","","","","","","","","","",""
"975","","j","psychophysics","80","280884","0.0-7.0-3.0-0.66","4","4","5","4","3","5","3","2","4","3","5","-1","-1","-1","-1","0","0","0","0","4","4","5","5","4","4","4","4","4","4","6","6","6","7","6","7","7","7","7","5","3","5","4","4","3","4","2","4","3","1","4","3","4","5","3","5","4","4","4","4","3","3","3","3","3","5","3","4","4","6","6","4","4","5","3","4","2","4","3","4","800009629605175298","武","369","Female","[""坏我"",""好她"",""坏她"",""好我""]","[""弱我"",""强她"",""弱她"",""强我""]","","","","","","","","yes","","","","","","","","","SRET","EW_formal","","key","j","16.665999999999904","720","446","朋友","无私","Positive","morality","","","","","","","","","","",""
"750","","f","psychophysics","81","282637","0.0-7.0-3.0-0.67","4","4","5","4","3","5","3","2","4","3","5","-1","-1","-1","-1","0","0","0","0","4","4","5","5","4","4","4","4","4","4","6","6","6","7","6","7","7","7","7","5","3","5","4","4","3","4","2","4","3","1","4","3","4","5","3","5","4","4","4","4","3","3","3","3","3","5","3","4","4","6","6","4","4","5","3","4","2","4","3","4","800009629605175298","武","369","Female","[""坏我"",""好她"",""坏她"",""好我""]","[""弱我"",""强她"",""弱她"",""强我""]","","","","","","","","no","","","","","","","","","SRET","EW_formal","","key","f","16.66600000000024","720","446","朋友","怠惰","Negative","ability","","","","","","","","","","",""
"627","","j","psychophysics","82","284269","0.0-7.0-3.0-0.68","4","4","5","4","3","5","3","2","4","3","5","-1","-1","-1","-1","0","0","0","0","4","4","5","5","4","4","4","4","4","4","6","6","6","7","6","7","7","7","7","5","3","5","4","4","3","4","2","4","3","1","4","3","4","5","3","5","4","4","4","4","3","3","3","3","3","5","3","4","4","6","6","4","4","5","3","4","2","4","3","4","800009629605175298","武","369","Female","[""坏我"",""好她"",""坏她"",""好我""]","[""弱我"",""强她"",""弱她"",""强我""]","","","","","","","","yes","","","","","","","","","SRET","EW_formal","","key","j","16.668938144329772","720","446","朋友","高尚","Positive","morality","","","","","","","","","","",""
"716","","j","psychophysics","83","285990","0.0-7.0-3.0-0.69","4","4","5","4","3","5","3","2","4","3","5","-1","-1","-1","-1","0","0","0","0","4","4","5","5","4","4","4","4","4","4","6","6","6","7","6","7","7","7","7","5","3","5","4","4","3","4","2","4","3","1","4","3","4","5","3","5","4","4","4","4","3","3","3","3","3","5","3","4","4","6","6","4","4","5","3","4","2","4","3","4","800009629605175298","武","369","Female","[""坏我"",""好她"",""坏她"",""好我""]","[""弱我"",""强她"",""弱她"",""强我""]","","","","","","","","yes","","","","","","","","","SRET","EW_formal","","key","j","16.665999999999723","720","446","朋友","干练","Positive","ability","","","","","","","","","","",""
"647","","j","psychophysics","84","287639","0.0-7.0-3.0-0.70","4","4","5","4","3","5","3","2","4","3","5","-1","-1","-1","-1","0","0","0","0","4","4","5","5","4","4","4","4","4","4","6","6","6","7","6","7","7","7","7","5","3","5","4","4","3","4","2","4","3","1","4","3","4","5","3","5","4","4","4","4","3","3","3","3","3","5","3","4","4","6","6","4","4","5","3","4","2","4","3","4","800009629605175298","武","369","Female","[""坏我"",""好她"",""坏她"",""好我""]","[""弱我"",""强她"",""弱她"",""强我""]","","","","","","","","yes","","","","","","","","","SRET","EW_formal","","key","j","16.665999999999816","720","446","朋友","聪明","Positive","ability","","","","","","","","","","",""
"660","","f","psychophysics","85","289299","0.0-7.0-3.0-0.71","4","4","5","4","3","5","3","2","4","3","5","-1","-1","-1","-1","0","0","0","0","4","4","5","5","4","4","4","4","4","4","6","6","6","7","6","7","7","7","7","5","3","5","4","4","3","4","2","4","3","1","4","3","4","5","3","5","4","4","4","4","3","3","3","3","3","5","3","4","4","6","6","4","4","5","3","4","2","4","3","4","800009629605175298","武","369","Female","[""坏我"",""好她"",""坏她"",""好我""]","[""弱我"",""强她"",""弱她"",""强我""]","","","","","","","","no","","","","","","","","","SRET","EW_formal","","key","f","16.666000000000086","720","446","自己","虚伪","Negative","morality","","","","","","","","","","",""
"650","","j","psychophysics","86","290950","0.0-7.0-3.0-0.72","4","4","5","4","3","5","3","2","4","3","5","-1","-1","-1","-1","0","0","0","0","4","4","5","5","4","4","4","4","4","4","6","6","6","7","6","7","7","7","7","5","3","5","4","4","3","4","2","4","3","1","4","3","4","5","3","5","4","4","4","4","3","3","3","3","3","5","3","4","4","6","6","4","4","5","3","4","2","4","3","4","800009629605175298","武","369","Female","[""坏我"",""好她"",""坏她"",""好我""]","[""弱我"",""强她"",""弱她"",""强我""]","","","","","","","","yes","","","","","","","","","SRET","EW_formal","","key","j","16.665999999999816","720","446","朋友","守法","Positive","morality","","","","","","","","","","",""
"612","","j","psychophysics","87","292570","0.0-7.0-3.0-0.73","4","4","5","4","3","5","3","2","4","3","5","-1","-1","-1","-1","0","0","0","0","4","4","5","5","4","4","4","4","4","4","6","6","6","7","6","7","7","7","7","5","3","5","4","4","3","4","2","4","3","1","4","3","4","5","3","5","4","4","4","4","3","3","3","3","3","5","3","4","4","6","6","4","4","5","3","4","2","4","3","4","800009629605175298","武","369","Female","[""坏我"",""好她"",""坏她"",""好我""]","[""弱我"",""强她"",""弱她"",""强我""]","","","","","","","","yes","","","","","","","","","SRET","EW_formal","","key","j","16.665999999999865","720","446","自己","有力","Positive","ability","","","","","","","","","","",""
"569","","j","psychophysics","88","294142","0.0-7.0-3.0-0.74","4","4","5","4","3","5","3","2","4","3","5","-1","-1","-1","-1","0","0","0","0","4","4","5","5","4","4","4","4","4","4","6","6","6","7","6","7","7","7","7","5","3","5","4","4","3","4","2","4","3","1","4","3","4","5","3","5","4","4","4","4","3","3","3","3","3","5","3","4","4","6","6","4","4","5","3","4","2","4","3","4","800009629605175298","武","369","Female","[""坏我"",""好她"",""坏她"",""好我""]","[""弱我"",""强她"",""弱她"",""强我""]","","","","","","","","yes","","","","","","","","","SRET","EW_formal","","key","j","16.66599999999963","720","446","自己","宽容","Positive","morality","","","","","","","","","","",""
"739","","f","psychophysics","89","295883","0.0-7.0-3.0-0.75","4","4","5","4","3","5","3","2","4","3","5","-1","-1","-1","-1","0","0","0","0","4","4","5","5","4","4","4","4","4","4","6","6","6","7","6","7","7","7","7","5","3","5","4","4","3","4","2","4","3","1","4","3","4","5","3","5","4","4","4","4","3","3","3","3","3","5","3","4","4","6","6","4","4","5","3","4","2","4","3","4","800009629605175298","武","369","Female","[""坏我"",""好她"",""坏她"",""好我""]","[""弱我"",""强她"",""弱她"",""强我""]","","","","","","","","no","","","","","","","","","SRET","EW_formal","","key","f","16.668615384615595","720","446","自己","拜金","Negative","morality","","","","","","","","","","",""
"572","","j","psychophysics","90","297457","0.0-7.0-3.0-0.76","4","4","5","4","3","5","3","2","4","3","5","-1","-1","-1","-1","0","0","0","0","4","4","5","5","4","4","4","4","4","4","6","6","6","7","6","7","7","7","7","5","3","5","4","4","3","4","2","4","3","1","4","3","4","5","3","5","4","4","4","4","3","3","3","3","3","5","3","4","4","6","6","4","4","5","3","4","2","4","3","4","800009629605175298","武","369","Female","[""坏我"",""好她"",""坏她"",""好我""]","[""弱我"",""强她"",""弱她"",""强我""]","","","","","","","","yes","","","","","","","","","SRET","EW_formal","","key","j","16.666000000000256","720","446","自己","诚信","Positive","morality","","","","","","","","","","",""
"750","","j","psychophysics","91","299208","0.0-7.0-3.0-0.77","4","4","5","4","3","5","3","2","4","3","5","-1","-1","-1","-1","0","0","0","0","4","4","5","5","4","4","4","4","4","4","6","6","6","7","6","7","7","7","7","5","3","5","4","4","3","4","2","4","3","1","4","3","4","5","3","5","4","4","4","4","3","3","3","3","3","5","3","4","4","6","6","4","4","5","3","4","2","4","3","4","800009629605175298","武","369","Female","[""坏我"",""好她"",""坏她"",""好我""]","[""弱我"",""强她"",""弱她"",""强我""]","","","","","","","","yes","","","","","","","","","SRET","EW_formal","","key","j","16.66600000000024","720","446","自己","果决","Positive","ability","","","","","","","","","","",""
"710","","f","psychophysics","92","300920","0.0-7.0-3.0-0.78","4","4","5","4","3","5","3","2","4","3","5","-1","-1","-1","-1","0","0","0","0","4","4","5","5","4","4","4","4","4","4","6","6","6","7","6","7","7","7","7","5","3","5","4","4","3","4","2","4","3","1","4","3","4","5","3","5","4","4","4","4","3","3","3","3","3","5","3","4","4","6","6","4","4","5","3","4","2","4","3","4","800009629605175298","武","369","Female","[""坏我"",""好她"",""坏她"",""好我""]","[""弱我"",""强她"",""弱她"",""强我""]","","","","","","","","no","","","","","","","","","SRET","EW_formal","","key","f","16.66600000000029","720","446","朋友","邪恶","Negative","morality","","","","","","","","","","",""
"579","","j","psychophysics","93","302503","0.0-7.0-3.0-0.79","4","4","5","4","3","5","3","2","4","3","5","-1","-1","-1","-1","0","0","0","0","4","4","5","5","4","4","4","4","4","4","6","6","6","7","6","7","7","7","7","5","3","5","4","4","3","4","2","4","3","1","4","3","4","5","3","5","4","4","4","4","3","3","3","3","3","5","3","4","4","6","6","4","4","5","3","4","2","4","3","4","800009629605175298","武","369","Female","[""坏我"",""好她"",""坏她"",""好我""]","[""弱我"",""强她"",""弱她"",""强我""]","","","","","","","","yes","","","","","","","","","SRET","EW_formal","","key","j","16.666000000000533","720","446","自己","忠良","Positive","morality","","","","","","","","","","",""
"565","","j","psychophysics","94","304074","0.0-7.0-3.0-0.80","4","4","5","4","3","5","3","2","4","3","5","-1","-1","-1","-1","0","0","0","0","4","4","5","5","4","4","4","4","4","4","6","6","6","7","6","7","7","7","7","5","3","5","4","4","3","4","2","4","3","1","4","3","4","5","3","5","4","4","4","4","3","3","3","3","3","5","3","4","4","6","6","4","4","5","3","4","2","4","3","4","800009629605175298","武","369","Female","[""坏我"",""好她"",""坏她"",""好我""]","[""弱我"",""强她"",""弱她"",""强我""]","","","","","","","","yes","","","","","","","","","SRET","EW_formal","","key","j","16.666000000000256","720","446","自己","高明","Positive","ability","","","","","","","","","","",""
"1012","","f","psychophysics","95","306089","0.0-7.0-3.0-0.81","4","4","5","4","3","5","3","2","4","3","5","-1","-1","-1","-1","0","0","0","0","4","4","5","5","4","4","4","4","4","4","6","6","6","7","6","7","7","7","7","5","3","5","4","4","3","4","2","4","3","1","4","3","4","5","3","5","4","4","4","4","3","3","3","3","3","5","3","4","4","6","6","4","4","5","3","4","2","4","3","4","800009629605175298","武","369","Female","[""坏我"",""好她"",""坏她"",""好我""]","[""弱我"",""强她"",""弱她"",""强我""]","","","","","","","","no","","","","","","","","","SRET","EW_formal","","key","f","16.668158333333363","720","446","自己","业余","Negative","ability","","","","","","","","","","",""
"533","","j","psychophysics","96","307625","0.0-7.0-3.0-0.82","4","4","5","4","3","5","3","2","4","3","5","-1","-1","-1","-1","0","0","0","0","4","4","5","5","4","4","4","4","4","4","6","6","6","7","6","7","7","7","7","5","3","5","4","4","3","4","2","4","3","1","4","3","4","5","3","5","4","4","4","4","3","3","3","3","3","5","3","4","4","6","6","4","4","5","3","4","2","4","3","4","800009629605175298","武","369","Female","[""坏我"",""好她"",""坏她"",""好我""]","[""弱我"",""强她"",""弱她"",""强我""]","","","","","","","","yes","","","","","","","","","SRET","EW_formal","","key","j","16.665999999999677","720","446","自己","努力","Positive","ability","","","","","","","","","","",""
"620","","j","psychophysics","97","309250","0.0-7.0-3.0-0.83","4","4","5","4","3","5","3","2","4","3","5","-1","-1","-1","-1","0","0","0","0","4","4","5","5","4","4","4","4","4","4","6","6","6","7","6","7","7","7","7","5","3","5","4","4","3","4","2","4","3","1","4","3","4","5","3","5","4","4","4","4","3","3","3","3","3","5","3","4","4","6","6","4","4","5","3","4","2","4","3","4","800009629605175298","武","369","Female","[""坏我"",""好她"",""坏她"",""好我""]","[""弱我"",""强她"",""弱她"",""强我""]","","","","","","","","yes","","","","","","","","","SRET","EW_formal","","key","j","16.66600000000014","720","446","自己","依靠","Negative","ability","","","","","","","","","","",""
"868","","j","psychophysics","98","311123","0.0-7.0-3.0-0.84","4","4","5","4","3","5","3","2","4","3","5","-1","-1","-1","-1","0","0","0","0","4","4","5","5","4","4","4","4","4","4","6","6","6","7","6","7","7","7","7","5","3","5","4","4","3","4","2","4","3","1","4","3","4","5","3","5","4","4","4","4","3","3","3","3","3","5","3","4","4","6","6","4","4","5","3","4","2","4","3","4","800009629605175298","武","369","Female","[""坏我"",""好她"",""坏她"",""好我""]","[""弱我"",""强她"",""弱她"",""强我""]","","","","","","","","yes","","","","","","","","","SRET","EW_formal","","key","j","16.665999999999798","720","446","自己","缓慢","Negative","ability","","","","","","","","","","",""
"879","","j","psychophysics","99","313005","0.0-7.0-3.0-0.85","4","4","5","4","3","5","3","2","4","3","5","-1","-1","-1","-1","0","0","0","0","4","4","5","5","4","4","4","4","4","4","6","6","6","7","6","7","7","7","7","5","3","5","4","4","3","4","2","4","3","1","4","3","4","5","3","5","4","4","4","4","3","3","3","3","3","5","3","4","4","6","6","4","4","5","3","4","2","4","3","4","800009629605175298","武","369","Female","[""坏我"",""好她"",""坏她"",""好我""]","[""弱我"",""强她"",""弱她"",""强我""]","","","","","","","","yes","","","","","","","","","SRET","EW_formal","","key","j","16.666000000000036","720","446","自己","主见","Positive","ability","","","","","","","","","","",""
"727","","f","psychophysics","100","314735","0.0-7.0-3.0-0.86","4","4","5","4","3","5","3","2","4","3","5","-1","-1","-1","-1","0","0","0","0","4","4","5","5","4","4","4","4","4","4","6","6","6","7","6","7","7","7","7","5","3","5","4","4","3","4","2","4","3","1","4","3","4","5","3","5","4","4","4","4","3","3","3","3","3","5","3","4","4","6","6","4","4","5","3","4","2","4","3","4","800009629605175298","武","369","Female","[""坏我"",""好她"",""坏她"",""好我""]","[""弱我"",""强她"",""弱她"",""强我""]","","","","","","","","no","","","","","","","","","SRET","EW_formal","","key","f","16.668262135922383","720","446","朋友","低俗","Negative","morality","","","","","","","","","","",""
"667","","j","psychophysics","101","316405","0.0-7.0-3.0-0.87","4","4","5","4","3","5","3","2","4","3","5","-1","-1","-1","-1","0","0","0","0","4","4","5","5","4","4","4","4","4","4","6","6","6","7","6","7","7","7","7","5","3","5","4","4","3","4","2","4","3","1","4","3","4","5","3","5","4","4","4","4","3","3","3","3","3","5","3","4","4","6","6","4","4","5","3","4","2","4","3","4","800009629605175298","武","369","Female","[""坏我"",""好她"",""坏她"",""好我""]","[""弱我"",""强她"",""弱她"",""强我""]","","","","","","","","yes","","","","","","","","","SRET","EW_formal","","key","j","16.666000000000086","720","446","朋友","素养","Positive","morality","","","","","","","","","","",""
"11524","
    <p><div style='color:white;font-size:35px; line-height:20px;'>计算任务</div></p><br>
    <p><div style='color:red;font-size:25px; line-height:20px;'>接下来，您将看到一些四则运算题，<b>请从键盘选择 0-9 进行反应。</b></div></p>
    <p><div style='color:red;font-size:25px; line-height:20px;'>请尽可能快地进行计算，计算的速度和正确率将影响报酬的发放。</div></p>
    <p><div class='footer' style='color:white;font-size:25px; line-height:20px;'>如果对本实验还有不清楚之处，请立即向实验员咨询。</p><p style='color:white;font-size:25px; line-height:20px;'>如果您明白了规则：</p><p style='color:white;font-size:22px; line-height:20px;'>请按 继续 进入练习</p>
    </div>
    ","0","html-button-response","102","327930","0.0-7.0-4.0","4","4","5","4","3","5","3","2","4","3","5","-1","-1","-1","-1","0","0","0","0","4","4","5","5","4","4","4","4","4","4","6","6","6","7","6","7","7","7","7","5","3","5","4","4","3","4","2","4","3","1","4","3","4","5","3","5","4","4","4","4","3","3","3","3","3","5","3","4","4","6","6","4","4","5","3","4","2","4","3","4","800009629605175298","武","369","Female","[""坏我"",""好她"",""坏她"",""好我""]","[""弱我"",""强她"",""弱她"",""强我""]","","","","","","","","","","","","","","","","","SRET_math","math_instructions","Tue Jan 30 2024 10:03:31 GMT+0800 (中国标准时间)","","","","","","","","","","","","","","","","","","","",""
"1986","","1","psychophysics","103","329938","0.0-7.0-5.0-0.0","4","4","5","4","3","5","3","2","4","3","5","-1","-1","-1","-1","0","0","0","0","4","4","5","5","4","4","4","4","4","4","6","6","6","7","6","7","7","7","7","5","3","5","4","4","3","4","2","4","3","1","4","3","4","5","3","5","4","4","4","4","3","3","3","3","3","5","3","4","4","6","6","4","4","5","3","4","2","4","3","4","800009629605175298","武","369","Female","[""坏我"",""好她"",""坏她"",""好我""]","[""弱我"",""强她"",""弱她"",""强我""]","","","","","","","","1","","","","","","","","","SRET","SRET_math_calculate","","key","1","16.665999999999865","720","446","","","","","12/12= ?","1","1","","","","","","","",""
"2015","","7","psychophysics","104","331975","0.0-7.0-5.0-0.1","4","4","5","4","3","5","3","2","4","3","5","-1","-1","-1","-1","0","0","0","0","4","4","5","5","4","4","4","4","4","4","6","6","6","7","6","7","7","7","7","5","3","5","4","4","3","4","2","4","3","1","4","3","4","5","3","5","4","4","4","4","3","3","3","3","3","5","3","4","4","6","6","4","4","5","3","4","2","4","3","4","800009629605175298","武","369","Female","[""坏我"",""好她"",""坏她"",""好我""]","[""弱我"",""强她"",""弱她"",""强我""]","","","","","","","","7","","","","","","","","","SRET","SRET_math_calculate","","key","7","16.666000000000086","720","446","","","","","1+6= ?","7","1","","","","","","","",""
"2513","","0","psychophysics","105","334510","0.0-7.0-5.0-0.2","4","4","5","4","3","5","3","2","4","3","5","-1","-1","-1","-1","0","0","0","0","4","4","5","5","4","4","4","4","4","4","6","6","6","7","6","7","7","7","7","5","3","5","4","4","3","4","2","4","3","1","4","3","4","5","3","5","4","4","4","4","3","3","3","3","3","5","3","4","4","6","6","4","4","5","3","4","2","4","3","4","800009629605175298","武","369","Female","[""坏我"",""好她"",""坏她"",""好我""]","[""弱我"",""强她"",""弱她"",""强我""]","","","","","","","","0","","","","","","","","","SRET","SRET_math_calculate","","key","0","16.708019867549815","720","446","","","","","5*0= ?","0","1","","","","","","","",""
"2095","","5","psychophysics","106","336627","0.0-7.0-5.0-0.3","4","4","5","4","3","5","3","2","4","3","5","-1","-1","-1","-1","0","0","0","0","4","4","5","5","4","4","4","4","4","4","6","6","6","7","6","7","7","7","7","5","3","5","4","4","3","4","2","4","3","1","4","3","4","5","3","5","4","4","4","4","3","3","3","3","3","5","3","4","4","6","6","4","4","5","3","4","2","4","3","4","800009629605175298","武","369","Female","[""坏我"",""好她"",""坏她"",""好我""]","[""弱我"",""强她"",""弱她"",""强我""]","","","","","","","","5","","","","","","","","","SRET","SRET_math_calculate","","key","5","16.66600000000021","720","446","","","","","9-4= ?","5","1","","","","","","","",""
"2111","","8","psychophysics","107","338759","0.0-7.0-5.0-0.4","4","4","5","4","3","5","3","2","4","3","5","-1","-1","-1","-1","0","0","0","0","4","4","5","5","4","4","4","4","4","4","6","6","6","7","6","7","7","7","7","5","3","5","4","4","3","4","2","4","3","1","4","3","4","5","3","5","4","4","4","4","3","3","3","3","3","5","3","4","4","6","6","4","4","5","3","4","2","4","3","4","800009629605175298","武","369","Female","[""坏我"",""好她"",""坏她"",""好我""]","[""弱我"",""强她"",""弱她"",""强我""]","","","","","","","","8","","","","","","","","","SRET","SRET_math_calculate","","key","8","16.66599999999996","720","446","","","","","3+5= ?","8","1","","","","","","","",""
"1993","","3","psychophysics","108","340776","0.0-7.0-5.0-0.5","4","4","5","4","3","5","3","2","4","3","5","-1","-1","-1","-1","0","0","0","0","4","4","5","5","4","4","4","4","4","4","6","6","6","7","6","7","7","7","7","5","3","5","4","4","3","4","2","4","3","1","4","3","4","5","3","5","4","4","4","4","3","3","3","3","3","5","3","4","4","6","6","4","4","5","3","4","2","4","3","4","800009629605175298","武","369","Female","[""坏我"",""好她"",""坏她"",""好我""]","[""弱我"",""强她"",""弱她"",""强我""]","","","","","","","","3","","","","","","","","","SRET","SRET_math_calculate","","key","3","16.665999999999865","720","446","","","","","9/3= ?","3","1","","","","","","","",""
"2180","","0","psychophysics","109","342976","0.0-7.0-5.0-0.6","4","4","5","4","3","5","3","2","4","3","5","-1","-1","-1","-1","0","0","0","0","4","4","5","5","4","4","4","4","4","4","6","6","6","7","6","7","7","7","7","5","3","5","4","4","3","4","2","4","3","1","4","3","4","5","3","5","4","4","4","4","3","3","3","3","3","5","3","4","4","6","6","4","4","5","3","4","2","4","3","4","800009629605175298","武","369","Female","[""坏我"",""好她"",""坏她"",""好我""]","[""弱我"",""强她"",""弱她"",""强我""]","","","","","","","","0","","","","","","","","","SRET","SRET_math_calculate","","key","0","16.665999999999883","720","446","","","","","7*0= ?","0","1","","","","","","","",""
"1898","","4","psychophysics","110","344896","0.0-7.0-5.0-0.7","4","4","5","4","3","5","3","2","4","3","5","-1","-1","-1","-1","0","0","0","0","4","4","5","5","4","4","4","4","4","4","6","6","6","7","6","7","7","7","7","5","3","5","4","4","3","4","2","4","3","1","4","3","4","5","3","5","4","4","4","4","3","3","3","3","3","5","3","4","4","6","6","4","4","5","3","4","2","4","3","4","800009629605175298","武","369","Female","[""坏我"",""好她"",""坏她"",""好我""]","[""弱我"",""强她"",""弱她"",""强我""]","","","","","","","","4","","","","","","","","","SRET","SRET_math_calculate","","key","4","16.668228070175566","720","446","","","","","4*1= ?","4","1","","","","","","","",""
"1961","","3","psychophysics","111","346877","0.0-7.0-5.0-0.8","4","4","5","4","3","5","3","2","4","3","5","-1","-1","-1","-1","0","0","0","0","4","4","5","5","4","4","4","4","4","4","6","6","6","7","6","7","7","7","7","5","3","5","4","4","3","4","2","4","3","1","4","3","4","5","3","5","4","4","4","4","3","3","3","3","3","5","3","4","4","6","6","4","4","5","3","4","2","4","3","4","800009629605175298","武","369","Female","[""坏我"",""好她"",""坏她"",""好我""]","[""弱我"",""强她"",""弱她"",""强我""]","","","","","","","","3","","","","","","","","","SRET","SRET_math_calculate","","key","3","16.665999999999904","720","446","","","","","12/4= ?","3","1","","","","","","","",""
"2954","","9","psychophysics","112","349851","0.0-7.0-5.0-0.9","4","4","5","4","3","5","3","2","4","3","5","-1","-1","-1","-1","0","0","0","0","4","4","5","5","4","4","4","4","4","4","6","6","6","7","6","7","7","7","7","5","3","5","4","4","3","4","2","4","3","1","4","3","4","5","3","5","4","4","4","4","3","3","3","3","3","5","3","4","4","6","6","4","4","5","3","4","2","4","3","4","800009629605175298","武","369","Female","[""坏我"",""好她"",""坏她"",""好我""]","[""弱我"",""强她"",""弱她"",""强我""]","","","","","","","","9","","","","","","","","","SRET","SRET_math_calculate","","key","9","16.665999999999904","720","446","","","","","43-34= ?","9","1","","","","","","","",""
"2117","","8","psychophysics","113","351993","0.0-7.0-5.0-0.10","4","4","5","4","3","5","3","2","4","3","5","-1","-1","-1","-1","0","0","0","0","4","4","5","5","4","4","4","4","4","4","6","6","6","7","6","7","7","7","7","5","3","5","4","4","3","4","2","4","3","1","4","3","4","5","3","5","4","4","4","4","3","3","3","3","3","5","3","4","4","6","6","4","4","5","3","4","2","4","3","4","800009629605175298","武","369","Female","[""坏我"",""好她"",""坏她"",""好我""]","[""弱我"",""强她"",""弱她"",""强我""]","","","","","","","","8","","","","","","","","","SRET","SRET_math_calculate","","key","8","16.665999999999713","720","446","","","","","8*1= ?","8","1","","","","","","","",""
"2288","","6","psychophysics","114","354301","0.0-7.0-5.0-0.11","4","4","5","4","3","5","3","2","4","3","5","-1","-1","-1","-1","0","0","0","0","4","4","5","5","4","4","4","4","4","4","6","6","6","7","6","7","7","7","7","5","3","5","4","4","3","4","2","4","3","1","4","3","4","5","3","5","4","4","4","4","3","3","3","3","3","5","3","4","4","6","6","4","4","5","3","4","2","4","3","4","800009629605175298","武","369","Female","[""坏我"",""好她"",""坏她"",""好我""]","[""弱我"",""强她"",""弱她"",""强我""]","","","","","","","","6","","","","","","","","","SRET","SRET_math_calculate","","key","6","16.665999999999777","720","446","","","","","4+2= ?","6","1","","","","","","","",""
"1978","","6","psychophysics","115","356293","0.0-7.0-5.0-0.12","4","4","5","4","3","5","3","2","4","3","5","-1","-1","-1","-1","0","0","0","0","4","4","5","5","4","4","4","4","4","4","6","6","6","7","6","7","7","7","7","5","3","5","4","4","3","4","2","4","3","1","4","3","4","5","3","5","4","4","4","4","3","3","3","3","3","5","3","4","4","6","6","4","4","5","3","4","2","4","3","4","800009629605175298","武","369","Female","[""坏我"",""好她"",""坏她"",""好我""]","[""弱我"",""强她"",""弱她"",""强我""]","","","","","","","","6","","","","","","","","","SRET","SRET_math_calculate","","key","6","16.66822689075606","720","446","","","","","5+1= ?","6","1","","","","","","","",""
"1910","","6","psychophysics","116","358225","0.0-7.0-5.0-0.13","4","4","5","4","3","5","3","2","4","3","5","-1","-1","-1","-1","0","0","0","0","4","4","5","5","4","4","4","4","4","4","6","6","6","7","6","7","7","7","7","5","3","5","4","4","3","4","2","4","3","1","4","3","4","5","3","5","4","4","4","4","3","3","3","3","3","5","3","4","4","6","6","4","4","5","3","4","2","4","3","4","800009629605175298","武","369","Female","[""坏我"",""好她"",""坏她"",""好我""]","[""弱我"",""强她"",""弱她"",""强我""]","","","","","","","","6","","","","","","","","","SRET","SRET_math_calculate","","key","6","16.665999999999716","720","446","","","","","9-3= ?","6","1","","","","","","","",""
"2112","","0","psychophysics","117","360359","0.0-7.0-5.0-0.14","4","4","5","4","3","5","3","2","4","3","5","-1","-1","-1","-1","0","0","0","0","4","4","5","5","4","4","4","4","4","4","6","6","6","7","6","7","7","7","7","5","3","5","4","4","3","4","2","4","3","1","4","3","4","5","3","5","4","4","4","4","3","3","3","3","3","5","3","4","4","6","6","4","4","5","3","4","2","4","3","4","800009629605175298","武","369","Female","[""坏我"",""好她"",""坏她"",""好我""]","[""弱我"",""强她"",""弱她"",""强我""]","","","","","","","","0","","","","","","","","","SRET","SRET_math_calculate","","key","0","16.66599999999996","720","446","","","","","12-12= ?","0","1","","","","","","","",""
"2914","","9","psychophysics","118","363295","0.0-7.0-5.0-0.15","4","4","5","4","3","5","3","2","4","3","5","-1","-1","-1","-1","0","0","0","0","4","4","5","5","4","4","4","4","4","4","6","6","6","7","6","7","7","7","7","5","3","5","4","4","3","4","2","4","3","1","4","3","4","5","3","5","4","4","4","4","3","3","3","3","3","5","3","4","4","6","6","4","4","5","3","4","2","4","3","4","800009629605175298","武","369","Female","[""坏我"",""好她"",""坏她"",""好我""]","[""弱我"",""强她"",""弱她"",""强我""]","","","","","","","","9","","","","","","","","","SRET","SRET_math_calculate","","key","9","16.665999999999933","720","446","","","","","32-23= ?","9","1","","","","","","","",""
"1979","","2","psychophysics","119","365296","0.0-7.0-5.0-0.16","4","4","5","4","3","5","3","2","4","3","5","-1","-1","-1","-1","0","0","0","0","4","4","5","5","4","4","4","4","4","4","6","6","6","7","6","7","7","7","7","5","3","5","4","4","3","4","2","4","3","1","4","3","4","5","3","5","4","4","4","4","3","3","3","3","3","5","3","4","4","6","6","4","4","5","3","4","2","4","3","4","800009629605175298","武","369","Female","[""坏我"",""好她"",""坏她"",""好我""]","[""弱我"",""强她"",""弱她"",""强我""]","","","","","","","","2","","","","","","","","","SRET","SRET_math_calculate","","key","2","16.668277310924566","720","446","","","","","5-3= ?","2","1","","","","","","","",""
"1942","","9","psychophysics","120","367259","0.0-7.0-5.0-0.17","4","4","5","4","3","5","3","2","4","3","5","-1","-1","-1","-1","0","0","0","0","4","4","5","5","4","4","4","4","4","4","6","6","6","7","6","7","7","7","7","5","3","5","4","4","3","4","2","4","3","1","4","3","4","5","3","5","4","4","4","4","3","3","3","3","3","5","3","4","4","6","6","4","4","5","3","4","2","4","3","4","800009629605175298","武","369","Female","[""坏我"",""好她"",""坏她"",""好我""]","[""弱我"",""强她"",""弱她"",""强我""]","","","","","","","","9","","","","","","","","","SRET","SRET_math_calculate","","key","9","16.665999999999677","720","446","","","","","1+8= ?","9","1","","","","","","","",""
"2195","","5","psychophysics","121","369475","0.0-7.0-5.0-0.18","4","4","5","4","3","5","3","2","4","3","5","-1","-1","-1","-1","0","0","0","0","4","4","5","5","4","4","4","4","4","4","6","6","6","7","6","7","7","7","7","5","3","5","4","4","3","4","2","4","3","1","4","3","4","5","3","5","4","4","4","4","3","3","3","3","3","5","3","4","4","6","6","4","4","5","3","4","2","4","3","4","800009629605175298","武","369","Female","[""坏我"",""好她"",""坏她"",""好我""]","[""弱我"",""强她"",""弱她"",""强我""]","","","","","","","","5","","","","","","","","","SRET","SRET_math_calculate","","key","5","16.666000000000086","720","446","","","","","15-10= ?","5","1","","","","","","","",""
"2031","","8","psychophysics","122","371530","0.0-7.0-5.0-0.19","4","4","5","4","3","5","3","2","4","3","5","-1","-1","-1","-1","0","0","0","0","4","4","5","5","4","4","4","4","4","4","6","6","6","7","6","7","7","7","7","5","3","5","4","4","3","4","2","4","3","1","4","3","4","5","3","5","4","4","4","4","3","3","3","3","3","5","3","4","4","6","6","4","4","5","3","4","2","4","3","4","800009629605175298","武","369","Female","[""坏我"",""好她"",""坏她"",""好我""]","[""弱我"",""强她"",""弱她"",""强我""]","","","","","","","","8","","","","","","","","","SRET","SRET_math_calculate","","key","8","16.665999999999823","720","446","","","","","2+6= ?","8","1","","","","","","","",""
"1917","","6","psychophysics","123","373468","0.0-7.0-5.0-0.20","4","4","5","4","3","5","3","2","4","3","5","-1","-1","-1","-1","0","0","0","0","4","4","5","5","4","4","4","4","4","4","6","6","6","7","6","7","7","7","7","5","3","5","4","4","3","4","2","4","3","1","4","3","4","5","3","5","4","4","4","4","3","3","3","3","3","5","3","4","4","6","6","4","4","5","3","4","2","4","3","4","800009629605175298","武","369","Female","[""坏我"",""好她"",""坏她"",""好我""]","[""弱我"",""强她"",""弱她"",""强我""]","","","","","","","","6","","","","","","","","","SRET","SRET_math_calculate","","key","6","16.666000000000224","720","446","","","","","8-2= ?","6","1","","","","","","","",""
"2151","","2","psychophysics","124","375644","0.0-7.0-5.0-0.21","4","4","5","4","3","5","3","2","4","3","5","-1","-1","-1","-1","0","0","0","0","4","4","5","5","4","4","4","4","4","4","6","6","6","7","6","7","7","7","7","5","3","5","4","4","3","4","2","4","3","1","4","3","4","5","3","5","4","4","4","4","3","3","3","3","3","5","3","4","4","6","6","4","4","5","3","4","2","4","3","4","800009629605175298","武","369","Female","[""坏我"",""好她"",""坏她"",""好我""]","[""弱我"",""强她"",""弱她"",""强我""]","","","","","","","","2","","","","","","","","","SRET","SRET_math_calculate","","key","2","16.668007692307807","720","446","","","","","8/4= ?","2","1","","","","","","","",""
"1864","","7","psychophysics","125","377529","0.0-7.0-5.0-0.22","4","4","5","4","3","5","3","2","4","3","5","-1","-1","-1","-1","0","0","0","0","4","4","5","5","4","4","4","4","4","4","6","6","6","7","6","7","7","7","7","5","3","5","4","4","3","4","2","4","3","1","4","3","4","5","3","5","4","4","4","4","3","3","3","3","3","5","3","4","4","6","6","4","4","5","3","4","2","4","3","4","800009629605175298","武","369","Female","[""坏我"",""好她"",""坏她"",""好我""]","[""弱我"",""强她"",""弱她"",""强我""]","","","","","","","","7","","","","","","","","","SRET","SRET_math_calculate","","key","7","16.666000000000036","720","446","","","","","2+5= ?","7","1","","","","","","","",""
"2025","","5","psychophysics","126","379577","0.0-7.0-5.0-0.23","4","4","5","4","3","5","3","2","4","3","5","-1","-1","-1","-1","0","0","0","0","4","4","5","5","4","4","4","4","4","4","6","6","6","7","6","7","7","7","7","5","3","5","4","4","3","4","2","4","3","1","4","3","4","5","3","5","4","4","4","4","3","3","3","3","3","5","3","4","4","6","6","4","4","5","3","4","2","4","3","4","800009629605175298","武","369","Female","[""坏我"",""好她"",""坏她"",""好我""]","[""弱我"",""强她"",""弱她"",""强我""]","","","","","","","","5","","","","","","","","","SRET","SRET_math_calculate","","key","5","16.665999999999823","720","446","","","","","2+3= ?","5","1","","","","","","","",""
"1814","","1","psychophysics","127","381411","0.0-7.0-5.0-0.24","4","4","5","4","3","5","3","2","4","3","5","-1","-1","-1","-1","0","0","0","0","4","4","5","5","4","4","4","4","4","4","6","6","6","7","6","7","7","7","7","5","3","5","4","4","3","4","2","4","3","1","4","3","4","5","3","5","4","4","4","4","3","3","3","3","3","5","3","4","4","6","6","4","4","5","3","4","2","4","3","4","800009629605175298","武","369","Female","[""坏我"",""好她"",""坏她"",""好我""]","[""弱我"",""强她"",""弱她"",""强我""]","","","","","","","","1","","","","","","","","","SRET","SRET_math_calculate","","key","1","16.66599999999984","720","446","","","","","4/4= ?","1","1","","","","","","","",""
"2191","","6","psychophysics","128","383624","0.0-7.0-5.0-0.25","4","4","5","4","3","5","3","2","4","3","5","-1","-1","-1","-1","0","0","0","0","4","4","5","5","4","4","4","4","4","4","6","6","6","7","6","7","7","7","7","5","3","5","4","4","3","4","2","4","3","1","4","3","4","5","3","5","4","4","4","4","3","3","3","3","3","5","3","4","4","6","6","4","4","5","3","4","2","4","3","4","800009629605175298","武","369","Female","[""坏我"",""好她"",""坏她"",""好我""]","[""弱我"",""强她"",""弱她"",""强我""]","","","","","","","","6","","","","","","","","","SRET","SRET_math_calculate","","key","6","16.665999999999645","720","446","","","","","3*2= ?","6","1","","","","","","","",""
"2563","","8","psychophysics","129","386208","0.0-7.0-5.0-0.26","4","4","5","4","3","5","3","2","4","3","5","-1","-1","-1","-1","0","0","0","0","4","4","5","5","4","4","4","4","4","4","6","6","6","7","6","7","7","7","7","5","3","5","4","4","3","4","2","4","3","1","4","3","4","5","3","5","4","4","4","4","3","3","3","3","3","5","3","4","4","6","6","4","4","5","3","4","2","4","3","4","800009629605175298","武","369","Female","[""坏我"",""好她"",""坏她"",""好我""]","[""弱我"",""强她"",""弱她"",""强我""]","","","","","","","","8","","","","","","","","","SRET","SRET_math_calculate","","key","8","16.667720779220954","720","446","","","","","72/9= ?","8","1","","","","","","","",""
"2514","","1","psychophysics","130","388743","0.0-7.0-5.0-0.27","4","4","5","4","3","5","3","2","4","3","5","-1","-1","-1","-1","0","0","0","0","4","4","5","5","4","4","4","4","4","4","6","6","6","7","6","7","7","7","7","5","3","5","4","4","3","4","2","4","3","1","4","3","4","5","3","5","4","4","4","4","3","3","3","3","3","5","3","4","4","6","6","4","4","5","3","4","2","4","3","4","800009629605175298","武","369","Female","[""坏我"",""好她"",""坏她"",""好我""]","[""弱我"",""强她"",""弱她"",""强我""]","","","","","","","","1","","","","","","","","","SRET","SRET_math_calculate","","key","1","16.665999999999944","720","446","","","","","30-29= ?","1","1","","","","","","","",""
"2279","","8","psychophysics","131","391042","0.0-7.0-5.0-0.28","4","4","5","4","3","5","3","2","4","3","5","-1","-1","-1","-1","0","0","0","0","4","4","5","5","4","4","4","4","4","4","6","6","6","7","6","7","7","7","7","5","3","5","4","4","3","4","2","4","3","1","4","3","4","5","3","5","4","4","4","4","3","3","3","3","3","5","3","4","4","6","6","4","4","5","3","4","2","4","3","4","800009629605175298","武","369","Female","[""坏我"",""好她"",""坏她"",""好我""]","[""弱我"",""强她"",""弱她"",""强我""]","","","","","","","","8","","","","","","","","","SRET","SRET_math_calculate","","key","8","16.665999999999777","720","446","","","","","2*4= ?","8","1","","","","","","","",""
"2096","","9","psychophysics","132","393159","0.0-7.0-5.0-0.29","4","4","5","4","3","5","3","2","4","3","5","-1","-1","-1","-1","0","0","0","0","4","4","5","5","4","4","4","4","4","4","6","6","6","7","6","7","7","7","7","5","3","5","4","4","3","4","2","4","3","1","4","3","4","5","3","5","4","4","4","4","3","3","3","3","3","5","3","4","4","6","6","4","4","5","3","4","2","4","3","4","800009629605175298","武","369","Female","[""坏我"",""好她"",""坏她"",""好我""]","[""弱我"",""强她"",""弱她"",""强我""]","","","","","","","","9","","","","","","","","","SRET","SRET_math_calculate","","key","9","16.665999999999748","720","446","","","","","6+3= ?","9","1","","","","","","","",""
"2166","","2","psychophysics","133","395331","0.0-7.0-5.0-0.30","4","4","5","4","3","5","3","2","4","3","5","-1","-1","-1","-1","0","0","0","0","4","4","5","5","4","4","4","4","4","4","6","6","6","7","6","7","7","7","7","5","3","5","4","4","3","4","2","4","3","1","4","3","4","5","3","5","4","4","4","4","3","3","3","3","3","5","3","4","4","6","6","4","4","5","3","4","2","4","3","4","800009629605175298","武","369","Female","[""坏我"",""好她"",""坏她"",""好我""]","[""弱我"",""强她"",""弱她"",""强我""]","","","","","","","","2","","","","","","","","","SRET","SRET_math_calculate","","key","2","16.66806976744172","720","446","","","","","8-6= ?","2","1","","","","","","","",""
"1778","","9","psychophysics","134","397129","0.0-7.0-5.0-0.31","4","4","5","4","3","5","3","2","4","3","5","-1","-1","-1","-1","0","0","0","0","4","4","5","5","4","4","4","4","4","4","6","6","6","7","6","7","7","7","7","5","3","5","4","4","3","4","2","4","3","1","4","3","4","5","3","5","4","4","4","4","3","3","3","3","3","5","3","4","4","6","6","4","4","5","3","4","2","4","3","4","800009629605175298","武","369","Female","[""坏我"",""好她"",""坏她"",""好我""]","[""弱我"",""强她"",""弱她"",""强我""]","","","","","","","","9","","","","","","","","","SRET","SRET_math_calculate","","key","9","16.665999999999887","720","446","","","","","8+1= ?","9","1","","","","","","","",""
"1997","","0","psychophysics","135","399146","0.0-7.0-5.0-0.32","4","4","5","4","3","5","3","2","4","3","5","-1","-1","-1","-1","0","0","0","0","4","4","5","5","4","4","4","4","4","4","6","6","6","7","6","7","7","7","7","5","3","5","4","4","3","4","2","4","3","1","4","3","4","5","3","5","4","4","4","4","3","3","3","3","3","5","3","4","4","6","6","4","4","5","3","4","2","4","3","4","800009629605175298","武","369","Female","[""坏我"",""好她"",""坏她"",""好我""]","[""弱我"",""强她"",""弱她"",""强我""]","","","","","","","","0","","","","","","","","","SRET","SRET_math_calculate","","key","0","16.66600000000035","720","446","","","","","9-9= ?","0","1","","","","","","","",""
"1941","","4","psychophysics","136","401108","0.0-7.0-5.0-0.33","4","4","5","4","3","5","3","2","4","3","5","-1","-1","-1","-1","0","0","0","0","4","4","5","5","4","4","4","4","4","4","6","6","6","7","6","7","7","7","7","5","3","5","4","4","3","4","2","4","3","1","4","3","4","5","3","5","4","4","4","4","3","3","3","3","3","5","3","4","4","6","6","4","4","5","3","4","2","4","3","4","800009629605175298","武","369","Female","[""坏我"",""好她"",""坏她"",""好我""]","[""弱我"",""强她"",""弱她"",""强我""]","","","","","","","","4","","","","","","","","","SRET","SRET_math_calculate","","key","4","16.666000000000174","720","446","","","","","2+2= ?","4","1","","","","","","","",""
"2185","","2","psychophysics","137","403300","0.0-7.0-5.0-0.34","4","4","5","4","3","5","3","2","4","3","5","-1","-1","-1","-1","0","0","0","0","4","4","5","5","4","4","4","4","4","4","6","6","6","7","6","7","7","7","7","5","3","5","4","4","3","4","2","4","3","1","4","3","4","5","3","5","4","4","4","4","3","3","3","3","3","5","3","4","4","6","6","4","4","5","3","4","2","4","3","4","800009629605175298","武","369","Female","[""坏我"",""好她"",""坏她"",""好我""]","[""弱我"",""强她"",""弱她"",""强我""]","","","","","","","","2","","","","","","","","","SRET","SRET_math_calculate","","key","2","16.665999999999677","720","446","","","","","22/11= ?","2","1","","","","","","","",""
"2236","","8","psychophysics","138","405561","0.0-7.0-5.0-0.35","4","4","5","4","3","5","3","2","4","3","5","-1","-1","-1","-1","0","0","0","0","4","4","5","5","4","4","4","4","4","4","6","6","6","7","6","7","7","7","7","5","3","5","4","4","3","4","2","4","3","1","4","3","4","5","3","5","4","4","4","4","3","3","3","3","3","5","3","4","4","6","6","4","4","5","3","4","2","4","3","4","800009629605175298","武","369","Female","[""坏我"",""好她"",""坏她"",""好我""]","[""弱我"",""强她"",""弱她"",""强我""]","","","","","","","","8","","","","","","","","","SRET","SRET_math_calculate","","key","8","16.667703703703808","720","446","","","","","50-42= ?","8","1","","","","","","","",""
"2009","","9","psychophysics","139","407591","0.0-7.0-5.0-0.36","4","4","5","4","3","5","3","2","4","3","5","-1","-1","-1","-1","0","0","0","0","4","4","5","5","4","4","4","4","4","4","6","6","6","7","6","7","7","7","7","5","3","5","4","4","3","4","2","4","3","1","4","3","4","5","3","5","4","4","4","4","3","3","3","3","3","5","3","4","4","6","6","4","4","5","3","4","2","4","3","4","800009629605175298","武","369","Female","[""坏我"",""好她"",""坏她"",""好我""]","[""弱我"",""强她"",""弱她"",""强我""]","","","","","","","","9","","","","","","","","","SRET","SRET_math_calculate","","key","9","16.666000000000086","720","446","","","","","7+2= ?","9","1","","","","","","","",""
"2328","","4","psychophysics","140","409926","0.0-7.0-5.0-0.37","4","4","5","4","3","5","3","2","4","3","5","-1","-1","-1","-1","0","0","0","0","4","4","5","5","4","4","4","4","4","4","6","6","6","7","6","7","7","7","7","5","3","5","4","4","3","4","2","4","3","1","4","3","4","5","3","5","4","4","4","4","3","3","3","3","3","5","3","4","4","6","6","4","4","5","3","4","2","4","3","4","800009629605175298","武","369","Female","[""坏我"",""好她"",""坏她"",""好我""]","[""弱我"",""强她"",""弱她"",""强我""]","","","","","","","","4","","","","","","","","","SRET","SRET_math_calculate","","key","4","16.66600000000016","720","446","","","","","13-9= ?","4","1","","","","","","","",""
"1927","","7","psychophysics","141","411873","0.0-7.0-5.0-0.38","4","4","5","4","3","5","3","2","4","3","5","-1","-1","-1","-1","0","0","0","0","4","4","5","5","4","4","4","4","4","4","6","6","6","7","6","7","7","7","7","5","3","5","4","4","3","4","2","4","3","1","4","3","4","5","3","5","4","4","4","4","3","3","3","3","3","5","3","4","4","6","6","4","4","5","3","4","2","4","3","4","800009629605175298","武","369","Female","[""坏我"",""好她"",""坏她"",""好我""]","[""弱我"",""强她"",""弱她"",""强我""]","","","","","","","","7","","","","","","","","","SRET","SRET_math_calculate","","key","7","16.665999999999947","720","446","","","","","5+2= ?","7","1","","","","","","","",""
