"rt","stimulus","response","trial_type","trial_index","time_elapsed","internal_node_id","swb_1","swb_2","swb_3","swb_4","swb_5","LOT_1","LOT_2","LOT_3","LOT_4","LOT_5","LOT_6","IPC_1","IPC_2","IPC_3","IPC_4","IPC_5","IPC_6","IPC_7","IPC_8","MorIden_1","MorIden_2","MorIden_3","MorIden_4","MorIden_5","MorIden_6","MorIden_7","MorIden_8","MorIden_9","MorIden_10","moralSeImag_1","moralSeImag_2","moralSeImag_3","moralSeImag_4","moralSeImag_5","moralSeImag_6","moralSeImag_7","moralSeImag_8","moralSeImag_9","sde_1","sde_2","sde_3","sde_4","sde_5","sde_6","sde_7","sde_8","sde_9","sde_10","trap2","sde_11","sde_12","sde_13","sde_14","sde_15","sde_16","sde_17","sde_18","sde_19","sde_20","IM_1","IM_2","IM_3","IM_4","IM_5","IM_6","IM_7","IM_8","IM_9","IM_10","IM_11","IM_12","IM_13","IM_14","IM_15","IM_16","IM_17","IM_18","IM_19","IM_20","subj_idx","friend_name","ParticipantID","Sex","Word","Word2","value","success","timeout","failed_images","failed_audio","failed_video","user_agent","responses","item_order","radio_event_ids","radio_event_times","key_event_times","mouse_event_times","straightlining","zigzagging","honeypot","view_history","response_type","key_press","avg_frame_time","center_x","center_y","correct_response","correct","identity","Image","word","condition","task_id","screen_id","time_stamp","person","valence","domain","math","status","duration","question_order","trap2_item"
"2219","
   <p><div style='color:white; font-size: 25px'>您好，欢迎参加本次实验。</div></p>
   <p><div style='color:white; font-size: 25px'>为充分保障您的权利，请确保您已经知晓并同意《参与实验同意书》以及《数据公开知情同意书》。</div></p>
   <p><div style='color:white; font-size: 25px'>如果您未见过上述内容，请咨询实验员。</div></p>
   <p style='color:white; font-size: 25px'>如果您选择继续实验，则表示您已经清楚两份知情同意书的内容并同意。</p>
   <p><div style = ""color: pink;font-size:30px;"">请确保您记得day0的实验编号，您将在本次实验输入该编号，若您忘记，请咨询实验员后作答。</div></p>
   <p><div style = ""color:lightblue;font-size:25px;"">请您尽可能认真地作答，我们将依据您在各问卷和按键任务中的作答质量发放报酬。</div></p>
   <p> <div style = ""color: green""><按空格键至下页></div> </p>
   "," ","html-keyboard-response","0","2226","0.0-0.0","3","2","2","1","3","4","2","5","5","5","4","0","1","0","2","0","1","1","2","4","4","5","5","5","4","4","5","4","5","6","5","7","7","6","5","8","5","6","5","2","3","2","2","3","5","1","6","3","1","3","3","6","3","2","3","4","4","3","2","2","5","3","3","2","5","5","6","7","7","6","5","5","4","2","5","3","7","3","4","802285339656986625","李","103","Female","[""坏我"",""好我"",""坏她"",""好她""]","[""弱我"",""强我"",""弱她"",""强她""]","","","","","","","","","","","","","","","","","","","","","","","","","","","","","","","","","","","","","","",""
"","","","call-function","1","2228","0.0-1.0-0.0","3","2","2","1","3","4","2","5","5","5","4","0","1","0","2","0","1","1","2","4","4","5","5","5","4","4","5","4","5","6","5","7","7","6","5","8","5","6","5","2","3","2","2","3","5","1","6","3","1","3","3","6","3","2","3","4","4","3","2","2","5","3","3","2","5","5","6","7","7","6","5","5","4","2","5","3","7","3","4","802285339656986625","李","103","Female","[""坏我"",""好我"",""坏她"",""好她""]","[""弱我"",""强我"",""弱她"",""强她""]","","","","","","","","","","","","","","","","","","","","","","","","","","","","","","","","","","","","","","",""
"13621","","[{""name"":""Sex"",""value"":""1""},{""name"":""friend_name"",""value"":""李""},{""name"":""ParticipantID"",""value"":""103""}]","survey-html-form","2","15852","0.0-1.0-1.0","3","2","2","1","3","4","2","5","5","5","4","0","1","0","2","0","1","1","2","4","4","5","5","5","4","4","5","4","5","6","5","7","7","6","5","8","5","6","5","2","3","2","2","3","5","1","6","3","1","3","3","6","3","2","3","4","4","3","2","2","5","3","3","2","5","5","6","7","7","6","5","5","4","2","5","3","7","3","4","802285339656986625","李","103","Female","[""坏我"",""好我"",""坏她"",""好她""]","[""弱我"",""强我"",""弱她"",""强她""]","","","","","","","","","","","","","","","","","","","","","","","","","","","","","","","","","","","","","","",""
"","","","preload","3","16231","0.0-2.0","3","2","2","1","3","4","2","5","5","5","4","0","1","0","2","0","1","1","2","4","4","5","5","5","4","4","5","4","5","6","5","7","7","6","5","8","5","6","5","2","3","2","2","3","5","1","6","3","1","3","3","6","3","2","3","4","4","3","2","2","5","3","3","2","5","5","6","7","7","6","5","5","4","2","5","3","7","3","4","802285339656986625","李","103","Female","[""坏我"",""好我"",""坏她"",""好她""]","[""弱我"",""强我"",""弱她"",""强她""]","","true","false","[]","[]","[]","","","","","","","","","","","","","","","","","","","","","","","","","","","","","","","","",""
"","","","fullscreen","4","18250","0.0-3.0","3","2","2","1","3","4","2","5","5","5","4","0","1","0","2","0","1","1","2","4","4","5","5","5","4","4","5","4","5","6","5","7","7","6","5","8","5","6","5","2","3","2","2","3","5","1","6","3","1","3","3","6","3","2","3","4","4","3","2","2","5","3","3","2","5","5","6","7","7","6","5","5","4","2","5","3","7","3","4","802285339656986625","李","103","Female","[""坏我"",""好我"",""坏她"",""好她""]","[""弱我"",""强我"",""弱她"",""强她""]","","true","","","","","","","","","","","","","","","","","","","","","","","","","","","","","","","","","","","","",""
"6937.0899999994435","","{""Q01"":""3"",""Q02"":""2"",""Q03"":""2"",""Q04"":""1"",""Q05"":""3""}","survey-template","5","25190","0.0-4.0","3","2","2","1","3","4","2","5","5","5","4","0","1","0","2","0","1","1","2","4","4","5","5","5","4","4","5","4","5","6","5","7","7","6","5","8","5","6","5","2","3","2","2","3","5","1","6","3","1","3","3","6","3","2","3","4","4","3","2","2","5","3","3","2","5","5","6","7","7","6","5","5","4","2","5","3","7","3","4","802285339656986625","李","103","Female","[""坏我"",""好我"",""坏她"",""好她""]","[""弱我"",""强我"",""弱她"",""强她""]","","","","","","","","{""Q01"":""3"",""Q02"":""2"",""Q03"":""2"",""Q04"":""1"",""Q05"":""3""}","[0,1,2,3,4]","[""Q01"",""Q02"",""Q03"",""Q04"",""Q05""]","[1782.6900000000023,2855.555000001914,3918.9100000003236,4966.764999997395,6126.859999996668]","[]","[1782.6900000000023,2855.555000001914,3918.9100000003236,4966.764999997395,6126.859999996668,6935.704999996233]","0.4","0.5","0","","","","","","","","","","","","","","","","","","","","","","",""
"18658.72500000114","","{""Q01"":""4"",""Q02"":""2"",""Q03"":""5"",""Q04"":""5"",""Q05"":""5"",""Q06"":""4""}","survey-template","6","43855","0.0-5.0","3","2","2","1","3","4","2","5","5","5","4","0","1","0","2","0","1","1","2","4","4","5","5","5","4","4","5","4","5","6","5","7","7","6","5","8","5","6","5","2","3","2","2","3","5","1","6","3","1","3","3","6","3","2","3","4","4","3","2","2","5","3","3","2","5","5","6","7","7","6","5","5","4","2","5","3","7","3","4","802285339656986625","李","103","Female","[""坏我"",""好我"",""坏她"",""好她""]","[""弱我"",""强我"",""弱她"",""强她""]","","","","","","","","{""Q01"":""4"",""Q02"":""2"",""Q03"":""5"",""Q04"":""5"",""Q05"":""5"",""Q06"":""4""}","[0,1,2,3,4,5]","[""Q01"",""Q02"",""Q03"",""Q04"",""Q05"",""Q06""]","[1952.644999997574,4010.9000000011292,10944.62499999645,13248.33999999828,14113.440000000992,15841.7449999979]","[]","[1952.644999997574,4010.9000000011292,10944.62499999645,13248.33999999828,14113.440000000992,15841.7449999979,17402.589999997872,18656.725000000733]","0.5","0.4","0","","","","","","","","","","","","","","","","","","","","","","",""
"19621.879999998782","","{""Q01"":""0"",""Q02"":""1"",""Q03"":""0"",""Q04"":""2"",""Q05"":""0"",""Q06"":""1"",""Q07"":""1"",""Q08"":""2""}","survey-template","7","63486","0.0-6.0","3","2","2","1","3","4","2","5","5","5","4","0","1","0","2","0","1","1","2","4","4","5","5","5","4","4","5","4","5","6","5","7","7","6","5","8","5","6","5","2","3","2","2","3","5","1","6","3","1","3","3","6","3","2","3","4","4","3","2","2","5","3","3","2","5","5","6","7","7","6","5","5","4","2","5","3","7","3","4","802285339656986625","李","103","Female","[""坏我"",""好我"",""坏她"",""好她""]","[""弱我"",""强我"",""弱她"",""强她""]","","","","","","","","{""Q01"":""0"",""Q02"":""1"",""Q03"":""0"",""Q04"":""2"",""Q05"":""0"",""Q06"":""1"",""Q07"":""1"",""Q08"":""2""}","[0,1,2,3,4,5,6,7]","[""Q01"",""Q02"",""Q03"",""Q04"",""Q05"",""Q06"",""Q07"",""Q08""]","[1860.6249999938882,3140.749999998661,7599.414999996952,9267.939999997907,11181.809999994584,12859.84499999904,15612.82499999652,19164.34499999741]","[]","[1860.6249999938882,3140.749999998661,7599.414999996952,9267.939999997907,11181.809999994584,12859.84499999904,15612.82499999652,19164.34499999741,19620.119999999588]","0.375","0.5714285714285714","0","","","","","","","","","","","","","","","","","","","","","","",""
"53785","","","instructions","8","117275","0.0-7.0","3","2","2","1","3","4","2","5","5","5","4","0","1","0","2","0","1","1","2","4","4","5","5","5","4","4","5","4","5","6","5","7","7","6","5","8","5","6","5","2","3","2","2","3","5","1","6","3","1","3","3","6","3","2","3","4","4","3","2","2","5","3","3","2","5","5","6","7","7","6","5","5","4","2","5","3","7","3","4","802285339656986625","李","103","Female","[""坏我"",""好我"",""坏她"",""好她""]","[""弱我"",""强我"",""弱她"",""强她""]","","","","","","","","","","","","","","","","","[{""page_index"":0,""viewing_time"":53784}]","","","","","","","","","","","","","","","","","","","","","",""
"126766","","","instructions","9","244043","0.0-8.0-0.0-0.0","3","2","2","1","3","4","2","5","5","5","4","0","1","0","2","0","1","1","2","4","4","5","5","5","4","4","5","4","5","6","5","7","7","6","5","8","5","6","5","2","3","2","2","3","5","1","6","3","1","3","3","6","3","2","3","4","4","3","2","2","5","3","3","2","5","5","6","7","7","6","5","5","4","2","5","3","7","3","4","802285339656986625","李","103","Female","[""坏我"",""好我"",""坏她"",""好她""]","[""弱我"",""强我"",""弱她"",""强她""]","","","","","","","","","","","","","","","","","[{""page_index"":0,""viewing_time"":1189},{""page_index"":1,""viewing_time"":121225},{""page_index"":2,""viewing_time"":2176},{""page_index"":3,""viewing_time"":2176}]","","","","","","","","","","","","","","","","","","","","","",""
"696","","f","psychophysics","10","245744","0.0-8.0-0.0-1.0-0.0-0.0","3","2","2","1","3","4","2","5","5","5","4","0","1","0","2","0","1","1","2","4","4","5","5","5","4","4","5","4","5","6","5","7","7","6","5","8","5","6","5","2","3","2","2","3","5","1","6","3","1","3","3","6","3","2","3","4","4","3","2","2","5","3","3","2","5","5","6","7","7","6","5","5","4","2","5","3","7","3","4","802285339656986625","李","103","Female","[""坏我"",""好我"",""坏她"",""好她""]","[""弱我"",""强我"",""弱她"",""强她""]","","","","","","","","nonmatch","","","","","","","","","","key","f","16.66777999999991","853.3333333333334","476","j","false","match","img/trapezoid.png","好我","好我","prac_ALT2_moral","practice_moral","","","","","","","","",""
"null","<span style='color:red; font-size: 70px;'>错误! </span>","null","html-keyboard-response","11","246246","0.0-8.0-0.0-1.0-0.0-1.0","3","2","2","1","3","4","2","5","5","5","4","0","1","0","2","0","1","1","2","4","4","5","5","5","4","4","5","4","5","6","5","7","7","6","5","8","5","6","5","2","3","2","2","3","5","1","6","3","1","3","3","6","3","2","3","4","4","3","2","2","5","3","3","2","5","5","6","7","7","6","5","5","4","2","5","3","7","3","4","802285339656986625","李","103","Female","[""坏我"",""好我"",""坏她"",""好她""]","[""弱我"",""强我"",""弱她"",""强她""]","","","","","","","","","","","","","","","","","","","","","","","","","","","","","","feedback_test","","","","","","","","",""
"764","","j","psychophysics","12","248011","0.0-8.0-0.0-1.0-0.0-0.1","3","2","2","1","3","4","2","5","5","5","4","0","1","0","2","0","1","1","2","4","4","5","5","5","4","4","5","4","5","6","5","7","7","6","5","8","5","6","5","2","3","2","2","3","5","1","6","3","1","3","3","6","3","2","3","4","4","3","2","2","5","3","3","2","5","5","6","7","7","6","5","5","4","2","5","3","7","3","4","802285339656986625","李","103","Female","[""坏我"",""好我"",""坏她"",""好她""]","[""弱我"",""强我"",""弱她"",""强她""]","","","","","","","","match","","","","","","","","","","key","j","16.67027884615387","853.3333333333334","476","j","true","match","img/trapezoid.png","好我","好我","prac_ALT2_moral","practice_moral","","","","","","","","",""
"null","<span style='color:GreenYellow; font-size: 70px;'>正确! </span>","null","html-keyboard-response","13","248513","0.0-8.0-0.0-1.0-0.0-1.1","3","2","2","1","3","4","2","5","5","5","4","0","1","0","2","0","1","1","2","4","4","5","5","5","4","4","5","4","5","6","5","7","7","6","5","8","5","6","5","2","3","2","2","3","5","1","6","3","1","3","3","6","3","2","3","4","4","3","2","2","5","3","3","2","5","5","6","7","7","6","5","5","4","2","5","3","7","3","4","802285339656986625","李","103","Female","[""坏我"",""好我"",""坏她"",""好她""]","[""弱我"",""强我"",""弱她"",""强她""]","","","","","","","","","","","","","","","","","","","","","","","","","","","","","","feedback_test","","","","","","","","",""
"722","","f","psychophysics","14","250237","0.0-8.0-0.0-1.0-0.0-0.2","3","2","2","1","3","4","2","5","5","5","4","0","1","0","2","0","1","1","2","4","4","5","5","5","4","4","5","4","5","6","5","7","7","6","5","8","5","6","5","2","3","2","2","3","5","1","6","3","1","3","3","6","3","2","3","4","4","3","2","2","5","3","3","2","5","5","6","7","7","6","5","5","4","2","5","3","7","3","4","802285339656986625","李","103","Female","[""坏我"",""好我"",""坏她"",""好她""]","[""弱我"",""强我"",""弱她"",""强她""]","","","","","","","","nonmatch","","","","","","","","","","key","f","16.670637254901948","853.3333333333334","476","f","true","nonmatch","img/ellipse.png","好她","坏我","prac_ALT2_moral","practice_moral","","","","","","","","",""
"null","<span style='color:GreenYellow; font-size: 70px;'>正确! </span>","null","html-keyboard-response","15","250740","0.0-8.0-0.0-1.0-0.0-1.2","3","2","2","1","3","4","2","5","5","5","4","0","1","0","2","0","1","1","2","4","4","5","5","5","4","4","5","4","5","6","5","7","7","6","5","8","5","6","5","2","3","2","2","3","5","1","6","3","1","3","3","6","3","2","3","4","4","3","2","2","5","3","3","2","5","5","6","7","7","6","5","5","4","2","5","3","7","3","4","802285339656986625","李","103","Female","[""坏我"",""好我"",""坏她"",""好她""]","[""弱我"",""强我"",""弱她"",""强她""]","","","","","","","","","","","","","","","","","","","","","","","","","","","","","","feedback_test","","","","","","","","",""
"828","","f","psychophysics","16","252572","0.0-8.0-0.0-1.0-0.0-0.3","3","2","2","1","3","4","2","5","5","5","4","0","1","0","2","0","1","1","2","4","4","5","5","5","4","4","5","4","5","6","5","7","7","6","5","8","5","6","5","2","3","2","2","3","5","1","6","3","1","3","3","6","3","2","3","4","4","3","2","2","5","3","3","2","5","5","6","7","7","6","5","5","4","2","5","3","7","3","4","802285339656986625","李","103","Female","[""坏我"",""好我"",""坏她"",""好她""]","[""弱我"",""强我"",""弱她"",""强她""]","","","","","","","","nonmatch","","","","","","","","","","key","f","16.82931775700956","853.3333333333334","476","f","true","nonmatch","img/trapezoid.png","坏我","好我","prac_ALT2_moral","practice_moral","","","","","","","","",""
"null","<span style='color:GreenYellow; font-size: 70px;'>正确! </span>","null","html-keyboard-response","17","253074","0.0-8.0-0.0-1.0-0.0-1.3","3","2","2","1","3","4","2","5","5","5","4","0","1","0","2","0","1","1","2","4","4","5","5","5","4","4","5","4","5","6","5","7","7","6","5","8","5","6","5","2","3","2","2","3","5","1","6","3","1","3","3","6","3","2","3","4","4","3","2","2","5","3","3","2","5","5","6","7","7","6","5","5","4","2","5","3","7","3","4","802285339656986625","李","103","Female","[""坏我"",""好我"",""坏她"",""好她""]","[""弱我"",""强我"",""弱她"",""强她""]","","","","","","","","","","","","","","","","","","","","","","","","","","","","","","feedback_test","","","","","","","","",""
"699","","j","psychophysics","18","254775","0.0-8.0-0.0-1.0-0.0-0.4","3","2","2","1","3","4","2","5","5","5","4","0","1","0","2","0","1","1","2","4","4","5","5","5","4","4","5","4","5","6","5","7","7","6","5","8","5","6","5","2","3","2","2","3","5","1","6","3","1","3","3","6","3","2","3","4","4","3","2","2","5","3","3","2","5","5","6","7","7","6","5","5","4","2","5","3","7","3","4","802285339656986625","李","103","Female","[""坏我"",""好我"",""坏她"",""好她""]","[""弱我"",""强我"",""弱她"",""强她""]","","","","","","","","match","","","","","","","","","","key","j","16.613386138613766","853.3333333333334","476","j","true","match","img/pentagon.png","好她","好她","prac_ALT2_moral","practice_moral","","","","","","","","",""
"null","<span style='color:GreenYellow; font-size: 70px;'>正确! </span>","null","html-keyboard-response","19","255277","0.0-8.0-0.0-1.0-0.0-1.4","3","2","2","1","3","4","2","5","5","5","4","0","1","0","2","0","1","1","2","4","4","5","5","5","4","4","5","4","5","6","5","7","7","6","5","8","5","6","5","2","3","2","2","3","5","1","6","3","1","3","3","6","3","2","3","4","4","3","2","2","5","3","3","2","5","5","6","7","7","6","5","5","4","2","5","3","7","3","4","802285339656986625","李","103","Female","[""坏我"",""好我"",""坏她"",""好她""]","[""弱我"",""强我"",""弱她"",""强她""]","","","","","","","","","","","","","","","","","","","","","","","","","","","","","","feedback_test","","","","","","","","",""
"706","","f","psychophysics","20","256985","0.0-8.0-0.0-1.0-0.0-0.5","3","2","2","1","3","4","2","5","5","5","4","0","1","0","2","0","1","1","2","4","4","5","5","5","4","4","5","4","5","6","5","7","7","6","5","8","5","6","5","2","3","2","2","3","5","1","6","3","1","3","3","6","3","2","3","4","4","3","2","2","5","3","3","2","5","5","6","7","7","6","5","5","4","2","5","3","7","3","4","802285339656986625","李","103","Female","[""坏我"",""好我"",""坏她"",""好她""]","[""弱我"",""强我"",""弱她"",""强她""]","","","","","","","","nonmatch","","","","","","","","","","key","f","16.664851485148457","853.3333333333334","476","f","true","nonmatch","img/ellipse.png","好我","坏我","prac_ALT2_moral","practice_moral","","","","","","","","",""
"null","<span style='color:GreenYellow; font-size: 70px;'>正确! </span>","null","html-keyboard-response","21","257489","0.0-8.0-0.0-1.0-0.0-1.5","3","2","2","1","3","4","2","5","5","5","4","0","1","0","2","0","1","1","2","4","4","5","5","5","4","4","5","4","5","6","5","7","7","6","5","8","5","6","5","2","3","2","2","3","5","1","6","3","1","3","3","6","3","2","3","4","4","3","2","2","5","3","3","2","5","5","6","7","7","6","5","5","4","2","5","3","7","3","4","802285339656986625","李","103","Female","[""坏我"",""好我"",""坏她"",""好她""]","[""弱我"",""强我"",""弱她"",""强她""]","","","","","","","","","","","","","","","","","","","","","","","","","","","","","","feedback_test","","","","","","","","",""
"590","","j","psychophysics","22","259082","0.0-8.0-0.0-1.0-0.0-0.6","3","2","2","1","3","4","2","5","5","5","4","0","1","0","2","0","1","1","2","4","4","5","5","5","4","4","5","4","5","6","5","7","7","6","5","8","5","6","5","2","3","2","2","3","5","1","6","3","1","3","3","6","3","2","3","4","4","3","2","2","5","3","3","2","5","5","6","7","7","6","5","5","4","2","5","3","7","3","4","802285339656986625","李","103","Female","[""坏我"",""好我"",""坏她"",""好她""]","[""弱我"",""强我"",""弱她"",""强她""]","","","","","","","","match","","","","","","","","","","key","j","16.662500000000247","853.3333333333334","476","j","true","match","img/ellipse.png","坏我","坏我","prac_ALT2_moral","practice_moral","","","","","","","","",""
"null","<span style='color:GreenYellow; font-size: 70px;'>正确! </span>","null","html-keyboard-response","23","259584","0.0-8.0-0.0-1.0-0.0-1.6","3","2","2","1","3","4","2","5","5","5","4","0","1","0","2","0","1","1","2","4","4","5","5","5","4","4","5","4","5","6","5","7","7","6","5","8","5","6","5","2","3","2","2","3","5","1","6","3","1","3","3","6","3","2","3","4","4","3","2","2","5","3","3","2","5","5","6","7","7","6","5","5","4","2","5","3","7","3","4","802285339656986625","李","103","Female","[""坏我"",""好我"",""坏她"",""好她""]","[""弱我"",""强我"",""弱她"",""强她""]","","","","","","","","","","","","","","","","","","","","","","","","","","","","","","feedback_test","","","","","","","","",""
"786","","f","psychophysics","24","261372","0.0-8.0-0.0-1.0-0.0-0.7","3","2","2","1","3","4","2","5","5","5","4","0","1","0","2","0","1","1","2","4","4","5","5","5","4","4","5","4","5","6","5","7","7","6","5","8","5","6","5","2","3","2","2","3","5","1","6","3","1","3","3","6","3","2","3","4","4","3","2","2","5","3","3","2","5","5","6","7","7","6","5","5","4","2","5","3","7","3","4","802285339656986625","李","103","Female","[""坏我"",""好我"",""坏她"",""好她""]","[""弱我"",""强我"",""弱她"",""强她""]","","","","","","","","nonmatch","","","","","","","","","","key","f","16.66193396226395","853.3333333333334","476","f","true","nonmatch","img/square.png","好她","坏她","prac_ALT2_moral","practice_moral","","","","","","","","",""
"null","<span style='color:GreenYellow; font-size: 70px;'>正确! </span>","null","html-keyboard-response","25","261874","0.0-8.0-0.0-1.0-0.0-1.7","3","2","2","1","3","4","2","5","5","5","4","0","1","0","2","0","1","1","2","4","4","5","5","5","4","4","5","4","5","6","5","7","7","6","5","8","5","6","5","2","3","2","2","3","5","1","6","3","1","3","3","6","3","2","3","4","4","3","2","2","5","3","3","2","5","5","6","7","7","6","5","5","4","2","5","3","7","3","4","802285339656986625","李","103","Female","[""坏我"",""好我"",""坏她"",""好她""]","[""弱我"",""强我"",""弱她"",""强她""]","","","","","","","","","","","","","","","","","","","","","","","","","","","","","","feedback_test","","","","","","","","",""
"690","","f","psychophysics","26","263567","0.0-8.0-0.0-1.0-0.0-0.8","3","2","2","1","3","4","2","5","5","5","4","0","1","0","2","0","1","1","2","4","4","5","5","5","4","4","5","4","5","6","5","7","7","6","5","8","5","6","5","2","3","2","2","3","5","1","6","3","1","3","3","6","3","2","3","4","4","3","2","2","5","3","3","2","5","5","6","7","7","6","5","5","4","2","5","3","7","3","4","802285339656986625","李","103","Female","[""坏我"",""好我"",""坏她"",""好她""]","[""弱我"",""强我"",""弱她"",""强她""]","","","","","","","","nonmatch","","","","","","","","","","key","f","16.66277000000002","853.3333333333334","476","f","true","nonmatch","img/ellipse.png","坏她","坏我","prac_ALT2_moral","practice_moral","","","","","","","","",""
"null","<span style='color:GreenYellow; font-size: 70px;'>正确! </span>","null","html-keyboard-response","27","264069","0.0-8.0-0.0-1.0-0.0-1.8","3","2","2","1","3","4","2","5","5","5","4","0","1","0","2","0","1","1","2","4","4","5","5","5","4","4","5","4","5","6","5","7","7","6","5","8","5","6","5","2","3","2","2","3","5","1","6","3","1","3","3","6","3","2","3","4","4","3","2","2","5","3","3","2","5","5","6","7","7","6","5","5","4","2","5","3","7","3","4","802285339656986625","李","103","Female","[""坏我"",""好我"",""坏她"",""好她""]","[""弱我"",""强我"",""弱她"",""强她""]","","","","","","","","","","","","","","","","","","","","","","","","","","","","","","feedback_test","","","","","","","","",""
"627","","f","psychophysics","28","265698","0.0-8.0-0.0-1.0-0.0-0.9","3","2","2","1","3","4","2","5","5","5","4","0","1","0","2","0","1","1","2","4","4","5","5","5","4","4","5","4","5","6","5","7","7","6","5","8","5","6","5","2","3","2","2","3","5","1","6","3","1","3","3","6","3","2","3","4","4","3","2","2","5","3","3","2","5","5","6","7","7","6","5","5","4","2","5","3","7","3","4","802285339656986625","李","103","Female","[""坏我"",""好我"",""坏她"",""好她""]","[""弱我"",""强我"",""弱她"",""强她""]","","","","","","","","nonmatch","","","","","","","","","","key","f","16.648520833333652","853.3333333333334","476","f","true","nonmatch","img/square.png","坏我","坏她","prac_ALT2_moral","practice_moral","","","","","","","","",""
"null","<span style='color:GreenYellow; font-size: 70px;'>正确! </span>","null","html-keyboard-response","29","266199","0.0-8.0-0.0-1.0-0.0-1.9","3","2","2","1","3","4","2","5","5","5","4","0","1","0","2","0","1","1","2","4","4","5","5","5","4","4","5","4","5","6","5","7","7","6","5","8","5","6","5","2","3","2","2","3","5","1","6","3","1","3","3","6","3","2","3","4","4","3","2","2","5","3","3","2","5","5","6","7","7","6","5","5","4","2","5","3","7","3","4","802285339656986625","李","103","Female","[""坏我"",""好我"",""坏她"",""好她""]","[""弱我"",""强我"",""弱她"",""强她""]","","","","","","","","","","","","","","","","","","","","","","","","","","","","","","feedback_test","","","","","","","","",""
"749","","f","psychophysics","30","267950","0.0-8.0-0.0-1.0-0.0-0.10","3","2","2","1","3","4","2","5","5","5","4","0","1","0","2","0","1","1","2","4","4","5","5","5","4","4","5","4","5","6","5","7","7","6","5","8","5","6","5","2","3","2","2","3","5","1","6","3","1","3","3","6","3","2","3","4","4","3","2","2","5","3","3","2","5","5","6","7","7","6","5","5","4","2","5","3","7","3","4","802285339656986625","李","103","Female","[""坏我"",""好我"",""坏她"",""好她""]","[""弱我"",""强我"",""弱她"",""强她""]","","","","","","","","nonmatch","","","","","","","","","","key","f","16.645776699029263","853.3333333333334","476","f","true","nonmatch","img/pentagon.png","坏我","好她","prac_ALT2_moral","practice_moral","","","","","","","","",""
"null","<span style='color:GreenYellow; font-size: 70px;'>正确! </span>","null","html-keyboard-response","31","268452","0.0-8.0-0.0-1.0-0.0-1.10","3","2","2","1","3","4","2","5","5","5","4","0","1","0","2","0","1","1","2","4","4","5","5","5","4","4","5","4","5","6","5","7","7","6","5","8","5","6","5","2","3","2","2","3","5","1","6","3","1","3","3","6","3","2","3","4","4","3","2","2","5","3","3","2","5","5","6","7","7","6","5","5","4","2","5","3","7","3","4","802285339656986625","李","103","Female","[""坏我"",""好我"",""坏她"",""好她""]","[""弱我"",""强我"",""弱她"",""强她""]","","","","","","","","","","","","","","","","","","","","","","","","","","","","","","feedback_test","","","","","","","","",""
"710","","j","psychophysics","32","270165","0.0-8.0-0.0-1.0-0.0-0.11","3","2","2","1","3","4","2","5","5","5","4","0","1","0","2","0","1","1","2","4","4","5","5","5","4","4","5","4","5","6","5","7","7","6","5","8","5","6","5","2","3","2","2","3","5","1","6","3","1","3","3","6","3","2","3","4","4","3","2","2","5","3","3","2","5","5","6","7","7","6","5","5","4","2","5","3","7","3","4","802285339656986625","李","103","Female","[""坏我"",""好我"",""坏她"",""好她""]","[""弱我"",""强我"",""弱她"",""强她""]","","","","","","","","match","","","","","","","","","","key","j","16.651881188118487","853.3333333333334","476","j","true","match","img/ellipse.png","坏我","坏我","prac_ALT2_moral","practice_moral","","","","","","","","",""
"null","<span style='color:GreenYellow; font-size: 70px;'>正确! </span>","null","html-keyboard-response","33","270667","0.0-8.0-0.0-1.0-0.0-1.11","3","2","2","1","3","4","2","5","5","5","4","0","1","0","2","0","1","1","2","4","4","5","5","5","4","4","5","4","5","6","5","7","7","6","5","8","5","6","5","2","3","2","2","3","5","1","6","3","1","3","3","6","3","2","3","4","4","3","2","2","5","3","3","2","5","5","6","7","7","6","5","5","4","2","5","3","7","3","4","802285339656986625","李","103","Female","[""坏我"",""好我"",""坏她"",""好她""]","[""弱我"",""强我"",""弱她"",""强她""]","","","","","","","","","","","","","","","","","","","","","","","","","","","","","","feedback_test","","","","","","","","",""
"558","","j","psychophysics","34","272227","0.0-8.0-0.0-1.0-0.0-0.12","3","2","2","1","3","4","2","5","5","5","4","0","1","0","2","0","1","1","2","4","4","5","5","5","4","4","5","4","5","6","5","7","7","6","5","8","5","6","5","2","3","2","2","3","5","1","6","3","1","3","3","6","3","2","3","4","4","3","2","2","5","3","3","2","5","5","6","7","7","6","5","5","4","2","5","3","7","3","4","802285339656986625","李","103","Female","[""坏我"",""好我"",""坏她"",""好她""]","[""弱我"",""强我"",""弱她"",""强她""]","","","","","","","","match","","","","","","","","","","key","j","16.65638043478311","853.3333333333334","476","j","true","match","img/ellipse.png","坏我","坏我","prac_ALT2_moral","practice_moral","","","","","","","","",""
"null","<span style='color:GreenYellow; font-size: 70px;'>正确! </span>","null","html-keyboard-response","35","272728","0.0-8.0-0.0-1.0-0.0-1.12","3","2","2","1","3","4","2","5","5","5","4","0","1","0","2","0","1","1","2","4","4","5","5","5","4","4","5","4","5","6","5","7","7","6","5","8","5","6","5","2","3","2","2","3","5","1","6","3","1","3","3","6","3","2","3","4","4","3","2","2","5","3","3","2","5","5","6","7","7","6","5","5","4","2","5","3","7","3","4","802285339656986625","李","103","Female","[""坏我"",""好我"",""坏她"",""好她""]","[""弱我"",""强我"",""弱她"",""强她""]","","","","","","","","","","","","","","","","","","","","","","","","","","","","","","feedback_test","","","","","","","","",""
"755","","j","psychophysics","36","274485","0.0-8.0-0.0-1.0-0.0-0.13","3","2","2","1","3","4","2","5","5","5","4","0","1","0","2","0","1","1","2","4","4","5","5","5","4","4","5","4","5","6","5","7","7","6","5","8","5","6","5","2","3","2","2","3","5","1","6","3","1","3","3","6","3","2","3","4","4","3","2","2","5","3","3","2","5","5","6","7","7","6","5","5","4","2","5","3","7","3","4","802285339656986625","李","103","Female","[""坏我"",""好我"",""坏她"",""好她""]","[""弱我"",""强我"",""弱她"",""强她""]","","","","","","","","match","","","","","","","","","","key","j","16.652375000000085","853.3333333333334","476","j","true","match","img/trapezoid.png","好我","好我","prac_ALT2_moral","practice_moral","","","","","","","","",""
"null","<span style='color:GreenYellow; font-size: 70px;'>正确! </span>","null","html-keyboard-response","37","274987","0.0-8.0-0.0-1.0-0.0-1.13","3","2","2","1","3","4","2","5","5","5","4","0","1","0","2","0","1","1","2","4","4","5","5","5","4","4","5","4","5","6","5","7","7","6","5","8","5","6","5","2","3","2","2","3","5","1","6","3","1","3","3","6","3","2","3","4","4","3","2","2","5","3","3","2","5","5","6","7","7","6","5","5","4","2","5","3","7","3","4","802285339656986625","李","103","Female","[""坏我"",""好我"",""坏她"",""好她""]","[""弱我"",""强我"",""弱她"",""强她""]","","","","","","","","","","","","","","","","","","","","","","","","","","","","","","feedback_test","","","","","","","","",""
"564","","j","psychophysics","38","276553","0.0-8.0-0.0-1.0-0.0-0.14","3","2","2","1","3","4","2","5","5","5","4","0","1","0","2","0","1","1","2","4","4","5","5","5","4","4","5","4","5","6","5","7","7","6","5","8","5","6","5","2","3","2","2","3","5","1","6","3","1","3","3","6","3","2","3","4","4","3","2","2","5","3","3","2","5","5","6","7","7","6","5","5","4","2","5","3","7","3","4","802285339656986625","李","103","Female","[""坏我"",""好我"",""坏她"",""好她""]","[""弱我"",""强我"",""弱她"",""强她""]","","","","","","","","match","","","","","","","","","","key","j","16.671456521738868","853.3333333333334","476","j","true","match","img/pentagon.png","好她","好她","prac_ALT2_moral","practice_moral","","","","","","","","",""
"null","<span style='color:GreenYellow; font-size: 70px;'>正确! </span>","null","html-keyboard-response","39","277056","0.0-8.0-0.0-1.0-0.0-1.14","3","2","2","1","3","4","2","5","5","5","4","0","1","0","2","0","1","1","2","4","4","5","5","5","4","4","5","4","5","6","5","7","7","6","5","8","5","6","5","2","3","2","2","3","5","1","6","3","1","3","3","6","3","2","3","4","4","3","2","2","5","3","3","2","5","5","6","7","7","6","5","5","4","2","5","3","7","3","4","802285339656986625","李","103","Female","[""坏我"",""好我"",""坏她"",""好她""]","[""弱我"",""强我"",""弱她"",""强她""]","","","","","","","","","","","","","","","","","","","","","","","","","","","","","","feedback_test","","","","","","","","",""
"541","","j","psychophysics","40","278600","0.0-8.0-0.0-1.0-0.0-0.15","3","2","2","1","3","4","2","5","5","5","4","0","1","0","2","0","1","1","2","4","4","5","5","5","4","4","5","4","5","6","5","7","7","6","5","8","5","6","5","2","3","2","2","3","5","1","6","3","1","3","3","6","3","2","3","4","4","3","2","2","5","3","3","2","5","5","6","7","7","6","5","5","4","2","5","3","7","3","4","802285339656986625","李","103","Female","[""坏我"",""好我"",""坏她"",""好她""]","[""弱我"",""强我"",""弱她"",""强她""]","","","","","","","","match","","","","","","","","","","key","j","16.67234065934087","853.3333333333334","476","j","true","match","img/square.png","坏她","坏她","prac_ALT2_moral","practice_moral","","","","","","","","",""
"null","<span style='color:GreenYellow; font-size: 70px;'>正确! </span>","null","html-keyboard-response","41","279103","0.0-8.0-0.0-1.0-0.0-1.15","3","2","2","1","3","4","2","5","5","5","4","0","1","0","2","0","1","1","2","4","4","5","5","5","4","4","5","4","5","6","5","7","7","6","5","8","5","6","5","2","3","2","2","3","5","1","6","3","1","3","3","6","3","2","3","4","4","3","2","2","5","3","3","2","5","5","6","7","7","6","5","5","4","2","5","3","7","3","4","802285339656986625","李","103","Female","[""坏我"",""好我"",""坏她"",""好她""]","[""弱我"",""强我"",""弱她"",""强她""]","","","","","","","","","","","","","","","","","","","","","","","","","","","","","","feedback_test","","","","","","","","",""
"920","","f","psychophysics","42","281025","0.0-8.0-0.0-1.0-0.0-0.16","3","2","2","1","3","4","2","5","5","5","4","0","1","0","2","0","1","1","2","4","4","5","5","5","4","4","5","4","5","6","5","7","7","6","5","8","5","6","5","2","3","2","2","3","5","1","6","3","1","3","3","6","3","2","3","4","4","3","2","2","5","3","3","2","5","5","6","7","7","6","5","5","4","2","5","3","7","3","4","802285339656986625","李","103","Female","[""坏我"",""好我"",""坏她"",""好她""]","[""弱我"",""强我"",""弱她"",""强她""]","","","","","","","","nonmatch","","","","","","","","","","key","f","16.670982456140592","853.3333333333334","476","f","true","nonmatch","img/trapezoid.png","坏她","好我","prac_ALT2_moral","practice_moral","","","","","","","","",""
"null","<span style='color:GreenYellow; font-size: 70px;'>正确! </span>","null","html-keyboard-response","43","281526","0.0-8.0-0.0-1.0-0.0-1.16","3","2","2","1","3","4","2","5","5","5","4","0","1","0","2","0","1","1","2","4","4","5","5","5","4","4","5","4","5","6","5","7","7","6","5","8","5","6","5","2","3","2","2","3","5","1","6","3","1","3","3","6","3","2","3","4","4","3","2","2","5","3","3","2","5","5","6","7","7","6","5","5","4","2","5","3","7","3","4","802285339656986625","李","103","Female","[""坏我"",""好我"",""坏她"",""好她""]","[""弱我"",""强我"",""弱她"",""强她""]","","","","","","","","","","","","","","","","","","","","","","","","","","","","","","feedback_test","","","","","","","","",""
"685","","f","psychophysics","44","283212","0.0-8.0-0.0-1.0-0.0-0.17","3","2","2","1","3","4","2","5","5","5","4","0","1","0","2","0","1","1","2","4","4","5","5","5","4","4","5","4","5","6","5","7","7","6","5","8","5","6","5","2","3","2","2","3","5","1","6","3","1","3","3","6","3","2","3","4","4","3","2","2","5","3","3","2","5","5","6","7","7","6","5","5","4","2","5","3","7","3","4","802285339656986625","李","103","Female","[""坏我"",""好我"",""坏她"",""好她""]","[""弱我"",""强我"",""弱她"",""强她""]","","","","","","","","nonmatch","","","","","","","","","","key","f","16.67273999999976","853.3333333333334","476","f","true","nonmatch","img/pentagon.png","坏她","好她","prac_ALT2_moral","practice_moral","","","","","","","","",""
"null","<span style='color:GreenYellow; font-size: 70px;'>正确! </span>","null","html-keyboard-response","45","283714","0.0-8.0-0.0-1.0-0.0-1.17","3","2","2","1","3","4","2","5","5","5","4","0","1","0","2","0","1","1","2","4","4","5","5","5","4","4","5","4","5","6","5","7","7","6","5","8","5","6","5","2","3","2","2","3","5","1","6","3","1","3","3","6","3","2","3","4","4","3","2","2","5","3","3","2","5","5","6","7","7","6","5","5","4","2","5","3","7","3","4","802285339656986625","李","103","Female","[""坏我"",""好我"",""坏她"",""好她""]","[""弱我"",""强我"",""弱她"",""强她""]","","","","","","","","","","","","","","","","","","","","","","","","","","","","","","feedback_test","","","","","","","","",""
"733","","f","psychophysics","46","285449","0.0-8.0-0.0-1.0-0.0-0.18","3","2","2","1","3","4","2","5","5","5","4","0","1","0","2","0","1","1","2","4","4","5","5","5","4","4","5","4","5","6","5","7","7","6","5","8","5","6","5","2","3","2","2","3","5","1","6","3","1","3","3","6","3","2","3","4","4","3","2","2","5","3","3","2","5","5","6","7","7","6","5","5","4","2","5","3","7","3","4","802285339656986625","李","103","Female","[""坏我"",""好我"",""坏她"",""好她""]","[""弱我"",""强我"",""弱她"",""强她""]","","","","","","","","nonmatch","","","","","","","","","","key","f","16.673077669902817","853.3333333333334","476","f","true","nonmatch","img/trapezoid.png","好她","好我","prac_ALT2_moral","practice_moral","","","","","","","","",""
"null","<span style='color:GreenYellow; font-size: 70px;'>正确! </span>","null","html-keyboard-response","47","285950","0.0-8.0-0.0-1.0-0.0-1.18","3","2","2","1","3","4","2","5","5","5","4","0","1","0","2","0","1","1","2","4","4","5","5","5","4","4","5","4","5","6","5","7","7","6","5","8","5","6","5","2","3","2","2","3","5","1","6","3","1","3","3","6","3","2","3","4","4","3","2","2","5","3","3","2","5","5","6","7","7","6","5","5","4","2","5","3","7","3","4","802285339656986625","李","103","Female","[""坏我"",""好我"",""坏她"",""好她""]","[""弱我"",""强我"",""弱她"",""强她""]","","","","","","","","","","","","","","","","","","","","","","","","","","","","","","feedback_test","","","","","","","","",""
"603","","j","psychophysics","48","287554","0.0-8.0-0.0-1.0-0.0-0.19","3","2","2","1","3","4","2","5","5","5","4","0","1","0","2","0","1","1","2","4","4","5","5","5","4","4","5","4","5","6","5","7","7","6","5","8","5","6","5","2","3","2","2","3","5","1","6","3","1","3","3","6","3","2","3","4","4","3","2","2","5","3","3","2","5","5","6","7","7","6","5","5","4","2","5","3","7","3","4","802285339656986625","李","103","Female","[""坏我"",""好我"",""坏她"",""好她""]","[""弱我"",""强我"",""弱她"",""强她""]","","","","","","","","match","","","","","","","","","","key","j","16.85005319148966","853.3333333333334","476","f","false","nonmatch","img/pentagon.png","好我","好她","prac_ALT2_moral","practice_moral","","","","","","","","",""
"null","<span style='color:red; font-size: 70px;'>错误! </span>","null","html-keyboard-response","49","288057","0.0-8.0-0.0-1.0-0.0-1.19","3","2","2","1","3","4","2","5","5","5","4","0","1","0","2","0","1","1","2","4","4","5","5","5","4","4","5","4","5","6","5","7","7","6","5","8","5","6","5","2","3","2","2","3","5","1","6","3","1","3","3","6","3","2","3","4","4","3","2","2","5","3","3","2","5","5","6","7","7","6","5","5","4","2","5","3","7","3","4","802285339656986625","李","103","Female","[""坏我"",""好我"",""坏她"",""好她""]","[""弱我"",""强我"",""弱她"",""强她""]","","","","","","","","","","","","","","","","","","","","","","","","","","","","","","feedback_test","","","","","","","","",""
"650","","f","psychophysics","50","289711","0.0-8.0-0.0-1.0-0.0-0.20","3","2","2","1","3","4","2","5","5","5","4","0","1","0","2","0","1","1","2","4","4","5","5","5","4","4","5","4","5","6","5","7","7","6","5","8","5","6","5","2","3","2","2","3","5","1","6","3","1","3","3","6","3","2","3","4","4","3","2","2","5","3","3","2","5","5","6","7","7","6","5","5","4","2","5","3","7","3","4","802285339656986625","李","103","Female","[""坏我"",""好我"",""坏她"",""好她""]","[""弱我"",""强我"",""弱她"",""强她""]","","","","","","","","nonmatch","","","","","","","","","","key","f","16.67214285714281","853.3333333333334","476","f","true","nonmatch","img/square.png","好我","坏她","prac_ALT2_moral","practice_moral","","","","","","","","",""
"null","<span style='color:GreenYellow; font-size: 70px;'>正确! </span>","null","html-keyboard-response","51","290212","0.0-8.0-0.0-1.0-0.0-1.20","3","2","2","1","3","4","2","5","5","5","4","0","1","0","2","0","1","1","2","4","4","5","5","5","4","4","5","4","5","6","5","7","7","6","5","8","5","6","5","2","3","2","2","3","5","1","6","3","1","3","3","6","3","2","3","4","4","3","2","2","5","3","3","2","5","5","6","7","7","6","5","5","4","2","5","3","7","3","4","802285339656986625","李","103","Female","[""坏我"",""好我"",""坏她"",""好她""]","[""弱我"",""强我"",""弱她"",""强她""]","","","","","","","","","","","","","","","","","","","","","","","","","","","","","","feedback_test","","","","","","","","",""
"716","","j","psychophysics","52","291930","0.0-8.0-0.0-1.0-0.0-0.21","3","2","2","1","3","4","2","5","5","5","4","0","1","0","2","0","1","1","2","4","4","5","5","5","4","4","5","4","5","6","5","7","7","6","5","8","5","6","5","2","3","2","2","3","5","1","6","3","1","3","3","6","3","2","3","4","4","3","2","2","5","3","3","2","5","5","6","7","7","6","5","5","4","2","5","3","7","3","4","802285339656986625","李","103","Female","[""坏我"",""好我"",""坏她"",""好她""]","[""弱我"",""强我"",""弱她"",""强她""]","","","","","","","","match","","","","","","","","","","key","j","16.671421568627313","853.3333333333334","476","j","true","match","img/square.png","坏她","坏她","prac_ALT2_moral","practice_moral","","","","","","","","",""
"null","<span style='color:GreenYellow; font-size: 70px;'>正确! </span>","null","html-keyboard-response","53","292433","0.0-8.0-0.0-1.0-0.0-1.21","3","2","2","1","3","4","2","5","5","5","4","0","1","0","2","0","1","1","2","4","4","5","5","5","4","4","5","4","5","6","5","7","7","6","5","8","5","6","5","2","3","2","2","3","5","1","6","3","1","3","3","6","3","2","3","4","4","3","2","2","5","3","3","2","5","5","6","7","7","6","5","5","4","2","5","3","7","3","4","802285339656986625","李","103","Female","[""坏我"",""好我"",""坏她"",""好她""]","[""弱我"",""强我"",""弱她"",""强她""]","","","","","","","","","","","","","","","","","","","","","","","","","","","","","","feedback_test","","","","","","","","",""
"597","","j","psychophysics","54","294032","0.0-8.0-0.0-1.0-0.0-0.22","3","2","2","1","3","4","2","5","5","5","4","0","1","0","2","0","1","1","2","4","4","5","5","5","4","4","5","4","5","6","5","7","7","6","5","8","5","6","5","2","3","2","2","3","5","1","6","3","1","3","3","6","3","2","3","4","4","3","2","2","5","3","3","2","5","5","6","7","7","6","5","5","4","2","5","3","7","3","4","802285339656986625","李","103","Female","[""坏我"",""好我"",""坏她"",""好她""]","[""弱我"",""强我"",""弱她"",""强她""]","","","","","","","","match","","","","","","","","","","key","j","16.6724842105263","853.3333333333334","476","j","true","match","img/square.png","坏她","坏她","prac_ALT2_moral","practice_moral","","","","","","","","",""
"null","<span style='color:GreenYellow; font-size: 70px;'>正确! </span>","null","html-keyboard-response","55","294533","0.0-8.0-0.0-1.0-0.0-1.22","3","2","2","1","3","4","2","5","5","5","4","0","1","0","2","0","1","1","2","4","4","5","5","5","4","4","5","4","5","6","5","7","7","6","5","8","5","6","5","2","3","2","2","3","5","1","6","3","1","3","3","6","3","2","3","4","4","3","2","2","5","3","3","2","5","5","6","7","7","6","5","5","4","2","5","3","7","3","4","802285339656986625","李","103","Female","[""坏我"",""好我"",""坏她"",""好她""]","[""弱我"",""强我"",""弱她"",""强她""]","","","","","","","","","","","","","","","","","","","","","","","","","","","","","","feedback_test","","","","","","","","",""
"682","","j","psychophysics","56","296218","0.0-8.0-0.0-1.0-0.0-0.23","3","2","2","1","3","4","2","5","5","5","4","0","1","0","2","0","1","1","2","4","4","5","5","5","4","4","5","4","5","6","5","7","7","6","5","8","5","6","5","2","3","2","2","3","5","1","6","3","1","3","3","6","3","2","3","4","4","3","2","2","5","3","3","2","5","5","6","7","7","6","5","5","4","2","5","3","7","3","4","802285339656986625","李","103","Female","[""坏我"",""好我"",""坏她"",""好她""]","[""弱我"",""强我"",""弱她"",""强她""]","","","","","","","","match","","","","","","","","","","key","j","16.671540000000387","853.3333333333334","476","j","true","match","img/pentagon.png","好她","好她","prac_ALT2_moral","practice_moral","","","","","","","","",""
"null","<span style='color:GreenYellow; font-size: 70px;'>正确! </span>","null","html-keyboard-response","57","296720","0.0-8.0-0.0-1.0-0.0-1.23","3","2","2","1","3","4","2","5","5","5","4","0","1","0","2","0","1","1","2","4","4","5","5","5","4","4","5","4","5","6","5","7","7","6","5","8","5","6","5","2","3","2","2","3","5","1","6","3","1","3","3","6","3","2","3","4","4","3","2","2","5","3","3","2","5","5","6","7","7","6","5","5","4","2","5","3","7","3","4","802285339656986625","李","103","Female","[""坏我"",""好我"",""坏她"",""好她""]","[""弱我"",""强我"",""弱她"",""强她""]","","","","","","","","","","","","","","","","","","","","","","","","","","","","","","feedback_test","","","","","","","","",""
"629","","j","psychophysics","58","298352","0.0-8.0-0.0-1.0-0.0-0.24","3","2","2","1","3","4","2","5","5","5","4","0","1","0","2","0","1","1","2","4","4","5","5","5","4","4","5","4","5","6","5","7","7","6","5","8","5","6","5","2","3","2","2","3","5","1","6","3","1","3","3","6","3","2","3","4","4","3","2","2","5","3","3","2","5","5","6","7","7","6","5","5","4","2","5","3","7","3","4","802285339656986625","李","103","Female","[""坏我"",""好我"",""坏她"",""好她""]","[""弱我"",""强我"",""弱她"",""强她""]","","","","","","","","match","","","","","","","","","","key","j","16.671288659793717","853.3333333333334","476","j","true","match","img/trapezoid.png","好我","好我","prac_ALT2_moral","practice_moral","","","","","","","","",""
"null","<span style='color:GreenYellow; font-size: 70px;'>正确! </span>","null","html-keyboard-response","59","298864","0.0-8.0-0.0-1.0-0.0-1.24","3","2","2","1","3","4","2","5","5","5","4","0","1","0","2","0","1","1","2","4","4","5","5","5","4","4","5","4","5","6","5","7","7","6","5","8","5","6","5","2","3","2","2","3","5","1","6","3","1","3","3","6","3","2","3","4","4","3","2","2","5","3","3","2","5","5","6","7","7","6","5","5","4","2","5","3","7","3","4","802285339656986625","李","103","Female","[""坏我"",""好我"",""坏她"",""好她""]","[""弱我"",""强我"",""弱她"",""强她""]","","","","","","","","","","","","","","","","","","","","","","","","","","","","","","feedback_test","","","","","","","","",""
"598","","f","psychophysics","60","300464","0.0-8.0-0.0-1.0-0.0-0.25","3","2","2","1","3","4","2","5","5","5","4","0","1","0","2","0","1","1","2","4","4","5","5","5","4","4","5","4","5","6","5","7","7","6","5","8","5","6","5","2","3","2","2","3","5","1","6","3","1","3","3","6","3","2","3","4","4","3","2","2","5","3","3","2","5","5","6","7","7","6","5","5","4","2","5","3","7","3","4","802285339656986625","李","103","Female","[""坏我"",""好我"",""坏她"",""好她""]","[""弱我"",""强我"",""弱她"",""强她""]","","","","","","","","nonmatch","","","","","","","","","","key","f","16.671600000000264","853.3333333333334","476","f","true","nonmatch","img/square.png","坏我","坏她","prac_ALT2_moral","practice_moral","","","","","","","","",""
"null","<span style='color:GreenYellow; font-size: 70px;'>正确! </span>","null","html-keyboard-response","61","300965","0.0-8.0-0.0-1.0-0.0-1.25","3","2","2","1","3","4","2","5","5","5","4","0","1","0","2","0","1","1","2","4","4","5","5","5","4","4","5","4","5","6","5","7","7","6","5","8","5","6","5","2","3","2","2","3","5","1","6","3","1","3","3","6","3","2","3","4","4","3","2","2","5","3","3","2","5","5","6","7","7","6","5","5","4","2","5","3","7","3","4","802285339656986625","李","103","Female","[""坏我"",""好我"",""坏她"",""好她""]","[""弱我"",""强我"",""弱她"",""强她""]","","","","","","","","","","","","","","","","","","","","","","","","","","","","","","feedback_test","","","","","","","","",""
"755","","f","psychophysics","62","302721","0.0-8.0-0.0-1.0-0.0-0.26","3","2","2","1","3","4","2","5","5","5","4","0","1","0","2","0","1","1","2","4","4","5","5","5","4","4","5","4","5","6","5","7","7","6","5","8","5","6","5","2","3","2","2","3","5","1","6","3","1","3","3","6","3","2","3","4","4","3","2","2","5","3","3","2","5","5","6","7","7","6","5","5","4","2","5","3","7","3","4","802285339656986625","李","103","Female","[""坏我"",""好我"",""坏她"",""好她""]","[""弱我"",""强我"",""弱她"",""强她""]","","","","","","","","nonmatch","","","","","","","","","","key","f","16.670701923076614","853.3333333333334","476","f","true","nonmatch","img/square.png","好她","坏她","prac_ALT2_moral","practice_moral","","","","","","","","",""
"null","<span style='color:GreenYellow; font-size: 70px;'>正确! </span>","null","html-keyboard-response","63","303222","0.0-8.0-0.0-1.0-0.0-1.26","3","2","2","1","3","4","2","5","5","5","4","0","1","0","2","0","1","1","2","4","4","5","5","5","4","4","5","4","5","6","5","7","7","6","5","8","5","6","5","2","3","2","2","3","5","1","6","3","1","3","3","6","3","2","3","4","4","3","2","2","5","3","3","2","5","5","6","7","7","6","5","5","4","2","5","3","7","3","4","802285339656986625","李","103","Female","[""坏我"",""好我"",""坏她"",""好她""]","[""弱我"",""强我"",""弱她"",""强她""]","","","","","","","","","","","","","","","","","","","","","","","","","","","","","","feedback_test","","","","","","","","",""
"750","","f","psychophysics","64","304974","0.0-8.0-0.0-1.0-0.0-0.27","3","2","2","1","3","4","2","5","5","5","4","0","1","0","2","0","1","1","2","4","4","5","5","5","4","4","5","4","5","6","5","7","7","6","5","8","5","6","5","2","3","2","2","3","5","1","6","3","1","3","3","6","3","2","3","4","4","3","2","2","5","3","3","2","5","5","6","7","7","6","5","5","4","2","5","3","7","3","4","802285339656986625","李","103","Female","[""坏我"",""好我"",""坏她"",""好她""]","[""弱我"",""强我"",""弱她"",""强她""]","","","","","","","","nonmatch","","","","","","","","","","key","f","16.670423076922955","853.3333333333334","476","f","true","nonmatch","img/trapezoid.png","好她","好我","prac_ALT2_moral","practice_moral","","","","","","","","",""
"null","<span style='color:GreenYellow; font-size: 70px;'>正确! </span>","null","html-keyboard-response","65","305476","0.0-8.0-0.0-1.0-0.0-1.27","3","2","2","1","3","4","2","5","5","5","4","0","1","0","2","0","1","1","2","4","4","5","5","5","4","4","5","4","5","6","5","7","7","6","5","8","5","6","5","2","3","2","2","3","5","1","6","3","1","3","3","6","3","2","3","4","4","3","2","2","5","3","3","2","5","5","6","7","7","6","5","5","4","2","5","3","7","3","4","802285339656986625","李","103","Female","[""坏我"",""好我"",""坏她"",""好她""]","[""弱我"",""强我"",""弱她"",""强她""]","","","","","","","","","","","","","","","","","","","","","","","","","","","","","","feedback_test","","","","","","","","",""
"616","","j","psychophysics","66","307094","0.0-8.0-0.0-1.0-0.0-0.28","3","2","2","1","3","4","2","5","5","5","4","0","1","0","2","0","1","1","2","4","4","5","5","5","4","4","5","4","5","6","5","7","7","6","5","8","5","6","5","2","3","2","2","3","5","1","6","3","1","3","3","6","3","2","3","4","4","3","2","2","5","3","3","2","5","5","6","7","7","6","5","5","4","2","5","3","7","3","4","802285339656986625","李","103","Female","[""坏我"",""好我"",""坏她"",""好她""]","[""弱我"",""强我"",""弱她"",""强她""]","","","","","","","","match","","","","","","","","","","key","j","16.848680851063964","853.3333333333334","476","j","true","match","img/ellipse.png","坏我","坏我","prac_ALT2_moral","practice_moral","","","","","","","","",""
"null","<span style='color:GreenYellow; font-size: 70px;'>正确! </span>","null","html-keyboard-response","67","307595","0.0-8.0-0.0-1.0-0.0-1.28","3","2","2","1","3","4","2","5","5","5","4","0","1","0","2","0","1","1","2","4","4","5","5","5","4","4","5","4","5","6","5","7","7","6","5","8","5","6","5","2","3","2","2","3","5","1","6","3","1","3","3","6","3","2","3","4","4","3","2","2","5","3","3","2","5","5","6","7","7","6","5","5","4","2","5","3","7","3","4","802285339656986625","李","103","Female","[""坏我"",""好我"",""坏她"",""好她""]","[""弱我"",""强我"",""弱她"",""强她""]","","","","","","","","","","","","","","","","","","","","","","","","","","","","","","feedback_test","","","","","","","","",""
"632","","j","psychophysics","68","309229","0.0-8.0-0.0-1.0-0.0-0.29","3","2","2","1","3","4","2","5","5","5","4","0","1","0","2","0","1","1","2","4","4","5","5","5","4","4","5","4","5","6","5","7","7","6","5","8","5","6","5","2","3","2","2","3","5","1","6","3","1","3","3","6","3","2","3","4","4","3","2","2","5","3","3","2","5","5","6","7","7","6","5","5","4","2","5","3","7","3","4","802285339656986625","李","103","Female","[""坏我"",""好我"",""坏她"",""好她""]","[""弱我"",""强我"",""弱她"",""强她""]","","","","","","","","match","","","","","","","","","","key","j","16.671406249999563","853.3333333333334","476","j","true","match","img/pentagon.png","好她","好她","prac_ALT2_moral","practice_moral","","","","","","","","",""
"null","<span style='color:GreenYellow; font-size: 70px;'>正确! </span>","null","html-keyboard-response","69","309732","0.0-8.0-0.0-1.0-0.0-1.29","3","2","2","1","3","4","2","5","5","5","4","0","1","0","2","0","1","1","2","4","4","5","5","5","4","4","5","4","5","6","5","7","7","6","5","8","5","6","5","2","3","2","2","3","5","1","6","3","1","3","3","6","3","2","3","4","4","3","2","2","5","3","3","2","5","5","6","7","7","6","5","5","4","2","5","3","7","3","4","802285339656986625","李","103","Female","[""坏我"",""好我"",""坏她"",""好她""]","[""弱我"",""强我"",""弱她"",""强她""]","","","","","","","","","","","","","","","","","","","","","","","","","","","","","","feedback_test","","","","","","","","",""
"559","","j","psychophysics","70","311293","0.0-8.0-0.0-1.0-0.0-0.30","3","2","2","1","3","4","2","5","5","5","4","0","1","0","2","0","1","1","2","4","4","5","5","5","4","4","5","4","5","6","5","7","7","6","5","8","5","6","5","2","3","2","2","3","5","1","6","3","1","3","3","6","3","2","3","4","4","3","2","2","5","3","3","2","5","5","6","7","7","6","5","5","4","2","5","3","7","3","4","802285339656986625","李","103","Female","[""坏我"",""好我"",""坏她"",""好她""]","[""弱我"",""强我"",""弱她"",""强她""]","","","","","","","","match","","","","","","","","","","key","j","16.67289130434738","853.3333333333334","476","j","true","match","img/square.png","坏她","坏她","prac_ALT2_moral","practice_moral","","","","","","","","",""
"null","<span style='color:GreenYellow; font-size: 70px;'>正确! </span>","null","html-keyboard-response","71","311796","0.0-8.0-0.0-1.0-0.0-1.30","3","2","2","1","3","4","2","5","5","5","4","0","1","0","2","0","1","1","2","4","4","5","5","5","4","4","5","4","5","6","5","7","7","6","5","8","5","6","5","2","3","2","2","3","5","1","6","3","1","3","3","6","3","2","3","4","4","3","2","2","5","3","3","2","5","5","6","7","7","6","5","5","4","2","5","3","7","3","4","802285339656986625","李","103","Female","[""坏我"",""好我"",""坏她"",""好她""]","[""弱我"",""强我"",""弱她"",""强她""]","","","","","","","","","","","","","","","","","","","","","","","","","","","","","","feedback_test","","","","","","","","",""
"692","","f","psychophysics","72","313489","0.0-8.0-0.0-1.0-0.0-0.31","3","2","2","1","3","4","2","5","5","5","4","0","1","0","2","0","1","1","2","4","4","5","5","5","4","4","5","4","5","6","5","7","7","6","5","8","5","6","5","2","3","2","2","3","5","1","6","3","1","3","3","6","3","2","3","4","4","3","2","2","5","3","3","2","5","5","6","7","7","6","5","5","4","2","5","3","7","3","4","802285339656986625","李","103","Female","[""坏我"",""好我"",""坏她"",""好她""]","[""弱我"",""强我"",""弱她"",""强她""]","","","","","","","","nonmatch","","","","","","","","","","key","f","16.671460000000078","853.3333333333334","476","f","true","nonmatch","img/ellipse.png","好我","坏我","prac_ALT2_moral","practice_moral","","","","","","","","",""
"null","<span style='color:GreenYellow; font-size: 70px;'>正确! </span>","null","html-keyboard-response","73","313990","0.0-8.0-0.0-1.0-0.0-1.31","3","2","2","1","3","4","2","5","5","5","4","0","1","0","2","0","1","1","2","4","4","5","5","5","4","4","5","4","5","6","5","7","7","6","5","8","5","6","5","2","3","2","2","3","5","1","6","3","1","3","3","6","3","2","3","4","4","3","2","2","5","3","3","2","5","5","6","7","7","6","5","5","4","2","5","3","7","3","4","802285339656986625","李","103","Female","[""坏我"",""好我"",""坏她"",""好她""]","[""弱我"",""强我"",""弱她"",""强她""]","","","","","","","","","","","","","","","","","","","","","","","","","","","","","","feedback_test","","","","","","","","",""
"632","","j","psychophysics","74","315624","0.0-8.0-0.0-1.0-0.0-0.32","3","2","2","1","3","4","2","5","5","5","4","0","1","0","2","0","1","1","2","4","4","5","5","5","4","4","5","4","5","6","5","7","7","6","5","8","5","6","5","2","3","2","2","3","5","1","6","3","1","3","3","6","3","2","3","4","4","3","2","2","5","3","3","2","5","5","6","7","7","6","5","5","4","2","5","3","7","3","4","802285339656986625","李","103","Female","[""坏我"",""好我"",""坏她"",""好她""]","[""弱我"",""强我"",""弱她"",""强她""]","","","","","","","","match","","","","","","","","","","key","j","16.67393814432963","853.3333333333334","476","f","false","nonmatch","img/pentagon.png","好我","好她","prac_ALT2_moral","practice_moral","","","","","","","","",""
"null","<span style='color:red; font-size: 70px;'>错误! </span>","null","html-keyboard-response","75","316125","0.0-8.0-0.0-1.0-0.0-1.32","3","2","2","1","3","4","2","5","5","5","4","0","1","0","2","0","1","1","2","4","4","5","5","5","4","4","5","4","5","6","5","7","7","6","5","8","5","6","5","2","3","2","2","3","5","1","6","3","1","3","3","6","3","2","3","4","4","3","2","2","5","3","3","2","5","5","6","7","7","6","5","5","4","2","5","3","7","3","4","802285339656986625","李","103","Female","[""坏我"",""好我"",""坏她"",""好她""]","[""弱我"",""强我"",""弱她"",""强她""]","","","","","","","","","","","","","","","","","","","","","","","","","","","","","","feedback_test","","","","","","","","",""
"673","","f","psychophysics","76","317800","0.0-8.0-0.0-1.0-0.0-0.33","3","2","2","1","3","4","2","5","5","5","4","0","1","0","2","0","1","1","2","4","4","5","5","5","4","4","5","4","5","6","5","7","7","6","5","8","5","6","5","2","3","2","2","3","5","1","6","3","1","3","3","6","3","2","3","4","4","3","2","2","5","3","3","2","5","5","6","7","7","6","5","5","4","2","5","3","7","3","4","802285339656986625","李","103","Female","[""坏我"",""好我"",""坏她"",""好她""]","[""弱我"",""强我"",""弱她"",""强她""]","","","","","","","","nonmatch","","","","","","","","","","key","f","16.66685999999987","853.3333333333334","476","f","true","nonmatch","img/ellipse.png","坏她","坏我","prac_ALT2_moral","practice_moral","","","","","","","","",""
"null","<span style='color:GreenYellow; font-size: 70px;'>正确! </span>","null","html-keyboard-response","77","318304","0.0-8.0-0.0-1.0-0.0-1.33","3","2","2","1","3","4","2","5","5","5","4","0","1","0","2","0","1","1","2","4","4","5","5","5","4","4","5","4","5","6","5","7","7","6","5","8","5","6","5","2","3","2","2","3","5","1","6","3","1","3","3","6","3","2","3","4","4","3","2","2","5","3","3","2","5","5","6","7","7","6","5","5","4","2","5","3","7","3","4","802285339656986625","李","103","Female","[""坏我"",""好我"",""坏她"",""好她""]","[""弱我"",""强我"",""弱她"",""强她""]","","","","","","","","","","","","","","","","","","","","","","","","","","","","","","feedback_test","","","","","","","","",""
"726","","j","psychophysics","78","320031","0.0-8.0-0.0-1.0-0.0-0.34","3","2","2","1","3","4","2","5","5","5","4","0","1","0","2","0","1","1","2","4","4","5","5","5","4","4","5","4","5","6","5","7","7","6","5","8","5","6","5","2","3","2","2","3","5","1","6","3","1","3","3","6","3","2","3","4","4","3","2","2","5","3","3","2","5","5","6","7","7","6","5","5","4","2","5","3","7","3","4","802285339656986625","李","103","Female","[""坏我"",""好我"",""坏她"",""好她""]","[""弱我"",""强我"",""弱她"",""强她""]","","","","","","","","match","","","","","","","","","","key","j","16.67099019607835","853.3333333333334","476","j","true","match","img/trapezoid.png","好我","好我","prac_ALT2_moral","practice_moral","","","","","","","","",""
"null","<span style='color:GreenYellow; font-size: 70px;'>正确! </span>","null","html-keyboard-response","79","320532","0.0-8.0-0.0-1.0-0.0-1.34","3","2","2","1","3","4","2","5","5","5","4","0","1","0","2","0","1","1","2","4","4","5","5","5","4","4","5","4","5","6","5","7","7","6","5","8","5","6","5","2","3","2","2","3","5","1","6","3","1","3","3","6","3","2","3","4","4","3","2","2","5","3","3","2","5","5","6","7","7","6","5","5","4","2","5","3","7","3","4","802285339656986625","李","103","Female","[""坏我"",""好我"",""坏她"",""好她""]","[""弱我"",""强我"",""弱她"",""强她""]","","","","","","","","","","","","","","","","","","","","","","","","","","","","","","feedback_test","","","","","","","","",""
"909","","f","psychophysics","80","322442","0.0-8.0-0.0-1.0-0.0-0.35","3","2","2","1","3","4","2","5","5","5","4","0","1","0","2","0","1","1","2","4","4","5","5","5","4","4","5","4","5","6","5","7","7","6","5","8","5","6","5","2","3","2","2","3","5","1","6","3","1","3","3","6","3","2","3","4","4","3","2","2","5","3","3","2","5","5","6","7","7","6","5","5","4","2","5","3","7","3","4","802285339656986625","李","103","Female","[""坏我"",""好我"",""坏她"",""好她""]","[""弱我"",""强我"",""弱她"",""强她""]","","","","","","","","nonmatch","","","","","","","","","","key","f","16.67108849557508","853.3333333333334","476","f","true","nonmatch","img/ellipse.png","好她","坏我","prac_ALT2_moral","practice_moral","","","","","","","","",""
"null","<span style='color:GreenYellow; font-size: 70px;'>正确! </span>","null","html-keyboard-response","81","322944","0.0-8.0-0.0-1.0-0.0-1.35","3","2","2","1","3","4","2","5","5","5","4","0","1","0","2","0","1","1","2","4","4","5","5","5","4","4","5","4","5","6","5","7","7","6","5","8","5","6","5","2","3","2","2","3","5","1","6","3","1","3","3","6","3","2","3","4","4","3","2","2","5","3","3","2","5","5","6","7","7","6","5","5","4","2","5","3","7","3","4","802285339656986625","李","103","Female","[""坏我"",""好我"",""坏她"",""好她""]","[""弱我"",""强我"",""弱她"",""强她""]","","","","","","","","","","","","","","","","","","","","","","","","","","","","","","feedback_test","","","","","","","","",""
"538","","j","psychophysics","82","324484","0.0-8.0-0.0-1.0-0.0-0.36","3","2","2","1","3","4","2","5","5","5","4","0","1","0","2","0","1","1","2","4","4","5","5","5","4","4","5","4","5","6","5","7","7","6","5","8","5","6","5","2","3","2","2","3","5","1","6","3","1","3","3","6","3","2","3","4","4","3","2","2","5","3","3","2","5","5","6","7","7","6","5","5","4","2","5","3","7","3","4","802285339656986625","李","103","Female","[""坏我"",""好我"",""坏她"",""好她""]","[""弱我"",""强我"",""弱她"",""强她""]","","","","","","","","match","","","","","","","","","","key","j","16.67050549450553","853.3333333333334","476","j","true","match","img/pentagon.png","好她","好她","prac_ALT2_moral","practice_moral","","","","","","","","",""
"null","<span style='color:GreenYellow; font-size: 70px;'>正确! </span>","null","html-keyboard-response","83","324985","0.0-8.0-0.0-1.0-0.0-1.36","3","2","2","1","3","4","2","5","5","5","4","0","1","0","2","0","1","1","2","4","4","5","5","5","4","4","5","4","5","6","5","7","7","6","5","8","5","6","5","2","3","2","2","3","5","1","6","3","1","3","3","6","3","2","3","4","4","3","2","2","5","3","3","2","5","5","6","7","7","6","5","5","4","2","5","3","7","3","4","802285339656986625","李","103","Female","[""坏我"",""好我"",""坏她"",""好她""]","[""弱我"",""强我"",""弱她"",""强她""]","","","","","","","","","","","","","","","","","","","","","","","","","","","","","","feedback_test","","","","","","","","",""
"621","","f","psychophysics","84","326609","0.0-8.0-0.0-1.0-0.0-0.37","3","2","2","1","3","4","2","5","5","5","4","0","1","0","2","0","1","1","2","4","4","5","5","5","4","4","5","4","5","6","5","7","7","6","5","8","5","6","5","2","3","2","2","3","5","1","6","3","1","3","3","6","3","2","3","4","4","3","2","2","5","3","3","2","5","5","6","7","7","6","5","5","4","2","5","3","7","3","4","802285339656986625","李","103","Female","[""坏我"",""好我"",""坏她"",""好她""]","[""弱我"",""强我"",""弱她"",""强她""]","","","","","","","","nonmatch","","","","","","","","","","key","f","16.670645833333158","853.3333333333334","476","f","true","nonmatch","img/trapezoid.png","坏她","好我","prac_ALT2_moral","practice_moral","","","","","","","","",""
"null","<span style='color:GreenYellow; font-size: 70px;'>正确! </span>","null","html-keyboard-response","85","327110","0.0-8.0-0.0-1.0-0.0-1.37","3","2","2","1","3","4","2","5","5","5","4","0","1","0","2","0","1","1","2","4","4","5","5","5","4","4","5","4","5","6","5","7","7","6","5","8","5","6","5","2","3","2","2","3","5","1","6","3","1","3","3","6","3","2","3","4","4","3","2","2","5","3","3","2","5","5","6","7","7","6","5","5","4","2","5","3","7","3","4","802285339656986625","李","103","Female","[""坏我"",""好我"",""坏她"",""好她""]","[""弱我"",""强我"",""弱她"",""强她""]","","","","","","","","","","","","","","","","","","","","","","","","","","","","","","feedback_test","","","","","","","","",""
"693","","f","psychophysics","86","328805","0.0-8.0-0.0-1.0-0.0-0.38","3","2","2","1","3","4","2","5","5","5","4","0","1","0","2","0","1","1","2","4","4","5","5","5","4","4","5","4","5","6","5","7","7","6","5","8","5","6","5","2","3","2","2","3","5","1","6","3","1","3","3","6","3","2","3","4","4","3","2","2","5","3","3","2","5","5","6","7","7","6","5","5","4","2","5","3","7","3","4","802285339656986625","李","103","Female","[""坏我"",""好我"",""坏她"",""好她""]","[""弱我"",""强我"",""弱她"",""强她""]","","","","","","","","nonmatch","","","","","","","","","","key","f","16.671990099009747","853.3333333333334","476","j","false","match","img/trapezoid.png","好我","好我","prac_ALT2_moral","practice_moral","","","","","","","","",""
"null","<span style='color:red; font-size: 70px;'>错误! </span>","null","html-keyboard-response","87","329309","0.0-8.0-0.0-1.0-0.0-1.38","3","2","2","1","3","4","2","5","5","5","4","0","1","0","2","0","1","1","2","4","4","5","5","5","4","4","5","4","5","6","5","7","7","6","5","8","5","6","5","2","3","2","2","3","5","1","6","3","1","3","3","6","3","2","3","4","4","3","2","2","5","3","3","2","5","5","6","7","7","6","5","5","4","2","5","3","7","3","4","802285339656986625","李","103","Female","[""坏我"",""好我"",""坏她"",""好她""]","[""弱我"",""强我"",""弱她"",""强她""]","","","","","","","","","","","","","","","","","","","","","","","","","","","","","","feedback_test","","","","","","","","",""
"631","","f","psychophysics","88","330942","0.0-8.0-0.0-1.0-0.0-0.39","3","2","2","1","3","4","2","5","5","5","4","0","1","0","2","0","1","1","2","4","4","5","5","5","4","4","5","4","5","6","5","7","7","6","5","8","5","6","5","2","3","2","2","3","5","1","6","3","1","3","3","6","3","2","3","4","4","3","2","2","5","3","3","2","5","5","6","7","7","6","5","5","4","2","5","3","7","3","4","802285339656986625","李","103","Female","[""坏我"",""好我"",""坏她"",""好她""]","[""弱我"",""强我"",""弱她"",""强她""]","","","","","","","","nonmatch","","","","","","","","","","key","f","16.673051546391978","853.3333333333334","476","f","true","nonmatch","img/square.png","好我","坏她","prac_ALT2_moral","practice_moral","","","","","","","","",""
"null","<span style='color:GreenYellow; font-size: 70px;'>正确! </span>","null","html-keyboard-response","89","331443","0.0-8.0-0.0-1.0-0.0-1.39","3","2","2","1","3","4","2","5","5","5","4","0","1","0","2","0","1","1","2","4","4","5","5","5","4","4","5","4","5","6","5","7","7","6","5","8","5","6","5","2","3","2","2","3","5","1","6","3","1","3","3","6","3","2","3","4","4","3","2","2","5","3","3","2","5","5","6","7","7","6","5","5","4","2","5","3","7","3","4","802285339656986625","李","103","Female","[""坏我"",""好我"",""坏她"",""好她""]","[""弱我"",""强我"",""弱她"",""强她""]","","","","","","","","","","","","","","","","","","","","","","","","","","","","","","feedback_test","","","","","","","","",""
"649","","j","psychophysics","90","333094","0.0-8.0-0.0-1.0-0.0-0.40","3","2","2","1","3","4","2","5","5","5","4","0","1","0","2","0","1","1","2","4","4","5","5","5","4","4","5","4","5","6","5","7","7","6","5","8","5","6","5","2","3","2","2","3","5","1","6","3","1","3","3","6","3","2","3","4","4","3","2","2","5","3","3","2","5","5","6","7","7","6","5","5","4","2","5","3","7","3","4","802285339656986625","李","103","Female","[""坏我"",""好我"",""坏她"",""好她""]","[""弱我"",""强我"",""弱她"",""强她""]","","","","","","","","match","","","","","","","","","","key","j","16.670285714285363","853.3333333333334","476","j","true","match","img/ellipse.png","坏我","坏我","prac_ALT2_moral","practice_moral","","","","","","","","",""
"null","<span style='color:GreenYellow; font-size: 70px;'>正确! </span>","null","html-keyboard-response","91","333595","0.0-8.0-0.0-1.0-0.0-1.40","3","2","2","1","3","4","2","5","5","5","4","0","1","0","2","0","1","1","2","4","4","5","5","5","4","4","5","4","5","6","5","7","7","6","5","8","5","6","5","2","3","2","2","3","5","1","6","3","1","3","3","6","3","2","3","4","4","3","2","2","5","3","3","2","5","5","6","7","7","6","5","5","4","2","5","3","7","3","4","802285339656986625","李","103","Female","[""坏我"",""好我"",""坏她"",""好她""]","[""弱我"",""强我"",""弱她"",""强她""]","","","","","","","","","","","","","","","","","","","","","","","","","","","","","","feedback_test","","","","","","","","",""
"639","","f","psychophysics","92","335237","0.0-8.0-0.0-1.0-0.0-0.41","3","2","2","1","3","4","2","5","5","5","4","0","1","0","2","0","1","1","2","4","4","5","5","5","4","4","5","4","5","6","5","7","7","6","5","8","5","6","5","2","3","2","2","3","5","1","6","3","1","3","3","6","3","2","3","4","4","3","2","2","5","3","3","2","5","5","6","7","7","6","5","5","4","2","5","3","7","3","4","802285339656986625","李","103","Female","[""坏我"",""好我"",""坏她"",""好她""]","[""弱我"",""强我"",""弱她"",""强她""]","","","","","","","","nonmatch","","","","","","","","","","key","f","16.67149484536032","853.3333333333334","476","f","true","nonmatch","img/pentagon.png","坏我","好她","prac_ALT2_moral","practice_moral","","","","","","","","",""
"null","<span style='color:GreenYellow; font-size: 70px;'>正确! </span>","null","html-keyboard-response","93","335739","0.0-8.0-0.0-1.0-0.0-1.41","3","2","2","1","3","4","2","5","5","5","4","0","1","0","2","0","1","1","2","4","4","5","5","5","4","4","5","4","5","6","5","7","7","6","5","8","5","6","5","2","3","2","2","3","5","1","6","3","1","3","3","6","3","2","3","4","4","3","2","2","5","3","3","2","5","5","6","7","7","6","5","5","4","2","5","3","7","3","4","802285339656986625","李","103","Female","[""坏我"",""好我"",""坏她"",""好她""]","[""弱我"",""强我"",""弱她"",""强她""]","","","","","","","","","","","","","","","","","","","","","","","","","","","","","","feedback_test","","","","","","","","",""
"685","","j","psychophysics","94","337426","0.0-8.0-0.0-1.0-0.0-0.42","3","2","2","1","3","4","2","5","5","5","4","0","1","0","2","0","1","1","2","4","4","5","5","5","4","4","5","4","5","6","5","7","7","6","5","8","5","6","5","2","3","2","2","3","5","1","6","3","1","3","3","6","3","2","3","4","4","3","2","2","5","3","3","2","5","5","6","7","7","6","5","5","4","2","5","3","7","3","4","802285339656986625","李","103","Female","[""坏我"",""好我"",""坏她"",""好她""]","[""弱我"",""强我"",""弱她"",""强她""]","","","","","","","","match","","","","","","","","","","key","j","16.6718200000003","853.3333333333334","476","j","true","match","img/square.png","坏她","坏她","prac_ALT2_moral","practice_moral","","","","","","","","",""
"null","<span style='color:GreenYellow; font-size: 70px;'>正确! </span>","null","html-keyboard-response","95","337926","0.0-8.0-0.0-1.0-0.0-1.42","3","2","2","1","3","4","2","5","5","5","4","0","1","0","2","0","1","1","2","4","4","5","5","5","4","4","5","4","5","6","5","7","7","6","5","8","5","6","5","2","3","2","2","3","5","1","6","3","1","3","3","6","3","2","3","4","4","3","2","2","5","3","3","2","5","5","6","7","7","6","5","5","4","2","5","3","7","3","4","802285339656986625","李","103","Female","[""坏我"",""好我"",""坏她"",""好她""]","[""弱我"",""强我"",""弱她"",""强她""]","","","","","","","","","","","","","","","","","","","","","","","","","","","","","","feedback_test","","","","","","","","",""
"614","","f","psychophysics","96","339542","0.0-8.0-0.0-1.0-0.0-0.43","3","2","2","1","3","4","2","5","5","5","4","0","1","0","2","0","1","1","2","4","4","5","5","5","4","4","5","4","5","6","5","7","7","6","5","8","5","6","5","2","3","2","2","3","5","1","6","3","1","3","3","6","3","2","3","4","4","3","2","2","5","3","3","2","5","5","6","7","7","6","5","5","4","2","5","3","7","3","4","802285339656986625","李","103","Female","[""坏我"",""好我"",""坏她"",""好她""]","[""弱我"",""强我"",""弱她"",""强她""]","","","","","","","","nonmatch","","","","","","","","","","key","f","16.670916666666624","853.3333333333334","476","f","true","nonmatch","img/pentagon.png","坏她","好她","prac_ALT2_moral","practice_moral","","","","","","","","",""
"null","<span style='color:GreenYellow; font-size: 70px;'>正确! </span>","null","html-keyboard-response","97","340054","0.0-8.0-0.0-1.0-0.0-1.43","3","2","2","1","3","4","2","5","5","5","4","0","1","0","2","0","1","1","2","4","4","5","5","5","4","4","5","4","5","6","5","7","7","6","5","8","5","6","5","2","3","2","2","3","5","1","6","3","1","3","3","6","3","2","3","4","4","3","2","2","5","3","3","2","5","5","6","7","7","6","5","5","4","2","5","3","7","3","4","802285339656986625","李","103","Female","[""坏我"",""好我"",""坏她"",""好她""]","[""弱我"",""强我"",""弱她"",""强她""]","","","","","","","","","","","","","","","","","","","","","","","","","","","","","","feedback_test","","","","","","","","",""
"704","","j","psychophysics","98","341759","0.0-8.0-0.0-1.0-0.0-0.44","3","2","2","1","3","4","2","5","5","5","4","0","1","0","2","0","1","1","2","4","4","5","5","5","4","4","5","4","5","6","5","7","7","6","5","8","5","6","5","2","3","2","2","3","5","1","6","3","1","3","3","6","3","2","3","4","4","3","2","2","5","3","3","2","5","5","6","7","7","6","5","5","4","2","5","3","7","3","4","802285339656986625","李","103","Female","[""坏我"",""好我"",""坏她"",""好她""]","[""弱我"",""强我"",""弱她"",""强她""]","","","","","","","","match","","","","","","","","","","key","j","16.672207920791898","853.3333333333334","476","j","true","match","img/ellipse.png","坏我","坏我","prac_ALT2_moral","practice_moral","","","","","","","","",""
"null","<span style='color:GreenYellow; font-size: 70px;'>正确! </span>","null","html-keyboard-response","99","342261","0.0-8.0-0.0-1.0-0.0-1.44","3","2","2","1","3","4","2","5","5","5","4","0","1","0","2","0","1","1","2","4","4","5","5","5","4","4","5","4","5","6","5","7","7","6","5","8","5","6","5","2","3","2","2","3","5","1","6","3","1","3","3","6","3","2","3","4","4","3","2","2","5","3","3","2","5","5","6","7","7","6","5","5","4","2","5","3","7","3","4","802285339656986625","李","103","Female","[""坏我"",""好我"",""坏她"",""好她""]","[""弱我"",""强我"",""弱她"",""强她""]","","","","","","","","","","","","","","","","","","","","","","","","","","","","","","feedback_test","","","","","","","","",""
"847","","f","psychophysics","100","344111","0.0-8.0-0.0-1.0-0.0-0.45","3","2","2","1","3","4","2","5","5","5","4","0","1","0","2","0","1","1","2","4","4","5","5","5","4","4","5","4","5","6","5","7","7","6","5","8","5","6","5","2","3","2","2","3","5","1","6","3","1","3","3","6","3","2","3","4","4","3","2","2","5","3","3","2","5","5","6","7","7","6","5","5","4","2","5","3","7","3","4","802285339656986625","李","103","Female","[""坏我"",""好我"",""坏她"",""好她""]","[""弱我"",""强我"",""弱她"",""强她""]","","","","","","","","nonmatch","","","","","","","","","","key","f","16.670263636363565","853.3333333333334","476","f","true","nonmatch","img/trapezoid.png","坏我","好我","prac_ALT2_moral","practice_moral","","","","","","","","",""
"null","<span style='color:GreenYellow; font-size: 70px;'>正确! </span>","null","html-keyboard-response","101","344612","0.0-8.0-0.0-1.0-0.0-1.45","3","2","2","1","3","4","2","5","5","5","4","0","1","0","2","0","1","1","2","4","4","5","5","5","4","4","5","4","5","6","5","7","7","6","5","8","5","6","5","2","3","2","2","3","5","1","6","3","1","3","3","6","3","2","3","4","4","3","2","2","5","3","3","2","5","5","6","7","7","6","5","5","4","2","5","3","7","3","4","802285339656986625","李","103","Female","[""坏我"",""好我"",""坏她"",""好她""]","[""弱我"",""强我"",""弱她"",""强她""]","","","","","","","","","","","","","","","","","","","","","","","","","","","","","","feedback_test","","","","","","","","",""
"500","","j","psychophysics","102","346115","0.0-8.0-0.0-1.0-0.0-0.46","3","2","2","1","3","4","2","5","5","5","4","0","1","0","2","0","1","1","2","4","4","5","5","5","4","4","5","4","5","6","5","7","7","6","5","8","5","6","5","2","3","2","2","3","5","1","6","3","1","3","3","6","3","2","3","4","4","3","2","2","5","3","3","2","5","5","6","7","7","6","5","5","4","2","5","3","7","3","4","802285339656986625","李","103","Female","[""坏我"",""好我"",""坏她"",""好她""]","[""弱我"",""强我"",""弱她"",""强她""]","","","","","","","","match","","","","","","","","","","key","j","16.67217977528115","853.3333333333334","476","j","true","match","img/pentagon.png","好她","好她","prac_ALT2_moral","practice_moral","","","","","","","","",""
"null","<span style='color:GreenYellow; font-size: 70px;'>正确! </span>","null","html-keyboard-response","103","346617","0.0-8.0-0.0-1.0-0.0-1.46","3","2","2","1","3","4","2","5","5","5","4","0","1","0","2","0","1","1","2","4","4","5","5","5","4","4","5","4","5","6","5","7","7","6","5","8","5","6","5","2","3","2","2","3","5","1","6","3","1","3","3","6","3","2","3","4","4","3","2","2","5","3","3","2","5","5","6","7","7","6","5","5","4","2","5","3","7","3","4","802285339656986625","李","103","Female","[""坏我"",""好我"",""坏她"",""好她""]","[""弱我"",""强我"",""弱她"",""强她""]","","","","","","","","","","","","","","","","","","","","","","","","","","","","","","feedback_test","","","","","","","","",""
"565","","j","psychophysics","104","348185","0.0-8.0-0.0-1.0-0.0-0.47","3","2","2","1","3","4","2","5","5","5","4","0","1","0","2","0","1","1","2","4","4","5","5","5","4","4","5","4","5","6","5","7","7","6","5","8","5","6","5","2","3","2","2","3","5","1","6","3","1","3","3","6","3","2","3","4","4","3","2","2","5","3","3","2","5","5","6","7","7","6","5","5","4","2","5","3","7","3","4","802285339656986625","李","103","Female","[""坏我"",""好我"",""坏她"",""好她""]","[""弱我"",""强我"",""弱她"",""强她""]","","","","","","","","match","","","","","","","","","","key","j","16.67159139784992","853.3333333333334","476","j","true","match","img/square.png","坏她","坏她","prac_ALT2_moral","practice_moral","","","","","","","","",""
"null","<span style='color:GreenYellow; font-size: 70px;'>正确! </span>","null","html-keyboard-response","105","348687","0.0-8.0-0.0-1.0-0.0-1.47","3","2","2","1","3","4","2","5","5","5","4","0","1","0","2","0","1","1","2","4","4","5","5","5","4","4","5","4","5","6","5","7","7","6","5","8","5","6","5","2","3","2","2","3","5","1","6","3","1","3","3","6","3","2","3","4","4","3","2","2","5","3","3","2","5","5","6","7","7","6","5","5","4","2","5","3","7","3","4","802285339656986625","李","103","Female","[""坏我"",""好我"",""坏她"",""好她""]","[""弱我"",""强我"",""弱她"",""强她""]","","","","","","","","","","","","","","","","","","","","","","","","","","","","","","feedback_test","","","","","","","","",""
"54576","<style>.context{color:white; font-size: 35px; line-height:40px}</style>                            <div><p class='context'>您正确回答了92% 的试次。</p><p class='context'>您的平均反应时为677毫秒。</p><p class='context'>恭喜您完成练习。按空格键进入正式实验。</p><p class='footer' style='font-size: 35px; line-height:40px;'>请在进入正式实验实验之前将您的<span style='color: lightgreen;'>食指</span>放在电脑键盘的相应键位上进行按键。</p>"," ","html-keyboard-response","106","403271","0.0-8.0-0.0-2.0","3","2","2","1","3","4","2","5","5","5","4","0","1","0","2","0","1","1","2","4","4","5","5","5","4","4","5","4","5","6","5","7","7","6","5","8","5","6","5","2","3","2","2","3","5","1","6","3","1","3","3","6","3","2","3","4","4","3","2","2","5","3","3","2","5","5","6","7","7","6","5","5","4","2","5","3","7","3","4","802285339656986625","李","103","Female","[""坏我"",""好我"",""坏她"",""好她""]","[""弱我"",""强我"",""弱她"",""强她""]","","","","","","","","","","","","","","","","","","","","","","","","","","","","","","","","","","","","","","",""
"1360","
    <p style='color: white; font-size: 22px'>请您将手指放在按键上，准备进入正式的匹配任务。</p>
    <p> <div style = ""color: green""><按空格键进入下一阶段的匹配任务></div></p>
    "," ","html-keyboard-response","107","404634","0.0-8.0-0.0-3.0","3","2","2","1","3","4","2","5","5","5","4","0","1","0","2","0","1","1","2","4","4","5","5","5","4","4","5","4","5","6","5","7","7","6","5","8","5","6","5","2","3","2","2","3","5","1","6","3","1","3","3","6","3","2","3","4","4","3","2","2","5","3","3","2","5","5","6","7","7","6","5","5","4","2","5","3","7","3","4","802285339656986625","李","103","Female","[""坏我"",""好我"",""坏她"",""好她""]","[""弱我"",""强我"",""弱她"",""强她""]","","","","","","","","","","","","","","","","","","","","","","","","","","","","","","","","","","","","","","",""
"574","","j","psychophysics","108","406211","0.0-8.0-0.0-4.0-0.0-0.0","3","2","2","1","3","4","2","5","5","5","4","0","1","0","2","0","1","1","2","4","4","5","5","5","4","4","5","4","5","6","5","7","7","6","5","8","5","6","5","2","3","2","2","3","5","1","6","3","1","3","3","6","3","2","3","4","4","3","2","2","5","3","3","2","5","5","6","7","7","6","5","5","4","2","5","3","7","3","4","802285339656986625","李","103","Female","[""坏我"",""好我"",""坏她"",""好她""]","[""弱我"",""强我"",""弱她"",""强她""]","","","","","","","","match","","","","","","","","","","key","j","16.664924731182676","853.3333333333334","476","j","true","match","img/trapezoid.png","好我","好我","ALT2","moral","","","","","","","","",""
"null","<span style='color:GreenYellow; font-size: 70px;'>正确! </span>","null","html-keyboard-response","109","406714","0.0-8.0-0.0-4.0-0.0-1.0","3","2","2","1","3","4","2","5","5","5","4","0","1","0","2","0","1","1","2","4","4","5","5","5","4","4","5","4","5","6","5","7","7","6","5","8","5","6","5","2","3","2","2","3","5","1","6","3","1","3","3","6","3","2","3","4","4","3","2","2","5","3","3","2","5","5","6","7","7","6","5","5","4","2","5","3","7","3","4","802285339656986625","李","103","Female","[""坏我"",""好我"",""坏她"",""好她""]","[""弱我"",""强我"",""弱她"",""强她""]","","","","","","","","","","","","","","","","","","","","","","","","","","","","","","feedback_test","","","","","","","","",""
"560","","f","psychophysics","110","408277","0.0-8.0-0.0-4.0-0.0-0.1","3","2","2","1","3","4","2","5","5","5","4","0","1","0","2","0","1","1","2","4","4","5","5","5","4","4","5","4","5","6","5","7","7","6","5","8","5","6","5","2","3","2","2","3","5","1","6","3","1","3","3","6","3","2","3","4","4","3","2","2","5","3","3","2","5","5","6","7","7","6","5","5","4","2","5","3","7","3","4","802285339656986625","李","103","Female","[""坏我"",""好我"",""坏她"",""好她""]","[""弱我"",""强我"",""弱她"",""强她""]","","","","","","","","nonmatch","","","","","","","","","","key","f","16.67154838709644","853.3333333333334","476","f","true","nonmatch","img/square.png","坏我","坏她","ALT2","moral","","","","","","","","",""
"null","<span style='color:GreenYellow; font-size: 70px;'>正确! </span>","null","html-keyboard-response","111","408779","0.0-8.0-0.0-4.0-0.0-1.1","3","2","2","1","3","4","2","5","5","5","4","0","1","0","2","0","1","1","2","4","4","5","5","5","4","4","5","4","5","6","5","7","7","6","5","8","5","6","5","2","3","2","2","3","5","1","6","3","1","3","3","6","3","2","3","4","4","3","2","2","5","3","3","2","5","5","6","7","7","6","5","5","4","2","5","3","7","3","4","802285339656986625","李","103","Female","[""坏我"",""好我"",""坏她"",""好她""]","[""弱我"",""强我"",""弱她"",""强她""]","","","","","","","","","","","","","","","","","","","","","","","","","","","","","","feedback_test","","","","","","","","",""
"932","","f","psychophysics","112","410713","0.0-8.0-0.0-4.0-0.0-0.2","3","2","2","1","3","4","2","5","5","5","4","0","1","0","2","0","1","1","2","4","4","5","5","5","4","4","5","4","5","6","5","7","7","6","5","8","5","6","5","2","3","2","2","3","5","1","6","3","1","3","3","6","3","2","3","4","4","3","2","2","5","3","3","2","5","5","6","7","7","6","5","5","4","2","5","3","7","3","4","802285339656986625","李","103","Female","[""坏我"",""好我"",""坏她"",""好她""]","[""弱我"",""强我"",""弱她"",""强她""]","","","","","","","","nonmatch","","","","","","","","","","key","f","16.67161739130413","853.3333333333334","476","f","true","nonmatch","img/square.png","好她","坏她","ALT2","moral","","","","","","","","",""
"null","<span style='color:GreenYellow; font-size: 70px;'>正确! </span>","null","html-keyboard-response","113","411216","0.0-8.0-0.0-4.0-0.0-1.2","3","2","2","1","3","4","2","5","5","5","4","0","1","0","2","0","1","1","2","4","4","5","5","5","4","4","5","4","5","6","5","7","7","6","5","8","5","6","5","2","3","2","2","3","5","1","6","3","1","3","3","6","3","2","3","4","4","3","2","2","5","3","3","2","5","5","6","7","7","6","5","5","4","2","5","3","7","3","4","802285339656986625","李","103","Female","[""坏我"",""好我"",""坏她"",""好她""]","[""弱我"",""强我"",""弱她"",""强她""]","","","","","","","","","","","","","","","","","","","","","","","","","","","","","","feedback_test","","","","","","","","",""
"757","","f","psychophysics","114","412974","0.0-8.0-0.0-4.0-0.0-0.3","3","2","2","1","3","4","2","5","5","5","4","0","1","0","2","0","1","1","2","4","4","5","5","5","4","4","5","4","5","6","5","7","7","6","5","8","5","6","5","2","3","2","2","3","5","1","6","3","1","3","3","6","3","2","3","4","4","3","2","2","5","3","3","2","5","5","6","7","7","6","5","5","4","2","5","3","7","3","4","802285339656986625","李","103","Female","[""坏我"",""好我"",""坏她"",""好她""]","[""弱我"",""强我"",""弱她"",""强她""]","","","","","","","","nonmatch","","","","","","","","","","key","f","16.67084615384654","853.3333333333334","476","f","true","nonmatch","img/ellipse.png","坏她","坏我","ALT2","moral","","","","","","","","",""
"null","<span style='color:GreenYellow; font-size: 70px;'>正确! </span>","null","html-keyboard-response","115","413477","0.0-8.0-0.0-4.0-0.0-1.3","3","2","2","1","3","4","2","5","5","5","4","0","1","0","2","0","1","1","2","4","4","5","5","5","4","4","5","4","5","6","5","7","7","6","5","8","5","6","5","2","3","2","2","3","5","1","6","3","1","3","3","6","3","2","3","4","4","3","2","2","5","3","3","2","5","5","6","7","7","6","5","5","4","2","5","3","7","3","4","802285339656986625","李","103","Female","[""坏我"",""好我"",""坏她"",""好她""]","[""弱我"",""强我"",""弱她"",""强她""]","","","","","","","","","","","","","","","","","","","","","","","","","","","","","","feedback_test","","","","","","","","",""
"989","","j","psychophysics","116","415468","0.0-8.0-0.0-4.0-0.0-0.4","3","2","2","1","3","4","2","5","5","5","4","0","1","0","2","0","1","1","2","4","4","5","5","5","4","4","5","4","5","6","5","7","7","6","5","8","5","6","5","2","3","2","2","3","5","1","6","3","1","3","3","6","3","2","3","4","4","3","2","2","5","3","3","2","5","5","6","7","7","6","5","5","4","2","5","3","7","3","4","802285339656986625","李","103","Female","[""坏我"",""好我"",""坏她"",""好她""]","[""弱我"",""强我"",""弱她"",""强她""]","","","","","","","","match","","","","","","","","","","key","j","16.671677966101957","853.3333333333334","476","j","true","match","img/ellipse.png","坏我","坏我","ALT2","moral","","","","","","","","",""
"null","<span style='color:GreenYellow; font-size: 70px;'>正确! </span>","null","html-keyboard-response","117","415970","0.0-8.0-0.0-4.0-0.0-1.4","3","2","2","1","3","4","2","5","5","5","4","0","1","0","2","0","1","1","2","4","4","5","5","5","4","4","5","4","5","6","5","7","7","6","5","8","5","6","5","2","3","2","2","3","5","1","6","3","1","3","3","6","3","2","3","4","4","3","2","2","5","3","3","2","5","5","6","7","7","6","5","5","4","2","5","3","7","3","4","802285339656986625","李","103","Female","[""坏我"",""好我"",""坏她"",""好她""]","[""弱我"",""强我"",""弱她"",""强她""]","","","","","","","","","","","","","","","","","","","","","","","","","","","","","","feedback_test","","","","","","","","",""
"576","","f","psychophysics","118","417548","0.0-8.0-0.0-4.0-0.0-0.5","3","2","2","1","3","4","2","5","5","5","4","0","1","0","2","0","1","1","2","4","4","5","5","5","4","4","5","4","5","6","5","7","7","6","5","8","5","6","5","2","3","2","2","3","5","1","6","3","1","3","3","6","3","2","3","4","4","3","2","2","5","3","3","2","5","5","6","7","7","6","5","5","4","2","5","3","7","3","4","802285339656986625","李","103","Female","[""坏我"",""好我"",""坏她"",""好她""]","[""弱我"",""强我"",""弱她"",""强她""]","","","","","","","","nonmatch","","","","","","","","","","key","f","16.67226595744711","853.3333333333334","476","f","true","nonmatch","img/ellipse.png","好我","坏我","ALT2","moral","","","","","","","","",""
"null","<span style='color:GreenYellow; font-size: 70px;'>正确! </span>","null","html-keyboard-response","119","418050","0.0-8.0-0.0-4.0-0.0-1.5","3","2","2","1","3","4","2","5","5","5","4","0","1","0","2","0","1","1","2","4","4","5","5","5","4","4","5","4","5","6","5","7","7","6","5","8","5","6","5","2","3","2","2","3","5","1","6","3","1","3","3","6","3","2","3","4","4","3","2","2","5","3","3","2","5","5","6","7","7","6","5","5","4","2","5","3","7","3","4","802285339656986625","李","103","Female","[""坏我"",""好我"",""坏她"",""好她""]","[""弱我"",""强我"",""弱她"",""强她""]","","","","","","","","","","","","","","","","","","","","","","","","","","","","","","feedback_test","","","","","","","","",""
"715","","j","psychophysics","120","419767","0.0-8.0-0.0-4.0-0.0-0.6","3","2","2","1","3","4","2","5","5","5","4","0","1","0","2","0","1","1","2","4","4","5","5","5","4","4","5","4","5","6","5","7","7","6","5","8","5","6","5","2","3","2","2","3","5","1","6","3","1","3","3","6","3","2","3","4","4","3","2","2","5","3","3","2","5","5","6","7","7","6","5","5","4","2","5","3","7","3","4","802285339656986625","李","103","Female","[""坏我"",""好我"",""坏她"",""好她""]","[""弱我"",""强我"",""弱她"",""强她""]","","","","","","","","match","","","","","","","","","","key","j","16.671401960784387","853.3333333333334","476","j","true","match","img/square.png","坏她","坏她","ALT2","moral","","","","","","","","",""
"null","<span style='color:GreenYellow; font-size: 70px;'>正确! </span>","null","html-keyboard-response","121","420270","0.0-8.0-0.0-4.0-0.0-1.6","3","2","2","1","3","4","2","5","5","5","4","0","1","0","2","0","1","1","2","4","4","5","5","5","4","4","5","4","5","6","5","7","7","6","5","8","5","6","5","2","3","2","2","3","5","1","6","3","1","3","3","6","3","2","3","4","4","3","2","2","5","3","3","2","5","5","6","7","7","6","5","5","4","2","5","3","7","3","4","802285339656986625","李","103","Female","[""坏我"",""好我"",""坏她"",""好她""]","[""弱我"",""强我"",""弱她"",""强她""]","","","","","","","","","","","","","","","","","","","","","","","","","","","","","","feedback_test","","","","","","","","",""
"591","","f","psychophysics","122","421862","0.0-8.0-0.0-4.0-0.0-0.7","3","2","2","1","3","4","2","5","5","5","4","0","1","0","2","0","1","1","2","4","4","5","5","5","4","4","5","4","5","6","5","7","7","6","5","8","5","6","5","2","3","2","2","3","5","1","6","3","1","3","3","6","3","2","3","4","4","3","2","2","5","3","3","2","5","5","6","7","7","6","5","5","4","2","5","3","7","3","4","802285339656986625","李","103","Female","[""坏我"",""好我"",""坏她"",""好她""]","[""弱我"",""强我"",""弱她"",""强她""]","","","","","","","","nonmatch","","","","","","","","","","key","f","16.669978723404284","853.3333333333334","476","f","true","nonmatch","img/ellipse.png","好她","坏我","ALT2","moral","","","","","","","","",""
"null","<span style='color:GreenYellow; font-size: 70px;'>正确! </span>","null","html-keyboard-response","123","422364","0.0-8.0-0.0-4.0-0.0-1.7","3","2","2","1","3","4","2","5","5","5","4","0","1","0","2","0","1","1","2","4","4","5","5","5","4","4","5","4","5","6","5","7","7","6","5","8","5","6","5","2","3","2","2","3","5","1","6","3","1","3","3","6","3","2","3","4","4","3","2","2","5","3","3","2","5","5","6","7","7","6","5","5","4","2","5","3","7","3","4","802285339656986625","李","103","Female","[""坏我"",""好我"",""坏她"",""好她""]","[""弱我"",""强我"",""弱她"",""强她""]","","","","","","","","","","","","","","","","","","","","","","","","","","","","","","feedback_test","","","","","","","","",""
"783","","j","psychophysics","124","424148","0.0-8.0-0.0-4.0-0.0-0.8","3","2","2","1","3","4","2","5","5","5","4","0","1","0","2","0","1","1","2","4","4","5","5","5","4","4","5","4","5","6","5","7","7","6","5","8","5","6","5","2","3","2","2","3","5","1","6","3","1","3","3","6","3","2","3","4","4","3","2","2","5","3","3","2","5","5","6","7","7","6","5","5","4","2","5","3","7","3","4","802285339656986625","李","103","Female","[""坏我"",""好我"",""坏她"",""好她""]","[""弱我"",""强我"",""弱她"",""强她""]","","","","","","","","match","","","","","","","","","","key","j","16.671858490566077","853.3333333333334","476","j","true","match","img/trapezoid.png","好我","好我","ALT2","moral","","","","","","","","",""
"null","<span style='color:GreenYellow; font-size: 70px;'>正确! </span>","null","html-keyboard-response","125","424651","0.0-8.0-0.0-4.0-0.0-1.8","3","2","2","1","3","4","2","5","5","5","4","0","1","0","2","0","1","1","2","4","4","5","5","5","4","4","5","4","5","6","5","7","7","6","5","8","5","6","5","2","3","2","2","3","5","1","6","3","1","3","3","6","3","2","3","4","4","3","2","2","5","3","3","2","5","5","6","7","7","6","5","5","4","2","5","3","7","3","4","802285339656986625","李","103","Female","[""坏我"",""好我"",""坏她"",""好她""]","[""弱我"",""强我"",""弱她"",""强她""]","","","","","","","","","","","","","","","","","","","","","","","","","","","","","","feedback_test","","","","","","","","",""
"810","","j","psychophysics","126","426462","0.0-8.0-0.0-4.0-0.0-0.9","3","2","2","1","3","4","2","5","5","5","4","0","1","0","2","0","1","1","2","4","4","5","5","5","4","4","5","4","5","6","5","7","7","6","5","8","5","6","5","2","3","2","2","3","5","1","6","3","1","3","3","6","3","2","3","4","4","3","2","2","5","3","3","2","5","5","6","7","7","6","5","5","4","2","5","3","7","3","4","802285339656986625","李","103","Female","[""坏我"",""好我"",""坏她"",""好她""]","[""弱我"",""强我"",""弱她"",""强她""]","","","","","","","","match","","","","","","","","","","key","j","16.671785046728914","853.3333333333334","476","j","true","match","img/square.png","坏她","坏她","ALT2","moral","","","","","","","","",""
"null","<span style='color:GreenYellow; font-size: 70px;'>正确! </span>","null","html-keyboard-response","127","426977","0.0-8.0-0.0-4.0-0.0-1.9","3","2","2","1","3","4","2","5","5","5","4","0","1","0","2","0","1","1","2","4","4","5","5","5","4","4","5","4","5","6","5","7","7","6","5","8","5","6","5","2","3","2","2","3","5","1","6","3","1","3","3","6","3","2","3","4","4","3","2","2","5","3","3","2","5","5","6","7","7","6","5","5","4","2","5","3","7","3","4","802285339656986625","李","103","Female","[""坏我"",""好我"",""坏她"",""好她""]","[""弱我"",""强我"",""弱她"",""强她""]","","","","","","","","","","","","","","","","","","","","","","","","","","","","","","feedback_test","","","","","","","","",""
"549","","j","psychophysics","128","428527","0.0-8.0-0.0-4.0-0.0-0.10","3","2","2","1","3","4","2","5","5","5","4","0","1","0","2","0","1","1","2","4","4","5","5","5","4","4","5","4","5","6","5","7","7","6","5","8","5","6","5","2","3","2","2","3","5","1","6","3","1","3","3","6","3","2","3","4","4","3","2","2","5","3","3","2","5","5","6","7","7","6","5","5","4","2","5","3","7","3","4","802285339656986625","李","103","Female","[""坏我"",""好我"",""坏她"",""好她""]","[""弱我"",""强我"",""弱她"",""强她""]","","","","","","","","match","","","","","","","","","","key","j","16.67163736263743","853.3333333333334","476","j","true","match","img/square.png","坏她","坏她","ALT2","moral","","","","","","","","",""
"null","<span style='color:GreenYellow; font-size: 70px;'>正确! </span>","null","html-keyboard-response","129","429029","0.0-8.0-0.0-4.0-0.0-1.10","3","2","2","1","3","4","2","5","5","5","4","0","1","0","2","0","1","1","2","4","4","5","5","5","4","4","5","4","5","6","5","7","7","6","5","8","5","6","5","2","3","2","2","3","5","1","6","3","1","3","3","6","3","2","3","4","4","3","2","2","5","3","3","2","5","5","6","7","7","6","5","5","4","2","5","3","7","3","4","802285339656986625","李","103","Female","[""坏我"",""好我"",""坏她"",""好她""]","[""弱我"",""强我"",""弱她"",""强她""]","","","","","","","","","","","","","","","","","","","","","","","","","","","","","","feedback_test","","","","","","","","",""
"556","","j","psychophysics","130","430587","0.0-8.0-0.0-4.0-0.0-0.11","3","2","2","1","3","4","2","5","5","5","4","0","1","0","2","0","1","1","2","4","4","5","5","5","4","4","5","4","5","6","5","7","7","6","5","8","5","6","5","2","3","2","2","3","5","1","6","3","1","3","3","6","3","2","3","4","4","3","2","2","5","3","3","2","5","5","6","7","7","6","5","5","4","2","5","3","7","3","4","802285339656986625","李","103","Female","[""坏我"",""好我"",""坏她"",""好她""]","[""弱我"",""强我"",""弱她"",""强她""]","","","","","","","","match","","","","","","","","","","key","j","16.672152173912924","853.3333333333334","476","j","true","match","img/pentagon.png","好她","好她","ALT2","moral","","","","","","","","",""
"null","<span style='color:GreenYellow; font-size: 70px;'>正确! </span>","null","html-keyboard-response","131","431090","0.0-8.0-0.0-4.0-0.0-1.11","3","2","2","1","3","4","2","5","5","5","4","0","1","0","2","0","1","1","2","4","4","5","5","5","4","4","5","4","5","6","5","7","7","6","5","8","5","6","5","2","3","2","2","3","5","1","6","3","1","3","3","6","3","2","3","4","4","3","2","2","5","3","3","2","5","5","6","7","7","6","5","5","4","2","5","3","7","3","4","802285339656986625","李","103","Female","[""坏我"",""好我"",""坏她"",""好她""]","[""弱我"",""强我"",""弱她"",""强她""]","","","","","","","","","","","","","","","","","","","","","","","","","","","","","","feedback_test","","","","","","","","",""
"513","","j","psychophysics","132","432605","0.0-8.0-0.0-4.0-0.0-0.12","3","2","2","1","3","4","2","5","5","5","4","0","1","0","2","0","1","1","2","4","4","5","5","5","4","4","5","4","5","6","5","7","7","6","5","8","5","6","5","2","3","2","2","3","5","1","6","3","1","3","3","6","3","2","3","4","4","3","2","2","5","3","3","2","5","5","6","7","7","6","5","5","4","2","5","3","7","3","4","802285339656986625","李","103","Female","[""坏我"",""好我"",""坏她"",""好她""]","[""弱我"",""强我"",""弱她"",""强她""]","","","","","","","","match","","","","","","","","","","key","j","16.670455555555073","853.3333333333334","476","j","true","match","img/pentagon.png","好她","好她","ALT2","moral","","","","","","","","",""
"null","<span style='color:GreenYellow; font-size: 70px;'>正确! </span>","null","html-keyboard-response","133","433106","0.0-8.0-0.0-4.0-0.0-1.12","3","2","2","1","3","4","2","5","5","5","4","0","1","0","2","0","1","1","2","4","4","5","5","5","4","4","5","4","5","6","5","7","7","6","5","8","5","6","5","2","3","2","2","3","5","1","6","3","1","3","3","6","3","2","3","4","4","3","2","2","5","3","3","2","5","5","6","7","7","6","5","5","4","2","5","3","7","3","4","802285339656986625","李","103","Female","[""坏我"",""好我"",""坏她"",""好她""]","[""弱我"",""强我"",""弱她"",""强她""]","","","","","","","","","","","","","","","","","","","","","","","","","","","","","","feedback_test","","","","","","","","",""
"504","","j","psychophysics","134","434614","0.0-8.0-0.0-4.0-0.0-0.13","3","2","2","1","3","4","2","5","5","5","4","0","1","0","2","0","1","1","2","4","4","5","5","5","4","4","5","4","5","6","5","7","7","6","5","8","5","6","5","2","3","2","2","3","5","1","6","3","1","3","3","6","3","2","3","4","4","3","2","2","5","3","3","2","5","5","6","7","7","6","5","5","4","2","5","3","7","3","4","802285339656986625","李","103","Female","[""坏我"",""好我"",""坏她"",""好她""]","[""弱我"",""强我"",""弱她"",""强她""]","","","","","","","","match","","","","","","","","","","key","j","16.67017045454519","853.3333333333334","476","f","false","nonmatch","img/pentagon.png","好我","好她","ALT2","moral","","","","","","","","",""
"null","<span style='color:red; font-size: 70px;'>错误! </span>","null","html-keyboard-response","135","435124","0.0-8.0-0.0-4.0-0.0-1.13","3","2","2","1","3","4","2","5","5","5","4","0","1","0","2","0","1","1","2","4","4","5","5","5","4","4","5","4","5","6","5","7","7","6","5","8","5","6","5","2","3","2","2","3","5","1","6","3","1","3","3","6","3","2","3","4","4","3","2","2","5","3","3","2","5","5","6","7","7","6","5","5","4","2","5","3","7","3","4","802285339656986625","李","103","Female","[""坏我"",""好我"",""坏她"",""好她""]","[""弱我"",""强我"",""弱她"",""强她""]","","","","","","","","","","","","","","","","","","","","","","","","","","","","","","feedback_test","","","","","","","","",""
"640","","f","psychophysics","136","436766","0.0-8.0-0.0-4.0-0.0-0.14","3","2","2","1","3","4","2","5","5","5","4","0","1","0","2","0","1","1","2","4","4","5","5","5","4","4","5","4","5","6","5","7","7","6","5","8","5","6","5","2","3","2","2","3","5","1","6","3","1","3","3","6","3","2","3","4","4","3","2","2","5","3","3","2","5","5","6","7","7","6","5","5","4","2","5","3","7","3","4","802285339656986625","李","103","Female","[""坏我"",""好我"",""坏她"",""好她""]","[""弱我"",""强我"",""弱她"",""强她""]","","","","","","","","nonmatch","","","","","","","","","","key","f","16.66991836734696","853.3333333333334","476","f","true","nonmatch","img/square.png","好我","坏她","ALT2","moral","","","","","","","","",""
"null","<span style='color:GreenYellow; font-size: 70px;'>正确! </span>","null","html-keyboard-response","137","437268","0.0-8.0-0.0-4.0-0.0-1.14","3","2","2","1","3","4","2","5","5","5","4","0","1","0","2","0","1","1","2","4","4","5","5","5","4","4","5","4","5","6","5","7","7","6","5","8","5","6","5","2","3","2","2","3","5","1","6","3","1","3","3","6","3","2","3","4","4","3","2","2","5","3","3","2","5","5","6","7","7","6","5","5","4","2","5","3","7","3","4","802285339656986625","李","103","Female","[""坏我"",""好我"",""坏她"",""好她""]","[""弱我"",""强我"",""弱她"",""强她""]","","","","","","","","","","","","","","","","","","","","","","","","","","","","","","feedback_test","","","","","","","","",""
