"rt","stimulus","response","trial_type","trial_index","time_elapsed","internal_node_id","subj_idx","subj_name","age","education","national","birthday","sex","fatherEdu","motherEdu","FatherOccupation","MotherOccupation","income","obj_ses1","fri_ses2","selfclarity_1","selfclarity_2","selfclarity_3","selfclarity_4","selfclarity_5","selfclarity_6","selfclarity_7","selfclarity_8","selfclarity_9","selfclarity_10","selfclarity_11","selfclarity_12","phq_1","phq_2","phq_3","phq_4","phq_5","phq_6","phq_7","phq_8","phq_9","gad_1","gad_2","gad_3","gad_4","gad_5","gad_6","gad_7","success","user_agent","accuracy","question_order","responses","item_order","radio_event_ids","radio_event_times","key_event_times","mouse_event_times","straightlining","zigzagging","honeypot"
"2149","
   <p>您好，欢迎参加本次实验。</p>
   <p>为充分保障您的权利，请确保您已经知晓并同意《参与实验同意书》以及《数据公开知情同意书》。</p>
   <p>如果您未见过上述内容，请咨询实验员。</p>
   <p>如果您选择继续实验，则表示您已经清楚两份知情同意书的内容并同意。</p>
   <p> <div style = ""color: green""><按""继续""至下页></div> </p>
   ","0","html-button-response","0","2155","0.0-0.0","558365014109454336","王**","20","本科","汉族","2002-09-14 00:00:00","1","2","2","0","0","4000","2","2","4","3","4","2","2","3","2","3","3","4","2","4","1","1","1","1","0","1","1","0","0","1","1","1","0","0","0","1","","","","","","","","","","","","",""
"","","","fullscreen","1","37366","0.0-1.0","558365014109454336","王**","20","本科","汉族","2002-09-14 00:00:00","1","2","2","0","0","4000","2","2","4","3","4","2","2","3","2","3","3","4","2","4","1","1","1","1","0","1","1","0","0","1","1","1","0","0","0","1","true","{}","","","","","","","","","","",""
"38191","","{""gender"":""B.女"",""fatherEdu"":""C.初中"",""motherEdu"":""C.初中"",""FatherOccupation"":""A.临时工、失业、待业人员、非技术及农业劳动者阶层,如农民"",""MotherOccupation"":""A.临时工、失业、待业人员、非技术及农业劳动者阶层,如农民"",""income"":""4000""}","survey","2","75634","0.0-2.0-0.0","558365014109454336","王**","20","本科","汉族","2002-09-14 00:00:00","1","2","2","0","0","4000","2","2","4","3","4","2","2","3","2","3","3","4","2","4","1","1","1","1","0","1","1","0","0","1","1","1","0","0","0","1","","","[]","","","","","","","","","",""
"14439","","{""Q0"":1,""Q1"":1}","survey-likert","3","90493","0.0-2.0-1.0","558365014109454336","王**","20","本科","汉族","2002-09-14 00:00:00","1","2","2","0","0","4000","2","2","4","3","4","2","2","3","2","3","3","4","2","4","1","1","1","1","0","1","1","0","0","1","1","1","0","0","0","1","","","","[0,1]","","","","","","","","",""
"54600.59999990463","","{""Q01"":""4"",""Q02"":""3"",""Q03"":""4"",""Q04"":""2"",""Q05"":""2"",""Q06"":""3"",""Q07"":""2"",""Q08"":""3"",""Q09"":""3"",""Q10"":""4"",""Q11"":""2"",""Q12"":""4""}","survey-template","4","145113","0.0-3.0","558365014109454336","王**","20","本科","汉族","2002-09-14 00:00:00","1","2","2","0","0","4000","2","2","4","3","4","2","2","3","2","3","3","4","2","4","1","1","1","1","0","1","1","0","0","1","1","1","0","0","0","1","","","","","{""Q01"":""4"",""Q02"":""3"",""Q03"":""4"",""Q04"":""2"",""Q05"":""2"",""Q06"":""3"",""Q07"":""2"",""Q08"":""3"",""Q09"":""3"",""Q10"":""4"",""Q11"":""2"",""Q12"":""4""}","[0,1,2,3,4,5,6,7,8,9,10,11]","[""Q01"",""Q02"",""Q03"",""Q04"",""Q05"",""Q06"",""Q07"",""Q08"",""Q09"",""Q09"",""Q10"",""Q11"",""Q12""]","[13007.400000095367,16612.900000095367,19456.800000190735,26824,28038.400000095367,30340.099999904633,33202.5,35583.2000002861,41098.2000002861,43317.09999990463,47746.90000009537,49954.7000002861,53474.59999990463]","[]","[13007.400000095367,16612.900000095367,19456.800000190735,21946.900000095367,26824,28038.400000095367,30340.099999904633,33202.5,35583.2000002861,41098.2000002861,43317.09999990463,47746.90000009537,49954.7000002861,52349,53474.59999990463,54594.90000009537]","0.4166666666666667","0.5454545454545454","0"
"33179.60000038147","","{""Q01"":""1"",""Q02"":""1"",""Q03"":""1"",""Q04"":""1"",""Q05"":""0"",""Q06"":""1"",""Q07"":""1"",""Q08"":""0"",""Q09"":""0""}","survey-template","5","178306","0.0-4.0","558365014109454336","王**","20","本科","汉族","2002-09-14 00:00:00","1","2","2","0","0","4000","2","2","4","3","4","2","2","3","2","3","3","4","2","4","1","1","1","1","0","1","1","0","0","1","1","1","0","0","0","1","","","","","{""Q01"":""1"",""Q02"":""1"",""Q03"":""1"",""Q04"":""1"",""Q05"":""0"",""Q06"":""1"",""Q07"":""1"",""Q08"":""0"",""Q09"":""0""}","[0,1,2,3,4,5,6,7,8]","[""Q01"",""Q01"",""Q02"",""Q03"",""Q04"",""Q05"",""Q06"",""Q07"",""Q07"",""Q08"",""Q09""]","[4064.800000190735,10862.900000095367,12072.900000095367,13295,15659.60000038147,17591.10000038147,22776.10000038147,25445.400000095367,28582.900000095367,29946,31448.900000095367]","[]","[4064.800000190735,8403.300000190735,10862.900000095367,12072.900000095367,13295,15659.60000038147,17591.10000038147,20932.900000095367,22776.10000038147,25445.400000095367,28582.900000095367,29946,31448.900000095367,33176.60000038147]","0.6666666666666666","0.375","0"
"17626.89999961853","","{""Q01"":""1"",""Q02"":""1"",""Q03"":""1"",""Q04"":""0"",""Q05"":""0"",""Q06"":""0"",""Q07"":""1""}","survey-template","6","195946","0.0-5.0","558365014109454336","王**","20","本科","汉族","2002-09-14 00:00:00","1","2","2","0","0","4000","2","2","4","3","4","2","2","3","2","3","3","4","2","4","1","1","1","1","0","1","1","0","0","1","1","1","0","0","0","1","","","","","{""Q01"":""1"",""Q02"":""1"",""Q03"":""1"",""Q04"":""0"",""Q05"":""0"",""Q06"":""0"",""Q07"":""1""}","[0,1,2,3,4,5,6]","[""Q01"",""Q02"",""Q03"",""Q04"",""Q05"",""Q06"",""Q07""]","[3163.699999809265,5009.299999713898,6996.799999713898,10386.799999713898,12167.799999713898,13829.699999809265,16444.89999961853]","[]","[3163.699999809265,5009.299999713898,6996.799999713898,10386.799999713898,12167.799999713898,13829.699999809265,15169.199999809265,16444.89999961853,17624.5]","0.5714285714285714","0.3333333333333333","0"
"null","
    <p>第一阶段的实验部分已结束。</p>
    <p>系统将自动下载一个.csv文件，该文件为您的实验数据的备份文件。请不要对其进行任何更改，请不要随便删除，将它保存在您的系统文件夹中。</p>
    <p>如果数据遗失，我们将联系您获取该备份文件。</p>
    <p>感谢您的配合！</p>","null","html-keyboard-response","7","196406","0.0-6.0","558365014109454336","王**","20","本科","汉族","2002-09-14 00:00:00","1","2","2","0","0","4000","2","2","4","3","4","2","2","3","2","3","3","4","2","4","1","1","1","1","0","1","1","0","0","1","1","1","0","0","0","1","","","","","","","","","","","","",""
