"rt","stimulus","response","trial_type","trial_index","time_elapsed","internal_node_id","subj_idx","subj_name","age","education","national","birthday","sex","fatherEdu","motherEdu","FatherOccupation","MotherOccupation","income","obj_ses1","fri_ses2","selfclarity_1","selfclarity_2","selfclarity_3","selfclarity_4","selfclarity_5","selfclarity_6","selfclarity_7","selfclarity_8","selfclarity_9","selfclarity_10","selfclarity_11","selfclarity_12","phq_1","phq_2","phq_3","phq_4","phq_5","phq_6","phq_7","phq_8","phq_9","gad_1","gad_2","gad_3","gad_4","gad_5","gad_6","gad_7","success","user_agent","accuracy","question_order","responses","item_order","radio_event_ids","radio_event_times","key_event_times","mouse_event_times","straightlining","zigzagging","honeypot"
"2295","
   <p>您好，欢迎参加本次实验。</p>
   <p>为充分保障您的权利，请确保您已经知晓并同意《参与实验同意书》以及《数据公开知情同意书》。</p>
   <p>如果您未见过上述内容，请咨询实验员。</p>
   <p>如果您选择继续实验，则表示您已经清楚两份知情同意书的内容并同意。</p>
   <p> <div style = ""color: green""><按""继续""至下页></div> </p>
   ","0","html-button-response","0","2300","0.0-0.0","690626004959363072","李*","21","本科","汉族","2001-11-16 00:00:00","1","3","3","2","2","8000","3","3","3","4","2","3","2","3","3","4","4","3","3","2","2","1","0","1","0","1","0","0","0","2","1","2","1","1","2","1","","","","","","","","","","","","",""
"","","","fullscreen","1","11053","0.0-1.0","690626004959363072","李*","21","本科","汉族","2001-11-16 00:00:00","1","3","3","2","2","8000","3","3","3","4","2","3","2","3","3","4","4","3","3","2","2","1","0","1","0","1","0","0","0","2","1","2","1","1","2","1","true","{}","","","","","","","","","","",""
"23626","","{""gender"":""B.女"",""fatherEdu"":""D.高中或中专"",""motherEdu"":""D.高中或中专"",""FatherOccupation"":""C.一般管理人员与一般专业技术人员、事务性工作人员,包括商业服务业员工阶层、办事人员阶层,如售货员、司机等"",""MotherOccupation"":""C.一般管理人员与一般专业技术人员、事务性工作人员,包括商业服务业员工阶层、办事人员阶层,如售货员、司机等"",""income"":""8000""}","survey","2","34798","0.0-2.0-0.0","690626004959363072","李*","21","本科","汉族","2001-11-16 00:00:00","1","3","3","2","2","8000","3","3","3","4","2","3","2","3","3","4","4","3","3","2","2","1","0","1","0","1","0","0","0","2","1","2","1","1","2","1","","","[]","","","","","","","","","",""
"14650","","{""Q0"":2,""Q1"":2}","survey-likert","3","49942","0.0-2.0-1.0","690626004959363072","李*","21","本科","汉族","2001-11-16 00:00:00","1","3","3","2","2","8000","3","3","3","4","2","3","2","3","3","4","4","3","3","2","2","1","0","1","0","1","0","0","0","2","1","2","1","1","2","1","","","","[0,1]","","","","","","","","",""
"88207.20000000001","","{""Q01"":""3"",""Q02"":""4"",""Q03"":""2"",""Q04"":""3"",""Q05"":""2"",""Q06"":""3"",""Q07"":""3"",""Q08"":""4"",""Q09"":""4"",""Q10"":""3"",""Q11"":""3"",""Q12"":""2""}","survey-template","4","138172","0.0-3.0","690626004959363072","李*","21","本科","汉族","2001-11-16 00:00:00","1","3","3","2","2","8000","3","3","3","4","2","3","2","3","3","4","4","3","3","2","2","1","0","1","0","1","0","0","0","2","1","2","1","1","2","1","","","","","{""Q01"":""3"",""Q02"":""4"",""Q03"":""2"",""Q04"":""3"",""Q05"":""2"",""Q06"":""3"",""Q07"":""3"",""Q08"":""4"",""Q09"":""4"",""Q10"":""3"",""Q11"":""3"",""Q12"":""2""}","[0,1,2,3,4,5,6,7,8,9,10,11]","[""Q01"",""Q02"",""Q03"",""Q04"",""Q05"",""Q06"",""Q07"",""Q08"",""Q09"",""Q10"",""Q11"",""Q12""]","[49259,52826.600000000035,54810.90000000002,59658.90000000002,65554.70000000001,66818.5,69282.5,71354.5,78090.29999999999,81050.29999999999,85338.10000000003,87682.00000000006]","[]","[48691.40000000002,49259,52826.600000000035,54810.90000000002,59658.90000000002,65554.70000000001,66818.5,69282.5,71354.5,78090.29999999999,81050.29999999999,84833.89999999997,85338.10000000003,87306.39999999997,87682.00000000006,88202.39999999997]","0.5","0.6363636363636364","0"
"38932.60000000009","","{""Q01"":""2"",""Q02"":""1"",""Q03"":""0"",""Q04"":""1"",""Q05"":""0"",""Q06"":""1"",""Q07"":""0"",""Q08"":""0"",""Q09"":""0""}","survey-template","5","177118","0.0-4.0","690626004959363072","李*","21","本科","汉族","2001-11-16 00:00:00","1","3","3","2","2","8000","3","3","3","4","2","3","2","3","3","4","4","3","3","2","2","1","0","1","0","1","0","0","0","2","1","2","1","1","2","1","","","","","{""Q01"":""2"",""Q02"":""1"",""Q03"":""0"",""Q04"":""1"",""Q05"":""0"",""Q06"":""1"",""Q07"":""0"",""Q08"":""0"",""Q09"":""0""}","[0,1,2,3,4,5,6,7,8]","[""Q01"",""Q02"",""Q03"",""Q04"",""Q05"",""Q06"",""Q07"",""Q08"",""Q09""]","[11594.300000000047,12930.5,20554.300000000047,22042.100000000093,24722.300000000047,27466.100000000093,29106.20000000007,36873.70000000007,38017.90000000002]","[]","[11594.300000000047,12930.5,20554.300000000047,22042.100000000093,24002.70000000007,24722.300000000047,27466.100000000093,29106.20000000007,36873.70000000007,37609.70000000007,38017.90000000002,38930]","0.5555555555555556","0.75","0"
"12626.599999999977","","{""Q01"":""2"",""Q02"":""1"",""Q03"":""2"",""Q04"":""1"",""Q05"":""1"",""Q06"":""2"",""Q07"":""1""}","survey-template","6","189758","0.0-5.0","690626004959363072","李*","21","本科","汉族","2001-11-16 00:00:00","1","3","3","2","2","8000","3","3","3","4","2","3","2","3","3","4","4","3","3","2","2","1","0","1","0","1","0","0","0","2","1","2","1","1","2","1","","","","","{""Q01"":""2"",""Q02"":""1"",""Q03"":""2"",""Q04"":""1"",""Q05"":""1"",""Q06"":""2"",""Q07"":""1""}","[0,1,2,3,4,5,6]","[""Q01"",""Q01"",""Q02"",""Q03"",""Q04"",""Q05"",""Q06"",""Q07""]","[3568.6999999999534,4728.699999999953,5520.699999999953,7056.79999999993,8000.399999999907,9136.599999999977,10288.899999999907,11840.599999999977]","[]","[3568.6999999999534,4728.699999999953,5520.699999999953,7056.79999999993,8000.399999999907,9136.599999999977,10288.899999999907,11840.599999999977,12624.599999999977]","0.5714285714285714","0.8333333333333334","0"
"null","
    <p>第一阶段的实验部分已结束。</p>
    <p>系统将自动下载一个.csv文件，该文件为您的实验数据的备份文件。请不要对其进行任何更改，请不要随便删除，将它保存在您的系统文件夹中。</p>
    <p>如果数据遗失，我们将联系您获取该备份文件。</p>
    <p>感谢您的配合！</p>","null","html-keyboard-response","7","190226","0.0-6.0","690626004959363072","李*","21","本科","汉族","2001-11-16 00:00:00","1","3","3","2","2","8000","3","3","3","4","2","3","2","3","3","4","4","3","3","2","2","1","0","1","0","1","0","0","0","2","1","2","1","1","2","1","","","","","","","","","","","","",""
