"rt","stimulus","response","trial_type","trial_index","time_elapsed","internal_node_id","subj_idx","subj_name","age","education","national","birthday","sex","fatherEdu","motherEdu","FatherOccupation","MotherOccupation","income","obj_ses1","fri_ses2","selfclarity_1","selfclarity_2","selfclarity_3","selfclarity_4","selfclarity_5","selfclarity_6","selfclarity_7","selfclarity_8","selfclarity_9","selfclarity_10","selfclarity_11","selfclarity_12","phq_1","phq_2","phq_3","phq_4","phq_5","phq_6","phq_7","phq_8","phq_9","gad_1","gad_2","gad_3","gad_4","gad_5","gad_6","gad_7","success","user_agent","accuracy","question_order","responses","item_order","radio_event_ids","radio_event_times","key_event_times","mouse_event_times","straightlining","zigzagging","honeypot"
"4020","
   <p>您好，欢迎参加本次实验。</p>
   <p>为充分保障您的权利，请确保您已经知晓并同意《参与实验同意书》以及《数据公开知情同意书》。</p>
   <p>如果您未见过上述内容，请咨询实验员。</p>
   <p>如果您选择继续实验，则表示您已经清楚两份知情同意书的内容并同意。</p>
   <p> <div style = ""color: green""><按""继续""至下页></div> </p>
   ","0","html-button-response","0","4023","0.0-0.0","613040465838604288","郑**","23","本科","汉族","2000-05-08 00:00:00","1","2","2","1","1","15000","6","6","4","5","3","4","3","2","2","5","5","5","4","5","1","1","0","2","0","0","1","0","0","1","0","2","0","0","1","0","","","","","","","","","","","","",""
"","","","fullscreen","1","18039","0.0-1.0","613040465838604288","郑**","23","本科","汉族","2000-05-08 00:00:00","1","2","2","1","1","15000","6","6","4","5","3","4","3","2","2","5","5","5","4","5","1","1","0","2","0","0","1","0","0","1","0","2","0","0","1","0","true","{}","","","","","","","","","","",""
"108395","","{""gender"":""B.女"",""fatherEdu"":""C.初中"",""motherEdu"":""C.初中"",""FatherOccupation"":""B.体力劳动工人和个体经营人员、技术工及同级工作者,如建筑工人及相关人员"",""MotherOccupation"":""B.体力劳动工人和个体经营人员、技术工及同级工作者,如建筑工人及相关人员"",""income"":""15000""}","survey","2","126501","0.0-2.0-0.0","613040465838604288","郑**","23","本科","汉族","2000-05-08 00:00:00","1","2","2","1","1","15000","6","6","4","5","3","4","3","2","2","5","5","5","4","5","1","1","0","2","0","0","1","0","0","1","0","2","0","0","1","0","","","[]","","","","","","","","","",""
"104737","","{""Q0"":5,""Q1"":5}","survey-likert","3","231640","0.0-2.0-1.0","613040465838604288","郑**","23","本科","汉族","2000-05-08 00:00:00","1","2","2","1","1","15000","6","6","4","5","3","4","3","2","2","5","5","5","4","5","1","1","0","2","0","0","1","0","0","1","0","2","0","0","1","0","","","","[0,1]","","","","","","","","",""
"54940.09999990463","","{""Q01"":""4"",""Q02"":""5"",""Q03"":""3"",""Q04"":""4"",""Q05"":""3"",""Q06"":""2"",""Q07"":""2"",""Q08"":""5"",""Q09"":""5"",""Q10"":""5"",""Q11"":""4"",""Q12"":""5""}","survey-template","4","286586","0.0-3.0","613040465838604288","郑**","23","本科","汉族","2000-05-08 00:00:00","1","2","2","1","1","15000","6","6","4","5","3","4","3","2","2","5","5","5","4","5","1","1","0","2","0","0","1","0","0","1","0","2","0","0","1","0","","","","","{""Q01"":""4"",""Q02"":""5"",""Q03"":""3"",""Q04"":""4"",""Q05"":""3"",""Q06"":""2"",""Q07"":""2"",""Q08"":""5"",""Q09"":""5"",""Q10"":""5"",""Q11"":""4"",""Q12"":""5""}","[0,1,2,3,4,5,6,7,8,9,10,11]","[""Q01"",""Q02"",""Q03"",""Q05"",""Q06"",""Q07"",""Q08"",""Q09"",""Q10"",""Q11"",""Q12"",""Q04""]","[7490.199999809265,10809.799999713898,15746.099999904633,20705.799999713898,27369.799999713898,30249.799999713898,32626,38089.7999997139,43137.7999997139,44929.89999961853,47625.89999961853,53649.7999997139]","[]","[7490.199999809265,10809.799999713898,14369.799999713898,15746.099999904633,16801.799999713898,20705.799999713898,27369.799999713898,30249.799999713898,32626,38089.7999997139,43137.7999997139,44929.89999961853,47625.89999961853,49865.89999961853,53649.7999997139,54938.39999961853]","0.4166666666666667","0.36363636363636365","0"
"22195.299999713898","","{""Q01"":""1"",""Q02"":""1"",""Q03"":""0"",""Q04"":""2"",""Q05"":""0"",""Q06"":""0"",""Q07"":""1"",""Q08"":""0"",""Q09"":""0""}","survey-template","5","308784","0.0-4.0","613040465838604288","郑**","23","本科","汉族","2000-05-08 00:00:00","1","2","2","1","1","15000","6","6","4","5","3","4","3","2","2","5","5","5","4","5","1","1","0","2","0","0","1","0","0","1","0","2","0","0","1","0","","","","","{""Q01"":""1"",""Q02"":""1"",""Q03"":""0"",""Q04"":""2"",""Q05"":""0"",""Q06"":""0"",""Q07"":""1"",""Q08"":""0"",""Q09"":""0""}","[0,1,2,3,4,5,6,7,8]","[""Q01"",""Q02"",""Q03"",""Q04"",""Q05"",""Q06"",""Q07"",""Q08"",""Q09""]","[2498.2999997138977,6418.199999809265,7530.299999713898,11194.299999713898,12794.400000095367,14234.400000095367,16378.299999713898,19306.299999713898,21354.199999809265]","[]","[2498.2999997138977,6418.199999809265,7530.299999713898,10426.299999713898,11194.299999713898,12794.400000095367,14234.400000095367,16378.299999713898,19306.299999713898,21354.199999809265,22194.299999713898]","0.5555555555555556","0.375","0"
"129588.7999997139","","{""Q01"":""1"",""Q02"":""0"",""Q03"":""2"",""Q04"":""0"",""Q05"":""0"",""Q06"":""1"",""Q07"":""0""}","survey-template","6","438376","0.0-5.0","613040465838604288","郑**","23","本科","汉族","2000-05-08 00:00:00","1","2","2","1","1","15000","6","6","4","5","3","4","3","2","2","5","5","5","4","5","1","1","0","2","0","0","1","0","0","1","0","2","0","0","1","0","","","","","{""Q01"":""1"",""Q02"":""0"",""Q03"":""2"",""Q04"":""0"",""Q05"":""0"",""Q06"":""1"",""Q07"":""0""}","[0,1,2,3,4,5,6]","[""Q01"",""Q02"",""Q03"",""Q04"",""Q05"",""Q06"",""Q07""]","[2363.9000000953674,5371.799999713898,6227.699999809265,7931.699999809265,8539.900000095367,13267.799999713898,128604]","[]","[2363.9000000953674,3812,5371.799999713898,6227.699999809265,7931.699999809265,8539.900000095367,13267.799999713898,128604,129587.7999997139]","0.5714285714285714","0.5","0"
"null","
    <p>第一阶段的实验部分已结束。</p>
    <p>系统将自动下载一个.csv文件，该文件为您的实验数据的备份文件。请不要对其进行任何更改，请不要随便删除，将它保存在您的系统文件夹中。</p>
    <p>如果数据遗失，我们将联系您获取该备份文件。</p>
    <p>感谢您的配合！</p>","null","html-keyboard-response","7","438832","0.0-6.0","613040465838604288","郑**","23","本科","汉族","2000-05-08 00:00:00","1","2","2","1","1","15000","6","6","4","5","3","4","3","2","2","5","5","5","4","5","1","1","0","2","0","0","1","0","0","1","0","2","0","0","1","0","","","","","","","","","","","","",""
