"rt","stimulus","response","trial_type","trial_index","time_elapsed","internal_node_id","subj_idx","subj_name","age","education","national","birthday","sex","fatherEdu","motherEdu","FatherOccupation","MotherOccupation","income","obj_ses1","fri_ses2","selfclarity_1","selfclarity_2","selfclarity_3","selfclarity_4","selfclarity_5","selfclarity_6","selfclarity_7","selfclarity_8","selfclarity_9","selfclarity_10","selfclarity_11","selfclarity_12","phq_1","phq_2","phq_3","phq_4","phq_5","phq_6","phq_7","phq_8","phq_9","gad_1","gad_2","gad_3","gad_4","gad_5","gad_6","gad_7","success","user_agent","accuracy","question_order","responses","item_order","radio_event_ids","radio_event_times","key_event_times","mouse_event_times","straightlining","zigzagging","honeypot"
"4382","
   <p>您好，欢迎参加本次实验。</p>
   <p>为充分保障您的权利，请确保您已经知晓并同意《参与实验同意书》以及《数据公开知情同意书》。</p>
   <p>如果您未见过上述内容，请咨询实验员。</p>
   <p>如果您选择继续实验，则表示您已经清楚两份知情同意书的内容并同意。</p>
   <p> <div style = ""color: green""><按""继续""至下页></div> </p>
   ","0","html-button-response","0","4387","0.0-0.0","728341831389020160","曹**","26","本科","汉族","1997-09-04 00:00:00","0","4","3","3","2","18000","5","5","4","4","2","4","5","4","4","4","4","5","4","5","0","0","0","0","0","0","0","0","0","0","0","0","0","0","0","0","","","","","","","","","","","","",""
"","","","fullscreen","1","60054","0.0-1.0","728341831389020160","曹**","26","本科","汉族","1997-09-04 00:00:00","0","4","3","3","2","18000","5","5","4","4","2","4","5","4","4","4","4","5","4","5","0","0","0","0","0","0","0","0","0","0","0","0","0","0","0","0","true","{}","","","","","","","","","","",""
"61565","","{""gender"":""A.男"",""fatherEdu"":""E.大学（专科或本科）"",""motherEdu"":""D.高中或中专"",""FatherOccupation"":""D.中层管理人员与中层专业技术人员、助理专业人员,包括在各种经济成分的机构(包括国家机关、党群组织、全民企事业单位、集体企事业单位和各类非公有制经济企业)中专门从事各种专业性工作和科学技术工作的人员,如教师、医生、技师等"",""MotherOccupation"":""C.一般管理人员与一般专业技术人员、事务性工作人员,包括商业服务业员工阶层、办事人员阶层,如售货员、司机等"",""income"":""18000""}","survey","2","121689","0.0-2.0-0.0","728341831389020160","曹**","26","本科","汉族","1997-09-04 00:00:00","0","4","3","3","2","18000","5","5","4","4","2","4","5","4","4","4","4","5","4","5","0","0","0","0","0","0","0","0","0","0","0","0","0","0","0","0","","","[]","","","","","","","","","",""
"19957","","{""Q0"":4,""Q1"":4}","survey-likert","3","142278","0.0-2.0-1.0","728341831389020160","曹**","26","本科","汉族","1997-09-04 00:00:00","0","4","3","3","2","18000","5","5","4","4","2","4","5","4","4","4","4","5","4","5","0","0","0","0","0","0","0","0","0","0","0","0","0","0","0","0","","","","[0,1]","","","","","","","","",""
"191154.09999999404","","{""Q01"":""4"",""Q02"":""4"",""Q03"":""2"",""Q04"":""4"",""Q05"":""5"",""Q06"":""4"",""Q07"":""4"",""Q08"":""4"",""Q09"":""4"",""Q10"":""5"",""Q11"":""4"",""Q12"":""5""}","survey-template","4","333438","0.0-3.0","728341831389020160","曹**","26","本科","汉族","1997-09-04 00:00:00","0","4","3","3","2","18000","5","5","4","4","2","4","5","4","4","4","4","5","4","5","0","0","0","0","0","0","0","0","0","0","0","0","0","0","0","0","","","","","{""Q01"":""4"",""Q02"":""4"",""Q03"":""2"",""Q04"":""4"",""Q05"":""5"",""Q06"":""4"",""Q07"":""4"",""Q08"":""4"",""Q09"":""4"",""Q10"":""5"",""Q11"":""4"",""Q12"":""5""}","[0,1,2,3,4,5,6,7,8,9,10,11]","[""Q01"",""Q02"",""Q02"",""Q02"",""Q02"",""Q03"",""Q04"",""Q05"",""Q06"",""Q07"",""Q08"",""Q08"",""Q09"",""Q10"",""Q11"",""Q11"",""Q12""]","[5704.29999999702,12333.89999999106,12390.59999999404,15334.89999999106,15390.5,19648.09999999404,23206.5,107743.09999999404,112871,118838.79999999702,121720.79999999702,121823.79999999702,127471.09999999404,151288.09999999404,179559.09999999404,179630.59999999404,182095.20000000298]","[]","[5704.29999999702,12333.89999999106,12390.59999999404,15334.89999999106,15390.5,19648.09999999404,23206.5,107743.09999999404,112871,118838.79999999702,121720.79999999702,121823.79999999702,127471.09999999404,149638.79999999702,150944,151288.09999999404,179559.09999999404,179630.59999999404,182095.20000000298,191152.20000000298]","0.5","0.18181818181818182","0"
"24426.20000000298","","{""Q01"":""0"",""Q02"":""0"",""Q03"":""0"",""Q04"":""0"",""Q05"":""0"",""Q06"":""0"",""Q07"":""0"",""Q08"":""0"",""Q09"":""0""}","survey-template","5","357869","0.0-4.0","728341831389020160","曹**","26","本科","汉族","1997-09-04 00:00:00","0","4","3","3","2","18000","5","5","4","4","2","4","5","4","4","4","4","5","4","5","0","0","0","0","0","0","0","0","0","0","0","0","0","0","0","0","","","","","{""Q01"":""0"",""Q02"":""0"",""Q03"":""0"",""Q04"":""0"",""Q05"":""0"",""Q06"":""0"",""Q07"":""0"",""Q08"":""0"",""Q09"":""0""}","[0,1,2,3,4,5,6,7,8]","[""Q01"",""Q02"",""Q03"",""Q04"",""Q05"",""Q05"",""Q06"",""Q07"",""Q08"",""Q09""]","[3415.5999999940395,4639.5,5719.5999999940395,6849.0999999940395,9167.79999999702,9239.39999999106,11921.09999999404,13399.89999999106,22361.29999999702,23415.59999999404]","[]","[2455.2999999970198,3415.5999999940395,4639.5,5719.5999999940395,6849.0999999940395,8304.29999999702,9167.79999999702,9239.39999999106,11921.09999999404,13399.89999999106,15681,20289.09999999404,20352.89999999106,21064.09999999404,22361.29999999702,23415.59999999404,24425.09999999404]","1","0","0"
"11747.79999999702","","{""Q01"":""0"",""Q02"":""0"",""Q03"":""0"",""Q04"":""0"",""Q05"":""0"",""Q06"":""0"",""Q07"":""0""}","survey-template","6","369620","0.0-5.0","728341831389020160","曹**","26","本科","汉族","1997-09-04 00:00:00","0","4","3","3","2","18000","5","5","4","4","2","4","5","4","4","4","4","5","4","5","0","0","0","0","0","0","0","0","0","0","0","0","0","0","0","0","","","","","{""Q01"":""0"",""Q02"":""0"",""Q03"":""0"",""Q04"":""0"",""Q05"":""0"",""Q06"":""0"",""Q07"":""0""}","[0,1,2,3,4,5,6]","[""Q01"",""Q02"",""Q03"",""Q04"",""Q06"",""Q05"",""Q07""]","[2851,3731,4515.100000008941,5211,7057.4000000059605,9131,10786.90000000596]","[]","[2089.7000000029802,2138.6000000089407,2851,3731,4515.100000008941,5211,6010.9000000059605,7057.4000000059605,9131,10786.90000000596,11747]","1","0","0"
"null","
    <p>第一阶段的实验部分已结束。</p>
    <p>系统将自动下载一个.csv文件，该文件为您的实验数据的备份文件。请不要对其进行任何更改，请不要随便删除，将它保存在您的系统文件夹中。</p>
    <p>如果数据遗失，我们将联系您获取该备份文件。</p>
    <p>感谢您的配合！</p>","null","html-keyboard-response","7","370091","0.0-6.0","728341831389020160","曹**","26","本科","汉族","1997-09-04 00:00:00","0","4","3","3","2","18000","5","5","4","4","2","4","5","4","4","4","4","5","4","5","0","0","0","0","0","0","0","0","0","0","0","0","0","0","0","0","","","","","","","","","","","","",""
