"rt","stimulus","response","trial_type","trial_index","time_elapsed","internal_node_id","subj_idx","subj_name","age","education","national","birthday","sex","fatherEdu","motherEdu","FatherOccupation","MotherOccupation","income","obj_ses1","fri_ses2","selfclarity_1","selfclarity_2","selfclarity_3","selfclarity_4","selfclarity_5","selfclarity_6","selfclarity_7","selfclarity_8","selfclarity_9","selfclarity_10","selfclarity_11","selfclarity_12","phq_1","phq_2","phq_3","phq_4","phq_5","phq_6","phq_7","phq_8","phq_9","gad_1","gad_2","gad_3","gad_4","gad_5","gad_6","gad_7","success","user_agent","accuracy","question_order","responses","item_order","radio_event_ids","radio_event_times","key_event_times","mouse_event_times","straightlining","zigzagging","honeypot"
"1717","
   <p>您好，欢迎参加本次实验。</p>
   <p>为充分保障您的权利，请确保您已经知晓并同意《参与实验同意书》以及《数据公开知情同意书》。</p>
   <p>如果您未见过上述内容，请咨询实验员。</p>
   <p>如果您选择继续实验，则表示您已经清楚两份知情同意书的内容并同意。</p>
   <p> <div style = ""color: green""><按""继续""至下页></div> </p>
   ","0","html-button-response","0","1720","0.0-0.0","678632291517333504","范**","20","本科","汉族","2002-12-09 00:00:00","0","2","3","2","2","15000","5","6","4","3","3","2","3","3","2","3","2","3","2","2","1","1","0","1","0","0","1","0","0","0","0","1","1","0","0","1","","","","","","","","","","","","",""
"","","","fullscreen","1","7260","0.0-1.0","678632291517333504","范**","20","本科","汉族","2002-12-09 00:00:00","0","2","3","2","2","15000","5","6","4","3","3","2","3","3","2","3","2","3","2","2","1","1","0","1","0","0","1","0","0","0","0","1","1","0","0","1","true","{}","","","","","","","","","","",""
"40088","","{""gender"":""A.男"",""fatherEdu"":""C.初中"",""motherEdu"":""D.高中或中专"",""FatherOccupation"":""C.一般管理人员与一般专业技术人员、事务性工作人员,包括商业服务业员工阶层、办事人员阶层,如售货员、司机等"",""MotherOccupation"":""C.一般管理人员与一般专业技术人员、事务性工作人员,包括商业服务业员工阶层、办事人员阶层,如售货员、司机等"",""income"":""15000""}","survey","2","47396","0.0-2.0-0.0","678632291517333504","范**","20","本科","汉族","2002-12-09 00:00:00","0","2","3","2","2","15000","5","6","4","3","3","2","3","3","2","3","2","3","2","2","1","1","0","1","0","0","1","0","0","0","0","1","1","0","0","1","","","[]","","","","","","","","","",""
"11932","","{""Q0"":4,""Q1"":5}","survey-likert","3","59737","0.0-2.0-1.0","678632291517333504","范**","20","本科","汉族","2002-12-09 00:00:00","0","2","3","2","2","15000","5","6","4","3","3","2","3","3","2","3","2","3","2","2","1","1","0","1","0","0","1","0","0","0","0","1","1","0","0","1","","","","[0,1]","","","","","","","","",""
"32116","","{""Q01"":""4"",""Q02"":""3"",""Q03"":""3"",""Q04"":""2"",""Q05"":""3"",""Q06"":""3"",""Q07"":""2"",""Q08"":""3"",""Q09"":""2"",""Q10"":""3"",""Q11"":""2"",""Q12"":""2""}","survey-template","4","91857","0.0-3.0","678632291517333504","范**","20","本科","汉族","2002-12-09 00:00:00","0","2","3","2","2","15000","5","6","4","3","3","2","3","3","2","3","2","3","2","2","1","1","0","1","0","0","1","0","0","0","0","1","1","0","0","1","","","","","{""Q01"":""4"",""Q02"":""3"",""Q03"":""3"",""Q04"":""2"",""Q05"":""3"",""Q06"":""3"",""Q07"":""2"",""Q08"":""3"",""Q09"":""2"",""Q10"":""3"",""Q11"":""2"",""Q12"":""2""}","[0,1,2,3,4,5,6,7,8,9,10,11]","[""Q01"",""Q02"",""Q03"",""Q04"",""Q05"",""Q06"",""Q07"",""Q08"",""Q09"",""Q10"",""Q11"",""Q11"",""Q12"",""Q12""]","[7603,10347.900000095367,11331.300000190735,13299.100000143051,14659,16931.800000190735,20602.800000190735,21667,22507.200000047684,23843.10000014305,25226.800000190735,28587.60000014305,29827.400000095367,31411.10000014305]","[]","[7603,8883.100000143051,10347.900000095367,11331.300000190735,13299.100000143051,14659,16931.800000190735,20091.200000047684,20602.800000190735,21667,22507.200000047684,23843.10000014305,25226.800000190735,28587.60000014305,29827.400000095367,30675.200000047684,31092,31411.10000014305,32115]","0.5","0.7272727272727273","0"
"20109.099999904633","","{""Q01"":""1"",""Q02"":""1"",""Q03"":""0"",""Q04"":""1"",""Q05"":""0"",""Q06"":""0"",""Q07"":""1"",""Q08"":""0"",""Q09"":""0""}","survey-template","5","111969","0.0-4.0","678632291517333504","范**","20","本科","汉族","2002-12-09 00:00:00","0","2","3","2","2","15000","5","6","4","3","3","2","3","3","2","3","2","3","2","2","1","1","0","1","0","0","1","0","0","0","0","1","1","0","0","1","","","","","{""Q01"":""1"",""Q02"":""1"",""Q03"":""0"",""Q04"":""1"",""Q05"":""0"",""Q06"":""0"",""Q07"":""1"",""Q08"":""0"",""Q09"":""0""}","[0,1,2,3,4,5,6,7,8]","[""Q01"",""Q02"",""Q03"",""Q04"",""Q06"",""Q05"",""Q07"",""Q08"",""Q09""]","[6940.400000095367,7924,9332,10612.799999952316,12963.799999952316,13595.799999952316,15252.099999904633,17643.900000095367,19060.900000095367]","[]","[6940.400000095367,7924,9332,10612.799999952316,11836.299999952316,12963.799999952316,13595.799999952316,15252.099999904633,17643.900000095367,19060.900000095367,20108.200000047684]","0.5555555555555556","0.625","0"
"30036.299999952316","","{""Q01"":""0"",""Q02"":""0"",""Q03"":""1"",""Q04"":""1"",""Q05"":""0"",""Q06"":""0"",""Q07"":""1""}","survey-template","6","142008","0.0-5.0","678632291517333504","范**","20","本科","汉族","2002-12-09 00:00:00","0","2","3","2","2","15000","5","6","4","3","3","2","3","3","2","3","2","3","2","2","1","1","0","1","0","0","1","0","0","0","0","1","1","0","0","1","","","","","{""Q01"":""0"",""Q02"":""0"",""Q03"":""1"",""Q04"":""1"",""Q05"":""0"",""Q06"":""0"",""Q07"":""1""}","[0,1,2,3,4,5,6]","[""Q01"",""Q02"",""Q03"",""Q04"",""Q05"",""Q06"",""Q07""]","[21899.39999985695,22635.5,25099.199999809265,25979.39999985695,27171.39999985695,28323.199999809265,29411.39999985695]","[]","[21219.199999809265,21899.39999985695,22635.5,23675.299999952316,24459.699999809265,25099.199999809265,25979.39999985695,27171.39999985695,28323.199999809265,29411.39999985695,30035.5]","0.5714285714285714","0.5","0"
"null","
    <p>第一阶段的实验部分已结束。</p>
    <p>系统将自动下载一个.csv文件，该文件为您的实验数据的备份文件。请不要对其进行任何更改，请不要随便删除，将它保存在您的系统文件夹中。</p>
    <p>如果数据遗失，我们将联系您获取该备份文件。</p>
    <p>感谢您的配合！</p>","null","html-keyboard-response","7","142462","0.0-6.0","678632291517333504","范**","20","本科","汉族","2002-12-09 00:00:00","0","2","3","2","2","15000","5","6","4","3","3","2","3","3","2","3","2","3","2","2","1","1","0","1","0","0","1","0","0","0","0","1","1","0","0","1","","","","","","","","","","","","",""
