"rt","stimulus","response","trial_type","trial_index","time_elapsed","internal_node_id","subj_idx","subj_name","age","education","national","birthday","sex","fatherEdu","motherEdu","FatherOccupation","MotherOccupation","income","obj_ses1","fri_ses2","selfclarity_1","selfclarity_2","selfclarity_3","selfclarity_4","selfclarity_5","selfclarity_6","selfclarity_7","selfclarity_8","selfclarity_9","selfclarity_10","selfclarity_11","selfclarity_12","phq_1","phq_2","phq_3","phq_4","phq_5","phq_6","phq_7","phq_8","phq_9","gad_1","gad_2","gad_3","gad_4","gad_5","gad_6","gad_7","success","user_agent","accuracy","question_order","responses","item_order","radio_event_ids","radio_event_times","key_event_times","mouse_event_times","straightlining","zigzagging","honeypot"
"3976","
   <p>您好，欢迎参加本次实验。</p>
   <p>为充分保障您的权利，请确保您已经知晓并同意《参与实验同意书》以及《数据公开知情同意书》。</p>
   <p>如果您未见过上述内容，请咨询实验员。</p>
   <p>如果您选择继续实验，则表示您已经清楚两份知情同意书的内容并同意。</p>
   <p> <div style = ""color: green""><按""继续""至下页></div> </p>
   ","0","html-button-response","0","3988","0.0-0.0","703157170715230208","齐**","29","硕士","汉族","1993-12-14 00:00:00","1","3","3","1","1","10000","4","3","3","4","2","4","4","4","2","4","4","4","4","3","2","3","3","2","2","2","1","2","1","3","2","2","3","3","2","1","","","","","","","","","","","","",""
"","","","fullscreen","1","30464","0.0-1.0","703157170715230208","齐**","29","硕士","汉族","1993-12-14 00:00:00","1","3","3","1","1","10000","4","3","3","4","2","4","4","4","2","4","4","4","4","3","2","3","3","2","2","2","1","2","1","3","2","2","3","3","2","1","true","{}","","","","","","","","","","",""
"57305","","{""gender"":""B.女"",""fatherEdu"":""D.高中或中专"",""motherEdu"":""D.高中或中专"",""FatherOccupation"":""B.体力劳动工人和个体经营人员、技术工及同级工作者,如建筑工人及相关人员"",""MotherOccupation"":""B.体力劳动工人和个体经营人员、技术工及同级工作者,如建筑工人及相关人员"",""income"":""10000""}","survey","2","87951","0.0-2.0-0.0","703157170715230208","齐**","29","硕士","汉族","1993-12-14 00:00:00","1","3","3","1","1","10000","4","3","3","4","2","4","4","4","2","4","4","4","4","3","2","3","3","2","2","2","1","2","1","3","2","2","3","3","2","1","","","[]","","","","","","","","","",""
"31811","","{""Q0"":3,""Q1"":2}","survey-likert","3","120646","0.0-2.0-1.0","703157170715230208","齐**","29","硕士","汉族","1993-12-14 00:00:00","1","3","3","1","1","10000","4","3","3","4","2","4","4","4","2","4","4","4","4","3","2","3","3","2","2","2","1","2","1","3","2","2","3","3","2","1","","","","[0,1]","","","","","","","","",""
"98155","","{""Q01"":""3"",""Q02"":""4"",""Q03"":""2"",""Q04"":""4"",""Q05"":""4"",""Q06"":""4"",""Q07"":""2"",""Q08"":""4"",""Q09"":""4"",""Q10"":""4"",""Q11"":""4"",""Q12"":""3""}","survey-template","4","218828","0.0-3.0","703157170715230208","齐**","29","硕士","汉族","1993-12-14 00:00:00","1","3","3","1","1","10000","4","3","3","4","2","4","4","4","2","4","4","4","4","3","2","3","3","2","2","2","1","2","1","3","2","2","3","3","2","1","","","","","{""Q01"":""3"",""Q02"":""4"",""Q03"":""2"",""Q04"":""4"",""Q05"":""4"",""Q06"":""4"",""Q07"":""2"",""Q08"":""4"",""Q09"":""4"",""Q10"":""4"",""Q11"":""4"",""Q12"":""3""}","[0,1,2,3,4,5,6,7,8,9,10,11]","[""Q01"",""Q02"",""Q03"",""Q04"",""Q04"",""Q04"",""Q05"",""Q06"",""Q07"",""Q08"",""Q09"",""Q09"",""Q10"",""Q11"",""Q12""]","[20021.900000000373,26133,29908.900000000373,41324.60000000056,42220.299999999814,44364.40000000037,58387.5,62067.5,65947.40000000037,68091.5,75875.29999999981,77835.20000000019,89354.29999999981,92850.40000000037,97370.29999999981]","[]","[20021.900000000373,26133,29908.900000000373,41324.60000000056,42220.299999999814,44364.40000000037,58387.5,62067.5,65947.40000000037,68091.5,75875.29999999981,77835.20000000019,89354.29999999981,92850.40000000037,97370.29999999981,98146.90000000037]","0.5","0.18181818181818182","0"
"43152","","{""Q01"":""2"",""Q02"":""3"",""Q03"":""3"",""Q04"":""2"",""Q05"":""2"",""Q06"":""2"",""Q07"":""1"",""Q08"":""2"",""Q09"":""1""}","survey-template","5","261998","0.0-4.0","703157170715230208","齐**","29","硕士","汉族","1993-12-14 00:00:00","1","3","3","1","1","10000","4","3","3","4","2","4","4","4","2","4","4","4","4","3","2","3","3","2","2","2","1","2","1","3","2","2","3","3","2","1","","","","","{""Q01"":""2"",""Q02"":""3"",""Q03"":""3"",""Q04"":""2"",""Q05"":""2"",""Q06"":""2"",""Q07"":""1"",""Q08"":""2"",""Q09"":""1""}","[0,1,2,3,4,5,6,7,8]","[""Q01"",""Q02"",""Q03"",""Q04"",""Q05"",""Q06"",""Q07"",""Q08"",""Q08"",""Q09"",""Q08""]","[5405,9996.799999999814,11932.899999999441,15668.5,19012.200000000186,26380.200000000186,30372,34307.39999999944,36107.799999999814,41467.59999999963,42371.299999999814]","[]","[5405,9996.799999999814,11932.899999999441,15668.5,19012.200000000186,26380.200000000186,30372,34307.39999999944,36107.799999999814,41467.59999999963,42371.299999999814,43147.700000000186]","0.5555555555555556","0.625","0"
"19879.400000000373","","{""Q01"":""3"",""Q02"":""2"",""Q03"":""2"",""Q04"":""3"",""Q05"":""3"",""Q06"":""2"",""Q07"":""1""}","survey-template","6","281892","0.0-5.0","703157170715230208","齐**","29","硕士","汉族","1993-12-14 00:00:00","1","3","3","1","1","10000","4","3","3","4","2","4","4","4","2","4","4","4","4","3","2","3","3","2","2","2","1","2","1","3","2","2","3","3","2","1","","","","","{""Q01"":""3"",""Q02"":""2"",""Q03"":""2"",""Q04"":""3"",""Q05"":""3"",""Q06"":""2"",""Q07"":""1""}","[0,1,2,3,4,5,6]","[""Q01"",""Q02"",""Q03"",""Q04"",""Q05"",""Q06"",""Q07"",""Q07""]","[4300.100000000559,8068,10563.600000000559,11531.900000000373,14411.800000000745,16499.800000000745,17267.5,18979.60000000056]","[]","[4300.100000000559,6635.9000000003725,8068,9412.300000000745,10563.600000000559,11531.900000000373,14411.800000000745,16499.800000000745,17267.5,18979.60000000056,19875.60000000056]","0.42857142857142855","0.6666666666666666","0"
"null","
    <p>第一阶段的实验部分已结束。</p>
    <p>系统将自动下载一个.csv文件，该文件为您的实验数据的备份文件。请不要对其进行任何更改，请不要随便删除，将它保存在您的系统文件夹中。</p>
    <p>如果数据遗失，我们将联系您获取该备份文件。</p>
    <p>感谢您的配合！</p>","null","html-keyboard-response","7","282363","0.0-6.0","703157170715230208","齐**","29","硕士","汉族","1993-12-14 00:00:00","1","3","3","1","1","10000","4","3","3","4","2","4","4","4","2","4","4","4","4","3","2","3","3","2","2","2","1","2","1","3","2","2","3","3","2","1","","","","","","","","","","","","",""
