"rt","stimulus","response","trial_type","trial_index","time_elapsed","internal_node_id","subj_idx","subj_name","age","education","national","birthday","sex","fatherEdu","motherEdu","FatherOccupation","MotherOccupation","income","obj_ses1","fri_ses2","selfclarity_1","selfclarity_2","selfclarity_3","selfclarity_4","selfclarity_5","selfclarity_6","selfclarity_7","selfclarity_8","selfclarity_9","selfclarity_10","selfclarity_11","selfclarity_12","phq_1","phq_2","phq_3","phq_4","phq_5","phq_6","phq_7","phq_8","phq_9","gad_1","gad_2","gad_3","gad_4","gad_5","gad_6","gad_7","success","user_agent","accuracy","question_order","responses","item_order","radio_event_ids","radio_event_times","key_event_times","mouse_event_times","straightlining","zigzagging","honeypot"
"2700","
   <p>您好，欢迎参加本次实验。</p>
   <p>为充分保障您的权利，请确保您已经知晓并同意《参与实验同意书》以及《数据公开知情同意书》。</p>
   <p>如果您未见过上述内容，请咨询实验员。</p>
   <p>如果您选择继续实验，则表示您已经清楚两份知情同意书的内容并同意。</p>
   <p> <div style = ""color: green""><按""继续""至下页></div> </p>
   ","0","html-button-response","0","2702","0.0-0.0","732226150302224385","苗**","18","本科","汉族","2005-05-04 00:00:00","0","3","3","1","1","7000","4","5","3","3","2","3","2","3","2","3","3","2","3","4","2","1","1","2","1","1","2","1","0","1","2","1","2","1","1","1","","","","","","","","","","","","",""
"","","","fullscreen","1","8486","0.0-1.0","732226150302224385","苗**","18","本科","汉族","2005-05-04 00:00:00","0","3","3","1","1","7000","4","5","3","3","2","3","2","3","2","3","3","2","3","4","2","1","1","2","1","1","2","1","0","1","2","1","2","1","1","1","true","{}","","","","","","","","","","",""
"21368","","{""gender"":""A.男"",""fatherEdu"":""D.高中或中专"",""motherEdu"":""D.高中或中专"",""FatherOccupation"":""B.体力劳动工人和个体经营人员、技术工及同级工作者,如建筑工人及相关人员"",""MotherOccupation"":""B.体力劳动工人和个体经营人员、技术工及同级工作者,如建筑工人及相关人员"",""income"":""7000""}","survey","2","29890","0.0-2.0-0.0","732226150302224385","苗**","18","本科","汉族","2005-05-04 00:00:00","0","3","3","1","1","7000","4","5","3","3","2","3","2","3","2","3","3","2","3","4","2","1","1","2","1","1","2","1","0","1","2","1","2","1","1","1","","","[]","","","","","","","","","",""
"14901","","{""Q0"":3,""Q1"":4}","survey-likert","3","45077","0.0-2.0-1.0","732226150302224385","苗**","18","本科","汉族","2005-05-04 00:00:00","0","3","3","1","1","7000","4","5","3","3","2","3","2","3","2","3","3","2","3","4","2","1","1","2","1","1","2","1","0","1","2","1","2","1","1","1","","","","[0,1]","","","","","","","","",""
"28126","","{""Q01"":""3"",""Q02"":""3"",""Q03"":""2"",""Q04"":""3"",""Q05"":""2"",""Q06"":""3"",""Q07"":""2"",""Q08"":""3"",""Q09"":""3"",""Q10"":""2"",""Q11"":""3"",""Q12"":""4""}","survey-template","4","73206","0.0-3.0","732226150302224385","苗**","18","本科","汉族","2005-05-04 00:00:00","0","3","3","1","1","7000","4","5","3","3","2","3","2","3","2","3","3","2","3","4","2","1","1","2","1","1","2","1","0","1","2","1","2","1","1","1","","","","","{""Q01"":""3"",""Q02"":""3"",""Q03"":""2"",""Q04"":""3"",""Q05"":""2"",""Q06"":""3"",""Q07"":""2"",""Q08"":""3"",""Q09"":""3"",""Q10"":""2"",""Q11"":""3"",""Q12"":""4""}","[0,1,2,3,4,5,6,7,8,9,10,11]","[""Q01"",""Q02"",""Q03"",""Q04"",""Q05"",""Q05"",""Q06"",""Q07"",""Q08"",""Q09"",""Q09"",""Q10"",""Q11"",""Q12"",""Q12"",""Q02"",""Q02"",""Q03"",""Q03""]","[1355.5999999642372,3317.599999964237,5324.099999964237,6174.599999964237,6965.800000011921,7573,8254.399999976158,9074.399999976158,9910.199999988079,12140.599999964237,12327.800000011921,14263.5,15060.5,15771.599999964237,17608.19999998808,23493.599999964237,24942.80000001192,25340.399999976158,26364.399999976158]","[]","[1355.5999999642372,2778.199999988079,3016.699999988079,3317.599999964237,4024.800000011921,5049.399999976158,5324.099999964237,6174.599999964237,6965.800000011921,7573,8254.399999976158,9074.399999976158,9693.199999988079,9910.199999988079,11795.699999988079,12140.599999964237,12327.800000011921,12908.300000011921,13307.699999988079,14030.899999976158,14263.5,15060.5,15771.599999964237,17608.19999998808,23493.599999964237,24006,24249.80000001192,24645.599999964237,24942.80000001192,25340.399999976158,26084.099999964237,26364.399999976158,28124.399999976158]","0.5833333333333334","0.8181818181818182","0"
"15102.800000011921","","{""Q01"":""2"",""Q02"":""1"",""Q03"":""1"",""Q04"":""2"",""Q05"":""1"",""Q06"":""1"",""Q07"":""2"",""Q08"":""1"",""Q09"":""0""}","survey-template","5","88311","0.0-4.0","732226150302224385","苗**","18","本科","汉族","2005-05-04 00:00:00","0","3","3","1","1","7000","4","5","3","3","2","3","2","3","2","3","3","2","3","4","2","1","1","2","1","1","2","1","0","1","2","1","2","1","1","1","","","","","{""Q01"":""2"",""Q02"":""1"",""Q03"":""1"",""Q04"":""2"",""Q05"":""1"",""Q06"":""1"",""Q07"":""2"",""Q08"":""1"",""Q09"":""0""}","[0,1,2,3,4,5,6,7,8]","[""Q01"",""Q02"",""Q03"",""Q04"",""Q04"",""Q05"",""Q06"",""Q06"",""Q06"",""Q06"",""Q07"",""Q08"",""Q09""]","[3000.699999988079,4032.199999988079,4841.600000023842,5320.900000035763,6301.900000035763,6976.800000011921,7325.400000035763,8865.400000035763,9489.800000011921,9653,11781.400000035763,12387.900000035763,14411.100000023842]","[]","[1090.1000000238419,1347.4000000357628,1567.800000011921,1819.199999988079,2250.699999988079,2558.5,2814.5,3000.699999988079,3316,3547.600000023842,3794.600000023842,4032.199999988079,4359.699999988079,4591.199999988079,4841.600000023842,5320.900000035763,5985.100000023842,6301.900000035763,6776.600000023842,6976.800000011921,7325.400000035763,8865.400000035763,9489.800000011921,9653,10273.400000035763,10681.400000035763,11008.699999988079,11197.100000023842,11400.800000011921,11781.400000035763,12150.100000023842,12387.900000035763,12780.100000023842,13023.5,13567.699999988079,13783,14215.600000023842,14411.100000023842,15102.300000011921]","0.5555555555555556","0.75","0"
"11093","","{""Q01"":""1"",""Q02"":""2"",""Q03"":""1"",""Q04"":""2"",""Q05"":""1"",""Q06"":""1"",""Q07"":""1""}","survey-template","6","99406","0.0-5.0","732226150302224385","苗**","18","本科","汉族","2005-05-04 00:00:00","0","3","3","1","1","7000","4","5","3","3","2","3","2","3","2","3","3","2","3","4","2","1","1","2","1","1","2","1","0","1","2","1","2","1","1","1","","","","","{""Q01"":""1"",""Q02"":""2"",""Q03"":""1"",""Q04"":""2"",""Q05"":""1"",""Q06"":""1"",""Q07"":""1""}","[0,1,2,3,4,5,6]","[""Q01"",""Q02"",""Q02"",""Q03"",""Q04"",""Q04"",""Q03"",""Q05"",""Q06"",""Q07""]","[1586.5999999642372,1878.8999999761581,2427,3102.7999999523163,3586.699999988079,5900.5,6704.399999976158,8665.299999952316,9143.799999952316,10056.599999964237]","[]","[1351.199999988079,1586.5999999642372,1878.8999999761581,2427,3102.7999999523163,3586.699999988079,4992.699999988079,5288.5,5657.699999988079,5900.5,6704.399999976158,8180.5,8665.299999952316,8872.099999964237,9143.799999952316,9413,10056.599999964237,10576.299999952316,10795.899999976158,11092.399999976158]","0.7142857142857143","0.6666666666666666","0"
"null","
    <p>第一阶段的实验部分已结束。</p>
    <p>系统将自动下载一个.csv文件，该文件为您的实验数据的备份文件。请不要对其进行任何更改，请不要随便删除，将它保存在您的系统文件夹中。</p>
    <p>如果数据遗失，我们将联系您获取该备份文件。</p>
    <p>感谢您的配合！</p>","null","html-keyboard-response","7","99859","0.0-6.0","732226150302224385","苗**","18","本科","汉族","2005-05-04 00:00:00","0","3","3","1","1","7000","4","5","3","3","2","3","2","3","2","3","3","2","3","4","2","1","1","2","1","1","2","1","0","1","2","1","2","1","1","1","","","","","","","","","","","","",""
