"rt","stimulus","response","trial_type","trial_index","time_elapsed","internal_node_id","subj_idx","subj_name","age","education","national","birthday","sex","fatherEdu","motherEdu","FatherOccupation","MotherOccupation","income","obj_ses1","fri_ses2","selfclarity_1","selfclarity_2","selfclarity_3","selfclarity_4","selfclarity_5","selfclarity_6","selfclarity_7","selfclarity_8","selfclarity_9","selfclarity_10","selfclarity_11","selfclarity_12","phq_1","phq_2","phq_3","phq_4","phq_5","phq_6","phq_7","phq_8","phq_9","gad_1","gad_2","gad_3","gad_4","gad_5","gad_6","gad_7","success","user_agent","accuracy","question_order","responses","item_order","radio_event_ids","radio_event_times","key_event_times","mouse_event_times","straightlining","zigzagging","honeypot"
"6318","
   <p>您好，欢迎参加本次实验。</p>
   <p>为充分保障您的权利，请确保您已经知晓并同意《参与实验同意书》以及《数据公开知情同意书》。</p>
   <p>如果您未见过上述内容，请咨询实验员。</p>
   <p>如果您选择继续实验，则表示您已经清楚两份知情同意书的内容并同意。</p>
   <p> <div style = ""color: green""><按""继续""至下页></div> </p>
   ","0","html-button-response","0","6321","0.0-0.0","734370312904511490","陈**","21","大专","汉族","2002-02-09 00:00:00","0","2","2","1","0","7000","3","4","2","1","2","2","3","2","1","1","2","1","4","1","3","2","3","3","2","3","3","1","3","3","3","3","2","2","3","3","","","","","","","","","","","","",""
"","","","fullscreen","1","44820","0.0-1.0","734370312904511490","陈**","21","大专","汉族","2002-02-09 00:00:00","0","2","2","1","0","7000","3","4","2","1","2","2","3","2","1","1","2","1","4","1","3","2","3","3","2","3","3","1","3","3","3","3","2","2","3","3","true","{}","","","","","","","","","","",""
"39247","","{""gender"":""A.男"",""fatherEdu"":""C.初中"",""motherEdu"":""C.初中"",""FatherOccupation"":""B.体力劳动工人和个体经营人员、技术工及同级工作者,如建筑工人及相关人员"",""MotherOccupation"":""A.临时工、失业、待业人员、非技术及农业劳动者阶层,如农民"",""income"":""7000""}","survey","2","84150","0.0-2.0-0.0","734370312904511490","陈**","21","大专","汉族","2002-02-09 00:00:00","0","2","2","1","0","7000","3","4","2","1","2","2","3","2","1","1","2","1","4","1","3","2","3","3","2","3","3","1","3","3","3","3","2","2","3","3","","","[]","","","","","","","","","",""
"32316","","{""Q0"":2,""Q1"":3}","survey-likert","3","119217","0.0-2.0-1.0","734370312904511490","陈**","21","大专","汉族","2002-02-09 00:00:00","0","2","2","1","0","7000","3","4","2","1","2","2","3","2","1","1","2","1","4","1","3","2","3","3","2","3","3","1","3","3","3","3","2","2","3","3","","","","[0,1]","","","","","","","","",""
"61889.90000003576","","{""Q01"":""2"",""Q02"":""1"",""Q03"":""2"",""Q04"":""2"",""Q05"":""3"",""Q06"":""2"",""Q07"":""1"",""Q08"":""1"",""Q09"":""2"",""Q10"":""1"",""Q11"":""4"",""Q12"":""1""}","survey-template","4","181112","0.0-3.0","734370312904511490","陈**","21","大专","汉族","2002-02-09 00:00:00","0","2","2","1","0","7000","3","4","2","1","2","2","3","2","1","1","2","1","4","1","3","2","3","3","2","3","3","1","3","3","3","3","2","2","3","3","","","","","{""Q01"":""2"",""Q02"":""1"",""Q03"":""2"",""Q04"":""2"",""Q05"":""3"",""Q06"":""2"",""Q07"":""1"",""Q08"":""1"",""Q09"":""2"",""Q10"":""1"",""Q11"":""4"",""Q12"":""1""}","[0,1,2,3,4,5,6,7,8,9,10,11]","[""Q01"",""Q02"",""Q03"",""Q04"",""Q05"",""Q06"",""Q07"",""Q08"",""Q09"",""Q10"",""Q11"",""Q12""]","[10955.199999988079,17562.100000023842,21590.80000001192,25692.5,32224.5,39812.19999998808,43280.5,46581.30000001192,49022.19999998808,55355.30000001192,57850.19999998808,60477.80000001192]","[]","[9921.199999988079,10955.199999988079,17562.100000023842,20494.5,21040.600000023842,21590.80000001192,24338.5,25228.30000001192,25692.5,32224.5,39812.19999998808,43280.5,46581.30000001192,49022.19999998808,55014.5,55355.30000001192,57850.19999998808,59643,60477.80000001192,61888.40000003576]","0.4166666666666667","0.7272727272727273","0"
"43572.09999996424","","{""Q01"":""3"",""Q02"":""2"",""Q03"":""3"",""Q04"":""3"",""Q05"":""2"",""Q06"":""3"",""Q07"":""3"",""Q08"":""1"",""Q09"":""3""}","survey-template","5","224688","0.0-4.0","734370312904511490","陈**","21","大专","汉族","2002-02-09 00:00:00","0","2","2","1","0","7000","3","4","2","1","2","2","3","2","1","1","2","1","4","1","3","2","3","3","2","3","3","1","3","3","3","3","2","2","3","3","","","","","{""Q01"":""3"",""Q02"":""2"",""Q03"":""3"",""Q04"":""3"",""Q05"":""2"",""Q06"":""3"",""Q07"":""3"",""Q08"":""1"",""Q09"":""3""}","[0,1,2,3,4,5,6,7,8]","[""Q01"",""Q02"",""Q03"",""Q04"",""Q05"",""Q06"",""Q07"",""Q08"",""Q09""]","[3007.199999988079,7783.199999988079,10724.399999976158,12170.199999988079,13967.099999964237,19330.399999976158,21200.399999976158,36808.799999952316,42976]","[]","[3007.199999988079,7783.199999988079,10724.399999976158,12170.199999988079,13967.099999964237,19330.399999976158,21200.399999976158,36808.799999952316,41268.5,41565.39999997616,41987.5,42976,43571.299999952316]","0.6666666666666666","0.5","0"
"15399.399999976158","","{""Q01"":""3"",""Q02"":""3"",""Q03"":""3"",""Q04"":""2"",""Q05"":""2"",""Q06"":""3"",""Q07"":""3""}","survey-template","6","240090","0.0-5.0","734370312904511490","陈**","21","大专","汉族","2002-02-09 00:00:00","0","2","2","1","0","7000","3","4","2","1","2","2","3","2","1","1","2","1","4","1","3","2","3","3","2","3","3","1","3","3","3","3","2","2","3","3","","","","","{""Q01"":""3"",""Q02"":""3"",""Q03"":""3"",""Q04"":""2"",""Q05"":""2"",""Q06"":""3"",""Q07"":""3""}","[0,1,2,3,4,5,6]","[""Q01"",""Q03"",""Q02"",""Q04"",""Q05"",""Q06"",""Q07""]","[2691.800000011921,5514.699999988079,5867.5,8296.599999964237,10781.599999964237,12830.5,14037.699999988079]","[]","[2691.800000011921,3904.5,5092.5,5514.699999988079,5867.5,8296.599999964237,10781.599999964237,12830.5,14037.699999988079,15398.800000011921]","0.7142857142857143","0.3333333333333333","0"
"null","
    <p>第一阶段的实验部分已结束。</p>
    <p>系统将自动下载一个.csv文件，该文件为您的实验数据的备份文件。请不要对其进行任何更改，请不要随便删除，将它保存在您的系统文件夹中。</p>
    <p>如果数据遗失，我们将联系您获取该备份文件。</p>
    <p>感谢您的配合！</p>","null","html-keyboard-response","7","240544","0.0-6.0","734370312904511490","陈**","21","大专","汉族","2002-02-09 00:00:00","0","2","2","1","0","7000","3","4","2","1","2","2","3","2","1","1","2","1","4","1","3","2","3","3","2","3","3","1","3","3","3","3","2","2","3","3","","","","","","","","","","","","",""
