"rt","stimulus","response","trial_type","trial_index","time_elapsed","internal_node_id","subj_idx","subj_name","age","education","national","birthday","sex","fatherEdu","motherEdu","FatherOccupation","MotherOccupation","income","obj_ses1","fri_ses2","selfclarity_1","selfclarity_2","selfclarity_3","selfclarity_4","selfclarity_5","selfclarity_6","selfclarity_7","selfclarity_8","selfclarity_9","selfclarity_10","selfclarity_11","selfclarity_12","phq_1","phq_2","phq_3","phq_4","phq_5","phq_6","phq_7","phq_8","phq_9","gad_1","gad_2","gad_3","gad_4","gad_5","gad_6","gad_7","success","user_agent","accuracy","question_order","responses","item_order","radio_event_ids","radio_event_times","key_event_times","mouse_event_times","straightlining","zigzagging","honeypot"
"4985","
   <p>您好，欢迎参加本次实验。</p>
   <p>为充分保障您的权利，请确保您已经知晓并同意《参与实验同意书》以及《数据公开知情同意书》。</p>
   <p>如果您未见过上述内容，请咨询实验员。</p>
   <p>如果您选择继续实验，则表示您已经清楚两份知情同意书的内容并同意。</p>
   <p> <div style = ""color: green""><按""继续""至下页></div> </p>
   ","0","html-button-response","0","5007","0.0-0.0","745398419547492353","","32","本科","汉族","1991-05-11 00:00:00","0","2","4","2","3","12000","4","5","4","5","4","4","4","4","4","4","5","4","4","4","1","1","0","0","0","1","0","1","0","1","0","1","1","0","0","1","","","","","","","","","","","","",""
"","","","fullscreen","1","15649","0.0-1.0","745398419547492353","","32","本科","汉族","1991-05-11 00:00:00","0","2","4","2","3","12000","4","5","4","5","4","4","4","4","4","4","5","4","4","4","1","1","0","0","0","1","0","1","0","1","0","1","1","0","0","1","true","","","","","","","","","","","",""
"43582","","{""gender"":""A.男"",""fatherEdu"":""C.初中"",""motherEdu"":""E.大学（专科或本科）"",""FatherOccupation"":""C.一般管理人员与一般专业技术人员、事务性工作人员,包括商业服务业员工阶层、办事人员阶层,如售货员、司机等"",""MotherOccupation"":""D.中层管理人员与中层专业技术人员、助理专业人员,包括在各种经济成分的机构(包括国家机关、党群组织、全民企事业单位、集体企事业单位和各类非公有制经济企业)中专门从事各种专业性工作和科学技术工作的人员,如教师、医生、技师等"",""income"":""12000""}","survey","2","59829","0.0-2.0-0.0","745398419547492353","","32","本科","汉族","1991-05-11 00:00:00","0","2","4","2","3","12000","4","5","4","5","4","4","4","4","4","4","5","4","4","4","1","1","0","0","0","1","0","1","0","1","0","1","1","0","0","1","","","[]","","","","","","","","","",""
"11741","","{""Q0"":3,""Q1"":4}","survey-likert","3","72187","0.0-2.0-1.0","745398419547492353","","32","本科","汉族","1991-05-11 00:00:00","0","2","4","2","3","12000","4","5","4","5","4","4","4","4","4","4","5","4","4","4","1","1","0","0","0","1","0","1","0","1","0","1","1","0","0","1","","","","[0,1]","","","","","","","","",""
"159586.3599999975","","{""Q01"":""4"",""Q02"":""5"",""Q03"":""4"",""Q04"":""4"",""Q05"":""4"",""Q06"":""4"",""Q07"":""4"",""Q08"":""4"",""Q09"":""5"",""Q10"":""4"",""Q11"":""4"",""Q12"":""4""}","survey-template","4","231813","0.0-3.0","745398419547492353","","32","本科","汉族","1991-05-11 00:00:00","0","2","4","2","3","12000","4","5","4","5","4","4","4","4","4","4","5","4","4","4","1","1","0","0","0","1","0","1","0","1","0","1","1","0","0","1","","","","","{""Q01"":""4"",""Q02"":""5"",""Q03"":""4"",""Q04"":""4"",""Q05"":""4"",""Q06"":""4"",""Q07"":""4"",""Q08"":""4"",""Q09"":""5"",""Q10"":""4"",""Q11"":""4"",""Q12"":""4""}","[0,1,2,3,4,5,6,7,8,9,10,11]","[""Q01"",""Q02"",""Q03"",""Q04"",""Q05"",""Q06"",""Q07"",""Q07"",""Q08"",""Q09"",""Q10"",""Q11"",""Q12""]","[89233.41499999879,93089.87999999954,99184.6149999983,106155.07499999876,118277.5049999982,123506.58499999918,129994.18499999956,132055.90499999744,135692.95499999862,141406.8499999994,153412.39499999938,155946.60999999905,158741.25499999718]","[62251.65999999808,66604.81499999878]","[509.5599999986007,89233.41499999879,93089.87999999954,99184.6149999983,106155.07499999876,118277.5049999982,123506.58499999918,129994.18499999956,132055.90499999744,135692.95499999862,141406.8499999994,153412.39499999938,155946.60999999905,158483.61999999906,158741.25499999718,159576.5449999999]","0.6666666666666666","0.36363636363636365","0"
"43252.400000001246","","{""Q01"":""1"",""Q02"":""1"",""Q03"":""0"",""Q04"":""0"",""Q05"":""0"",""Q06"":""1"",""Q07"":""0"",""Q08"":""1"",""Q09"":""0""}","survey-template","5","275090","0.0-4.0","745398419547492353","","32","本科","汉族","1991-05-11 00:00:00","0","2","4","2","3","12000","4","5","4","5","4","4","4","4","4","4","5","4","4","4","1","1","0","0","0","1","0","1","0","1","0","1","1","0","0","1","","","","","{""Q01"":""1"",""Q02"":""1"",""Q03"":""0"",""Q04"":""0"",""Q05"":""0"",""Q06"":""1"",""Q07"":""0"",""Q08"":""1"",""Q09"":""0""}","[0,1,2,3,4,5,6,7,8]","[""Q01"",""Q01"",""Q03"",""Q02"",""Q01"",""Q04"",""Q05"",""Q06"",""Q07"",""Q08"",""Q09""]","[6747.890000002371,10619.800000000396,12877.970000001369,13860.01000000033,15662.485000000743,22629.60000000021,24107.694999998785,30365.610000000743,33890.46000000235,40474.2350000015,42517.86500000162]","[]","[6747.890000002371,10619.800000000396,12877.970000001369,13860.01000000033,15662.485000000743,22629.60000000021,24107.694999998785,30365.610000000743,33890.46000000235,40474.2350000015,42517.86500000162,43247.10500000219]","0.5555555555555556","0.625","0"
"17134.634999998496","","{""Q01"":""1"",""Q02"":""0"",""Q03"":""1"",""Q04"":""1"",""Q05"":""0"",""Q06"":""0"",""Q07"":""1""}","survey-template","6","292248","0.0-5.0","745398419547492353","","32","本科","汉族","1991-05-11 00:00:00","0","2","4","2","3","12000","4","5","4","5","4","4","4","4","4","4","5","4","4","4","1","1","0","0","0","1","0","1","0","1","0","1","1","0","0","1","","","","","{""Q01"":""1"",""Q02"":""0"",""Q03"":""1"",""Q04"":""1"",""Q05"":""0"",""Q06"":""0"",""Q07"":""1""}","[0,1,2,3,4,5,6]","[""Q01"",""Q02"",""Q03"",""Q04"",""Q05"",""Q06"",""Q07""]","[2990.624999998545,5121.544999998179,10937.699999998556,12727.754999999888,13699.164999998175,15916.144999999204,16458.834999997634]","[]","[2990.624999998545,5121.544999998179,10937.699999998556,12727.754999999888,13699.164999998175,15916.144999999204,16458.834999997634,17130.16499999864]","0.5714285714285714","0.6666666666666666","0"
"null","
    <p>第一阶段的实验部分已结束。</p>
    <p>系统将自动下载一个.csv文件，该文件为您的实验数据的备份文件。请不要对其进行任何更改，请不要随便删除，将它保存在您的系统文件夹中。</p>
    <p>如果数据遗失，我们将联系您获取该备份文件。</p>
    <p>感谢您的配合！</p>","null","html-keyboard-response","7","292724","0.0-6.0","745398419547492353","","32","本科","汉族","1991-05-11 00:00:00","0","2","4","2","3","12000","4","5","4","5","4","4","4","4","4","4","5","4","4","4","1","1","0","0","0","1","0","1","0","1","0","1","1","0","0","1","","","","","","","","","","","","",""
