"rt","stimulus","response","trial_type","trial_index","time_elapsed","internal_node_id","subj_idx","subj_name","age","education","national","birthday","sex","fatherEdu","motherEdu","FatherOccupation","MotherOccupation","income","obj_ses1","fri_ses2","selfclarity_1","selfclarity_2","selfclarity_3","selfclarity_4","selfclarity_5","selfclarity_6","selfclarity_7","selfclarity_8","selfclarity_9","selfclarity_10","selfclarity_11","selfclarity_12","phq_1","phq_2","phq_3","phq_4","phq_5","phq_6","phq_7","phq_8","phq_9","gad_1","gad_2","gad_3","gad_4","gad_5","gad_6","gad_7","success","user_agent","accuracy","question_order","responses","item_order","radio_event_ids","radio_event_times","key_event_times","mouse_event_times","straightlining","zigzagging","honeypot"
"14368","
   <p>您好，欢迎参加本次实验。</p>
   <p>为充分保障您的权利，请确保您已经知晓并同意《参与实验同意书》以及《数据公开知情同意书》。</p>
   <p>如果您未见过上述内容，请咨询实验员。</p>
   <p>如果您选择继续实验，则表示您已经清楚两份知情同意书的内容并同意。</p>
   <p> <div style = ""color: green""><按""继续""至下页></div> </p>
   ","0","html-button-response","0","14378","0.0-0.0","628584680945352704","刘**","23","本科","汉族","2000-09-11 00:00:00","0","2","2","2","0","8500","4","4","5","5","3","5","5","5","3","5","5","5","5","5","0","1","1","1","2","0","0","0","0","1","0","0","0","0","1","0","","","","","","","","","","","","",""
"","","","fullscreen","1","29940","0.0-1.0","628584680945352704","刘**","23","本科","汉族","2000-09-11 00:00:00","0","2","2","2","0","8500","4","4","5","5","3","5","5","5","3","5","5","5","5","5","0","1","1","1","2","0","0","0","0","1","0","0","0","0","1","0","true","{}","","","","","","","","","","",""
"62104","","{""gender"":""A.男"",""fatherEdu"":""C.初中"",""motherEdu"":""C.初中"",""FatherOccupation"":""C.一般管理人员与一般专业技术人员、事务性工作人员,包括商业服务业员工阶层、办事人员阶层,如售货员、司机等"",""MotherOccupation"":""A.临时工、失业、待业人员、非技术及农业劳动者阶层,如农民"",""income"":""8500""}","survey","2","92122","0.0-2.0-0.0","628584680945352704","刘**","23","本科","汉族","2000-09-11 00:00:00","0","2","2","2","0","8500","4","4","5","5","3","5","5","5","3","5","5","5","5","5","0","1","1","1","2","0","0","0","0","1","0","0","0","0","1","0","","","[]","","","","","","","","","",""
"22419","","{""Q0"":3,""Q1"":3}","survey-likert","3","114945","0.0-2.0-1.0","628584680945352704","刘**","23","本科","汉族","2000-09-11 00:00:00","0","2","2","2","0","8500","4","4","5","5","3","5","5","5","3","5","5","5","5","5","0","1","1","1","2","0","0","0","0","1","0","0","0","0","1","0","","","","[0,1]","","","","","","","","",""
"76614.80000000075","","{""Q01"":""5"",""Q02"":""5"",""Q03"":""3"",""Q04"":""5"",""Q05"":""5"",""Q06"":""5"",""Q07"":""3"",""Q08"":""5"",""Q09"":""5"",""Q10"":""5"",""Q11"":""5"",""Q12"":""5""}","survey-template","4","191582","0.0-3.0","628584680945352704","刘**","23","本科","汉族","2000-09-11 00:00:00","0","2","2","2","0","8500","4","4","5","5","3","5","5","5","3","5","5","5","5","5","0","1","1","1","2","0","0","0","0","1","0","0","0","0","1","0","","","","","{""Q01"":""5"",""Q02"":""5"",""Q03"":""3"",""Q04"":""5"",""Q05"":""5"",""Q06"":""5"",""Q07"":""3"",""Q08"":""5"",""Q09"":""5"",""Q10"":""5"",""Q11"":""5"",""Q12"":""5""}","[0,1,2,3,4,5,6,7,8,9,10,11]","[""Q01"",""Q02"",""Q03"",""Q04"",""Q03"",""Q05"",""Q06"",""Q07"",""Q08"",""Q09"",""Q10"",""Q11"",""Q12""]","[5797.39999999851,9982.699999999255,13068.39999999851,15116.5,17951,21675.800000000745,25956.10000000149,58946.5,61866.39999999851,65002.199999999255,70585.89999999851,72875.5,75609.69999999925]","[]","[5797.39999999851,9982.699999999255,13068.39999999851,15116.5,17951,21675.800000000745,25956.10000000149,58946.5,61866.39999999851,65002.199999999255,70585.89999999851,72875.5,75609.69999999925,76609.89999999851]","0.6666666666666666","0.2727272727272727","0"
"34377.79999999702","","{""Q01"":""0"",""Q02"":""1"",""Q03"":""1"",""Q04"":""1"",""Q05"":""2"",""Q06"":""0"",""Q07"":""0"",""Q08"":""0"",""Q09"":""0""}","survey-template","5","225970","0.0-4.0","628584680945352704","刘**","23","本科","汉族","2000-09-11 00:00:00","0","2","2","2","0","8500","4","4","5","5","3","5","5","5","3","5","5","5","5","5","0","1","1","1","2","0","0","0","0","1","0","0","0","0","1","0","","","","","{""Q01"":""0"",""Q02"":""1"",""Q03"":""1"",""Q04"":""1"",""Q05"":""2"",""Q06"":""0"",""Q07"":""0"",""Q08"":""0"",""Q09"":""0""}","[0,1,2,3,4,5,6,7,8]","[""Q01"",""Q02"",""Q03"",""Q04"",""Q05"",""Q06"",""Q07"",""Q08"",""Q09""]","[7463.89999999851,8783.699999999255,9959.699999999255,12919.599999997765,15641.79999999702,18271.599999997765,21359.199999999255,29230.699999999255,33239.5]","[]","[7463.89999999851,8783.699999999255,9959.699999999255,12919.599999997765,15641.79999999702,18271.599999997765,21359.199999999255,29230.699999999255,33239.5,34374.5]","0.5555555555555556","0.25","0"
"168565.30000000075","","{""Q01"":""1"",""Q02"":""0"",""Q03"":""0"",""Q04"":""0"",""Q05"":""0"",""Q06"":""1"",""Q07"":""0""}","survey-template","6","394554","0.0-5.0","628584680945352704","刘**","23","本科","汉族","2000-09-11 00:00:00","0","2","2","2","0","8500","4","4","5","5","3","5","5","5","3","5","5","5","5","5","0","1","1","1","2","0","0","0","0","1","0","0","0","0","1","0","","","","","{""Q01"":""1"",""Q02"":""0"",""Q03"":""0"",""Q04"":""0"",""Q05"":""0"",""Q06"":""1"",""Q07"":""0""}","[0,1,2,3,4,5,6]","[""Q01"",""Q02"",""Q03"",""Q04"",""Q05"",""Q06"",""Q07""]","[32688.400000002235,33816.20000000298,162893,163738.6000000015,164474.6000000015,166562.5,167762.30000000075]","[]","[32688.400000002235,33816.20000000298,162893,163738.6000000015,164474.6000000015,166562.5,167762.30000000075,168562.6000000015]","0.7142857142857143","0.5","0"
"null","
    <p>第一阶段的实验部分已结束。</p>
    <p>系统将自动下载一个.csv文件，该文件为您的实验数据的备份文件。请不要对其进行任何更改，请不要随便删除，将它保存在您的系统文件夹中。</p>
    <p>如果数据遗失，我们将联系您获取该备份文件。</p>
    <p>感谢您的配合！</p>","null","html-keyboard-response","7","395016","0.0-6.0","628584680945352704","刘**","23","本科","汉族","2000-09-11 00:00:00","0","2","2","2","0","8500","4","4","5","5","3","5","5","5","3","5","5","5","5","5","0","1","1","1","2","0","0","0","0","1","0","0","0","0","1","0","","","","","","","","","","","","",""
