"rt","stimulus","response","trial_type","trial_index","time_elapsed","internal_node_id","subj_idx","subj_name","age","education","national","birthday","sex","fatherEdu","motherEdu","FatherOccupation","MotherOccupation","income","obj_ses1","fri_ses2","selfclarity_1","selfclarity_2","selfclarity_3","selfclarity_4","selfclarity_5","selfclarity_6","selfclarity_7","selfclarity_8","selfclarity_9","selfclarity_10","selfclarity_11","selfclarity_12","phq_1","phq_2","phq_3","phq_4","phq_5","phq_6","phq_7","phq_8","phq_9","gad_1","gad_2","gad_3","gad_4","gad_5","gad_6","gad_7","success","user_agent","accuracy","question_order","responses","item_order","radio_event_ids","radio_event_times","key_event_times","mouse_event_times","straightlining","zigzagging","honeypot"
"4262","
   <p>您好，欢迎参加本次实验。</p>
   <p>为充分保障您的权利，请确保您已经知晓并同意《参与实验同意书》以及《数据公开知情同意书》。</p>
   <p>如果您未见过上述内容，请咨询实验员。</p>
   <p>如果您选择继续实验，则表示您已经清楚两份知情同意书的内容并同意。</p>
   <p> <div style = ""color: green""><按""继续""至下页></div> </p>
   ","0","html-button-response","0","4264","0.0-0.0","746397539082964994","杨**","18","本科","汉族","2004-10-22 00:00:00","1","3","2","1","1","3000","4","4","4","4","3","4","5","3","4","5","3","2","5","3","1","2","2","1","2","2","2","2","1","2","3","3","2","2","1","3","","","","","","","","","","","","",""
"","","","fullscreen","1","18459","0.0-1.0","746397539082964994","杨**","18","本科","汉族","2004-10-22 00:00:00","1","3","2","1","1","3000","4","4","4","4","3","4","5","3","4","5","3","2","5","3","1","2","2","1","2","2","2","2","1","2","3","3","2","2","1","3","true","{}","","","","","","","","","","",""
"35696","","{""gender"":""B.女"",""fatherEdu"":""D.高中或中专"",""motherEdu"":""C.初中"",""FatherOccupation"":""B.体力劳动工人和个体经营人员、技术工及同级工作者,如建筑工人及相关人员"",""MotherOccupation"":""B.体力劳动工人和个体经营人员、技术工及同级工作者,如建筑工人及相关人员"",""income"":""3000""}","survey","2","54195","0.0-2.0-0.0","746397539082964994","杨**","18","本科","汉族","2004-10-22 00:00:00","1","3","2","1","1","3000","4","4","4","4","3","4","5","3","4","5","3","2","5","3","1","2","2","1","2","2","2","2","1","2","3","3","2","2","1","3","","","[]","","","","","","","","","",""
"29454","","{""Q0"":3,""Q1"":3}","survey-likert","3","84476","0.0-2.0-1.0","746397539082964994","杨**","18","本科","汉族","2004-10-22 00:00:00","1","3","2","1","1","3000","4","4","4","4","3","4","5","3","4","5","3","2","5","3","1","2","2","1","2","2","2","2","1","2","3","3","2","2","1","3","","","","[0,1]","","","","","","","","",""
"62794.70000001788","","{""Q01"":""4"",""Q02"":""4"",""Q03"":""3"",""Q04"":""4"",""Q05"":""5"",""Q06"":""3"",""Q07"":""4"",""Q08"":""5"",""Q09"":""3"",""Q10"":""2"",""Q11"":""5"",""Q12"":""3""}","survey-template","4","147275","0.0-3.0","746397539082964994","杨**","18","本科","汉族","2004-10-22 00:00:00","1","3","2","1","1","3000","4","4","4","4","3","4","5","3","4","5","3","2","5","3","1","2","2","1","2","2","2","2","1","2","3","3","2","2","1","3","","","","","{""Q01"":""4"",""Q02"":""4"",""Q03"":""3"",""Q04"":""4"",""Q05"":""5"",""Q06"":""3"",""Q07"":""4"",""Q08"":""5"",""Q09"":""3"",""Q10"":""2"",""Q11"":""5"",""Q12"":""3""}","[0,1,2,3,4,5,6,7,8,9,10,11]","[""Q01"",""Q02"",""Q03"",""Q04"",""Q05"",""Q06"",""Q07"",""Q08"",""Q09"",""Q09"",""Q10"",""Q12"",""Q11""]","[9269.90000000596,16225.800000011921,18061.600000023842,29779.40000000596,30760,37959.70000001788,41273.40000000596,44463.20000001788,47019.30000001192,52487.90000000596,55569.80000001192,59067.5,61889.30000001192]","[]","[7909.4000000059605,9269.90000000596,16225.800000011921,18061.600000023842,23585.90000000596,29779.40000000596,30760,37959.70000001788,41273.40000000596,44463.20000001788,47019.30000001192,52487.90000000596,55569.80000001192,57141.80000001192,59067.5,61375.5,61889.30000001192,62793.5]","0.3333333333333333","0.6363636363636364","0"
"39536.69999998808","","{""Q01"":""1"",""Q02"":""2"",""Q03"":""2"",""Q04"":""1"",""Q05"":""2"",""Q06"":""2"",""Q07"":""2"",""Q08"":""2"",""Q09"":""1""}","survey-template","5","186814","0.0-4.0","746397539082964994","杨**","18","本科","汉族","2004-10-22 00:00:00","1","3","2","1","1","3000","4","4","4","4","3","4","5","3","4","5","3","2","5","3","1","2","2","1","2","2","2","2","1","2","3","3","2","2","1","3","","","","","{""Q01"":""1"",""Q02"":""2"",""Q03"":""2"",""Q04"":""1"",""Q05"":""2"",""Q06"":""2"",""Q07"":""2"",""Q08"":""2"",""Q09"":""1""}","[0,1,2,3,4,5,6,7,8]","[""Q01"",""Q02"",""Q03"",""Q04"",""Q05"",""Q06"",""Q07"",""Q08"",""Q09""]","[14992,19893.79999998212,21394.09999999404,23043.69999998808,28373.69999998808,29424,33115.89999997616,36237.69999998808,38543.79999998212]","[]","[14227.59999999404,14992,19893.79999998212,21394.09999999404,23043.69999998808,28373.69999998808,29424,33115.89999997616,36237.69999998808,37711.89999997616,38543.79999998212,39536]","0.6666666666666666","0.5","0"
"15651.40000000596","","{""Q01"":""2"",""Q02"":""3"",""Q03"":""3"",""Q04"":""2"",""Q05"":""2"",""Q06"":""1"",""Q07"":""3""}","survey-template","6","202468","0.0-5.0","746397539082964994","杨**","18","本科","汉族","2004-10-22 00:00:00","1","3","2","1","1","3000","4","4","4","4","3","4","5","3","4","5","3","2","5","3","1","2","2","1","2","2","2","2","1","2","3","3","2","2","1","3","","","","","{""Q01"":""2"",""Q02"":""3"",""Q03"":""3"",""Q04"":""2"",""Q05"":""2"",""Q06"":""1"",""Q07"":""3""}","[0,1,2,3,4,5,6]","[""Q01"",""Q02"",""Q03"",""Q04"",""Q05"",""Q06"",""Q07""]","[2355,4898.9000000059605,6138.4000000059605,8922.800000011921,10596.59999999404,13881,15154.700000017881]","[]","[2355,4898.9000000059605,6138.4000000059605,8922.800000011921,10596.59999999404,12860.5,13881,15154.700000017881,15650.90000000596]","0.42857142857142855","0.5","0"
"null","
    <p>第一阶段的实验部分已结束。</p>
    <p>系统将自动下载一个.csv文件，该文件为您的实验数据的备份文件。请不要对其进行任何更改，请不要随便删除，将它保存在您的系统文件夹中。</p>
    <p>如果数据遗失，我们将联系您获取该备份文件。</p>
    <p>感谢您的配合！</p>","null","html-keyboard-response","7","202921","0.0-6.0","746397539082964994","杨**","18","本科","汉族","2004-10-22 00:00:00","1","3","2","1","1","3000","4","4","4","4","3","4","5","3","4","5","3","2","5","3","1","2","2","1","2","2","2","2","1","2","3","3","2","2","1","3","","","","","","","","","","","","",""
