"rt","stimulus","response","trial_type","trial_index","time_elapsed","internal_node_id","subj_idx","subj_name","age","education","national","birthday","sex","fatherEdu","motherEdu","FatherOccupation","MotherOccupation","income","obj_ses1","fri_ses2","selfclarity_1","selfclarity_2","selfclarity_3","selfclarity_4","selfclarity_5","selfclarity_6","selfclarity_7","selfclarity_8","selfclarity_9","selfclarity_10","selfclarity_11","selfclarity_12","phq_1","phq_2","phq_3","phq_4","phq_5","phq_6","phq_7","phq_8","phq_9","gad_1","gad_2","gad_3","gad_4","gad_5","gad_6","gad_7","success","user_agent","accuracy","question_order","responses","item_order","radio_event_ids","radio_event_times","key_event_times","mouse_event_times","straightlining","zigzagging","honeypot"
"1168","
   <p>您好，欢迎参加本次实验。</p>
   <p>为充分保障您的权利，请确保您已经知晓并同意《参与实验同意书》以及《数据公开知情同意书》。</p>
   <p>如果您未见过上述内容，请咨询实验员。</p>
   <p>如果您选择继续实验，则表示您已经清楚两份知情同意书的内容并同意。</p>
   <p> <div style = ""color: green""><按""继续""至下页></div> </p>
   ","0","html-button-response","0","1170","0.0-0.0","754088587779379202","","19","本科","汉族","2003-11-25 00:00:00","0","1","2","1","1","4000","4","5","4","4","3","3","4","2","4","2","2","4","3","3","1","1","2","0","0","0","1","1","0","2","1","1","0","1","2","0","","","","","","","","","","","","",""
"","","","fullscreen","1","2727","0.0-1.0","754088587779379202","","19","本科","汉族","2003-11-25 00:00:00","0","1","2","1","1","4000","4","5","4","4","3","3","4","2","4","2","2","4","3","3","1","1","2","0","0","0","1","1","0","2","1","1","0","1","2","0","true","{}","","","","","","","","","","",""
"27327","","{""gender"":""A.男"",""fatherEdu"":""B.小学"",""motherEdu"":""C.初中"",""FatherOccupation"":""B.体力劳动工人和个体经营人员、技术工及同级工作者,如建筑工人及相关人员"",""MotherOccupation"":""B.体力劳动工人和个体经营人员、技术工及同级工作者,如建筑工人及相关人员"",""income"":""4000""}","survey","2","30098","0.0-2.0-0.0","754088587779379202","","19","本科","汉族","2003-11-25 00:00:00","0","1","2","1","1","4000","4","5","4","4","3","3","4","2","4","2","2","4","3","3","1","1","2","0","0","0","1","1","0","2","1","1","0","1","2","0","","","[]","","","","","","","","","",""
"11721","","{""Q0"":3,""Q1"":4}","survey-likert","3","42136","0.0-2.0-1.0","754088587779379202","","19","本科","汉族","2003-11-25 00:00:00","0","1","2","1","1","4000","4","5","4","4","3","3","4","2","4","2","2","4","3","3","1","1","2","0","0","0","1","1","0","2","1","1","0","1","2","0","","","","[0,1]","","","","","","","","",""
"41720.199999999255","","{""Q01"":""4"",""Q02"":""4"",""Q03"":""3"",""Q04"":""3"",""Q05"":""4"",""Q06"":""2"",""Q07"":""4"",""Q08"":""2"",""Q09"":""2"",""Q10"":""4"",""Q11"":""3"",""Q12"":""3""}","survey-template","4","83861","0.0-3.0","754088587779379202","","19","本科","汉族","2003-11-25 00:00:00","0","1","2","1","1","4000","4","5","4","4","3","3","4","2","4","2","2","4","3","3","1","1","2","0","0","0","1","1","0","2","1","1","0","1","2","0","","","","","{""Q01"":""4"",""Q02"":""4"",""Q03"":""3"",""Q04"":""3"",""Q05"":""4"",""Q06"":""2"",""Q07"":""4"",""Q08"":""2"",""Q09"":""2"",""Q10"":""4"",""Q11"":""3"",""Q12"":""3""}","[0,1,2,3,4,5,6,7,8,9,10,11]","[""Q01"",""Q02"",""Q03"",""Q04"",""Q05"",""Q06"",""Q07"",""Q08"",""Q08"",""Q09"",""Q10"",""Q11"",""Q12""]","[7883.4000000003725,11510.5,14517.299999998882,17430.5,20970.299999998882,22857.699999999255,25819.599999999627,27373.799999998882,28895.799999998882,30792.900000000373,35300.79999999888,38960.90000000037,40775.09999999963]","[]","[7450.199999999255,7883.4000000003725,11510.5,14517.299999998882,17430.5,20970.299999998882,22857.699999999255,25819.599999999627,27373.799999998882,28895.799999998882,30792.900000000373,33868.699999999255,34258.90000000037,35300.79999999888,38960.90000000037,39387.199999999255,40190.09999999963,40775.09999999963,41329.40000000037,41719.09999999963]","0.5","0.2727272727272727","0"
"36049.90000000037","","{""Q01"":""1"",""Q02"":""1"",""Q03"":""2"",""Q04"":""0"",""Q05"":""0"",""Q06"":""0"",""Q07"":""1"",""Q08"":""1"",""Q09"":""0""}","survey-template","5","119915","0.0-4.0","754088587779379202","","19","本科","汉族","2003-11-25 00:00:00","0","1","2","1","1","4000","4","5","4","4","3","3","4","2","4","2","2","4","3","3","1","1","2","0","0","0","1","1","0","2","1","1","0","1","2","0","","","","","{""Q01"":""1"",""Q02"":""1"",""Q03"":""2"",""Q04"":""0"",""Q05"":""0"",""Q06"":""0"",""Q07"":""1"",""Q08"":""1"",""Q09"":""0""}","[0,1,2,3,4,5,6,7,8]","[""Q01"",""Q01"",""Q01"",""Q01"",""Q01"",""Q02"",""Q03"",""Q04"",""Q05"",""Q06"",""Q07"",""Q07"",""Q08"",""Q09""]","[1848.4000000003725,5789.800000000745,6965.10000000149,10153.5,12419.700000001118,15519.60000000149,17073.700000001118,20871.900000000373,21682.900000000373,24672.5,25889.900000000373,29045.700000001118,33501,35418.10000000149]","[]","[1848.4000000003725,5789.800000000745,6520.5,6965.10000000149,10153.5,12419.700000001118,15519.60000000149,17073.700000001118,20871.900000000373,21682.900000000373,24266.900000000373,24672.5,25889.900000000373,28382.700000001118,29045.700000001118,33501,35418.10000000149,36049.10000000149]","0.4444444444444444","0.375","0"
"17095.200000001118","","{""Q01"":""2"",""Q02"":""1"",""Q03"":""1"",""Q04"":""0"",""Q05"":""1"",""Q06"":""2"",""Q07"":""0""}","survey-template","6","137013","0.0-5.0","754088587779379202","","19","本科","汉族","2003-11-25 00:00:00","0","1","2","1","1","4000","4","5","4","4","3","3","4","2","4","2","2","4","3","3","1","1","2","0","0","0","1","1","0","2","1","1","0","1","2","0","","","","","{""Q01"":""2"",""Q02"":""1"",""Q03"":""1"",""Q04"":""0"",""Q05"":""1"",""Q06"":""2"",""Q07"":""0""}","[0,1,2,3,4,5,6]","[""Q01"",""Q02"",""Q03"",""Q04"",""Q01"",""Q05"",""Q07"",""Q06"",""Q06"",""Q07"",""Q04""]","[1714.2000000011176,2028.2000000011176,2363.9000000003725,2739.300000000745,6364.5,7215.300000000745,8196.400000000373,8602.10000000149,11241.10000000149,12534.400000000373,14773.5]","[]","[1714.2000000011176,2028.2000000011176,2363.9000000003725,2739.300000000745,5984.4000000003725,6364.5,7215.300000000745,7492.4000000003725,7856.300000000745,8196.400000000373,8602.10000000149,11241.10000000149,12534.400000000373,14773.5,17094.60000000149]","0.42857142857142855","0.6666666666666666","0"
"null","
    <p>第一阶段的实验部分已结束。</p>
    <p>系统将自动下载一个.csv文件，该文件为您的实验数据的备份文件。请不要对其进行任何更改，请不要随便删除，将它保存在您的系统文件夹中。</p>
    <p>如果数据遗失，我们将联系您获取该备份文件。</p>
    <p>感谢您的配合！</p>","null","html-keyboard-response","7","137471","0.0-6.0","754088587779379202","","19","本科","汉族","2003-11-25 00:00:00","0","1","2","1","1","4000","4","5","4","4","3","3","4","2","4","2","2","4","3","3","1","1","2","0","0","0","1","1","0","2","1","1","0","1","2","0","","","","","","","","","","","","",""
