"rt","stimulus","response","trial_type","trial_index","time_elapsed","internal_node_id","subj_idx","subj_name","age","education","national","birthday","sex","fatherEdu","motherEdu","FatherOccupation","MotherOccupation","income","obj_ses1","fri_ses2","selfclarity_1","selfclarity_2","selfclarity_3","selfclarity_4","selfclarity_5","selfclarity_6","selfclarity_7","selfclarity_8","selfclarity_9","selfclarity_10","selfclarity_11","selfclarity_12","phq_1","phq_2","phq_3","phq_4","phq_5","phq_6","phq_7","phq_8","phq_9","gad_1","gad_2","gad_3","gad_4","gad_5","gad_6","gad_7","success","user_agent","accuracy","question_order","responses","item_order","radio_event_ids","radio_event_times","key_event_times","mouse_event_times","straightlining","zigzagging","honeypot"
"10814","
   <p>您好，欢迎参加本次实验。</p>
   <p>为充分保障您的权利，请确保您已经知晓并同意《参与实验同意书》以及《数据公开知情同意书》。</p>
   <p>如果您未见过上述内容，请咨询实验员。</p>
   <p>如果您选择继续实验，则表示您已经清楚两份知情同意书的内容并同意。</p>
   <p> <div style = ""color: green""><按""继续""至下页></div> </p>
   ","0","html-button-response","0","10820","0.0-0.0","602935616174292992","王**","30","硕士","蒙古族","1993-04-25 00:00:00","1","4","3","3","3","9000","3","3","3","2","1","1","1","2","4","3","3","2","1","1","3","2","2","3","1","2","3","0","0","3","3","3","3","2","2","2","","","","","","","","","","","","",""
"","","","fullscreen","1","15202","0.0-1.0","602935616174292992","王**","30","硕士","蒙古族","1993-04-25 00:00:00","1","4","3","3","3","9000","3","3","3","2","1","1","1","2","4","3","3","2","1","1","3","2","2","3","1","2","3","0","0","3","3","3","3","2","2","2","true","","","","","","","","","","","",""
"27795","","{""gender"":""B.女"",""fatherEdu"":""E.大学（专科或本科）"",""motherEdu"":""D.高中或中专"",""FatherOccupation"":""D.中层管理人员与中层专业技术人员、助理专业人员,包括在各种经济成分的机构(包括国家机关、党群组织、全民企事业单位、集体企事业单位和各类非公有制经济企业)中专门从事各种专业性工作和科学技术工作的人员,如教师、医生、技师等"",""MotherOccupation"":""D.中层管理人员与中层专业技术人员、助理专业人员,包括在各种经济成分的机构(包括国家机关、党群组织、全民企事业单位、集体企事业单位和各类非公有制经济企业)中专门从事各种专业性工作和科学技术工作的人员,如教师、医生、技师等"",""income"":""9000""}","survey","2","43106","0.0-2.0-0.0","602935616174292992","王**","30","硕士","蒙古族","1993-04-25 00:00:00","1","4","3","3","3","9000","3","3","3","2","1","1","1","2","4","3","3","2","1","1","3","2","2","3","1","2","3","0","0","3","3","3","3","2","2","2","","","[]","","","","","","","","","",""
"11087","","{""Q0"":2,""Q1"":2}","survey-likert","3","56088","0.0-2.0-1.0","602935616174292992","王**","30","硕士","蒙古族","1993-04-25 00:00:00","1","4","3","3","3","9000","3","3","3","2","1","1","1","2","4","3","3","2","1","1","3","2","2","3","1","2","3","0","0","3","3","3","3","2","2","2","","","","[0,1]","","","","","","","","",""
"62077.54000000023","","{""Q01"":""3"",""Q02"":""2"",""Q03"":""1"",""Q04"":""1"",""Q05"":""1"",""Q06"":""2"",""Q07"":""4"",""Q08"":""3"",""Q09"":""3"",""Q10"":""2"",""Q11"":""1"",""Q12"":""1""}","survey-template","4","118189","0.0-3.0","602935616174292992","王**","30","硕士","蒙古族","1993-04-25 00:00:00","1","4","3","3","3","9000","3","3","3","2","1","1","1","2","4","3","3","2","1","1","3","2","2","3","1","2","3","0","0","3","3","3","3","2","2","2","","","","","{""Q01"":""3"",""Q02"":""2"",""Q03"":""1"",""Q04"":""1"",""Q05"":""1"",""Q06"":""2"",""Q07"":""4"",""Q08"":""3"",""Q09"":""3"",""Q10"":""2"",""Q11"":""1"",""Q12"":""1""}","[0,1,2,3,4,5,6,7,8,9,10,11]","[""Q01"",""Q02"",""Q03"",""Q04"",""Q05"",""Q06"",""Q07"",""Q08"",""Q09"",""Q10"",""Q11"",""Q12""]","[10011.585000000196,16314.855000000534,19722.94000000057,23482.75999999988,32827.44000000002,37091.84999999979,44498.7799999999,46723.450000000405,49634.6250000006,53802.04000000049,58946.160000000425,60674.50999999982]","[]","[10011.585000000196,16314.855000000534,19722.94000000057,23482.75999999988,32827.44000000002,37091.84999999979,44498.7799999999,46723.450000000405,49634.6250000006,53802.04000000049,56714.12500000042,58946.160000000425,60674.50999999982,62073.40000000021]","0.3333333333333333","0.45454545454545453","0"
"38429.16499999956","","{""Q01"":""3"",""Q02"":""2"",""Q03"":""2"",""Q04"":""3"",""Q05"":""1"",""Q06"":""2"",""Q07"":""3"",""Q08"":""0"",""Q09"":""0""}","survey-template","5","156632","0.0-4.0","602935616174292992","王**","30","硕士","蒙古族","1993-04-25 00:00:00","1","4","3","3","3","9000","3","3","3","2","1","1","1","2","4","3","3","2","1","1","3","2","2","3","1","2","3","0","0","3","3","3","3","2","2","2","","","","","{""Q01"":""3"",""Q02"":""2"",""Q03"":""2"",""Q04"":""3"",""Q05"":""1"",""Q06"":""2"",""Q07"":""3"",""Q08"":""0"",""Q09"":""0""}","[0,1,2,3,4,5,6,7,8]","[""Q01"",""Q02"",""Q03"",""Q04"",""Q05"",""Q06"",""Q07"",""Q08"",""Q09"",""Q09""]","[14264.704999999594,16761.364999999394,17985.299999999363,21018.250000000073,22449.649999999572,25449.18499999949,27377.520000000004,32128.87999999929,34032.67499999948,37457.01499999994]","[]","[14264.704999999594,16761.364999999394,17985.299999999363,19521.64999999969,21018.250000000073,22449.649999999572,25449.18499999949,27377.520000000004,32128.87999999929,34032.67499999948,37457.01499999994,38424.964999999254]","0.3333333333333333","0.625","0"
"10552.77500000011","","{""Q01"":""3"",""Q02"":""3"",""Q03"":""3"",""Q04"":""3"",""Q05"":""2"",""Q06"":""2"",""Q07"":""2""}","survey-template","6","167201","0.0-5.0","602935616174292992","王**","30","硕士","蒙古族","1993-04-25 00:00:00","1","4","3","3","3","9000","3","3","3","2","1","1","1","2","4","3","3","2","1","1","3","2","2","3","1","2","3","0","0","3","3","3","3","2","2","2","","","","","{""Q01"":""3"",""Q02"":""3"",""Q03"":""3"",""Q04"":""3"",""Q05"":""2"",""Q06"":""2"",""Q07"":""2""}","[0,1,2,3,4,5,6]","[""Q01"",""Q02"",""Q03"",""Q04"",""Q05"",""Q06"",""Q07""]","[2491.15500000061,3675.435000000085,5234.7650000001595,6339.069999999978,7716.670000000711,8778.780000000552,9738.74000000069]","[]","[2491.15500000061,3675.435000000085,4586.50000000032,5234.7650000001595,6339.069999999978,7716.670000000711,8778.780000000552,9738.74000000069,10547.325000000448]","0.5714285714285714","0.16666666666666666","0"
"null","
    <p>第一阶段的实验部分已结束。</p>
    <p>系统将自动下载一个.csv文件，该文件为您的实验数据的备份文件。请不要对其进行任何更改，请不要随便删除，将它保存在您的系统文件夹中。</p>
    <p>如果数据遗失，我们将联系您获取该备份文件。</p>
    <p>感谢您的配合！</p>","null","html-keyboard-response","7","167668","0.0-6.0","602935616174292992","王**","30","硕士","蒙古族","1993-04-25 00:00:00","1","4","3","3","3","9000","3","3","3","2","1","1","1","2","4","3","3","2","1","1","3","2","2","3","1","2","3","0","0","3","3","3","3","2","2","2","","","","","","","","","","","","",""
