"rt","stimulus","response","trial_type","trial_index","time_elapsed","internal_node_id","subj_idx","subj_name","age","education","national","birthday","sex","fatherEdu","motherEdu","FatherOccupation","MotherOccupation","income","obj_ses1","fri_ses2","selfclarity_1","selfclarity_2","selfclarity_3","selfclarity_4","selfclarity_5","selfclarity_6","selfclarity_7","selfclarity_8","selfclarity_9","selfclarity_10","selfclarity_11","selfclarity_12","phq_1","phq_2","phq_3","phq_4","phq_5","phq_6","phq_7","phq_8","phq_9","gad_1","gad_2","gad_3","gad_4","gad_5","gad_6","gad_7","success","user_agent","accuracy","question_order","responses","item_order","radio_event_ids","radio_event_times","key_event_times","mouse_event_times","straightlining","zigzagging","honeypot"
"3099","
   <p>您好，欢迎参加本次实验。</p>
   <p>为充分保障您的权利，请确保您已经知晓并同意《参与实验同意书》以及《数据公开知情同意书》。</p>
   <p>如果您未见过上述内容，请咨询实验员。</p>
   <p>如果您选择继续实验，则表示您已经清楚两份知情同意书的内容并同意。</p>
   <p> <div style = ""color: green""><按""继续""至下页></div> </p>
   ","0","html-button-response","0","3103","0.0-0.0","675059027545161728","郑**","43","本科","汉族","1979-09-28 00:00:00","1","4","4","2","2","8000","4","4","4","2","4","2","4","4","5","4","4","3","4","1","1","0","0","1","0","1","1","0","0","1","1","2","1","0","1","0","","","","","","","","","","","","",""
"","","","fullscreen","1","15970","0.0-1.0","675059027545161728","郑**","43","本科","汉族","1979-09-28 00:00:00","1","4","4","2","2","8000","4","4","4","2","4","2","4","4","5","4","4","3","4","1","1","0","0","1","0","1","1","0","0","1","1","2","1","0","1","0","true","{}","","","","","","","","","","",""
"30914","","{""gender"":""B.女"",""fatherEdu"":""E.大学（专科或本科）"",""motherEdu"":""E.大学（专科或本科）"",""FatherOccupation"":""C.一般管理人员与一般专业技术人员、事务性工作人员,包括商业服务业员工阶层、办事人员阶层,如售货员、司机等"",""MotherOccupation"":""C.一般管理人员与一般专业技术人员、事务性工作人员,包括商业服务业员工阶层、办事人员阶层,如售货员、司机等"",""income"":""8000""}","survey","2","46969","0.0-2.0-0.0","675059027545161728","郑**","43","本科","汉族","1979-09-28 00:00:00","1","4","4","2","2","8000","4","4","4","2","4","2","4","4","5","4","4","3","4","1","1","0","0","1","0","1","1","0","0","1","1","2","1","0","1","0","","","[]","","","","","","","","","",""
"25284","","{""Q0"":3,""Q1"":3}","survey-likert","3","72679","0.0-2.0-1.0","675059027545161728","郑**","43","本科","汉族","1979-09-28 00:00:00","1","4","4","2","2","8000","4","4","4","2","4","2","4","4","5","4","4","3","4","1","1","0","0","1","0","1","1","0","0","1","1","2","1","0","1","0","","","","[0,1]","","","","","","","","",""
"83329.79999999999","","{""Q01"":""4"",""Q02"":""2"",""Q03"":""4"",""Q04"":""2"",""Q05"":""4"",""Q06"":""4"",""Q07"":""5"",""Q08"":""4"",""Q09"":""4"",""Q10"":""3"",""Q11"":""4"",""Q12"":""1""}","survey-template","4","156017","0.0-3.0","675059027545161728","郑**","43","本科","汉族","1979-09-28 00:00:00","1","4","4","2","2","8000","4","4","4","2","4","2","4","4","5","4","4","3","4","1","1","0","0","1","0","1","1","0","0","1","1","2","1","0","1","0","","","","","{""Q01"":""4"",""Q02"":""2"",""Q03"":""4"",""Q04"":""2"",""Q05"":""4"",""Q06"":""4"",""Q07"":""5"",""Q08"":""4"",""Q09"":""4"",""Q10"":""3"",""Q11"":""4"",""Q12"":""1""}","[0,1,2,3,4,5,6,7,8,9,10,11]","[""Q01"",""Q02"",""Q02"",""Q03"",""Q04"",""Q05"",""Q06"",""Q07"",""Q08"",""Q09"",""Q08"",""Q10"",""Q11"",""Q12""]","[23976.400000000023,27176.29999999999,31144.29999999999,33632.29999999999,39856.20000000001,45496,53176.29999999999,57584.100000000035,61168,65464.100000000035,68256.20000000001,76639.79999999999,79368.20000000001,82600.10000000003]","[]","[23976.400000000023,27176.29999999999,31144.29999999999,33632.29999999999,39856.20000000001,45496,53176.29999999999,57584.100000000035,61168,65464.100000000035,67464,68256.20000000001,76639.79999999999,79368.20000000001,82600.10000000003,83328.10000000003]","0.4166666666666667","0.36363636363636365","0"
"32375.399999999965","","{""Q01"":""1"",""Q02"":""0"",""Q03"":""0"",""Q04"":""1"",""Q05"":""0"",""Q06"":""1"",""Q07"":""1"",""Q08"":""0"",""Q09"":""0""}","survey-template","5","188398","0.0-4.0","675059027545161728","郑**","43","本科","汉族","1979-09-28 00:00:00","1","4","4","2","2","8000","4","4","4","2","4","2","4","4","5","4","4","3","4","1","1","0","0","1","0","1","1","0","0","1","1","2","1","0","1","0","","","","","{""Q01"":""1"",""Q02"":""0"",""Q03"":""0"",""Q04"":""1"",""Q05"":""0"",""Q06"":""1"",""Q07"":""1"",""Q08"":""0"",""Q09"":""0""}","[0,1,2,3,4,5,6,7,8]","[""Q01"",""Q02"",""Q03"",""Q04"",""Q05"",""Q06"",""Q07"",""Q07"",""Q08"",""Q09""]","[7446.599999999977,9014.699999999953,12646.5,14022.699999999953,15494.599999999977,19206.699999999953,21926.399999999965,26174.699999999953,28886.5,30758.599999999977]","[]","[7446.599999999977,9014.699999999953,12646.5,14022.699999999953,15494.599999999977,19206.699999999953,21926.399999999965,26174.699999999953,28886.5,30758.599999999977,32374.5]","0.5555555555555556","0.625","0"
"22579.70000000001","","{""Q01"":""1"",""Q02"":""1"",""Q03"":""2"",""Q04"":""1"",""Q05"":""0"",""Q06"":""1"",""Q07"":""0""}","survey-template","6","210981","0.0-5.0","675059027545161728","郑**","43","本科","汉族","1979-09-28 00:00:00","1","4","4","2","2","8000","4","4","4","2","4","2","4","4","5","4","4","3","4","1","1","0","0","1","0","1","1","0","0","1","1","2","1","0","1","0","","","","","{""Q01"":""1"",""Q02"":""1"",""Q03"":""2"",""Q04"":""1"",""Q05"":""0"",""Q06"":""1"",""Q07"":""0""}","[0,1,2,3,4,5,6]","[""Q01"",""Q02"",""Q03"",""Q04"",""Q05"",""Q06"",""Q07""]","[6051.299999999988,8027.200000000012,11075.099999999977,13339,16195.099999999977,19971.20000000001,21787]","[]","[6051.299999999988,8027.200000000012,11075.099999999977,13339,16195.099999999977,19971.20000000001,21787,22579]","0.5714285714285714","0.8333333333333334","0"
"null","
    <p>第一阶段的实验部分已结束。</p>
    <p>系统将自动下载一个.csv文件，该文件为您的实验数据的备份文件。请不要对其进行任何更改，请不要随便删除，将它保存在您的系统文件夹中。</p>
    <p>如果数据遗失，我们将联系您获取该备份文件。</p>
    <p>感谢您的配合！</p>","null","html-keyboard-response","7","211436","0.0-6.0","675059027545161728","郑**","43","本科","汉族","1979-09-28 00:00:00","1","4","4","2","2","8000","4","4","4","2","4","2","4","4","5","4","4","3","4","1","1","0","0","1","0","1","1","0","0","1","1","2","1","0","1","0","","","","","","","","","","","","",""
