"rt","stimulus","response","trial_type","trial_index","time_elapsed","internal_node_id","subj_idx","subj_name","age","education","national","birthday","sex","fatherEdu","motherEdu","FatherOccupation","MotherOccupation","income","obj_ses1","fri_ses2","selfclarity_1","selfclarity_2","selfclarity_3","selfclarity_4","selfclarity_5","selfclarity_6","selfclarity_7","selfclarity_8","selfclarity_9","selfclarity_10","selfclarity_11","selfclarity_12","phq_1","phq_2","phq_3","phq_4","phq_5","phq_6","phq_7","phq_8","phq_9","gad_1","gad_2","gad_3","gad_4","gad_5","gad_6","gad_7","success","user_agent","accuracy","question_order","responses","item_order","radio_event_ids","radio_event_times","key_event_times","mouse_event_times","straightlining","zigzagging","honeypot"
"2457","
   <p>您好，欢迎参加本次实验。</p>
   <p>为充分保障您的权利，请确保您已经知晓并同意《参与实验同意书》以及《数据公开知情同意书》。</p>
   <p>如果您未见过上述内容，请咨询实验员。</p>
   <p>如果您选择继续实验，则表示您已经清楚两份知情同意书的内容并同意。</p>
   <p> <div style = ""color: green""><按""继续""至下页></div> </p>
   ","0","html-button-response","0","2465","0.0-0.0","732181640226541569","刘**","21","本科","汉族","2002-07-01 00:00:00","0","4","3","3","2","17000","5","5","4","4","2","3","4","2","5","4","4","2","5","4","0","0","0","0","0","0","0","0","0","0","0","0","0","0","0","0","","","","","","","","","","","","",""
"","","","fullscreen","1","49991","0.0-1.0","732181640226541569","刘**","21","本科","汉族","2002-07-01 00:00:00","0","4","3","3","2","17000","5","5","4","4","2","3","4","2","5","4","4","2","5","4","0","0","0","0","0","0","0","0","0","0","0","0","0","0","0","0","true","{}","","","","","","","","","","",""
"56484","","{""gender"":""A.男"",""fatherEdu"":""E.大学（专科或本科）"",""motherEdu"":""D.高中或中专"",""FatherOccupation"":""D.中层管理人员与中层专业技术人员、助理专业人员,包括在各种经济成分的机构(包括国家机关、党群组织、全民企事业单位、集体企事业单位和各类非公有制经济企业)中专门从事各种专业性工作和科学技术工作的人员,如教师、医生、技师等"",""MotherOccupation"":""C.一般管理人员与一般专业技术人员、事务性工作人员,包括商业服务业员工阶层、办事人员阶层,如售货员、司机等"",""income"":""17000""}","survey","2","106655","0.0-2.0-0.0","732181640226541569","刘**","21","本科","汉族","2002-07-01 00:00:00","0","4","3","3","2","17000","5","5","4","4","2","3","4","2","5","4","4","2","5","4","0","0","0","0","0","0","0","0","0","0","0","0","0","0","0","0","","","[]","","","","","","","","","",""
"10068","","{""Q0"":4,""Q1"":4}","survey-likert","3","117349","0.0-2.0-1.0","732181640226541569","刘**","21","本科","汉族","2002-07-01 00:00:00","0","4","3","3","2","17000","5","5","4","4","2","3","4","2","5","4","4","2","5","4","0","0","0","0","0","0","0","0","0","0","0","0","0","0","0","0","","","","[0,1]","","","","","","","","",""
"82680.89999997616","","{""Q01"":""4"",""Q02"":""4"",""Q03"":""2"",""Q04"":""3"",""Q05"":""4"",""Q06"":""2"",""Q07"":""5"",""Q08"":""4"",""Q09"":""4"",""Q10"":""2"",""Q11"":""5"",""Q12"":""4""}","survey-template","4","200060","0.0-3.0","732181640226541569","刘**","21","本科","汉族","2002-07-01 00:00:00","0","4","3","3","2","17000","5","5","4","4","2","3","4","2","5","4","4","2","5","4","0","0","0","0","0","0","0","0","0","0","0","0","0","0","0","0","","","","","{""Q01"":""4"",""Q02"":""4"",""Q03"":""2"",""Q04"":""3"",""Q05"":""4"",""Q06"":""2"",""Q07"":""5"",""Q08"":""4"",""Q09"":""4"",""Q10"":""2"",""Q11"":""5"",""Q12"":""4""}","[0,1,2,3,4,5,6,7,8,9,10,11]","[""Q01"",""Q01"",""Q02"",""Q03"",""Q04"",""Q05"",""Q06"",""Q07"",""Q08"",""Q08"",""Q08"",""Q09"",""Q10"",""Q11"",""Q04"",""Q12"",""Q12"",""Q12""]","[5110.199999928474,6861.699999928474,10205.299999952316,14276.699999928474,17724.600000023842,26212.799999952316,30203.899999976158,33202.299999952316,36819.60000002384,40378.60000002384,45562.10000002384,46698.60000002384,59449.699999928474,62186,68825.5,74664.69999992847,76983.5,79601.89999997616]","[]","[5110.199999928474,6861.699999928474,8581.600000023842,10205.299999952316,14276.699999928474,17724.600000023842,26212.799999952316,30203.899999976158,33202.299999952316,35563.89999997616,36819.60000002384,39715.10000002384,40378.60000002384,43037.89999997616,43466.699999928474,45562.10000002384,46147,46698.60000002384,58770,59449.699999928474,62186,68825.5,74664.69999992847,76448.69999992847,76983.5,79032,79601.89999997616,82678.89999997616]","0.5833333333333334","0.45454545454545453","0"
"19880.100000023842","","{""Q01"":""0"",""Q02"":""0"",""Q03"":""0"",""Q04"":""0"",""Q05"":""0"",""Q06"":""0"",""Q07"":""0"",""Q08"":""0"",""Q09"":""0""}","survey-template","5","219945","0.0-4.0","732181640226541569","刘**","21","本科","汉族","2002-07-01 00:00:00","0","4","3","3","2","17000","5","5","4","4","2","3","4","2","5","4","4","2","5","4","0","0","0","0","0","0","0","0","0","0","0","0","0","0","0","0","","","","","{""Q01"":""0"",""Q02"":""0"",""Q03"":""0"",""Q04"":""0"",""Q05"":""0"",""Q06"":""0"",""Q07"":""0"",""Q08"":""0"",""Q09"":""0""}","[0,1,2,3,4,5,6,7,8]","[""Q01"",""Q02"",""Q03"",""Q04"",""Q05"",""Q06"",""Q07"",""Q08"",""Q09"",""Q07""]","[3369,4130.299999952316,5235.899999976158,6064.100000023842,7569.899999976158,8681.699999928474,10969.100000023842,14264.5,15344.600000023842,18345.199999928474]","[]","[3369,4130.299999952316,4713.199999928474,5235.899999976158,6064.100000023842,6633,7569.899999976158,8681.699999928474,10969.100000023842,14264.5,15344.600000023842,18345.199999928474,19878.899999976158]","1","0","0"
"9774.799999952316","","{""Q01"":""0"",""Q02"":""0"",""Q03"":""0"",""Q04"":""0"",""Q05"":""0"",""Q06"":""0"",""Q07"":""0""}","survey-template","6","229725","0.0-5.0","732181640226541569","刘**","21","本科","汉族","2002-07-01 00:00:00","0","4","3","3","2","17000","5","5","4","4","2","3","4","2","5","4","4","2","5","4","0","0","0","0","0","0","0","0","0","0","0","0","0","0","0","0","","","","","{""Q01"":""0"",""Q02"":""0"",""Q03"":""0"",""Q04"":""0"",""Q05"":""0"",""Q06"":""0"",""Q07"":""0""}","[0,1,2,3,4,5,6]","[""Q01"",""Q02"",""Q03"",""Q04"",""Q05"",""Q06"",""Q07""]","[2595.2999999523163,3323.600000023842,3955.399999976158,4466.399999976158,4947.5,5459.699999928474,8795.600000023842]","[]","[2595.2999999523163,3323.600000023842,3955.399999976158,4466.399999976158,4947.5,5459.699999928474,6106.399999976158,8186.100000023842,8795.600000023842,9771.199999928474]","1","0","0"
"null","
    <p>第一阶段的实验部分已结束。</p>
    <p>系统将自动下载一个.csv文件，该文件为您的实验数据的备份文件。请不要对其进行任何更改，请不要随便删除，将它保存在您的系统文件夹中。</p>
    <p>如果数据遗失，我们将联系您获取该备份文件。</p>
    <p>感谢您的配合！</p>","null","html-keyboard-response","7","230190","0.0-6.0","732181640226541569","刘**","21","本科","汉族","2002-07-01 00:00:00","0","4","3","3","2","17000","5","5","4","4","2","3","4","2","5","4","4","2","5","4","0","0","0","0","0","0","0","0","0","0","0","0","0","0","0","0","","","","","","","","","","","","",""
