"rt","stimulus","response","trial_type","trial_index","time_elapsed","internal_node_id","subj_idx","subj_name","age","education","national","birthday","sex","fatherEdu","motherEdu","FatherOccupation","MotherOccupation","income","obj_ses1","fri_ses2","selfclarity_1","selfclarity_2","selfclarity_3","selfclarity_4","selfclarity_5","selfclarity_6","selfclarity_7","selfclarity_8","selfclarity_9","selfclarity_10","selfclarity_11","selfclarity_12","phq_1","phq_2","phq_3","phq_4","phq_5","phq_6","phq_7","phq_8","phq_9","gad_1","gad_2","gad_3","gad_4","gad_5","gad_6","gad_7","success","user_agent","accuracy","question_order","responses","item_order","radio_event_ids","radio_event_times","key_event_times","mouse_event_times","straightlining","zigzagging","honeypot"
"15905","
   <p>您好，欢迎参加本次实验。</p>
   <p>为充分保障您的权利，请确保您已经知晓并同意《参与实验同意书》以及《数据公开知情同意书》。</p>
   <p>如果您未见过上述内容，请咨询实验员。</p>
   <p>如果您选择继续实验，则表示您已经清楚两份知情同意书的内容并同意。</p>
   <p> <div style = ""color: green""><按""继续""至下页></div> </p>
   ","0","html-button-response","0","15910","0.0-0.0","590502391271391232","邱**","20","本科","汉族","2003-04-20 00:00:00","1","4","4","3","2","16000","6","7","5","5","5","5","5","5","5","5","5","5","5","5","0","0","0","0","0","0","0","0","0","0","0","0","0","0","0","0","","","","","","","","","","","","",""
"","","","fullscreen","1","26570","0.0-1.0","590502391271391232","邱**","20","本科","汉族","2003-04-20 00:00:00","1","4","4","3","2","16000","6","7","5","5","5","5","5","5","5","5","5","5","5","5","0","0","0","0","0","0","0","0","0","0","0","0","0","0","0","0","true","","","","","","","","","","","",""
"50815","","{""gender"":""B.女"",""fatherEdu"":""E.大学（专科或本科）"",""motherEdu"":""E.大学（专科或本科）"",""FatherOccupation"":""D.中层管理人员与中层专业技术人员、助理专业人员,包括在各种经济成分的机构(包括国家机关、党群组织、全民企事业单位、集体企事业单位和各类非公有制经济企业)中专门从事各种专业性工作和科学技术工作的人员,如教师、医生、技师等"",""MotherOccupation"":""C.一般管理人员与一般专业技术人员、事务性工作人员,包括商业服务业员工阶层、办事人员阶层,如售货员、司机等"",""income"":""16000""}","survey","2","77456","0.0-2.0-0.0","590502391271391232","邱**","20","本科","汉族","2003-04-20 00:00:00","1","4","4","3","2","16000","6","7","5","5","5","5","5","5","5","5","5","5","5","5","0","0","0","0","0","0","0","0","0","0","0","0","0","0","0","0","","","[]","","","","","","","","","",""
"34428","","{""Q0"":5,""Q1"":6}","survey-likert","3","112302","0.0-2.0-1.0","590502391271391232","邱**","20","本科","汉族","2003-04-20 00:00:00","1","4","4","3","2","16000","6","7","5","5","5","5","5","5","5","5","5","5","5","5","0","0","0","0","0","0","0","0","0","0","0","0","0","0","0","0","","","","[0,1]","","","","","","","","",""
"111179","","{""Q01"":""5"",""Q02"":""5"",""Q03"":""5"",""Q04"":""5"",""Q05"":""5"",""Q06"":""5"",""Q07"":""5"",""Q08"":""5"",""Q09"":""5"",""Q10"":""5"",""Q11"":""5"",""Q12"":""5""}","survey-template","4","223486","0.0-3.0","590502391271391232","邱**","20","本科","汉族","2003-04-20 00:00:00","1","4","4","3","2","16000","6","7","5","5","5","5","5","5","5","5","5","5","5","5","0","0","0","0","0","0","0","0","0","0","0","0","0","0","0","0","","","","","{""Q01"":""5"",""Q02"":""5"",""Q03"":""5"",""Q04"":""5"",""Q05"":""5"",""Q06"":""5"",""Q07"":""5"",""Q08"":""5"",""Q09"":""5"",""Q10"":""5"",""Q11"":""5"",""Q12"":""5""}","[0,1,2,3,4,5,6,7,8,9,10,11]","[""Q01"",""Q02"",""Q03"",""Q04"",""Q05"",""Q06"",""Q07"",""Q08"",""Q09"",""Q10"",""Q11"",""Q12""]","[6107,10947,14939,19331,28171,43203,75843,76387,89443,97339,99634,107771]","[]","[6107,10947,14939,19331,28171,43203,74075,75147,75843,76387,88523,89443,97339,99634,107771,111179]","0.8333333333333334","0.36363636363636365","0"
"18061","","{""Q01"":""0"",""Q02"":""0"",""Q03"":""0"",""Q04"":""0"",""Q05"":""0"",""Q06"":""0"",""Q07"":""0"",""Q08"":""0"",""Q09"":""0""}","survey-template","5","241549","0.0-4.0","590502391271391232","邱**","20","本科","汉族","2003-04-20 00:00:00","1","4","4","3","2","16000","6","7","5","5","5","5","5","5","5","5","5","5","5","5","0","0","0","0","0","0","0","0","0","0","0","0","0","0","0","0","","","","","{""Q01"":""0"",""Q02"":""0"",""Q03"":""0"",""Q04"":""0"",""Q05"":""0"",""Q06"":""0"",""Q07"":""0"",""Q08"":""0"",""Q09"":""0""}","[0,1,2,3,4,5,6,7,8]","[""Q01"",""Q02"",""Q03"",""Q04"",""Q05"",""Q06"",""Q07"",""Q08"",""Q09""]","[1635,2244,2636,3052,3436,3988,4387,4732,5812]","[]","[1635,2244,2636,3052,3436,3988,4387,4732,5108,5812,18061]","1","0","0"
"21942","","{""Q01"":""0"",""Q02"":""0"",""Q03"":""0"",""Q04"":""0"",""Q05"":""0"",""Q06"":""0"",""Q07"":""0""}","survey-template","6","263492","0.0-5.0","590502391271391232","邱**","20","本科","汉族","2003-04-20 00:00:00","1","4","4","3","2","16000","6","7","5","5","5","5","5","5","5","5","5","5","5","5","0","0","0","0","0","0","0","0","0","0","0","0","0","0","0","0","","","","","{""Q01"":""0"",""Q02"":""0"",""Q03"":""0"",""Q04"":""0"",""Q05"":""0"",""Q06"":""0"",""Q07"":""0""}","[0,1,2,3,4,5,6]","[""Q01"",""Q02"",""Q03"",""Q04"",""Q05"",""Q06"",""Q07""]","[2197,2708,3189,3564,4077,4445,5716]","[]","[2197,2708,3189,3564,4077,4445,4797,5716,21942]","1","0","0"
"null","
    <p>第一阶段的实验部分已结束。</p>
    <p>系统将自动下载一个.csv文件，该文件为您的实验数据的备份文件。请不要对其进行任何更改，请不要随便删除，将它保存在您的系统文件夹中。</p>
    <p>如果数据遗失，我们将联系您获取该备份文件。</p>
    <p>感谢您的配合！</p>","null","html-keyboard-response","7","263959","0.0-6.0","590502391271391232","邱**","20","本科","汉族","2003-04-20 00:00:00","1","4","4","3","2","16000","6","7","5","5","5","5","5","5","5","5","5","5","5","5","0","0","0","0","0","0","0","0","0","0","0","0","0","0","0","0","","","","","","","","","","","","",""
