"rt","stimulus","response","trial_type","trial_index","time_elapsed","internal_node_id","subj_idx","subj_name","age","education","national","birthday","sex","fatherEdu","motherEdu","FatherOccupation","MotherOccupation","income","obj_ses1","fri_ses2","selfclarity_1","selfclarity_2","selfclarity_3","selfclarity_4","selfclarity_5","selfclarity_6","selfclarity_7","selfclarity_8","selfclarity_9","selfclarity_10","selfclarity_11","selfclarity_12","phq_1","phq_2","phq_3","phq_4","phq_5","phq_6","phq_7","phq_8","phq_9","gad_1","gad_2","gad_3","gad_4","gad_5","gad_6","gad_7","success","user_agent","accuracy","question_order","responses","item_order","radio_event_ids","radio_event_times","key_event_times","mouse_event_times","straightlining","zigzagging","honeypot"
"3802","
   <p>您好，欢迎参加本次实验。</p>
   <p>为充分保障您的权利，请确保您已经知晓并同意《参与实验同意书》以及《数据公开知情同意书》。</p>
   <p>如果您未见过上述内容，请咨询实验员。</p>
   <p>如果您选择继续实验，则表示您已经清楚两份知情同意书的内容并同意。</p>
   <p> <div style = ""color: green""><按""继续""至下页></div> </p>
   ","0","html-button-response","0","3808","0.0-0.0","588808772894326784","闫*","23","本科","满族","2000-07-11 00:00:00","0","3","4","2","2","15000","5","3","4","4","4","2","5","4","5","5","5","4","5","2","2","2","0","1","0","3","2","0","0","2","1","2","1","0","1","0","","","","","","","","","","","","",""
"","","","fullscreen","1","24903","0.0-1.0","588808772894326784","闫*","23","本科","满族","2000-07-11 00:00:00","0","3","4","2","2","15000","5","3","4","4","4","2","5","4","5","5","5","4","5","2","2","2","0","1","0","3","2","0","0","2","1","2","1","0","1","0","true","{}","","","","","","","","","","",""
"73034","","{""gender"":""A.男"",""fatherEdu"":""D.高中或中专"",""motherEdu"":""E.大学（专科或本科）"",""FatherOccupation"":""C.一般管理人员与一般专业技术人员、事务性工作人员,包括商业服务业员工阶层、办事人员阶层,如售货员、司机等"",""MotherOccupation"":""C.一般管理人员与一般专业技术人员、事务性工作人员,包括商业服务业员工阶层、办事人员阶层,如售货员、司机等"",""income"":""15000""}","survey","2","98089","0.0-2.0-0.0","588808772894326784","闫*","23","本科","满族","2000-07-11 00:00:00","0","3","4","2","2","15000","5","3","4","4","4","2","5","4","5","5","5","4","5","2","2","2","0","1","0","3","2","0","0","2","1","2","1","0","1","0","","","[]","","","","","","","","","",""
"40530","","{""Q0"":4,""Q1"":2}","survey-likert","3","139010","0.0-2.0-1.0","588808772894326784","闫*","23","本科","满族","2000-07-11 00:00:00","0","3","4","2","2","15000","5","3","4","4","4","2","5","4","5","5","5","4","5","2","2","2","0","1","0","3","2","0","0","2","1","2","1","0","1","0","","","","[0,1]","","","","","","","","",""
"102945.29999999702","","{""Q01"":""4"",""Q02"":""4"",""Q03"":""4"",""Q04"":""2"",""Q05"":""5"",""Q06"":""4"",""Q07"":""5"",""Q08"":""5"",""Q09"":""5"",""Q10"":""4"",""Q11"":""5"",""Q12"":""2""}","survey-template","4","241965","0.0-3.0","588808772894326784","闫*","23","本科","满族","2000-07-11 00:00:00","0","3","4","2","2","15000","5","3","4","4","4","2","5","4","5","5","5","4","5","2","2","2","0","1","0","3","2","0","0","2","1","2","1","0","1","0","","","","","{""Q01"":""4"",""Q02"":""4"",""Q03"":""4"",""Q04"":""2"",""Q05"":""5"",""Q06"":""4"",""Q07"":""5"",""Q08"":""5"",""Q09"":""5"",""Q10"":""4"",""Q11"":""5"",""Q12"":""2""}","[0,1,2,3,4,5,6,7,8,9,10,11]","[""Q12"",""Q11"",""Q11"",""Q10"",""Q09"",""Q08"",""Q07"",""Q06"",""Q05"",""Q04"",""Q03"",""Q02"",""Q01""]","[9525.79999999702,16983.90000000596,17551.29999999702,27109.70000000298,32621.59999999404,33254.90000000596,36294.40000000596,65661.70000000298,73197.79999999702,78631.40000000596,82406.20000000298,85277.90000000596,95470.09999999404]","[]","[9525.79999999702,14736.09999999404,16382.59999999404,16983.90000000596,17551.29999999702,27109.70000000298,30998,31390.29999999702,31704.90000000596,32621.59999999404,33254.90000000596,36294.40000000596,65661.70000000298,73197.79999999702,78631.40000000596,82406.20000000298,85277.90000000596,95470.09999999404,102943.09999999404]","0.3333333333333333","0.18181818181818182","0"
"55928.39999999106","","{""Q01"":""2"",""Q02"":""2"",""Q03"":""0"",""Q04"":""1"",""Q05"":""0"",""Q06"":""3"",""Q07"":""2"",""Q08"":""0"",""Q09"":""0""}","survey-template","5","297898","0.0-4.0","588808772894326784","闫*","23","本科","满族","2000-07-11 00:00:00","0","3","4","2","2","15000","5","3","4","4","4","2","5","4","5","5","5","4","5","2","2","2","0","1","0","3","2","0","0","2","1","2","1","0","1","0","","","","","{""Q01"":""2"",""Q02"":""2"",""Q03"":""0"",""Q04"":""1"",""Q05"":""0"",""Q06"":""3"",""Q07"":""2"",""Q08"":""0"",""Q09"":""0""}","[0,1,2,3,4,5,6,7,8]","[""Q09"",""Q06"",""Q05"",""Q04"",""Q04"",""Q03"",""Q02"",""Q01"",""Q07"",""Q08""]","[9416.699999988079,26400,30302.89999999106,35262.79999999702,36046.89999999106,37809,39862.89999999106,43975.39999999106,51207,54383.69999998808]","[]","[9416.699999988079,26400,29367,29832.69999998808,30302.89999999106,35262.79999999702,36046.89999999106,37809,39862.89999999106,43975.39999999106,50878.89999999106,51207,53183.09999999404,54383.69999998808,55927]","0.4444444444444444","0.5","0"
"31690.40000000596","","{""Q01"":""2"",""Q02"":""1"",""Q03"":""2"",""Q04"":""1"",""Q05"":""0"",""Q06"":""1"",""Q07"":""0""}","survey-template","6","329593","0.0-5.0","588808772894326784","闫*","23","本科","满族","2000-07-11 00:00:00","0","3","4","2","2","15000","5","3","4","4","4","2","5","4","5","5","5","4","5","2","2","2","0","1","0","3","2","0","0","2","1","2","1","0","1","0","","","","","{""Q01"":""2"",""Q02"":""1"",""Q03"":""2"",""Q04"":""1"",""Q05"":""0"",""Q06"":""1"",""Q07"":""0""}","[0,1,2,3,4,5,6]","[""Q07"",""Q03"",""Q02"",""Q02"",""Q01"",""Q04"",""Q05"",""Q06""]","[9410.20000000298,15633.5,17385.79999999702,18001.70000000298,20194,24987.79999999702,26313.79999999702,27337.5]","[]","[9410.20000000298,14305.90000000596,15265.5,15633.5,16842.40000000596,17385.79999999702,18001.70000000298,20194,24513.5,24987.79999999702,25945.79999999702,26313.79999999702,27337.5,29090.70000000298,31689.5]","0.42857142857142855","1","0"
"null","
    <p>第一阶段的实验部分已结束。</p>
    <p>系统将自动下载一个.csv文件，该文件为您的实验数据的备份文件。请不要对其进行任何更改，请不要随便删除，将它保存在您的系统文件夹中。</p>
    <p>如果数据遗失，我们将联系您获取该备份文件。</p>
    <p>感谢您的配合！</p>","null","html-keyboard-response","7","330051","0.0-6.0","588808772894326784","闫*","23","本科","满族","2000-07-11 00:00:00","0","3","4","2","2","15000","5","3","4","4","4","2","5","4","5","5","5","4","5","2","2","2","0","1","0","3","2","0","0","2","1","2","1","0","1","0","","","","","","","","","","","","",""
