"rt","stimulus","response","trial_type","trial_index","time_elapsed","internal_node_id","subj_idx","subj_name","age","education","national","birthday","sex","fatherEdu","motherEdu","FatherOccupation","MotherOccupation","income","obj_ses1","fri_ses2","selfclarity_1","selfclarity_2","selfclarity_3","selfclarity_4","selfclarity_5","selfclarity_6","selfclarity_7","selfclarity_8","selfclarity_9","selfclarity_10","selfclarity_11","selfclarity_12","phq_1","phq_2","phq_3","phq_4","phq_5","phq_6","phq_7","phq_8","phq_9","gad_1","gad_2","gad_3","gad_4","gad_5","gad_6","gad_7","success","user_agent","accuracy","question_order","responses","item_order","radio_event_ids","radio_event_times","key_event_times","mouse_event_times","straightlining","zigzagging","honeypot"
"3670","
   <p>您好，欢迎参加本次实验。</p>
   <p>为充分保障您的权利，请确保您已经知晓并同意《参与实验同意书》以及《数据公开知情同意书》。</p>
   <p>如果您未见过上述内容，请咨询实验员。</p>
   <p>如果您选择继续实验，则表示您已经清楚两份知情同意书的内容并同意。</p>
   <p> <div style = ""color: green""><按""继续""至下页></div> </p>
   ","0","html-button-response","0","3673","0.0-0.0","755507503227473921","","21","硕士","汉族","2001-09-26 00:00:00","0","1","1","1","1","15000","5","5","4","4","3","4","5","4","3","4","4","4","4","2","1","1","1","1","0","0","1","0","0","1","1","1","2","1","1","0","","","","","","","","","","","","",""
"","","","fullscreen","1","18355","0.0-1.0","755507503227473921","","21","硕士","汉族","2001-09-26 00:00:00","0","1","1","1","1","15000","5","5","4","4","3","4","5","4","3","4","4","4","4","2","1","1","1","1","0","0","1","0","0","1","1","1","2","1","1","0","true","{}","","","","","","","","","","",""
"74383","","{""gender"":""A.男"",""fatherEdu"":""B.小学"",""motherEdu"":""B.小学"",""FatherOccupation"":""B.体力劳动工人和个体经营人员、技术工及同级工作者,如建筑工人及相关人员"",""MotherOccupation"":""B.体力劳动工人和个体经营人员、技术工及同级工作者,如建筑工人及相关人员"",""income"":""15000""}","survey","2","92819","0.0-2.0-0.0","755507503227473921","","21","硕士","汉族","2001-09-26 00:00:00","0","1","1","1","1","15000","5","5","4","4","3","4","5","4","3","4","4","4","4","2","1","1","1","1","0","0","1","0","0","1","1","1","2","1","1","0","","","[]","","","","","","","","","",""
"49035","","{""Q0"":4,""Q1"":4}","survey-likert","3","142253","0.0-2.0-1.0","755507503227473921","","21","硕士","汉族","2001-09-26 00:00:00","0","1","1","1","1","15000","5","5","4","4","3","4","5","4","3","4","4","4","4","2","1","1","1","1","0","0","1","0","0","1","1","1","2","1","1","0","","","","[0,1]","","","","","","","","",""
"114255.79999999702","","{""Q01"":""4"",""Q02"":""4"",""Q03"":""3"",""Q04"":""4"",""Q05"":""5"",""Q06"":""4"",""Q07"":""3"",""Q08"":""4"",""Q09"":""4"",""Q10"":""4"",""Q11"":""4"",""Q12"":""2""}","survey-template","4","256504","0.0-3.0","755507503227473921","","21","硕士","汉族","2001-09-26 00:00:00","0","1","1","1","1","15000","5","5","4","4","3","4","5","4","3","4","4","4","4","2","1","1","1","1","0","0","1","0","0","1","1","1","2","1","1","0","","","","","{""Q01"":""4"",""Q02"":""4"",""Q03"":""3"",""Q04"":""4"",""Q05"":""5"",""Q06"":""4"",""Q07"":""3"",""Q08"":""4"",""Q09"":""4"",""Q10"":""4"",""Q11"":""4"",""Q12"":""2""}","[0,1,2,3,4,5,6,7,8,9,10,11]","[""Q01"",""Q02"",""Q03"",""Q04"",""Q05"",""Q07"",""Q06"",""Q08"",""Q09"",""Q12"",""Q11"",""Q10""]","[15229.09999999404,19389.09999999404,22221,41092.79999999702,52060.69999999553,61828.69999999553,62620.69999999553,71052.59999999404,72572.59999999404,96044.5,106068.5,112316.69999999553]","[]","[15229.09999999404,19389.09999999404,22221,41092.79999999702,52060.69999999553,58493.29999999702,60981,61828.69999999553,62620.69999999553,71052.59999999404,72572.59999999404,96044.5,106068.5,112316.69999999553,114253]","0.5","0.45454545454545453","0"
"82447.89999999851","","{""Q01"":""1"",""Q02"":""1"",""Q03"":""1"",""Q04"":""1"",""Q05"":""0"",""Q06"":""0"",""Q07"":""1"",""Q08"":""0"",""Q09"":""0""}","survey-template","5","338951","0.0-4.0","755507503227473921","","21","硕士","汉族","2001-09-26 00:00:00","0","1","1","1","1","15000","5","5","4","4","3","4","5","4","3","4","4","4","4","2","1","1","1","1","0","0","1","0","0","1","1","1","2","1","1","0","","","","","{""Q01"":""1"",""Q02"":""1"",""Q03"":""1"",""Q04"":""1"",""Q05"":""0"",""Q06"":""0"",""Q07"":""1"",""Q08"":""0"",""Q09"":""0""}","[0,1,2,3,4,5,6,7,8]","[""Q01"",""Q02"",""Q03"",""Q05"",""Q04"",""Q06"",""Q06"",""Q07"",""Q09"",""Q08""]","[8142.39999999851,23446.20000000298,27574.29999999702,32286.20000000298,33758.29999999702,36936,43526.20000000298,47350.39999999851,55110.20000000298,77910.29999999702]","[]","[8142.39999999851,23446.20000000298,27574.29999999702,32286.20000000298,33758.29999999702,36936,43526.20000000298,47350.39999999851,55110.20000000298,77910.29999999702,82446.20000000298]","0.5555555555555556","0.375","0"
"33769","","{""Q01"":""1"",""Q02"":""1"",""Q03"":""1"",""Q04"":""2"",""Q05"":""1"",""Q06"":""1"",""Q07"":""0""}","survey-template","6","372719","0.0-5.0","755507503227473921","","21","硕士","汉族","2001-09-26 00:00:00","0","1","1","1","1","15000","5","5","4","4","3","4","5","4","3","4","4","4","4","2","1","1","1","1","0","0","1","0","0","1","1","1","2","1","1","0","","","","","{""Q01"":""1"",""Q02"":""1"",""Q03"":""1"",""Q04"":""2"",""Q05"":""1"",""Q06"":""1"",""Q07"":""0""}","[0,1,2,3,4,5,6]","[""Q01"",""Q02"",""Q03"",""Q07"",""Q06"",""Q05"",""Q04"",""Q04""]","[4311.80000000447,7415.60000000149,9167.5,14735.70000000298,15655.5,19847.40000000596,27751.40000000596,29439.90000000596]","[]","[4311.80000000447,7415.60000000149,9167.5,14735.70000000298,15655.5,18239.5,19231.60000000149,19847.40000000596,27751.40000000596,28679.5,29159.80000000447,29439.90000000596,33767.80000000447]","0.7142857142857143","0.5","0"
"null","
    <p>第一阶段的实验部分已结束。</p>
    <p>系统将自动下载一个.csv文件，该文件为您的实验数据的备份文件。请不要对其进行任何更改，请不要随便删除，将它保存在您的系统文件夹中。</p>
    <p>如果数据遗失，我们将联系您获取该备份文件。</p>
    <p>感谢您的配合！</p>
    <p>按 “空格键” 结束实验!</p>","null","html-keyboard-response","7","373125","0.0-6.0","755507503227473921","","21","硕士","汉族","2001-09-26 00:00:00","0","1","1","1","1","15000","5","5","4","4","3","4","5","4","3","4","4","4","4","2","1","1","1","1","0","0","1","0","0","1","1","1","2","1","1","0","","","","","","","","","","","","",""
