"rt","stimulus","response","trial_type","trial_index","time_elapsed","internal_node_id","subj_idx","subj_name","age","education","national","birthday","sex","fatherEdu","motherEdu","FatherOccupation","MotherOccupation","income","obj_ses1","fri_ses2","selfclarity_1","selfclarity_2","selfclarity_3","selfclarity_4","selfclarity_5","selfclarity_6","selfclarity_7","selfclarity_8","selfclarity_9","selfclarity_10","selfclarity_11","selfclarity_12","phq_1","phq_2","phq_3","phq_4","phq_5","phq_6","phq_7","phq_8","phq_9","gad_1","gad_2","gad_3","gad_4","gad_5","gad_6","gad_7","success","user_agent","accuracy","question_order","responses","item_order","radio_event_ids","radio_event_times","key_event_times","mouse_event_times","straightlining","zigzagging","honeypot"
"2662","
   <p>您好，欢迎参加本次实验。</p>
   <p>为充分保障您的权利，请确保您已经知晓并同意《参与实验同意书》以及《数据公开知情同意书》。</p>
   <p>如果您未见过上述内容，请咨询实验员。</p>
   <p>如果您选择继续实验，则表示您已经清楚两份知情同意书的内容并同意。</p>
   <p> <div style = ""color: green""><按""继续""至下页></div> </p>
   ","0","html-button-response","0","2667","0.0-0.0","587645312647036928","陈**","22","本科","汉族","2000-12-08 00:00:00","1","4","4","3","3","17000","6","5","5","4","5","4","5","5","4","5","4","5","5","4","2","0","1","1","0","0","0","0","0","0","0","0","1","0","2","0","","","","","","","","","","","","",""
"","","","fullscreen","1","4404","0.0-1.0","587645312647036928","陈**","22","本科","汉族","2000-12-08 00:00:00","1","4","4","3","3","17000","6","5","5","4","5","4","5","5","4","5","4","5","5","4","2","0","1","1","0","0","0","0","0","0","0","0","1","0","2","0","true","{""brands"":[{""brand"":""Edge"",""version"":""107""},{""brand"":""Chromium"",""version"":""107""},{""brand"":""Not=A?Brand"",""version"":""24""}],""mobile"":false,""platform"":""macOS""}","","","","","","","","","","",""
"31975","","{""gender"":""B.女"",""fatherEdu"":""E.大学（专科或本科）"",""motherEdu"":""E.大学（专科或本科）"",""FatherOccupation"":""D.中层管理人员与中层专业技术人员、助理专业人员,包括在各种经济成分的机构(包括国家机关、党群组织、全民企事业单位、集体企事业单位和各类非公有制经济企业)中专门从事各种专业性工作和科学技术工作的人员,如教师、医生、技师等"",""MotherOccupation"":""D.中层管理人员与中层专业技术人员、助理专业人员,包括在各种经济成分的机构(包括国家机关、党群组织、全民企事业单位、集体企事业单位和各类非公有制经济企业)中专门从事各种专业性工作和科学技术工作的人员,如教师、医生、技师等"",""income"":""17000""}","survey","2","36579","0.0-2.0-0.0","587645312647036928","陈**","22","本科","汉族","2000-12-08 00:00:00","1","4","4","3","3","17000","6","5","5","4","5","4","5","5","4","5","4","5","5","4","2","0","1","1","0","0","0","0","0","0","0","0","1","0","2","0","","","[]","","","","","","","","","",""
"12556","","{""Q0"":5,""Q1"":4}","survey-likert","3","49611","0.0-2.0-1.0","587645312647036928","陈**","22","本科","汉族","2000-12-08 00:00:00","1","4","4","3","3","17000","6","5","5","4","5","4","5","5","4","5","4","5","5","4","2","0","1","1","0","0","0","0","0","0","0","0","1","0","2","0","","","","[0,1]","","","","","","","","",""
"99132.89999997616","","{""Q01"":""5"",""Q02"":""4"",""Q03"":""5"",""Q04"":""4"",""Q05"":""5"",""Q06"":""5"",""Q07"":""4"",""Q08"":""5"",""Q09"":""4"",""Q10"":""5"",""Q11"":""5"",""Q12"":""4""}","survey-template","4","148752","0.0-3.0","587645312647036928","陈**","22","本科","汉族","2000-12-08 00:00:00","1","4","4","3","3","17000","6","5","5","4","5","4","5","5","4","5","4","5","5","4","2","0","1","1","0","0","0","0","0","0","0","0","1","0","2","0","","","","","{""Q01"":""5"",""Q02"":""4"",""Q03"":""5"",""Q04"":""4"",""Q05"":""5"",""Q06"":""5"",""Q07"":""4"",""Q08"":""5"",""Q09"":""4"",""Q10"":""5"",""Q11"":""5"",""Q12"":""4""}","[0,1,2,3,4,5,6,7,8,9,10,11]","[""Q01"",""Q02"",""Q03"",""Q05"",""Q06"",""Q06"",""Q07"",""Q08"",""Q10"",""Q09"",""Q11"",""Q12"",""Q01"",""Q02"",""Q03"",""Q04"",""Q06"",""Q11"",""Q12""]","[3485,5052.799999952316,6831,17719.199999928474,20161.299999952316,20534.699999928474,22940.399999976158,24734.600000023842,34318.10000002384,35616.299999952316,38732.199999928474,42024.799999952316,67490.60000002384,69494.39999997616,70604.10000002384,72766,79331.5,94584.5,96120.5]","[]","[3485,4560.899999976158,5052.799999952316,6831,14218.699999928474,16734.399999976158,17254.399999976158,17719.199999928474,20161.299999952316,20534.699999928474,22940.399999976158,24734.600000023842,32954.699999928474,34318.10000002384,35206.5,35616.299999952316,38732.199999928474,42024.799999952316,67490.60000002384,68396.19999992847,69058.69999992847,69494.39999997616,70604.10000002384,72766,79331.5,90572.10000002384,91054.39999997616,94110.69999992847,94584.5,96120.5,99130.19999992847]","0.4166666666666667","0.8181818181818182","0"
"39264.800000071526","","{""Q01"":""2"",""Q02"":""0"",""Q03"":""1"",""Q04"":""1"",""Q05"":""0"",""Q06"":""0"",""Q07"":""0"",""Q08"":""0"",""Q09"":""0""}","survey-template","5","188023","0.0-4.0","587645312647036928","陈**","22","本科","汉族","2000-12-08 00:00:00","1","4","4","3","3","17000","6","5","5","4","5","4","5","5","4","5","4","5","5","4","2","0","1","1","0","0","0","0","0","0","0","0","1","0","2","0","","","","","{""Q01"":""2"",""Q02"":""0"",""Q03"":""1"",""Q04"":""1"",""Q05"":""0"",""Q06"":""0"",""Q07"":""0"",""Q08"":""0"",""Q09"":""0""}","[0,1,2,3,4,5,6,7,8]","[""Q01"",""Q02"",""Q02"",""Q03"",""Q04"",""Q05"",""Q06"",""Q07"",""Q07"",""Q08"",""Q09"",""Q07"",""Q07""]","[2136.899999976158,3641.7000000476837,4009.5,5193.100000023842,6849.100000023842,8275.300000071526,8748.800000071526,11323.100000023842,13547.100000023842,30243.300000071526,35277.10000002384,36065.10000002384,37273]","[]","[2136.899999976158,3641.7000000476837,4009.5,5193.100000023842,6849.100000023842,7838.800000071526,8275.300000071526,8748.800000071526,9317.200000047684,11323.100000023842,13155.100000023842,13547.100000023842,30243.300000071526,33267.5,33498.800000071526,33959.200000047684,34526.800000071526,34827.200000047684,35277.10000002384,36065.10000002384,37273,39263.200000047684]","0.6666666666666666","0.25","0"
"18164.400000095367","","{""Q01"":""0"",""Q02"":""0"",""Q03"":""0"",""Q04"":""1"",""Q05"":""0"",""Q06"":""2"",""Q07"":""0""}","survey-template","6","206193","0.0-5.0","587645312647036928","陈**","22","本科","汉族","2000-12-08 00:00:00","1","4","4","3","3","17000","6","5","5","4","5","4","5","5","4","5","4","5","5","4","2","0","1","1","0","0","0","0","0","0","0","0","1","0","2","0","","","","","{""Q01"":""0"",""Q02"":""0"",""Q03"":""0"",""Q04"":""1"",""Q05"":""0"",""Q06"":""2"",""Q07"":""0""}","[0,1,2,3,4,5,6]","[""Q01"",""Q02"",""Q03"",""Q04"",""Q05"",""Q06"",""Q06"",""Q07"",""Q07""]","[3829.100000023842,4591.200000047684,7387.5,8293.300000071526,9883.100000023842,10578.900000095367,12992.700000047684,15047,15489.300000071526]","[]","[3459.4000000953674,3829.100000023842,4591.200000047684,7387.5,8293.300000071526,9453.300000071526,9883.100000023842,10578.900000095367,12992.700000047684,13831.800000071526,14297,14699.100000023842,15047,15489.300000071526,18163.300000071526]","0.7142857142857143","0.3333333333333333","0"
"null","
    <p>第一阶段的实验部分已结束。</p>
    <p>系统将自动下载一个.csv文件，该文件为您的实验数据的备份文件。请不要对其进行任何更改，请不要随便删除，将它保存在您的系统文件夹中。</p>
    <p>如果数据遗失，我们将联系您获取该备份文件。</p>
    <p>感谢您的配合！</p>","null","html-keyboard-response","7","206649","0.0-6.0","587645312647036928","陈**","22","本科","汉族","2000-12-08 00:00:00","1","4","4","3","3","17000","6","5","5","4","5","4","5","5","4","5","4","5","5","4","2","0","1","1","0","0","0","0","0","0","0","0","1","0","2","0","","","","","","","","","","","","",""
