"rt","stimulus","response","trial_type","trial_index","time_elapsed","internal_node_id","subj_idx","subj_name","age","education","national","birthday","sex","fatherEdu","motherEdu","FatherOccupation","MotherOccupation","income","obj_ses1","fri_ses2","selfclarity_1","selfclarity_2","selfclarity_3","selfclarity_4","selfclarity_5","selfclarity_6","selfclarity_7","selfclarity_8","selfclarity_9","selfclarity_10","selfclarity_11","selfclarity_12","phq_1","phq_2","phq_3","phq_4","phq_5","phq_6","phq_7","phq_8","phq_9","gad_1","gad_2","gad_3","gad_4","gad_5","gad_6","gad_7","success","user_agent","accuracy","question_order","responses","item_order","radio_event_ids","radio_event_times","key_event_times","mouse_event_times","straightlining","zigzagging","honeypot"
"1520","
   <p>您好，欢迎参加本次实验。</p>
   <p>为充分保障您的权利，请确保您已经知晓并同意《参与实验同意书》以及《数据公开知情同意书》。</p>
   <p>如果您未见过上述内容，请咨询实验员。</p>
   <p>如果您选择继续实验，则表示您已经清楚两份知情同意书的内容并同意。</p>
   <p> <div style = ""color: green""><按""继续""至下页></div> </p>
   ","0","html-button-response","0","1535","0.0-0.0","685024029475602432","于**","30","硕士","汉族","1993-01-06 00:00:00","1","1","1","0","0","6000","5","4","4","3","4","2","2","3","4","3","2","3","4","3","1","2","1","2","2","2","1","1","1","1","2","2","1","1","2","2","","","","","","","","","","","","",""
"","","","fullscreen","1","15556","0.0-1.0","685024029475602432","于**","30","硕士","汉族","1993-01-06 00:00:00","1","1","1","0","0","6000","5","4","4","3","4","2","2","3","4","3","2","3","4","3","1","2","1","2","2","2","1","1","1","1","2","2","1","1","2","2","true","{}","","","","","","","","","","",""
"32133","","{""gender"":""B.女"",""fatherEdu"":""B.小学"",""motherEdu"":""B.小学"",""FatherOccupation"":""A.临时工、失业、待业人员、非技术及农业劳动者阶层,如农民"",""MotherOccupation"":""A.临时工、失业、待业人员、非技术及农业劳动者阶层,如农民"",""income"":""6000""}","survey","2","47748","0.0-2.0-0.0","685024029475602432","于**","30","硕士","汉族","1993-01-06 00:00:00","1","1","1","0","0","6000","5","4","4","3","4","2","2","3","4","3","2","3","4","3","1","2","1","2","2","2","1","1","1","1","2","2","1","1","2","2","","","[]","","","","","","","","","",""
"9573","","{""Q0"":4,""Q1"":3}","survey-likert","3","57897","0.0-2.0-1.0","685024029475602432","于**","30","硕士","汉族","1993-01-06 00:00:00","1","1","1","0","0","6000","5","4","4","3","4","2","2","3","4","3","2","3","4","3","1","2","1","2","2","2","1","1","1","1","2","2","1","1","2","2","","","","[0,1]","","","","","","","","",""
"35027.40000000596","","{""Q01"":""4"",""Q02"":""3"",""Q03"":""4"",""Q04"":""2"",""Q05"":""2"",""Q06"":""3"",""Q07"":""4"",""Q08"":""3"",""Q09"":""2"",""Q10"":""3"",""Q11"":""4"",""Q12"":""3""}","survey-template","4","92929","0.0-3.0","685024029475602432","于**","30","硕士","汉族","1993-01-06 00:00:00","1","1","1","0","0","6000","5","4","4","3","4","2","2","3","4","3","2","3","4","3","1","2","1","2","2","2","1","1","1","1","2","2","1","1","2","2","","","","","{""Q01"":""4"",""Q02"":""3"",""Q03"":""4"",""Q04"":""2"",""Q05"":""2"",""Q06"":""3"",""Q07"":""4"",""Q08"":""3"",""Q09"":""2"",""Q10"":""3"",""Q11"":""4"",""Q12"":""3""}","[0,1,2,3,4,5,6,7,8,9,10,11]","[""Q01"",""Q02"",""Q03"",""Q04"",""Q05"",""Q06"",""Q07"",""Q07"",""Q08"",""Q09"",""Q10"",""Q11"",""Q12""]","[5164.300000011921,7833.199999988079,10121.59999999404,11649.09999999404,13393.199999988079,16713.80000001192,20624.90000000596,22345.30000001192,24562.40000000596,26841.5,28321.5,31633.80000001192,34257.59999999404]","[]","[3521.9000000059605,5164.300000011921,6097.4000000059605,7833.199999988079,8914.59999999404,10121.59999999404,11649.09999999404,13393.199999988079,14145.90000000596,16713.80000001192,20624.90000000596,22345.30000001192,24562.40000000596,26841.5,28321.5,29985.80000001192,30881.59999999404,31633.80000001192,32996.80000001192,34257.59999999404,35025.59999999404]","0.4166666666666667","0.8181818181818182","0"
"23083.70000001788","","{""Q01"":""1"",""Q02"":""2"",""Q03"":""1"",""Q04"":""2"",""Q05"":""2"",""Q06"":""2"",""Q07"":""1"",""Q08"":""1"",""Q09"":""1""}","survey-template","5","116016","0.0-4.0","685024029475602432","于**","30","硕士","汉族","1993-01-06 00:00:00","1","1","1","0","0","6000","5","4","4","3","4","2","2","3","4","3","2","3","4","3","1","2","1","2","2","2","1","1","1","1","2","2","1","1","2","2","","","","","{""Q01"":""1"",""Q02"":""2"",""Q03"":""1"",""Q04"":""2"",""Q05"":""2"",""Q06"":""2"",""Q07"":""1"",""Q08"":""1"",""Q09"":""1""}","[0,1,2,3,4,5,6,7,8]","[""Q01"",""Q02"",""Q03"",""Q04"",""Q05"",""Q05"",""Q06"",""Q07"",""Q08"",""Q09""]","[2242.4000000059605,4218.700000017881,6178.100000023842,7860.200000017881,9426.600000023842,11970.600000023842,15082.5,17644.100000023842,20689.90000000596,22202.70000001788]","[]","[2242.4000000059605,3730.300000011921,4218.700000017881,5226,6178.100000023842,7860.200000017881,9426.600000023842,11970.600000023842,15082.5,17644.100000023842,20689.90000000596,22202.70000001788,23082.600000023842]","0.5555555555555556","0.5","0"
"16107.800000011921","","{""Q01"":""1"",""Q02"":""2"",""Q03"":""2"",""Q04"":""1"",""Q05"":""1"",""Q06"":""2"",""Q07"":""2""}","survey-template","6","132128","0.0-5.0","685024029475602432","于**","30","硕士","汉族","1993-01-06 00:00:00","1","1","1","0","0","6000","5","4","4","3","4","2","2","3","4","3","2","3","4","3","1","2","1","2","2","2","1","1","1","1","2","2","1","1","2","2","","","","","{""Q01"":""1"",""Q02"":""2"",""Q03"":""2"",""Q04"":""1"",""Q05"":""1"",""Q06"":""2"",""Q07"":""2""}","[0,1,2,3,4,5,6]","[""Q01"",""Q02"",""Q03"",""Q04"",""Q05"",""Q06"",""Q07""]","[4122.5,6755.0999999940395,8003.0999999940395,9867.09999999404,11475.300000011921,12443,15051.800000011921]","[]","[4122.5,6755.0999999940395,8003.0999999940395,9867.09999999404,11475.300000011921,12443,13738.699999988079,14715.40000000596,15051.800000011921,16106.90000000596]","0.5714285714285714","0.5","0"
"null","
    <p>第一阶段的实验部分已结束。</p>
    <p>系统将自动下载一个.csv文件，该文件为您的实验数据的备份文件。请不要对其进行任何更改，请不要随便删除，将它保存在您的系统文件夹中。</p>
    <p>如果数据遗失，我们将联系您获取该备份文件。</p>
    <p>感谢您的配合！</p>","null","html-keyboard-response","7","132590","0.0-6.0","685024029475602432","于**","30","硕士","汉族","1993-01-06 00:00:00","1","1","1","0","0","6000","5","4","4","3","4","2","2","3","4","3","2","3","4","3","1","2","1","2","2","2","1","1","1","1","2","2","1","1","2","2","","","","","","","","","","","","",""
