"rt","stimulus","response","trial_type","trial_index","time_elapsed","internal_node_id","subj_idx","subj_name","age","education","national","birthday","sex","fatherEdu","motherEdu","FatherOccupation","MotherOccupation","income","obj_ses1","fri_ses2","selfclarity_1","selfclarity_2","selfclarity_3","selfclarity_4","selfclarity_5","selfclarity_6","selfclarity_7","selfclarity_8","selfclarity_9","selfclarity_10","selfclarity_11","selfclarity_12","phq_1","phq_2","phq_3","phq_4","phq_5","phq_6","phq_7","phq_8","phq_9","gad_1","gad_2","gad_3","gad_4","gad_5","gad_6","gad_7","success","user_agent","accuracy","question_order","responses","item_order","radio_event_ids","radio_event_times","key_event_times","mouse_event_times","straightlining","zigzagging","honeypot"
"4151","
   <p>您好，欢迎参加本次实验。</p>
   <p>为充分保障您的权利，请确保您已经知晓并同意《参与实验同意书》以及《数据公开知情同意书》。</p>
   <p>如果您未见过上述内容，请咨询实验员。</p>
   <p>如果您选择继续实验，则表示您已经清楚两份知情同意书的内容并同意。</p>
   <p> <div style = ""color: green""><按""继续""至下页></div> </p>
   ","0","html-button-response","0","4152","0.0-0.0","701370990290010112","魏**","38","本科","汉族","1985-08-06 00:00:00","1","3","1","0","0","10000","2","3","5","4","4","2","4","4","4","4","5","2","4","3","2","0","1","3","1","0","3","0","0","1","2","2","1","0","1","1","","","","","","","","","","","","",""
"","","","fullscreen","1","18000","0.0-1.0","701370990290010112","魏**","38","本科","汉族","1985-08-06 00:00:00","1","3","1","0","0","10000","2","3","5","4","4","2","4","4","4","4","5","2","4","3","2","0","1","3","1","0","3","0","0","1","2","2","1","0","1","1","true","{}","","","","","","","","","","",""
"36228","","{""gender"":""B.女"",""fatherEdu"":""D.高中或中专"",""motherEdu"":""B.小学"",""FatherOccupation"":""A.临时工、失业、待业人员、非技术及农业劳动者阶层,如农民"",""MotherOccupation"":""A.临时工、失业、待业人员、非技术及农业劳动者阶层,如农民"",""income"":""10000""}","survey","2","54283","0.0-2.0-0.0","701370990290010112","魏**","38","本科","汉族","1985-08-06 00:00:00","1","3","1","0","0","10000","2","3","5","4","4","2","4","4","4","4","5","2","4","3","2","0","1","3","1","0","3","0","0","1","2","2","1","0","1","1","","","[]","","","","","","","","","",""
"63137","","{""Q0"":1,""Q1"":2}","survey-likert","3","117787","0.0-2.0-1.0","701370990290010112","魏**","38","本科","汉族","1985-08-06 00:00:00","1","3","1","0","0","10000","2","3","5","4","4","2","4","4","4","4","5","2","4","3","2","0","1","3","1","0","3","0","0","1","2","2","1","0","1","1","","","","[0,1]","","","","","","","","",""
"64099.29999998212","","{""Q01"":""5"",""Q02"":""4"",""Q03"":""4"",""Q04"":""2"",""Q05"":""4"",""Q06"":""4"",""Q07"":""4"",""Q08"":""4"",""Q09"":""5"",""Q10"":""2"",""Q11"":""4"",""Q12"":""3""}","survey-template","4","181890","0.0-3.0","701370990290010112","魏**","38","本科","汉族","1985-08-06 00:00:00","1","3","1","0","0","10000","2","3","5","4","4","2","4","4","4","4","5","2","4","3","2","0","1","3","1","0","3","0","0","1","2","2","1","0","1","1","","","","","{""Q01"":""5"",""Q02"":""4"",""Q03"":""4"",""Q04"":""2"",""Q05"":""4"",""Q06"":""4"",""Q07"":""4"",""Q08"":""4"",""Q09"":""5"",""Q10"":""2"",""Q11"":""4"",""Q12"":""3""}","[0,1,2,3,4,5,6,7,8,9,10,11]","[""Q01"",""Q02"",""Q03"",""Q04"",""Q05"",""Q06"",""Q07"",""Q08"",""Q09"",""Q11"",""Q10"",""Q12""]","[6314.5,10290.09999999404,14298.199999988079,17882.19999998808,25242.19999998808,31706.399999976158,36810,40850.09999999404,47074.19999998808,55818.39999997616,57866.09999999404,63394.09999999404]","[]","[6314.5,10290.09999999404,14298.199999988079,17882.19999998808,25242.19999998808,31706.399999976158,36810,40850.09999999404,47074.19999998808,52538.09999999404,55818.39999997616,57866.09999999404,63394.09999999404,64098.09999999404]","0.4166666666666667","0.2727272727272727","0"
"83900.59999999404","","{""Q01"":""2"",""Q02"":""0"",""Q03"":""1"",""Q04"":""3"",""Q05"":""1"",""Q06"":""0"",""Q07"":""3"",""Q08"":""0"",""Q09"":""0""}","survey-template","5","265793","0.0-4.0","701370990290010112","魏**","38","本科","汉族","1985-08-06 00:00:00","1","3","1","0","0","10000","2","3","5","4","4","2","4","4","4","4","5","2","4","3","2","0","1","3","1","0","3","0","0","1","2","2","1","0","1","1","","","","","{""Q01"":""2"",""Q02"":""0"",""Q03"":""1"",""Q04"":""3"",""Q05"":""1"",""Q06"":""0"",""Q07"":""3"",""Q08"":""0"",""Q09"":""0""}","[0,1,2,3,4,5,6,7,8]","[""Q01"",""Q02"",""Q03"",""Q04"",""Q05"",""Q06"",""Q07"",""Q08"",""Q09""]","[48651.80000001192,57531.90000000596,60635.90000000596,62051.90000000596,65852,71211.90000000596,75851.90000000596,80467.80000001192,82828]","[]","[48651.80000001192,57531.90000000596,59340,60635.90000000596,62051.90000000596,65852,71211.90000000596,75851.90000000596,80467.80000001192,82828,83899.90000000596]","0.4444444444444444","0.5","0"
"24037.40000000596","","{""Q01"":""1"",""Q02"":""2"",""Q03"":""2"",""Q04"":""1"",""Q05"":""0"",""Q06"":""1"",""Q07"":""1""}","survey-template","6","289833","0.0-5.0","701370990290010112","魏**","38","本科","汉族","1985-08-06 00:00:00","1","3","1","0","0","10000","2","3","5","4","4","2","4","4","4","4","5","2","4","3","2","0","1","3","1","0","3","0","0","1","2","2","1","0","1","1","","","","","{""Q01"":""1"",""Q02"":""2"",""Q03"":""2"",""Q04"":""1"",""Q05"":""0"",""Q06"":""1"",""Q07"":""1""}","[0,1,2,3,4,5,6]","[""Q01"",""Q02"",""Q03"",""Q04"",""Q05"",""Q06"",""Q07""]","[3709,8484.90000000596,10772.800000011921,14300.90000000596,17780.90000000596,21980.90000000596,23260.80000001192]","[]","[3709,8484.90000000596,10772.800000011921,13381,14300.90000000596,17780.90000000596,21980.90000000596,23260.80000001192,24036.90000000596]","0.5714285714285714","0.6666666666666666","0"
"null","
    <p>第一阶段的实验部分已结束。</p>
    <p>系统将自动下载一个.csv文件，该文件为您的实验数据的备份文件。请不要对其进行任何更改，请不要随便删除，将它保存在您的系统文件夹中。</p>
    <p>如果数据遗失，我们将联系您获取该备份文件。</p>
    <p>感谢您的配合！</p>","null","html-keyboard-response","7","290287","0.0-6.0","701370990290010112","魏**","38","本科","汉族","1985-08-06 00:00:00","1","3","1","0","0","10000","2","3","5","4","4","2","4","4","4","4","5","2","4","3","2","0","1","3","1","0","3","0","0","1","2","2","1","0","1","1","","","","","","","","","","","","",""
