"rt","stimulus","response","trial_type","trial_index","time_elapsed","internal_node_id","subj_idx","subj_name","age","education","national","birthday","sex","fatherEdu","motherEdu","FatherOccupation","MotherOccupation","income","obj_ses1","fri_ses2","selfclarity_1","selfclarity_2","selfclarity_3","selfclarity_4","selfclarity_5","selfclarity_6","selfclarity_7","selfclarity_8","selfclarity_9","selfclarity_10","selfclarity_11","selfclarity_12","phq_1","phq_2","phq_3","phq_4","phq_5","phq_6","phq_7","phq_8","phq_9","gad_1","gad_2","gad_3","gad_4","gad_5","gad_6","gad_7","success","user_agent","accuracy","question_order","responses","item_order","radio_event_ids","radio_event_times","key_event_times","mouse_event_times","straightlining","zigzagging","honeypot"
"2021","
   <p>您好，欢迎参加本次实验。</p>
   <p>为充分保障您的权利，请确保您已经知晓并同意《参与实验同意书》以及《数据公开知情同意书》。</p>
   <p>如果您未见过上述内容，请咨询实验员。</p>
   <p>如果您选择继续实验，则表示您已经清楚两份知情同意书的内容并同意。</p>
   <p> <div style = ""color: green""><按""继续""至下页></div> </p>
   ","0","html-button-response","0","2023","0.0-0.0","635222761890906112","陈**","22","本科","汉族","2001-02-06 00:00:00","1","3","3","1","1","10000","4","4","4","4","3","2","4","4","4","3","4","4","4","4","1","1","0","1","0","0","0","0","0","1","1","2","0","0","0","1","","","","","","","","","","","","",""
"","","","fullscreen","1","5268","0.0-1.0","635222761890906112","陈**","22","本科","汉族","2001-02-06 00:00:00","1","3","3","1","1","10000","4","4","4","4","3","2","4","4","4","3","4","4","4","4","1","1","0","1","0","0","0","0","0","1","1","2","0","0","0","1","true","{}","","","","","","","","","","",""
"31000","","{""gender"":""B.女"",""fatherEdu"":""D.高中或中专"",""motherEdu"":""D.高中或中专"",""FatherOccupation"":""B.体力劳动工人和个体经营人员、技术工及同级工作者,如建筑工人及相关人员"",""MotherOccupation"":""B.体力劳动工人和个体经营人员、技术工及同级工作者,如建筑工人及相关人员"",""income"":""10000""}","survey","2","36339","0.0-2.0-0.0","635222761890906112","陈**","22","本科","汉族","2001-02-06 00:00:00","1","3","3","1","1","10000","4","4","4","4","3","2","4","4","4","3","4","4","4","4","1","1","0","1","0","0","0","0","0","1","1","2","0","0","0","1","","","[]","","","","","","","","","",""
"15208","","{""Q0"":3,""Q1"":3}","survey-likert","3","51852","0.0-2.0-1.0","635222761890906112","陈**","22","本科","汉族","2001-02-06 00:00:00","1","3","3","1","1","10000","4","4","4","4","3","2","4","4","4","3","4","4","4","4","1","1","0","1","0","0","0","0","0","1","1","2","0","0","0","1","","","","[0,1]","","","","","","","","",""
"122761.70000004768","","{""Q01"":""4"",""Q02"":""4"",""Q03"":""3"",""Q04"":""2"",""Q05"":""4"",""Q06"":""4"",""Q07"":""4"",""Q08"":""3"",""Q09"":""4"",""Q10"":""4"",""Q11"":""4"",""Q12"":""4""}","survey-template","4","174620","0.0-3.0","635222761890906112","陈**","22","本科","汉族","2001-02-06 00:00:00","1","3","3","1","1","10000","4","4","4","4","3","2","4","4","4","3","4","4","4","4","1","1","0","1","0","0","0","0","0","1","1","2","0","0","0","1","","","","","{""Q01"":""4"",""Q02"":""4"",""Q03"":""3"",""Q04"":""2"",""Q05"":""4"",""Q06"":""4"",""Q07"":""4"",""Q08"":""3"",""Q09"":""4"",""Q10"":""4"",""Q11"":""4"",""Q12"":""4""}","[0,1,2,3,4,5,6,7,8,9,10,11]","[""Q01"",""Q02"",""Q03"",""Q04"",""Q05"",""Q05"",""Q02"",""Q01"",""Q06"",""Q07"",""Q08"",""Q09"",""Q10"",""Q11"",""Q12""]","[3382.100000143051,5122.900000095367,9132,10415.800000190735,12796.400000095367,17745.700000047684,23060.10000014305,24423.5,26373.60000014305,30095.200000047684,109642.10000014305,111216.40000009537,117687.80000019073,120503.90000009537,121824.60000014305]","[]","[3382.100000143051,5122.900000095367,7753,9132,10415.800000190735,12796.400000095367,17745.700000047684,23060.10000014305,24423.5,26373.60000014305,29214.700000047684,30095.200000047684,32542.10000014305,33643.10000014305,35502.10000014305,37816.800000190735,39383.800000190735,40596,40726,41178.10000014305,42236.800000190735,61134,62475.800000190735,109642.10000014305,111216.40000009537,117687.80000019073,119199.80000019073,120503.90000009537,121824.60000014305,122760.10000014305]","0.5833333333333334","0.36363636363636365","0"
"16561.900000095367","","{""Q01"":""1"",""Q02"":""1"",""Q03"":""0"",""Q04"":""1"",""Q05"":""0"",""Q06"":""0"",""Q07"":""0"",""Q08"":""0"",""Q09"":""0""}","survey-template","5","191187","0.0-4.0","635222761890906112","陈**","22","本科","汉族","2001-02-06 00:00:00","1","3","3","1","1","10000","4","4","4","4","3","2","4","4","4","3","4","4","4","4","1","1","0","1","0","0","0","0","0","1","1","2","0","0","0","1","","","","","{""Q01"":""1"",""Q02"":""1"",""Q03"":""0"",""Q04"":""1"",""Q05"":""0"",""Q06"":""0"",""Q07"":""0"",""Q08"":""0"",""Q09"":""0""}","[0,1,2,3,4,5,6,7,8]","[""Q01"",""Q02"",""Q03"",""Q04"",""Q05"",""Q06"",""Q07"",""Q08"",""Q09""]","[2296.7000000476837,6256.700000047684,7944.700000047684,9816.600000143051,10781.5,11770.299999952316,13608.5,14803.600000143051,15769.299999952316]","[]","[2296.7000000476837,6256.700000047684,7944.700000047684,9816.600000143051,10781.5,11770.299999952316,13608.5,14803.600000143051,15769.299999952316,16561]","0.6666666666666666","0.375","0"
"10763.700000047684","","{""Q01"":""1"",""Q02"":""1"",""Q03"":""2"",""Q04"":""0"",""Q05"":""0"",""Q06"":""0"",""Q07"":""1""}","survey-template","6","201955","0.0-5.0","635222761890906112","陈**","22","本科","汉族","2001-02-06 00:00:00","1","3","3","1","1","10000","4","4","4","4","3","2","4","4","4","3","4","4","4","4","1","1","0","1","0","0","0","0","0","1","1","2","0","0","0","1","","","","","{""Q01"":""1"",""Q02"":""1"",""Q03"":""2"",""Q04"":""0"",""Q05"":""0"",""Q06"":""0"",""Q07"":""1""}","[0,1,2,3,4,5,6]","[""Q01"",""Q02"",""Q03"",""Q04"",""Q05"",""Q06"",""Q07""]","[1450.8000001907349,3082.100000143051,4450.300000190735,6163.300000190735,6883.100000143051,9010.600000143051,9831.900000095367]","[]","[1450.8000001907349,3082.100000143051,4450.300000190735,6163.300000190735,6883.100000143051,7491.800000190735,8162.5,9010.600000143051,9831.900000095367,10762.600000143051]","0.42857142857142855","0.3333333333333333","0"
"null","
    <p>第一阶段的实验部分已结束。</p>
    <p>系统将自动下载一个.csv文件，该文件为您的实验数据的备份文件。请不要对其进行任何更改，请不要随便删除，将它保存在您的系统文件夹中。</p>
    <p>如果数据遗失，我们将联系您获取该备份文件。</p>
    <p>感谢您的配合！</p>","null","html-keyboard-response","7","202409","0.0-6.0","635222761890906112","陈**","22","本科","汉族","2001-02-06 00:00:00","1","3","3","1","1","10000","4","4","4","4","3","2","4","4","4","3","4","4","4","4","1","1","0","1","0","0","0","0","0","1","1","2","0","0","0","1","","","","","","","","","","","","",""
