"rt","stimulus","response","trial_type","trial_index","time_elapsed","internal_node_id","subj_idx","subj_name","age","education","national","birthday","sex","fatherEdu","motherEdu","FatherOccupation","MotherOccupation","income","obj_ses1","fri_ses2","selfclarity_1","selfclarity_2","selfclarity_3","selfclarity_4","selfclarity_5","selfclarity_6","selfclarity_7","selfclarity_8","selfclarity_9","selfclarity_10","selfclarity_11","selfclarity_12","phq_1","phq_2","phq_3","phq_4","phq_5","phq_6","phq_7","phq_8","phq_9","gad_1","gad_2","gad_3","gad_4","gad_5","gad_6","gad_7","success","user_agent","accuracy","question_order","responses","item_order","radio_event_ids","radio_event_times","key_event_times","mouse_event_times","straightlining","zigzagging","honeypot"
"8343","
   <p>您好，欢迎参加本次实验。</p>
   <p>为充分保障您的权利，请确保您已经知晓并同意《参与实验同意书》以及《数据公开知情同意书》。</p>
   <p>如果您未见过上述内容，请咨询实验员。</p>
   <p>如果您选择继续实验，则表示您已经清楚两份知情同意书的内容并同意。</p>
   <p> <div style = ""color: green""><按""继续""至下页></div> </p>
   ","0","html-button-response","0","8352","0.0-0.0","690857936225828864","王**","19","本科","汉族","2003-10-18 00:00:00","1","3","3","2","2","10000","3","3","5","4","4","3","3","4","3","5","5","2","3","2","1","1","0","1","0","1","0","1","0","1","1","1","1","1","1","1","","","","","","","","","","","","",""
"","","","fullscreen","1","21727","0.0-1.0","690857936225828864","王**","19","本科","汉族","2003-10-18 00:00:00","1","3","3","2","2","10000","3","3","5","4","4","3","3","4","3","5","5","2","3","2","1","1","0","1","0","1","0","1","0","1","1","1","1","1","1","1","true","{}","","","","","","","","","","",""
"70101","","{""gender"":""B.女"",""fatherEdu"":""D.高中或中专"",""motherEdu"":""D.高中或中专"",""FatherOccupation"":""C.一般管理人员与一般专业技术人员、事务性工作人员,包括商业服务业员工阶层、办事人员阶层,如售货员、司机等"",""MotherOccupation"":""C.一般管理人员与一般专业技术人员、事务性工作人员,包括商业服务业员工阶层、办事人员阶层,如售货员、司机等"",""income"":""10000""}","survey","2","91969","0.0-2.0-0.0","690857936225828864","王**","19","本科","汉族","2003-10-18 00:00:00","1","3","3","2","2","10000","3","3","5","4","4","3","3","4","3","5","5","2","3","2","1","1","0","1","0","1","0","1","0","1","1","1","1","1","1","1","","","[]","","","","","","","","","",""
"27121","","{""Q0"":2,""Q1"":2}","survey-likert","3","119672","0.0-2.0-1.0","690857936225828864","王**","19","本科","汉族","2003-10-18 00:00:00","1","3","3","2","2","10000","3","3","5","4","4","3","3","4","3","5","5","2","3","2","1","1","0","1","0","1","0","1","0","1","1","1","1","1","1","1","","","","[0,1]","","","","","","","","",""
"78912","","{""Q01"":""5"",""Q02"":""4"",""Q03"":""4"",""Q04"":""3"",""Q05"":""3"",""Q06"":""4"",""Q07"":""3"",""Q08"":""5"",""Q09"":""5"",""Q10"":""2"",""Q11"":""3"",""Q12"":""2""}","survey-template","4","198606","0.0-3.0","690857936225828864","王**","19","本科","汉族","2003-10-18 00:00:00","1","3","3","2","2","10000","3","3","5","4","4","3","3","4","3","5","5","2","3","2","1","1","0","1","0","1","0","1","0","1","1","1","1","1","1","1","","","","","{""Q01"":""5"",""Q02"":""4"",""Q03"":""4"",""Q04"":""3"",""Q05"":""3"",""Q06"":""4"",""Q07"":""3"",""Q08"":""5"",""Q09"":""5"",""Q10"":""2"",""Q11"":""3"",""Q12"":""2""}","[0,1,2,3,4,5,6,7,8,9,10,11]","[""Q01"",""Q02"",""Q03"",""Q04"",""Q05"",""Q06"",""Q07"",""Q08"",""Q09"",""Q10"",""Q11"",""Q12""]","[8812.39999999851,14507.79999999702,17187.79999999702,30635.70000000298,34259.60000000149,44411.60000000149,52019.29999999702,56603.29999999702,60531.29999999702,67483.39999999851,75339,78011]","[]","[8812.39999999851,14507.79999999702,17187.79999999702,30635.70000000298,34259.60000000149,43707.39999999851,44411.60000000149,51075.39999999851,52019.29999999702,56019.29999999702,56603.29999999702,60531.29999999702,67483.39999999851,75339,78011,78906.89999999851]","0.3333333333333333","0.5454545454545454","0"
"45828.70000000298","","{""Q01"":""1"",""Q02"":""1"",""Q03"":""0"",""Q04"":""1"",""Q05"":""0"",""Q06"":""1"",""Q07"":""0"",""Q08"":""1"",""Q09"":""0""}","survey-template","5","244449","0.0-4.0","690857936225828864","王**","19","本科","汉族","2003-10-18 00:00:00","1","3","3","2","2","10000","3","3","5","4","4","3","3","4","3","5","5","2","3","2","1","1","0","1","0","1","0","1","0","1","1","1","1","1","1","1","","","","","{""Q01"":""1"",""Q02"":""1"",""Q03"":""0"",""Q04"":""1"",""Q05"":""0"",""Q06"":""1"",""Q07"":""0"",""Q08"":""1"",""Q09"":""0""}","[0,1,2,3,4,5,6,7,8]","[""Q01"",""Q02"",""Q03"",""Q04"",""Q05"",""Q06"",""Q07"",""Q08"",""Q09""]","[26146.70000000298,27722.60000000149,28962.60000000149,31562.5,32890.5,37418.39999999851,39250.39999999851,43914.29999999702,44802.29999999702]","[]","[25354.79999999702,26146.70000000298,27722.60000000149,28962.60000000149,31562.5,32890.5,37418.39999999851,39250.39999999851,43914.29999999702,44802.29999999702,45826.29999999702]","0.5555555555555556","0.875","0"
"23162.29999999702","","{""Q01"":""1"",""Q02"":""1"",""Q03"":""1"",""Q04"":""1"",""Q05"":""1"",""Q06"":""1"",""Q07"":""1""}","survey-template","6","267624","0.0-5.0","690857936225828864","王**","19","本科","汉族","2003-10-18 00:00:00","1","3","3","2","2","10000","3","3","5","4","4","3","3","4","3","5","5","2","3","2","1","1","0","1","0","1","0","1","0","1","1","1","1","1","1","1","","","","","{""Q01"":""1"",""Q02"":""1"",""Q03"":""1"",""Q04"":""1"",""Q05"":""1"",""Q06"":""1"",""Q07"":""1""}","[0,1,2,3,4,5,6]","[""Q01"",""Q02"",""Q03"",""Q04"",""Q05"",""Q06"",""Q07""]","[1968.5,6728.5,7864.5,19312.29999999702,21088.29999999702,21576.39999999851,22400.89999999851]","[]","[1968.5,6728.5,7864.5,19312.29999999702,21088.29999999702,21576.39999999851,22056.29999999702,22400.89999999851,23160.19999999553]","1","0","0"
"null","
    <p>第一阶段的实验部分已结束。</p>
    <p>系统将自动下载一个.csv文件，该文件为您的实验数据的备份文件。请不要对其进行任何更改，请不要随便删除，将它保存在您的系统文件夹中。</p>
    <p>如果数据遗失，我们将联系您获取该备份文件。</p>
    <p>感谢您的配合！</p>","null","html-keyboard-response","7","268091","0.0-6.0","690857936225828864","王**","19","本科","汉族","2003-10-18 00:00:00","1","3","3","2","2","10000","3","3","5","4","4","3","3","4","3","5","5","2","3","2","1","1","0","1","0","1","0","1","0","1","1","1","1","1","1","1","","","","","","","","","","","","",""
