"rt","stimulus","response","trial_type","trial_index","time_elapsed","internal_node_id","subj_idx","subj_name","age","education","national","birthday","sex","fatherEdu","motherEdu","FatherOccupation","MotherOccupation","income","obj_ses1","fri_ses2","selfclarity_1","selfclarity_2","selfclarity_3","selfclarity_4","selfclarity_5","selfclarity_6","selfclarity_7","selfclarity_8","selfclarity_9","selfclarity_10","selfclarity_11","selfclarity_12","phq_1","phq_2","phq_3","phq_4","phq_5","phq_6","phq_7","phq_8","phq_9","gad_1","gad_2","gad_3","gad_4","gad_5","gad_6","gad_7","success","user_agent","accuracy","question_order","responses","item_order","radio_event_ids","radio_event_times","key_event_times","mouse_event_times","straightlining","zigzagging","honeypot"
"2316","
   <p>您好，欢迎参加本次实验。</p>
   <p>为充分保障您的权利，请确保您已经知晓并同意《参与实验同意书》以及《数据公开知情同意书》。</p>
   <p>如果您未见过上述内容，请咨询实验员。</p>
   <p>如果您选择继续实验，则表示您已经清楚两份知情同意书的内容并同意。</p>
   <p> <div style = ""color: green""><按""继续""至下页></div> </p>
   ","0","html-button-response","0","2325","0.0-0.0","595169798766198784","陈**","22","本科","汉族","2001-08-26 00:00:00","0","4","3","3","2","12000","5","4","5","4","5","5","4","5","5","4","5","5","5","4","2","1","0","1","0","0","0","0","0","2","0","0","1","0","1","0","","","","","","","","","","","","",""
"","","","fullscreen","1","7288","0.0-1.0","595169798766198784","陈**","22","本科","汉族","2001-08-26 00:00:00","0","4","3","3","2","12000","5","4","5","4","5","5","4","5","5","4","5","5","5","4","2","1","0","1","0","0","0","0","0","2","0","0","1","0","1","0","true","{}","","","","","","","","","","",""
"75981","","{""gender"":""A.男"",""fatherEdu"":""E.大学（专科或本科）"",""motherEdu"":""D.高中或中专"",""FatherOccupation"":""D.中层管理人员与中层专业技术人员、助理专业人员,包括在各种经济成分的机构(包括国家机关、党群组织、全民企事业单位、集体企事业单位和各类非公有制经济企业)中专门从事各种专业性工作和科学技术工作的人员,如教师、医生、技师等"",""MotherOccupation"":""C.一般管理人员与一般专业技术人员、事务性工作人员,包括商业服务业员工阶层、办事人员阶层,如售货员、司机等"",""income"":""12000""}","survey","2","83431","0.0-2.0-0.0","595169798766198784","陈**","22","本科","汉族","2001-08-26 00:00:00","0","4","3","3","2","12000","5","4","5","4","5","5","4","5","5","4","5","5","5","4","2","1","0","1","0","0","0","0","0","2","0","0","1","0","1","0","","","[]","","","","","","","","","",""
"13920","","{""Q0"":4,""Q1"":3}","survey-likert","3","97779","0.0-2.0-1.0","595169798766198784","陈**","22","本科","汉族","2001-08-26 00:00:00","0","4","3","3","2","12000","5","4","5","4","5","5","4","5","5","4","5","5","5","4","2","1","0","1","0","0","0","0","0","2","0","0","1","0","1","0","","","","[0,1]","","","","","","","","",""
"44674.39999997616","","{""Q01"":""5"",""Q02"":""4"",""Q03"":""5"",""Q04"":""5"",""Q05"":""4"",""Q06"":""5"",""Q07"":""5"",""Q08"":""4"",""Q09"":""5"",""Q10"":""5"",""Q11"":""5"",""Q12"":""4""}","survey-template","4","142485","0.0-3.0","595169798766198784","陈**","22","本科","汉族","2001-08-26 00:00:00","0","4","3","3","2","12000","5","4","5","4","5","5","4","5","5","4","5","5","5","4","2","1","0","1","0","0","0","0","0","2","0","0","1","0","1","0","","","","","{""Q01"":""5"",""Q02"":""4"",""Q03"":""5"",""Q04"":""5"",""Q05"":""4"",""Q06"":""5"",""Q07"":""5"",""Q08"":""4"",""Q09"":""5"",""Q10"":""5"",""Q11"":""5"",""Q12"":""4""}","[0,1,2,3,4,5,6,7,8,9,10,11]","[""Q01"",""Q01"",""Q02"",""Q02"",""Q03"",""Q04"",""Q05"",""Q06"",""Q07"",""Q08"",""Q09"",""Q10"",""Q11"",""Q12""]","[3369.6999999284744,4109.699999928474,5032.100000023842,5514.299999952316,6843.799999952316,7805.799999952316,10883.899999976158,13181.899999976158,19053.600000023842,20604.600000023842,22630.399999976158,23841.399999976158,26115.5,27628.199999928474]","[]","[3369.6999999284744,4109.699999928474,5032.100000023842,5514.299999952316,6843.799999952316,7440.100000023842,7805.799999952316,10381.699999928474,10883.899999976158,13181.899999976158,18244,19053.600000023842,20279.899999976158,20604.600000023842,22152,22630.399999976158,23841.399999976158,25650.5,26115.5,27628.199999928474,44672.39999997616]","0.5","0.6363636363636364","0"
"24823.699999928474","","{""Q01"":""2"",""Q02"":""1"",""Q03"":""0"",""Q04"":""1"",""Q05"":""0"",""Q06"":""0"",""Q07"":""0"",""Q08"":""0"",""Q09"":""0""}","survey-template","5","167316","0.0-4.0","595169798766198784","陈**","22","本科","汉族","2001-08-26 00:00:00","0","4","3","3","2","12000","5","4","5","4","5","5","4","5","5","4","5","5","5","4","2","1","0","1","0","0","0","0","0","2","0","0","1","0","1","0","","","","","{""Q01"":""2"",""Q02"":""1"",""Q03"":""0"",""Q04"":""1"",""Q05"":""0"",""Q06"":""0"",""Q07"":""0"",""Q08"":""0"",""Q09"":""0""}","[0,1,2,3,4,5,6,7,8]","[""Q01"",""Q01"",""Q01"",""Q02"",""Q03"",""Q04"",""Q05"",""Q06"",""Q06"",""Q03"",""Q07"",""Q08"",""Q09""]","[1966.1999999284744,2546.100000023842,6092.399999976158,6995,9989.100000023842,14048.199999928474,14721.899999976158,15538.799999952316,16044.199999928474,17318.199999928474,19522,20126.199999928474,23619.699999928474]","[]","[1966.1999999284744,2546.100000023842,5057.899999976158,5766.299999952316,6092.399999976158,6995,9989.100000023842,12667.899999976158,13418.199999928474,14048.199999928474,14721.899999976158,15214.199999928474,15538.799999952316,16044.199999928474,17318.199999928474,18612.299999952316,19522,20126.199999928474,21846.100000023842,22378.100000023842,22819.799999952316,23619.699999928474,24821.899999976158]","0.6666666666666666","0.5","0"
"20435.299999952316","","{""Q01"":""2"",""Q02"":""0"",""Q03"":""0"",""Q04"":""1"",""Q05"":""0"",""Q06"":""1"",""Q07"":""0""}","survey-template","6","187756","0.0-5.0","595169798766198784","陈**","22","本科","汉族","2001-08-26 00:00:00","0","4","3","3","2","12000","5","4","5","4","5","5","4","5","5","4","5","5","5","4","2","1","0","1","0","0","0","0","0","2","0","0","1","0","1","0","","","","","{""Q01"":""2"",""Q02"":""0"",""Q03"":""0"",""Q04"":""1"",""Q05"":""0"",""Q06"":""1"",""Q07"":""0""}","[0,1,2,3,4,5,6]","[""Q01"",""Q02"",""Q03"",""Q04"",""Q05"",""Q06"",""Q07"",""Q02""]","[1971.7999999523163,4993.700000047684,5878.100000023842,6635.5,7811.600000023842,9599.799999952316,11835.399999976158,16269.799999952316]","[]","[1971.7999999523163,4993.700000047684,5878.100000023842,6635.5,7811.600000023842,8416,9142.899999976158,9599.799999952316,10454.299999952316,10877.700000047684,11272.5,11835.399999976158,16269.799999952316,20434.100000023842]","0.5714285714285714","0.6666666666666666","0"
"null","
    <p>第一阶段的实验部分已结束。</p>
    <p>系统将自动下载一个.csv文件，该文件为您的实验数据的备份文件。请不要对其进行任何更改，请不要随便删除，将它保存在您的系统文件夹中。</p>
    <p>如果数据遗失，我们将联系您获取该备份文件。</p>
    <p>感谢您的配合！</p>","null","html-keyboard-response","7","188210","0.0-6.0","595169798766198784","陈**","22","本科","汉族","2001-08-26 00:00:00","0","4","3","3","2","12000","5","4","5","4","5","5","4","5","5","4","5","5","5","4","2","1","0","1","0","0","0","0","0","2","0","0","1","0","1","0","","","","","","","","","","","","",""
