"rt","stimulus","response","trial_type","trial_index","time_elapsed","internal_node_id","subj_idx","subj_name","age","education","national","birthday","sex","fatherEdu","motherEdu","FatherOccupation","MotherOccupation","income","obj_ses1","fri_ses2","selfclarity_1","selfclarity_2","selfclarity_3","selfclarity_4","selfclarity_5","selfclarity_6","selfclarity_7","selfclarity_8","selfclarity_9","selfclarity_10","selfclarity_11","selfclarity_12","phq_1","phq_2","phq_3","phq_4","phq_5","phq_6","phq_7","phq_8","phq_9","gad_1","gad_2","gad_3","gad_4","gad_5","gad_6","gad_7","success","user_agent","accuracy","question_order","responses","item_order","radio_event_ids","radio_event_times","key_event_times","mouse_event_times","straightlining","zigzagging","honeypot"
"3379","
   <p>您好，欢迎参加本次实验。</p>
   <p>为充分保障您的权利，请确保您已经知晓并同意《参与实验同意书》以及《数据公开知情同意书》。</p>
   <p>如果您未见过上述内容，请咨询实验员。</p>
   <p>如果您选择继续实验，则表示您已经清楚两份知情同意书的内容并同意。</p>
   <p> <div style = ""color: green""><按""继续""至下页></div> </p>
   ","0","html-button-response","0","3384","0.0-0.0","718754642447564800","徐*","32","本科","汉族","1990-09-21 00:00:00","0","4","3","2","2","8000","3","3","4","4","3","3","4","3","5","4","4","4","3","4","2","2","0","2","2","2","1","1","0","2","2","2","1","1","1","1","","","","","","","","","","","","",""
"","","","fullscreen","1","23872","0.0-1.0","718754642447564800","徐*","32","本科","汉族","1990-09-21 00:00:00","0","4","3","2","2","8000","3","3","4","4","3","3","4","3","5","4","4","4","3","4","2","2","0","2","2","2","1","1","0","2","2","2","1","1","1","1","true","{}","","","","","","","","","","",""
"65402","","{""gender"":""A.男"",""fatherEdu"":""E.大学（专科或本科）"",""motherEdu"":""D.高中或中专"",""FatherOccupation"":""C.一般管理人员与一般专业技术人员、事务性工作人员,包括商业服务业员工阶层、办事人员阶层,如售货员、司机等"",""MotherOccupation"":""C.一般管理人员与一般专业技术人员、事务性工作人员,包括商业服务业员工阶层、办事人员阶层,如售货员、司机等"",""income"":""8000""}","survey","2","89406","0.0-2.0-0.0","718754642447564800","徐*","32","本科","汉族","1990-09-21 00:00:00","0","4","3","2","2","8000","3","3","4","4","3","3","4","3","5","4","4","4","3","4","2","2","0","2","2","2","1","1","0","2","2","2","1","1","1","1","","","[]","","","","","","","","","",""
"9671","","{""Q0"":2,""Q1"":2}","survey-likert","3","99565","0.0-2.0-1.0","718754642447564800","徐*","32","本科","汉族","1990-09-21 00:00:00","0","4","3","2","2","8000","3","3","4","4","3","3","4","3","5","4","4","4","3","4","2","2","0","2","2","2","1","1","0","2","2","2","1","1","1","1","","","","[0,1]","","","","","","","","",""
"58409.69999999995","","{""Q01"":""4"",""Q02"":""4"",""Q03"":""3"",""Q04"":""3"",""Q05"":""4"",""Q06"":""3"",""Q07"":""5"",""Q08"":""4"",""Q09"":""4"",""Q10"":""4"",""Q11"":""3"",""Q12"":""4""}","survey-template","4","157983","0.0-3.0","718754642447564800","徐*","32","本科","汉族","1990-09-21 00:00:00","0","4","3","2","2","8000","3","3","4","4","3","3","4","3","5","4","4","4","3","4","2","2","0","2","2","2","1","1","0","2","2","2","1","1","1","1","","","","","{""Q01"":""4"",""Q02"":""4"",""Q03"":""3"",""Q04"":""3"",""Q05"":""4"",""Q06"":""3"",""Q07"":""5"",""Q08"":""4"",""Q09"":""4"",""Q10"":""4"",""Q11"":""3"",""Q12"":""4""}","[0,1,2,3,4,5,6,7,8,9,10,11]","[""Q01"",""Q02"",""Q03"",""Q04"",""Q05"",""Q06"",""Q07"",""Q08"",""Q09"",""Q10"",""Q11"",""Q12""]","[11151.300000000047,14207.100000000093,28494.699999999953,29174.399999999907,33462.39999999991,37006.39999999991,41974.30000000005,46973.89999999991,50757.89999999991,52661.89999999991,54853.69999999995,57725.39999999991]","[]","[11151.300000000047,14207.100000000093,16598.800000000047,19238.800000000047,28022.699999999953,28494.699999999953,29174.399999999907,33462.39999999991,37006.39999999991,41974.30000000005,46973.89999999991,50757.89999999991,52661.89999999991,54853.69999999995,57725.39999999991,58406.10000000009]","0.5833333333333334","0.5454545454545454","0"
"38862.19999999995","","{""Q01"":""2"",""Q02"":""2"",""Q03"":""0"",""Q04"":""2"",""Q05"":""2"",""Q06"":""2"",""Q07"":""1"",""Q08"":""1"",""Q09"":""0""}","survey-template","5","196850","0.0-4.0","718754642447564800","徐*","32","本科","汉族","1990-09-21 00:00:00","0","4","3","2","2","8000","3","3","4","4","3","3","4","3","5","4","4","4","3","4","2","2","0","2","2","2","1","1","0","2","2","2","1","1","1","1","","","","","{""Q01"":""2"",""Q02"":""2"",""Q03"":""0"",""Q04"":""2"",""Q05"":""2"",""Q06"":""2"",""Q07"":""1"",""Q08"":""1"",""Q09"":""0""}","[0,1,2,3,4,5,6,7,8]","[""Q01"",""Q02"",""Q03"",""Q03"",""Q04"",""Q05"",""Q06"",""Q07"",""Q07"",""Q08"",""Q09""]","[8397.5,11405.300000000047,14460.90000000014,17869.199999999953,20765,23092.800000000047,25068.800000000047,31276.40000000014,32396.699999999953,34908.5,36412.90000000014]","[]","[7845.199999999953,8397.5,11405.300000000047,14460.90000000014,17869.199999999953,20765,23092.800000000047,25068.800000000047,31276.40000000014,32396.699999999953,34908.5,36412.90000000014,38860.30000000005]","0.5555555555555556","0.25","0"
"16265.5","","{""Q01"":""2"",""Q02"":""2"",""Q03"":""2"",""Q04"":""1"",""Q05"":""1"",""Q06"":""1"",""Q07"":""1""}","survey-template","6","213122","0.0-5.0","718754642447564800","徐*","32","本科","汉族","1990-09-21 00:00:00","0","4","3","2","2","8000","3","3","4","4","3","3","4","3","5","4","4","4","3","4","2","2","0","2","2","2","1","1","0","2","2","2","1","1","1","1","","","","","{""Q01"":""2"",""Q02"":""2"",""Q03"":""2"",""Q04"":""1"",""Q05"":""1"",""Q06"":""1"",""Q07"":""1""}","[0,1,2,3,4,5,6]","[""Q01"",""Q02"",""Q03"",""Q04"",""Q04"",""Q05"",""Q06"",""Q07""]","[5128.300000000047,6816.300000000047,8320.399999999907,9240.199999999953,10184,11328.399999999907,12784,13911.800000000047]","[]","[5128.300000000047,6816.300000000047,8320.399999999907,9240.199999999953,10184,11328.399999999907,12784,13911.800000000047,16264]","0.5714285714285714","0.16666666666666666","0"
"null","
    <p>第一阶段的实验部分已结束。</p>
    <p>系统将自动下载一个.csv文件，该文件为您的实验数据的备份文件。请不要对其进行任何更改，请不要随便删除，将它保存在您的系统文件夹中。</p>
    <p>如果数据遗失，我们将联系您获取该备份文件。</p>
    <p>感谢您的配合！</p>","null","html-keyboard-response","7","213578","0.0-6.0","718754642447564800","徐*","32","本科","汉族","1990-09-21 00:00:00","0","4","3","2","2","8000","3","3","4","4","3","3","4","3","5","4","4","4","3","4","2","2","0","2","2","2","1","1","0","2","2","2","1","1","1","1","","","","","","","","","","","","",""
