"rt","stimulus","response","trial_type","trial_index","time_elapsed","internal_node_id","subj_idx","subj_name","age","education","national","birthday","sex","fatherEdu","motherEdu","FatherOccupation","MotherOccupation","income","obj_ses1","fri_ses2","selfclarity_1","selfclarity_2","selfclarity_3","selfclarity_4","selfclarity_5","selfclarity_6","selfclarity_7","selfclarity_8","selfclarity_9","selfclarity_10","selfclarity_11","selfclarity_12","phq_1","phq_2","phq_3","phq_4","phq_5","phq_6","phq_7","phq_8","phq_9","gad_1","gad_2","gad_3","gad_4","gad_5","gad_6","gad_7","success","user_agent","accuracy","question_order","responses","item_order","radio_event_ids","radio_event_times","key_event_times","mouse_event_times","straightlining","zigzagging","honeypot"
"10046","
   <p>您好，欢迎参加本次实验。</p>
   <p>为充分保障您的权利，请确保您已经知晓并同意《参与实验同意书》以及《数据公开知情同意书》。</p>
   <p>如果您未见过上述内容，请咨询实验员。</p>
   <p>如果您选择继续实验，则表示您已经清楚两份知情同意书的内容并同意。</p>
   <p> <div style = ""color: green""><按""继续""至下页></div> </p>
   ","0","html-button-response","0","10051","0.0-0.0","682910925522468864","刘**","23","本科","汉族","2000-07-11 00:00:00","0","2","1","1","1","6000","5","3","3","2","3","4","3","4","3","4","3","2","3","3","2","1","2","3","2","1","2","1","2","2","1","2","2","1","2","2","","","","","","","","","","","","",""
"","","","fullscreen","1","41615","0.0-1.0","682910925522468864","刘**","23","本科","汉族","2000-07-11 00:00:00","0","2","1","1","1","6000","5","3","3","2","3","4","3","4","3","4","3","2","3","3","2","1","2","3","2","1","2","1","2","2","1","2","2","1","2","2","true","{}","","","","","","","","","","",""
"36839","","{""gender"":""A.男"",""fatherEdu"":""C.初中"",""motherEdu"":""B.小学"",""FatherOccupation"":""B.体力劳动工人和个体经营人员、技术工及同级工作者,如建筑工人及相关人员"",""MotherOccupation"":""B.体力劳动工人和个体经营人员、技术工及同级工作者,如建筑工人及相关人员"",""income"":""6000""}","survey","2","78504","0.0-2.0-0.0","682910925522468864","刘**","23","本科","汉族","2000-07-11 00:00:00","0","2","1","1","1","6000","5","3","3","2","3","4","3","4","3","4","3","2","3","3","2","1","2","3","2","1","2","1","2","2","1","2","2","1","2","2","","","[]","","","","","","","","","",""
"13672","","{""Q0"":4,""Q1"":2}","survey-likert","3","92676","0.0-2.0-1.0","682910925522468864","刘**","23","本科","汉族","2000-07-11 00:00:00","0","2","1","1","1","6000","5","3","3","2","3","4","3","4","3","4","3","2","3","3","2","1","2","3","2","1","2","1","2","2","1","2","2","1","2","2","","","","[0,1]","","","","","","","","",""
"24069.39999999851","","{""Q01"":""3"",""Q02"":""2"",""Q03"":""3"",""Q04"":""4"",""Q05"":""3"",""Q06"":""4"",""Q07"":""3"",""Q08"":""4"",""Q09"":""3"",""Q10"":""2"",""Q11"":""3"",""Q12"":""3""}","survey-template","4","116749","0.0-3.0","682910925522468864","刘**","23","本科","汉族","2000-07-11 00:00:00","0","2","1","1","1","6000","5","3","3","2","3","4","3","4","3","4","3","2","3","3","2","1","2","3","2","1","2","1","2","2","1","2","2","1","2","2","","","","","{""Q01"":""3"",""Q02"":""2"",""Q03"":""3"",""Q04"":""4"",""Q05"":""3"",""Q06"":""4"",""Q07"":""3"",""Q08"":""4"",""Q09"":""3"",""Q10"":""2"",""Q11"":""3"",""Q12"":""3""}","[0,1,2,3,4,5,6,7,8,9,10,11]","[""Q01"",""Q02"",""Q03"",""Q04"",""Q05"",""Q06"",""Q07"",""Q08"",""Q09"",""Q10"",""Q11"",""Q12""]","[5500.0999999940395,7228,8835.59999999404,9795.79999999702,11428,13340.09999999404,14475.79999999702,15843.59999999404,17452,18636,21067.79999999702,22780]","[]","[4411.89999999851,5500.0999999940395,7228,8835.59999999404,9795.79999999702,11428,13340.09999999404,14475.79999999702,15843.59999999404,17452,18636,21067.79999999702,22780,24068]","0.5833333333333334","0.9090909090909091","0"
"20596.09999999404","","{""Q01"":""2"",""Q02"":""1"",""Q03"":""2"",""Q04"":""3"",""Q05"":""2"",""Q06"":""1"",""Q07"":""2"",""Q08"":""1"",""Q09"":""2""}","survey-template","5","137348","0.0-4.0","682910925522468864","刘**","23","本科","汉族","2000-07-11 00:00:00","0","2","1","1","1","6000","5","3","3","2","3","4","3","4","3","4","3","2","3","3","2","1","2","3","2","1","2","1","2","2","1","2","2","1","2","2","","","","","{""Q01"":""2"",""Q02"":""1"",""Q03"":""2"",""Q04"":""3"",""Q05"":""2"",""Q06"":""1"",""Q07"":""2"",""Q08"":""1"",""Q09"":""2""}","[0,1,2,3,4,5,6,7,8]","[""Q01"",""Q02"",""Q03"",""Q04"",""Q04"",""Q05"",""Q06"",""Q07"",""Q08"",""Q09""]","[1555.5999999940395,2643.2999999970198,4459.5999999940395,5427.5,6667.29999999702,7707,9323.39999999851,14579.5,16266.59999999404,19866.79999999702]","[]","[1555.5999999940395,2643.2999999970198,4459.5999999940395,5427.5,6667.29999999702,7707,9323.39999999851,14579.5,16266.59999999404,17507.5,19348.5,19866.79999999702,20595.29999999702]","0.5555555555555556","1","0"
"10493.39999999851","","{""Q01"":""2"",""Q02"":""1"",""Q03"":""2"",""Q04"":""2"",""Q05"":""1"",""Q06"":""2"",""Q07"":""2""}","survey-template","6","147844","0.0-5.0","682910925522468864","刘**","23","本科","汉族","2000-07-11 00:00:00","0","2","1","1","1","6000","5","3","3","2","3","4","3","4","3","4","3","2","3","3","2","1","2","3","2","1","2","1","2","2","1","2","2","1","2","2","","","","","{""Q01"":""2"",""Q02"":""1"",""Q03"":""2"",""Q04"":""2"",""Q05"":""1"",""Q06"":""2"",""Q07"":""2""}","[0,1,2,3,4,5,6]","[""Q01"",""Q02"",""Q03"",""Q04"",""Q05"",""Q06"",""Q07""]","[1604.7000000029802,2684.60000000149,4028.7000000029802,5132.60000000149,6156.60000000149,7540.70000000298,9212.20000000298]","[]","[1604.7000000029802,2684.60000000149,4028.7000000029802,5132.60000000149,6156.60000000149,7540.70000000298,9212.20000000298,10492.70000000298]","0.7142857142857143","0.6666666666666666","0"
"null","
    <p>第一阶段的实验部分已结束。</p>
    <p>系统将自动下载一个.csv文件，该文件为您的实验数据的备份文件。请不要对其进行任何更改，请不要随便删除，将它保存在您的系统文件夹中。</p>
    <p>如果数据遗失，我们将联系您获取该备份文件。</p>
    <p>感谢您的配合！</p>","null","html-keyboard-response","7","148298","0.0-6.0","682910925522468864","刘**","23","本科","汉族","2000-07-11 00:00:00","0","2","1","1","1","6000","5","3","3","2","3","4","3","4","3","4","3","2","3","3","2","1","2","3","2","1","2","1","2","2","1","2","2","1","2","2","","","","","","","","","","","","",""
