"rt","stimulus","response","trial_type","trial_index","time_elapsed","internal_node_id","subj_idx","subj_name","age","education","national","birthday","sex","fatherEdu","motherEdu","FatherOccupation","MotherOccupation","income","obj_ses1","fri_ses2","selfclarity_1","selfclarity_2","selfclarity_3","selfclarity_4","selfclarity_5","selfclarity_6","selfclarity_7","selfclarity_8","selfclarity_9","selfclarity_10","selfclarity_11","selfclarity_12","phq_1","phq_2","phq_3","phq_4","phq_5","phq_6","phq_7","phq_8","phq_9","gad_1","gad_2","gad_3","gad_4","gad_5","gad_6","gad_7","success","user_agent","accuracy","question_order","responses","item_order","radio_event_ids","radio_event_times","key_event_times","mouse_event_times","straightlining","zigzagging","honeypot"
"8143","
   <p>您好，欢迎参加本次实验。</p>
   <p>为充分保障您的权利，请确保您已经知晓并同意《参与实验同意书》以及《数据公开知情同意书》。</p>
   <p>如果您未见过上述内容，请咨询实验员。</p>
   <p>如果您选择继续实验，则表示您已经清楚两份知情同意书的内容并同意。</p>
   <p> <div style = ""color: green""><按""继续""至下页></div> </p>
   ","0","html-button-response","0","8150","0.0-0.0","650382190139408384","布**","26","本科","汉族","1996-11-12 00:00:00","1","4","3","2","2","15000","6","6","4","3","2","3","3","4","2","3","3","2","4","3","0","1","0","0","0","0","1","1","0","1","1","1","1","0","0","1","","","","","","","","","","","","",""
"","","","fullscreen","1","36817","0.0-1.0","650382190139408384","布**","26","本科","汉族","1996-11-12 00:00:00","1","4","3","2","2","15000","6","6","4","3","2","3","3","4","2","3","3","2","4","3","0","1","0","0","0","0","1","1","0","1","1","1","1","0","0","1","true","{}","","","","","","","","","","",""
"73896","","{""gender"":""B.女"",""fatherEdu"":""E.大学（专科或本科）"",""motherEdu"":""D.高中或中专"",""FatherOccupation"":""C.一般管理人员与一般专业技术人员、事务性工作人员,包括商业服务业员工阶层、办事人员阶层,如售货员、司机等"",""MotherOccupation"":""C.一般管理人员与一般专业技术人员、事务性工作人员,包括商业服务业员工阶层、办事人员阶层,如售货员、司机等"",""income"":""15000""}","survey","2","110779","0.0-2.0-0.0","650382190139408384","布**","26","本科","汉族","1996-11-12 00:00:00","1","4","3","2","2","15000","6","6","4","3","2","3","3","4","2","3","3","2","4","3","0","1","0","0","0","0","1","1","0","1","1","1","1","0","0","1","","","[]","","","","","","","","","",""
"99221","","{""Q0"":5,""Q1"":5}","survey-likert","3","210335","0.0-2.0-1.0","650382190139408384","布**","26","本科","汉族","1996-11-12 00:00:00","1","4","3","2","2","15000","6","6","4","3","2","3","3","4","2","3","3","2","4","3","0","1","0","0","0","0","1","1","0","1","1","1","1","0","0","1","","","","[0,1]","","","","","","","","",""
"92804.20000000019","","{""Q01"":""4"",""Q02"":""3"",""Q03"":""2"",""Q04"":""3"",""Q05"":""3"",""Q06"":""4"",""Q07"":""2"",""Q08"":""3"",""Q09"":""3"",""Q10"":""2"",""Q11"":""4"",""Q12"":""3""}","survey-template","4","303145","0.0-3.0","650382190139408384","布**","26","本科","汉族","1996-11-12 00:00:00","1","4","3","2","2","15000","6","6","4","3","2","3","3","4","2","3","3","2","4","3","0","1","0","0","0","0","1","1","0","1","1","1","1","0","0","1","","","","","{""Q01"":""4"",""Q02"":""3"",""Q03"":""2"",""Q04"":""3"",""Q05"":""3"",""Q06"":""4"",""Q07"":""2"",""Q08"":""3"",""Q09"":""3"",""Q10"":""2"",""Q11"":""4"",""Q12"":""3""}","[0,1,2,3,4,5,6,7,8,9,10,11]","[""Q01"",""Q02"",""Q03"",""Q04"",""Q05"",""Q06"",""Q07"",""Q08"",""Q09"",""Q10"",""Q11"",""Q12""]","[16818.299999999814,29154.200000000186,33586.200000000186,38666,48434,57426.10000000056,61834.200000000186,66930.20000000019,72106.10000000056,82066.20000000019,85586.10000000056,91202.70000000019]","[]","[16818.299999999814,28442,29154.200000000186,33586.200000000186,38666,48434,57426.10000000056,61834.200000000186,66930.20000000019,72106.10000000056,82066.20000000019,85586.10000000056,90130.20000000019,91202.70000000019,92802.29999999981]","0.5","0.6363636363636364","0"
"56026.59999999963","","{""Q01"":""0"",""Q02"":""1"",""Q03"":""0"",""Q04"":""0"",""Q05"":""0"",""Q06"":""0"",""Q07"":""1"",""Q08"":""1"",""Q09"":""0""}","survey-template","5","359175","0.0-4.0","650382190139408384","布**","26","本科","汉族","1996-11-12 00:00:00","1","4","3","2","2","15000","6","6","4","3","2","3","3","4","2","3","3","2","4","3","0","1","0","0","0","0","1","1","0","1","1","1","1","0","0","1","","","","","{""Q01"":""0"",""Q02"":""1"",""Q03"":""0"",""Q04"":""0"",""Q05"":""0"",""Q06"":""0"",""Q07"":""1"",""Q08"":""1"",""Q09"":""0""}","[0,1,2,3,4,5,6,7,8]","[""Q01"",""Q02"",""Q03"",""Q04"",""Q05"",""Q06"",""Q07"",""Q08"",""Q09""]","[14393.599999999627,17081.599999999627,20777.89999999944,23225.5,25961.599999999627,37393.5,41033.59999999963,50897.699999999255,52977.59999999963]","[]","[14393.599999999627,17081.599999999627,20777.89999999944,23225.5,25961.599999999627,37393.5,41033.59999999963,50897.699999999255,52977.59999999963,56025.5]","0.6666666666666666","0.5","0"
"35275.59999999963","","{""Q01"":""1"",""Q02"":""1"",""Q03"":""1"",""Q04"":""1"",""Q05"":""0"",""Q06"":""0"",""Q07"":""1""}","survey-template","6","394455","0.0-5.0","650382190139408384","布**","26","本科","汉族","1996-11-12 00:00:00","1","4","3","2","2","15000","6","6","4","3","2","3","3","4","2","3","3","2","4","3","0","1","0","0","0","0","1","1","0","1","1","1","1","0","0","1","","","","","{""Q01"":""1"",""Q02"":""1"",""Q03"":""1"",""Q04"":""1"",""Q05"":""0"",""Q06"":""0"",""Q07"":""1""}","[0,1,2,3,4,5,6]","[""Q01"",""Q02"",""Q02"",""Q03"",""Q04"",""Q05"",""Q06"",""Q07""]","[7227.0999999996275,10594.799999999814,12538.799999999814,14739.099999999627,17779,19699.099999999627,21794.799999999814,23730.799999999814]","[]","[7227.0999999996275,10594.799999999814,12538.799999999814,14739.099999999627,17779,19699.099999999627,21794.799999999814,23730.799999999814,35274.90000000037]","0.7142857142857143","0.3333333333333333","0"
"null","
    <p>第一阶段的实验部分已结束。</p>
    <p>系统将自动下载一个.csv文件，该文件为您的实验数据的备份文件。请不要对其进行任何更改，请不要随便删除，将它保存在您的系统文件夹中。</p>
    <p>如果数据遗失，我们将联系您获取该备份文件。</p>
    <p>感谢您的配合！</p>","null","html-keyboard-response","7","394914","0.0-6.0","650382190139408384","布**","26","本科","汉族","1996-11-12 00:00:00","1","4","3","2","2","15000","6","6","4","3","2","3","3","4","2","3","3","2","4","3","0","1","0","0","0","0","1","1","0","1","1","1","1","0","0","1","","","","","","","","","","","","",""
