"rt","stimulus","response","trial_type","trial_index","time_elapsed","internal_node_id","subj_idx","subj_name","age","education","national","birthday","sex","fatherEdu","motherEdu","FatherOccupation","MotherOccupation","income","obj_ses1","fri_ses2","selfclarity_1","selfclarity_2","selfclarity_3","selfclarity_4","selfclarity_5","selfclarity_6","selfclarity_7","selfclarity_8","selfclarity_9","selfclarity_10","selfclarity_11","selfclarity_12","phq_1","phq_2","phq_3","phq_4","phq_5","phq_6","phq_7","phq_8","phq_9","gad_1","gad_2","gad_3","gad_4","gad_5","gad_6","gad_7","success","user_agent","accuracy","question_order","responses","item_order","radio_event_ids","radio_event_times","key_event_times","mouse_event_times","straightlining","zigzagging","honeypot"
"4732","
   <p>您好，欢迎参加本次实验。</p>
   <p>为充分保障您的权利，请确保您已经知晓并同意《参与实验同意书》以及《数据公开知情同意书》。</p>
   <p>如果您未见过上述内容，请咨询实验员。</p>
   <p>如果您选择继续实验，则表示您已经清楚两份知情同意书的内容并同意。</p>
   <p> <div style = ""color: green""><按""继续""至下页></div> </p>
   ","0","html-button-response","0","4737","0.0-0.0","576028339047759872","刘**","29","硕士","汉族","1993-11-05 00:00:00","0","3","2","1","1","9000","3","2","3","5","4","3","4","4","4","4","4","3","4","3","2","3","3","3","2","3","2","1","3","3","3","2","3","2","3","2","","","","","","","","","","","","",""
"","","","fullscreen","1","24848","0.0-1.0","576028339047759872","刘**","29","硕士","汉族","1993-11-05 00:00:00","0","3","2","1","1","9000","3","2","3","5","4","3","4","4","4","4","4","3","4","3","2","3","3","3","2","3","2","1","3","3","3","2","3","2","3","2","true","{}","","","","","","","","","","",""
"37096","","{""gender"":""A.男"",""fatherEdu"":""D.高中或中专"",""motherEdu"":""C.初中"",""FatherOccupation"":""B.体力劳动工人和个体经营人员、技术工及同级工作者,如建筑工人及相关人员"",""MotherOccupation"":""B.体力劳动工人和个体经营人员、技术工及同级工作者,如建筑工人及相关人员"",""income"":""9000""}","survey","2","62023","0.0-2.0-0.0","576028339047759872","刘**","29","硕士","汉族","1993-11-05 00:00:00","0","3","2","1","1","9000","3","2","3","5","4","3","4","4","4","4","4","3","4","3","2","3","3","3","2","3","2","1","3","3","3","2","3","2","3","2","","","[]","","","","","","","","","",""
"23398","","{""Q0"":2,""Q1"":1}","survey-likert","3","85799","0.0-2.0-1.0","576028339047759872","刘**","29","硕士","汉族","1993-11-05 00:00:00","0","3","2","1","1","9000","3","2","3","5","4","3","4","4","4","4","4","3","4","3","2","3","3","3","2","3","2","1","3","3","3","2","3","2","3","2","","","","[0,1]","","","","","","","","",""
"55200","","{""Q01"":""3"",""Q02"":""5"",""Q03"":""4"",""Q04"":""3"",""Q05"":""4"",""Q06"":""4"",""Q07"":""4"",""Q08"":""4"",""Q09"":""4"",""Q10"":""3"",""Q11"":""4"",""Q12"":""3""}","survey-template","4","141006","0.0-3.0","576028339047759872","刘**","29","硕士","汉族","1993-11-05 00:00:00","0","3","2","1","1","9000","3","2","3","5","4","3","4","4","4","4","4","3","4","3","2","3","3","3","2","3","2","1","3","3","3","2","3","2","3","2","","","","","{""Q01"":""3"",""Q02"":""5"",""Q03"":""4"",""Q04"":""3"",""Q05"":""4"",""Q06"":""4"",""Q07"":""4"",""Q08"":""4"",""Q09"":""4"",""Q10"":""3"",""Q11"":""4"",""Q12"":""3""}","[0,1,2,3,4,5,6,7,8,9,10,11]","[""Q01"",""Q02"",""Q03"",""Q04"",""Q05"",""Q06"",""Q07"",""Q07"",""Q08"",""Q09"",""Q10"",""Q11"",""Q12""]","[8113.199999928474,13576.899999976158,15989,20135.399999976158,24085.399999976158,27046.600000023842,31814.299999952316,32991.89999997616,34731.699999928474,38637,46768.60000002384,49908.89999997616,54191.60000002384]","[]","[8113.199999928474,13576.899999976158,15989,20135.399999976158,24085.399999976158,27046.600000023842,31814.299999952316,32991.89999997616,34731.699999928474,38637,46768.60000002384,49908.89999997616,54191.60000002384,55197.39999997616]","0.4166666666666667","0.5454545454545454","0"
"22986.800000071526","","{""Q01"":""2"",""Q02"":""3"",""Q03"":""3"",""Q04"":""3"",""Q05"":""2"",""Q06"":""3"",""Q07"":""2"",""Q08"":""1"",""Q09"":""3""}","survey-template","5","163998","0.0-4.0","576028339047759872","刘**","29","硕士","汉族","1993-11-05 00:00:00","0","3","2","1","1","9000","3","2","3","5","4","3","4","4","4","4","4","3","4","3","2","3","3","3","2","3","2","1","3","3","3","2","3","2","3","2","","","","","{""Q01"":""2"",""Q02"":""3"",""Q03"":""3"",""Q04"":""3"",""Q05"":""2"",""Q06"":""3"",""Q07"":""2"",""Q08"":""1"",""Q09"":""3""}","[0,1,2,3,4,5,6,7,8]","[""Q01"",""Q02"",""Q03"",""Q04"",""Q05"",""Q06"",""Q07"",""Q08"",""Q09""]","[5204.300000071526,6697.300000071526,7910.899999976158,8864.600000023842,10383.399999976158,12549.800000071526,14880.100000023842,19857.300000071526,21970.899999976158]","[]","[5204.300000071526,6697.300000071526,7910.899999976158,8864.600000023842,10383.399999976158,12549.800000071526,14880.100000023842,19857.300000071526,21970.899999976158,22986.100000023842]","0.5555555555555556","0.625","0"
"17603","","{""Q01"":""3"",""Q02"":""3"",""Q03"":""2"",""Q04"":""3"",""Q05"":""2"",""Q06"":""3"",""Q07"":""2""}","survey-template","6","181604","0.0-5.0","576028339047759872","刘**","29","硕士","汉族","1993-11-05 00:00:00","0","3","2","1","1","9000","3","2","3","5","4","3","4","4","4","4","4","3","4","3","2","3","3","3","2","3","2","1","3","3","3","2","3","2","3","2","","","","","{""Q01"":""3"",""Q02"":""3"",""Q03"":""2"",""Q04"":""3"",""Q05"":""2"",""Q06"":""3"",""Q07"":""2""}","[0,1,2,3,4,5,6]","[""Q01"",""Q02"",""Q03"",""Q04"",""Q05"",""Q06"",""Q07""]","[6744.299999952316,8626,10222.299999952316,12665.199999928474,14028.100000023842,15215.5,16717.100000023842]","[]","[6744.299999952316,8626,10222.299999952316,12665.199999928474,14028.100000023842,15215.5,16717.100000023842,17601.899999976158]","0.5714285714285714","0.8333333333333334","0"
"null","
    <p>第一阶段的实验部分已结束。</p>
    <p>系统将自动下载一个.csv文件，该文件为您的实验数据的备份文件。请不要对其进行任何更改，请不要随便删除，将它保存在您的系统文件夹中。</p>
    <p>如果数据遗失，我们将联系您获取该备份文件。</p>
    <p>感谢您的配合！</p>","null","html-keyboard-response","7","182062","0.0-6.0","576028339047759872","刘**","29","硕士","汉族","1993-11-05 00:00:00","0","3","2","1","1","9000","3","2","3","5","4","3","4","4","4","4","4","3","4","3","2","3","3","3","2","3","2","1","3","3","3","2","3","2","3","2","","","","","","","","","","","","",""
