"rt","stimulus","response","trial_type","trial_index","time_elapsed","internal_node_id","ses_1","ses_2","ses_3","ses_4","ses_5","ses_6","ses_7","ses_8","ses_9","ses_10","coreself_1","coreself_2","coreself_3","coreself_4","coreself_5","coreself_6","coreself_7","coreself_8","coreself_9","coreself_10","SGPS_1","SGPS_2","SGPS_3","SGPS_4","SGPS_5","SGPS_6","SGPS_7","SGPS_8","SGPS_9","NPI1","NPI2","NPI3","NPI4","NPI5","NPI6","NPI7","NPI8","NPI9","NPI10","NPI11","NPI12","NPI13","NPI14","NPI15","hsns_1","hsns_2","hsns_3","hsns_4","hsns_5","hsns_6","hsns_7","hsns_8","hsns_9","hsns_10","subj_idx","friend_name","ParticipantID","value","success","user_agent","responses","item_order","radio_event_ids","radio_event_times","key_event_times","mouse_event_times","straightlining","zigzagging","honeypot","timeout","failed_images","failed_audio","failed_video","version_attrib","version_target","correct","IAT","screen_id","task_id","RT","condition","word","varname","summary","version_attrib2","version_target2","time_stamp","view_history","response_type","key_press","avg_frame_time","center_x","center_y","correct_response","identity","Image","question_order"
"3402","
   <p><div style = ""color: white;font-size:25px;"">您好，欢迎参加本次实验。</div> </p>
   <p><div style = ""color: white;font-size:25px;"">为充分保障您的权利，请确保您已经知晓并同意《参与实验同意书》以及《数据公开知情同意书》。</div></p>
   <p><div style = ""color: white;font-size:25px;"">如果您未见过上述内容，请咨询实验员。</div></p>
   <p><div style = ""color: white;font-size:25px;"">如果您选择继续实验，则表示您已经清楚两份知情同意书的内容并同意。</div></p>
   <p> <div style = ""color: green;font-size:25px;""><按空格键至下页></div> </p>
   "," ","html-keyboard-response","0","3407","0.0-0.0","4","3","3","3","3","4","3","1","3","4","5","4","2","5","4","4","4","4","5","5","4","4","4","4","4","3","4","5","4","1","0","1","0","0","1","1","0","1","1","0","0","0","0","0","5","4","5","1","2","4","4","5","2","4","598944297026322432","刘豪","592","","","","","","","","","","","","","","","","","","","","","","","","","","","","","","","","","","","","","","","",""
"","","","call-function","1","3408","0.0-1.0-0.0","4","3","3","3","3","4","3","1","3","4","5","4","2","5","4","4","4","4","5","5","4","4","4","4","4","3","4","5","4","1","0","1","0","0","1","1","0","1","1","0","0","0","0","0","5","4","5","1","2","4","4","5","2","4","598944297026322432","刘豪","592","","","","","","","","","","","","","","","","","","","","","","","","","","","","","","","","","","","","","","","",""
"73675","","{""friend_name"":""刘豪"",""ParticipantID"":""592""}","survey-html-form","2","77087","0.0-1.0-1.0","4","3","3","3","3","4","3","1","3","4","5","4","2","5","4","4","4","4","5","5","4","4","4","4","4","3","4","5","4","1","0","1","0","0","1","1","0","1","1","0","0","0","0","0","5","4","5","1","2","4","4","5","2","4","598944297026322432","刘豪","592","","","","","","","","","","","","","","","","","","","","","","","","","","","","","","","","","","","","","","","",""
"","","","fullscreen","3","79612","0.0-2.0","4","3","3","3","3","4","3","1","3","4","5","4","2","5","4","4","4","4","5","5","4","4","4","4","4","3","4","5","4","1","0","1","0","0","1","1","0","1","1","0","0","0","0","0","5","4","5","1","2","4","4","5","2","4","598944297026322432","刘豪","592","","true","{}","","","","","","","","","","","","","","","","","","","","","","","","","","","","","","","","","","","","",""
"25754.800000190735","","{""Q01"":""4"",""Q02"":""3"",""Q03"":""3"",""Q04"":""3"",""Q05"":""3"",""Q06"":""4"",""Q07"":""3"",""Q08"":""1"",""Q09"":""3"",""Q10"":""4""}","survey-template","4","105383","0.0-3.0","4","3","3","3","3","4","3","1","3","4","5","4","2","5","4","4","4","4","5","5","4","4","4","4","4","3","4","5","4","1","0","1","0","0","1","1","0","1","1","0","0","0","0","0","5","4","5","1","2","4","4","5","2","4","598944297026322432","刘豪","592","","","","{""Q01"":""4"",""Q02"":""3"",""Q03"":""3"",""Q04"":""3"",""Q05"":""3"",""Q06"":""4"",""Q07"":""3"",""Q08"":""1"",""Q09"":""3"",""Q10"":""4""}","[0,1,2,3,4,5,6,7,8,9]","[""Q01"",""Q01"",""Q02"",""Q03"",""Q04"",""Q05"",""Q06"",""Q07"",""Q07"",""Q08"",""Q09"",""Q10"",""Q10""]","[4696.800000190735,4744.699999809265,6369.60000038147,8386.300000190735,12881.10000038147,14536.900000572205,17889.300000190735,19443.5,19545,20808.900000572205,22297.10000038147,24177.199999809265,24977.10000038147]","[]","[3931.199999809265,4401.10000038147,4696.800000190735,4744.699999809265,6113,6369.60000038147,8386.300000190735,12881.10000038147,14536.900000572205,17193.400000572205,17514.400000572205,17889.300000190735,19443.5,19545,20808.900000572205,22297.10000038147,23697.10000038147,24177.199999809265,24977.10000038147,25753.199999809265]","0.3","0.7777777777777778","0","","","","","","","","","","","","","","","","","","","","","","","","","","","",""
"21850.300000190735","","{""Q01"":""5"",""Q02"":""4"",""Q03"":""2"",""Q04"":""5"",""Q05"":""4"",""Q06"":""4"",""Q07"":""4"",""Q08"":""4"",""Q09"":""5"",""Q10"":""5""}","survey-template","5","127242","0.0-4.0","4","3","3","3","3","4","3","1","3","4","5","4","2","5","4","4","4","4","5","5","4","4","4","4","4","3","4","5","4","1","0","1","0","0","1","1","0","1","1","0","0","0","0","0","5","4","5","1","2","4","4","5","2","4","598944297026322432","刘豪","592","","","","{""Q01"":""5"",""Q02"":""4"",""Q03"":""2"",""Q04"":""5"",""Q05"":""4"",""Q06"":""4"",""Q07"":""4"",""Q08"":""4"",""Q09"":""5"",""Q10"":""5""}","[0,1,2,3,4,5,6,7,8,9]","[""Q01"",""Q02"",""Q02"",""Q03"",""Q04"",""Q05"",""Q06"",""Q07"",""Q08"",""Q09"",""Q10""]","[3200.300000190735,4368.099999427795,4408,6480.300000190735,7160,9224.199999809265,11648.199999809265,13344.099999427795,15072.300000190735,16593,20648.199999809265]","[]","[2673.699999809265,3200.300000190735,4368.099999427795,4408,5968.699999809265,6031.89999961853,6480.300000190735,7160,8864.099999427795,8943.89999961853,9224.199999809265,10600.199999809265,11272.699999809265,11648.199999809265,13344.099999427795,15072.300000190735,16593,18840.199999809265,19456,20000.099999427795,20648.199999809265,21848.199999809265]","0.4","0.2222222222222222","0","","","","","","","","","","","","","","","","","","","","","","","","","","","",""
"","","","preload","6","128924","0.0-5.0","4","3","3","3","3","4","3","1","3","4","5","4","2","5","4","4","4","4","5","5","4","4","4","4","4","3","4","5","4","1","0","1","0","0","1","1","0","1","1","0","0","0","0","0","5","4","5","1","2","4","4","5","2","4","598944297026322432","刘豪","592","","true","","","","","","","","","","","false","[]","[]","[]","","","","","","","","","","","","","","","","","","","","","","","",""
"10544","
    <h3>词语分类任务</h3>
    <p>在接下来的任务中，你需要对一系列词语进行分类。</p>
    <p>请先熟悉这些词语，这有利于你完成接下来的任务。</p>
    <table align=""center"" border=1 cellpadding=3 cellspacing=0>
    <tr> <th>类别</th> <th>词语</th> </tr>
    <tr> <td>&emsp;积极&emsp;</td> <td>&emsp;能干、全能、全才、高效、精干、天才&emsp;</td> </tr>
    <tr> <td>&emsp;消极&emsp;</td> <td>&emsp;无能、低能、废物、拙笨、愚钝、蠢笨&emsp;</td> </tr>
    <tr> <td>&emsp;自我&emsp;</td> <td>&emsp;我、我的、自己、自己的、本人、本人的&emsp;</td> </tr>
    <tr> <td>&emsp;他人&emsp;</td> <td>&emsp;他、他的、别人、别人的、他人、他人的&emsp;</td> </tr>
    </table><br/>","0","html-button-response","7","139472","0.0-6.0-0.0-0.0","4","3","3","3","3","4","3","1","3","4","5","4","2","5","4","4","4","4","5","5","4","4","4","4","4","3","4","5","4","1","0","1","0","0","1","1","0","1","1","0","0","0","0","0","5","4","5","1","2","4","4","5","2","4","598944297026322432","刘豪","592","","","","","","","","","","","","","","","","","2","2","","","","","","","","","","","","","","","","","","","","","",""
"8544","
    <div class=""tag-bottom"">
    <p> —— 任务1：对“他人”词和“自我”词分类 ——<p/>
    不同词语会出现在屏幕中央，类别标签将始终显示在屏幕上方<p/>   
    <span style=""color:#FFD866""><b>请根据上方标签的提示，尽可能正确并且快速地做出按键反应</b></span><p/>
    当按键错误时屏幕中会出现<span style=""color:red""> X </span>，需要按另一个键纠正才能继续<br/><p/>
    请把双手食指分别放在键盘的“E”键和“I”键上<p/>
    按<空格键>开始
    </p></div>"," ","html-keyboard-response","8","148019","0.0-6.0-0.0-1.0","4","3","3","3","3","4","3","1","3","4","5","4","2","5","4","4","4","4","5","5","4","4","4","4","4","3","4","5","4","1","0","1","0","0","1","1","0","1","1","0","0","0","0","0","5","4","5","1","2","4","4","5","2","4","598944297026322432","刘豪","592","","","","","","","","","","","","","","","","","","","","","","","","","","","","","","","","","","","","","","","",""
"null","","null","html-keyboard-response","9","148271","0.0-6.0-0.0-2.0-0.0","4","3","3","3","3","4","3","1","3","4","5","4","2","5","4","4","4","4","5","5","4","4","4","4","4","3","4","5","4","1","0","1","0","0","1","1","0","1","1","0","0","0","0","0","5","4","5","1","2","4","4","5","2","4","598944297026322432","刘豪","592","","","","","","","","","","","","","","","","","","","","","","","","","","","","","","","","","","","","","","","",""
"808","<p style=""color:rgb(150, 250, 100); font-size: 35px;"">本人</p>","i","categorize-html","10","149084","0.0-6.0-0.0-2.0-1.0","4","3","3","3","3","4","3","1","3","4","5","4","2","5","4","4","4","4","5","5","4","4","4","4","4","3","4","5","4","1","0","1","0","0","1","1","0","1","1","0","0","0","0","0","5","4","5","1","2","4","4","5","2","4","598944297026322432","刘豪","592","","","","","","","","","","","","","","","","","","","true","1","1","ability","808","self","本人","","","","","","","","","","","","","","",""
"null","","null","html-keyboard-response","11","149335","0.0-6.0-0.0-2.0-0.1","4","3","3","3","3","4","3","1","3","4","5","4","2","5","4","4","4","4","5","5","4","4","4","4","4","3","4","5","4","1","0","1","0","0","1","1","0","1","1","0","0","0","0","0","5","4","5","1","2","4","4","5","2","4","598944297026322432","刘豪","592","","","","","","","","","","","","","","","","","","","","","","","","","","","","","","","","","","","","","","","",""
"831","<p style=""color:rgb(150, 250, 100); font-size: 35px;"">自己的</p>","i","categorize-html","12","150169","0.0-6.0-0.0-2.0-1.1","4","3","3","3","3","4","3","1","3","4","5","4","2","5","4","4","4","4","5","5","4","4","4","4","4","3","4","5","4","1","0","1","0","0","1","1","0","1","1","0","0","0","0","0","5","4","5","1","2","4","4","5","2","4","598944297026322432","刘豪","592","","","","","","","","","","","","","","","","","","","true","1","1","ability","831","self","自己的","","","","","","","","","","","","","","",""
"null","","null","html-keyboard-response","13","150421","0.0-6.0-0.0-2.0-0.2","4","3","3","3","3","4","3","1","3","4","5","4","2","5","4","4","4","4","5","5","4","4","4","4","4","3","4","5","4","1","0","1","0","0","1","1","0","1","1","0","0","0","0","0","5","4","5","1","2","4","4","5","2","4","598944297026322432","刘豪","592","","","","","","","","","","","","","","","","","","","","","","","","","","","","","","","","","","","","","","","",""
"660","<p style=""color:rgb(150, 250, 100); font-size: 35px;"">别人</p>","e","categorize-html","14","151086","0.0-6.0-0.0-2.0-1.2","4","3","3","3","3","4","3","1","3","4","5","4","2","5","4","4","4","4","5","5","4","4","4","4","4","3","4","5","4","1","0","1","0","0","1","1","0","1","1","0","0","0","0","0","5","4","5","1","2","4","4","5","2","4","598944297026322432","刘豪","592","","","","","","","","","","","","","","","","","","","true","1","1","ability","660","other","别人","","","","","","","","","","","","","","",""
"null","","null","html-keyboard-response","15","151339","0.0-6.0-0.0-2.0-0.3","4","3","3","3","3","4","3","1","3","4","5","4","2","5","4","4","4","4","5","5","4","4","4","4","4","3","4","5","4","1","0","1","0","0","1","1","0","1","1","0","0","0","0","0","5","4","5","1","2","4","4","5","2","4","598944297026322432","刘豪","592","","","","","","","","","","","","","","","","","","","","","","","","","","","","","","","","","","","","","","","",""
"1032","<p style=""color:rgb(150, 250, 100); font-size: 35px;"">他的</p>","e","categorize-html","16","152374","0.0-6.0-0.0-2.0-1.3","4","3","3","3","3","4","3","1","3","4","5","4","2","5","4","4","4","4","5","5","4","4","4","4","4","3","4","5","4","1","0","1","0","0","1","1","0","1","1","0","0","0","0","0","5","4","5","1","2","4","4","5","2","4","598944297026322432","刘豪","592","","","","","","","","","","","","","","","","","","","true","1","1","ability","1032","other","他的","","","","","","","","","","","","","","",""
"null","","null","html-keyboard-response","17","152627","0.0-6.0-0.0-2.0-0.4","4","3","3","3","3","4","3","1","3","4","5","4","2","5","4","4","4","4","5","5","4","4","4","4","4","3","4","5","4","1","0","1","0","0","1","1","0","1","1","0","0","0","0","0","5","4","5","1","2","4","4","5","2","4","598944297026322432","刘豪","592","","","","","","","","","","","","","","","","","","","","","","","","","","","","","","","","","","","","","","","",""
"560","<p style=""color:rgb(150, 250, 100); font-size: 35px;"">本人的</p>","i","categorize-html","18","153190","0.0-6.0-0.0-2.0-1.4","4","3","3","3","3","4","3","1","3","4","5","4","2","5","4","4","4","4","5","5","4","4","4","4","4","3","4","5","4","1","0","1","0","0","1","1","0","1","1","0","0","0","0","0","5","4","5","1","2","4","4","5","2","4","598944297026322432","刘豪","592","","","","","","","","","","","","","","","","","","","true","1","1","ability","560","self","本人的","","","","","","","","","","","","","","",""
"null","","null","html-keyboard-response","19","153442","0.0-6.0-0.0-2.0-0.5","4","3","3","3","3","4","3","1","3","4","5","4","2","5","4","4","4","4","5","5","4","4","4","4","4","3","4","5","4","1","0","1","0","0","1","1","0","1","1","0","0","0","0","0","5","4","5","1","2","4","4","5","2","4","598944297026322432","刘豪","592","","","","","","","","","","","","","","","","","","","","","","","","","","","","","","","","","","","","","","","",""
"645","<p style=""color:rgb(150, 250, 100); font-size: 35px;"">自己</p>","i","categorize-html","20","154090","0.0-6.0-0.0-2.0-1.5","4","3","3","3","3","4","3","1","3","4","5","4","2","5","4","4","4","4","5","5","4","4","4","4","4","3","4","5","4","1","0","1","0","0","1","1","0","1","1","0","0","0","0","0","5","4","5","1","2","4","4","5","2","4","598944297026322432","刘豪","592","","","","","","","","","","","","","","","","","","","true","1","1","ability","645","self","自己","","","","","","","","","","","","","","",""
"null","","null","html-keyboard-response","21","154342","0.0-6.0-0.0-2.0-0.6","4","3","3","3","3","4","3","1","3","4","5","4","2","5","4","4","4","4","5","5","4","4","4","4","4","3","4","5","4","1","0","1","0","0","1","1","0","1","1","0","0","0","0","0","5","4","5","1","2","4","4","5","2","4","598944297026322432","刘豪","592","","","","","","","","","","","","","","","","","","","","","","","","","","","","","","","","","","","","","","","",""
"591","<p style=""color:rgb(150, 250, 100); font-size: 35px;"">他人</p>","e","categorize-html","22","154935","0.0-6.0-0.0-2.0-1.6","4","3","3","3","3","4","3","1","3","4","5","4","2","5","4","4","4","4","5","5","4","4","4","4","4","3","4","5","4","1","0","1","0","0","1","1","0","1","1","0","0","0","0","0","5","4","5","1","2","4","4","5","2","4","598944297026322432","刘豪","592","","","","","","","","","","","","","","","","","","","true","1","1","ability","591","other","他人","","","","","","","","","","","","","","",""
"null","","null","html-keyboard-response","23","155187","0.0-6.0-0.0-2.0-0.7","4","3","3","3","3","4","3","1","3","4","5","4","2","5","4","4","4","4","5","5","4","4","4","4","4","3","4","5","4","1","0","1","0","0","1","1","0","1","1","0","0","0","0","0","5","4","5","1","2","4","4","5","2","4","598944297026322432","刘豪","592","","","","","","","","","","","","","","","","","","","","","","","","","","","","","","","","","","","","","","","",""
"682","<p style=""color:rgb(150, 250, 100); font-size: 35px;"">他人的</p>","e","categorize-html","24","155872","0.0-6.0-0.0-2.0-1.7","4","3","3","3","3","4","3","1","3","4","5","4","2","5","4","4","4","4","5","5","4","4","4","4","4","3","4","5","4","1","0","1","0","0","1","1","0","1","1","0","0","0","0","0","5","4","5","1","2","4","4","5","2","4","598944297026322432","刘豪","592","","","","","","","","","","","","","","","","","","","true","1","1","ability","682","other","他人的","","","","","","","","","","","","","","",""
"null","","null","html-keyboard-response","25","156124","0.0-6.0-0.0-2.0-0.8","4","3","3","3","3","4","3","1","3","4","5","4","2","5","4","4","4","4","5","5","4","4","4","4","4","3","4","5","4","1","0","1","0","0","1","1","0","1","1","0","0","0","0","0","5","4","5","1","2","4","4","5","2","4","598944297026322432","刘豪","592","","","","","","","","","","","","","","","","","","","","","","","","","","","","","","","","","","","","","","","",""
"757","<p style=""color:rgb(150, 250, 100); font-size: 35px;"">他</p>","e","categorize-html","26","156884","0.0-6.0-0.0-2.0-1.8","4","3","3","3","3","4","3","1","3","4","5","4","2","5","4","4","4","4","5","5","4","4","4","4","4","3","4","5","4","1","0","1","0","0","1","1","0","1","1","0","0","0","0","0","5","4","5","1","2","4","4","5","2","4","598944297026322432","刘豪","592","","","","","","","","","","","","","","","","","","","true","1","1","ability","757","other","他","","","","","","","","","","","","","","",""
"null","","null","html-keyboard-response","27","157137","0.0-6.0-0.0-2.0-0.9","4","3","3","3","3","4","3","1","3","4","5","4","2","5","4","4","4","4","5","5","4","4","4","4","4","3","4","5","4","1","0","1","0","0","1","1","0","1","1","0","0","0","0","0","5","4","5","1","2","4","4","5","2","4","598944297026322432","刘豪","592","","","","","","","","","","","","","","","","","","","","","","","","","","","","","","","","","","","","","","","",""
"557","<p style=""color:rgb(150, 250, 100); font-size: 35px;"">我的</p>","i","categorize-html","28","157697","0.0-6.0-0.0-2.0-1.9","4","3","3","3","3","4","3","1","3","4","5","4","2","5","4","4","4","4","5","5","4","4","4","4","4","3","4","5","4","1","0","1","0","0","1","1","0","1","1","0","0","0","0","0","5","4","5","1","2","4","4","5","2","4","598944297026322432","刘豪","592","","","","","","","","","","","","","","","","","","","true","1","1","ability","557","self","我的","","","","","","","","","","","","","","",""
"null","","null","html-keyboard-response","29","157948","0.0-6.0-0.0-2.0-0.10","4","3","3","3","3","4","3","1","3","4","5","4","2","5","4","4","4","4","5","5","4","4","4","4","4","3","4","5","4","1","0","1","0","0","1","1","0","1","1","0","0","0","0","0","5","4","5","1","2","4","4","5","2","4","598944297026322432","刘豪","592","","","","","","","","","","","","","","","","","","","","","","","","","","","","","","","","","","","","","","","",""
"636","<p style=""color:rgb(150, 250, 100); font-size: 35px;"">我</p>","i","categorize-html","30","158586","0.0-6.0-0.0-2.0-1.10","4","3","3","3","3","4","3","1","3","4","5","4","2","5","4","4","4","4","5","5","4","4","4","4","4","3","4","5","4","1","0","1","0","0","1","1","0","1","1","0","0","0","0","0","5","4","5","1","2","4","4","5","2","4","598944297026322432","刘豪","592","","","","","","","","","","","","","","","","","","","true","1","1","ability","636","self","我","","","","","","","","","","","","","","",""
"null","","null","html-keyboard-response","31","158839","0.0-6.0-0.0-2.0-0.11","4","3","3","3","3","4","3","1","3","4","5","4","2","5","4","4","4","4","5","5","4","4","4","4","4","3","4","5","4","1","0","1","0","0","1","1","0","1","1","0","0","0","0","0","5","4","5","1","2","4","4","5","2","4","598944297026322432","刘豪","592","","","","","","","","","","","","","","","","","","","","","","","","","","","","","","","","","","","","","","","",""
"677","<p style=""color:rgb(150, 250, 100); font-size: 35px;"">别人的</p>","e","categorize-html","32","159521","0.0-6.0-0.0-2.0-1.11","4","3","3","3","3","4","3","1","3","4","5","4","2","5","4","4","4","4","5","5","4","4","4","4","4","3","4","5","4","1","0","1","0","0","1","1","0","1","1","0","0","0","0","0","5","4","5","1","2","4","4","5","2","4","598944297026322432","刘豪","592","","","","","","","","","","","","","","","","","","","true","1","1","ability","677","other","别人的","","","","","","","","","","","","","","",""
"7455","
    <div class=""tag-bottom""><p>
    —— 任务2：对“消极”词和“积极”词分类 ——<p/>   
    <span style=""color:#78DCE8""><b>注意上方，类别标签和需要分类的词语都已经改变</b></span><p/>
    <span style=""color:#FFD866""><b>请根据上方标签的提示，尽可能正确并且快速地做出按键反应</b></span><p/>
    当按键错误时屏幕中会出现<span style=""color:red""> X </span>，需要按另一个键纠正才能继续<br/><p/>
    请把双手食指分别放在键盘的“E”键和“I”键上<p/>
    按<空格键>开始
    </p></div>"," ","html-keyboard-response","33","166977","0.0-6.0-0.0-3.0","4","3","3","3","3","4","3","1","3","4","5","4","2","5","4","4","4","4","5","5","4","4","4","4","4","3","4","5","4","1","0","1","0","0","1","1","0","1","1","0","0","0","0","0","5","4","5","1","2","4","4","5","2","4","598944297026322432","刘豪","592","","","","","","","","","","","","","","","","","","","","","","","","","","","","","","","","","","","","","","","",""
"null","","null","html-keyboard-response","34","167229","0.0-6.0-0.0-4.0-0.0","4","3","3","3","3","4","3","1","3","4","5","4","2","5","4","4","4","4","5","5","4","4","4","4","4","3","4","5","4","1","0","1","0","0","1","1","0","1","1","0","0","0","0","0","5","4","5","1","2","4","4","5","2","4","598944297026322432","刘豪","592","","","","","","","","","","","","","","","","","","","","","","","","","","","","","","","","","","","","","","","",""
"3768","<p style=""color:white; font-size: 35px;"">能干</p>","i","categorize-html","35","171003","0.0-6.0-0.0-4.0-1.0","4","3","3","3","3","4","3","1","3","4","5","4","2","5","4","4","4","4","5","5","4","4","4","4","4","3","4","5","4","1","0","1","0","0","1","1","0","1","1","0","0","0","0","0","5","4","5","1","2","4","4","5","2","4","598944297026322432","刘豪","592","","","","","","","","","","","","","","","","","","","true","2","2","ability","3768","positive","能干","","","","","","","","","","","","","","",""
"null","","null","html-keyboard-response","36","171256","0.0-6.0-0.0-4.0-0.1","4","3","3","3","3","4","3","1","3","4","5","4","2","5","4","4","4","4","5","5","4","4","4","4","4","3","4","5","4","1","0","1","0","0","1","1","0","1","1","0","0","0","0","0","5","4","5","1","2","4","4","5","2","4","598944297026322432","刘豪","592","","","","","","","","","","","","","","","","","","","","","","","","","","","","","","","","","","","","","","","",""
"600","<p style=""color:white; font-size: 35px;"">全才</p>","i","categorize-html","37","171862","0.0-6.0-0.0-4.0-1.1","4","3","3","3","3","4","3","1","3","4","5","4","2","5","4","4","4","4","5","5","4","4","4","4","4","3","4","5","4","1","0","1","0","0","1","1","0","1","1","0","0","0","0","0","5","4","5","1","2","4","4","5","2","4","598944297026322432","刘豪","592","","","","","","","","","","","","","","","","","","","true","2","2","ability","600","positive","全才","","","","","","","","","","","","","","",""
"null","","null","html-keyboard-response","38","172115","0.0-6.0-0.0-4.0-0.2","4","3","3","3","3","4","3","1","3","4","5","4","2","5","4","4","4","4","5","5","4","4","4","4","4","3","4","5","4","1","0","1","0","0","1","1","0","1","1","0","0","0","0","0","5","4","5","1","2","4","4","5","2","4","598944297026322432","刘豪","592","","","","","","","","","","","","","","","","","","","","","","","","","","","","","","","","","","","","","","","",""
"497","<p style=""color:white; font-size: 35px;"">蠢笨</p>","e","categorize-html","39","172617","0.0-6.0-0.0-4.0-1.2","4","3","3","3","3","4","3","1","3","4","5","4","2","5","4","4","4","4","5","5","4","4","4","4","4","3","4","5","4","1","0","1","0","0","1","1","0","1","1","0","0","0","0","0","5","4","5","1","2","4","4","5","2","4","598944297026322432","刘豪","592","","","","","","","","","","","","","","","","","","","true","2","2","ability","497","negative","蠢笨","","","","","","","","","","","","","","",""
"null","","null","html-keyboard-response","40","172871","0.0-6.0-0.0-4.0-0.3","4","3","3","3","3","4","3","1","3","4","5","4","2","5","4","4","4","4","5","5","4","4","4","4","4","3","4","5","4","1","0","1","0","0","1","1","0","1","1","0","0","0","0","0","5","4","5","1","2","4","4","5","2","4","598944297026322432","刘豪","592","","","","","","","","","","","","","","","","","","","","","","","","","","","","","","","","","","","","","","","",""
"586","<p style=""color:white; font-size: 35px;"">废物</p>","e","categorize-html","41","173464","0.0-6.0-0.0-4.0-1.3","4","3","3","3","3","4","3","1","3","4","5","4","2","5","4","4","4","4","5","5","4","4","4","4","4","3","4","5","4","1","0","1","0","0","1","1","0","1","1","0","0","0","0","0","5","4","5","1","2","4","4","5","2","4","598944297026322432","刘豪","592","","","","","","","","","","","","","","","","","","","true","2","2","ability","586","negative","废物","","","","","","","","","","","","","","",""
"null","","null","html-keyboard-response","42","173719","0.0-6.0-0.0-4.0-0.4","4","3","3","3","3","4","3","1","3","4","5","4","2","5","4","4","4","4","5","5","4","4","4","4","4","3","4","5","4","1","0","1","0","0","1","1","0","1","1","0","0","0","0","0","5","4","5","1","2","4","4","5","2","4","598944297026322432","刘豪","592","","","","","","","","","","","","","","","","","","","","","","","","","","","","","","","","","","","","","","","",""
"736","<p style=""color:white; font-size: 35px;"">无能</p>","e","categorize-html","43","174462","0.0-6.0-0.0-4.0-1.4","4","3","3","3","3","4","3","1","3","4","5","4","2","5","4","4","4","4","5","5","4","4","4","4","4","3","4","5","4","1","0","1","0","0","1","1","0","1","1","0","0","0","0","0","5","4","5","1","2","4","4","5","2","4","598944297026322432","刘豪","592","","","","","","","","","","","","","","","","","","","true","2","2","ability","736","negative","无能","","","","","","","","","","","","","","",""
"null","","null","html-keyboard-response","44","174714","0.0-6.0-0.0-4.0-0.5","4","3","3","3","3","4","3","1","3","4","5","4","2","5","4","4","4","4","5","5","4","4","4","4","4","3","4","5","4","1","0","1","0","0","1","1","0","1","1","0","0","0","0","0","5","4","5","1","2","4","4","5","2","4","598944297026322432","刘豪","592","","","","","","","","","","","","","","","","","","","","","","","","","","","","","","","","","","","","","","","",""
"760","<p style=""color:white; font-size: 35px;"">高效</p>","i","categorize-html","45","175479","0.0-6.0-0.0-4.0-1.5","4","3","3","3","3","4","3","1","3","4","5","4","2","5","4","4","4","4","5","5","4","4","4","4","4","3","4","5","4","1","0","1","0","0","1","1","0","1","1","0","0","0","0","0","5","4","5","1","2","4","4","5","2","4","598944297026322432","刘豪","592","","","","","","","","","","","","","","","","","","","true","2","2","ability","760","positive","高效","","","","","","","","","","","","","","",""
"null","","null","html-keyboard-response","46","175750","0.0-6.0-0.0-4.0-0.6","4","3","3","3","3","4","3","1","3","4","5","4","2","5","4","4","4","4","5","5","4","4","4","4","4","3","4","5","4","1","0","1","0","0","1","1","0","1","1","0","0","0","0","0","5","4","5","1","2","4","4","5","2","4","598944297026322432","刘豪","592","","","","","","","","","","","","","","","","","","","","","","","","","","","","","","","","","","","","","","","",""
"790","<p style=""color:white; font-size: 35px;"">拙笨</p>","e","categorize-html","47","176548","0.0-6.0-0.0-4.0-1.6","4","3","3","3","3","4","3","1","3","4","5","4","2","5","4","4","4","4","5","5","4","4","4","4","4","3","4","5","4","1","0","1","0","0","1","1","0","1","1","0","0","0","0","0","5","4","5","1","2","4","4","5","2","4","598944297026322432","刘豪","592","","","","","","","","","","","","","","","","","","","true","2","2","ability","790","negative","拙笨","","","","","","","","","","","","","","",""
"null","","null","html-keyboard-response","48","176801","0.0-6.0-0.0-4.0-0.7","4","3","3","3","3","4","3","1","3","4","5","4","2","5","4","4","4","4","5","5","4","4","4","4","4","3","4","5","4","1","0","1","0","0","1","1","0","1","1","0","0","0","0","0","5","4","5","1","2","4","4","5","2","4","598944297026322432","刘豪","592","","","","","","","","","","","","","","","","","","","","","","","","","","","","","","","","","","","","","","","",""
"976","<p style=""color:white; font-size: 35px;"">天才</p>","i","categorize-html","49","177779","0.0-6.0-0.0-4.0-1.7","4","3","3","3","3","4","3","1","3","4","5","4","2","5","4","4","4","4","5","5","4","4","4","4","4","3","4","5","4","1","0","1","0","0","1","1","0","1","1","0","0","0","0","0","5","4","5","1","2","4","4","5","2","4","598944297026322432","刘豪","592","","","","","","","","","","","","","","","","","","","true","2","2","ability","976","positive","天才","","","","","","","","","","","","","","",""
"null","","null","html-keyboard-response","50","178030","0.0-6.0-0.0-4.0-0.8","4","3","3","3","3","4","3","1","3","4","5","4","2","5","4","4","4","4","5","5","4","4","4","4","4","3","4","5","4","1","0","1","0","0","1","1","0","1","1","0","0","0","0","0","5","4","5","1","2","4","4","5","2","4","598944297026322432","刘豪","592","","","","","","","","","","","","","","","","","","","","","","","","","","","","","","","","","","","","","","","",""
"640","<p style=""color:white; font-size: 35px;"">全能</p>","i","categorize-html","51","178672","0.0-6.0-0.0-4.0-1.8","4","3","3","3","3","4","3","1","3","4","5","4","2","5","4","4","4","4","5","5","4","4","4","4","4","3","4","5","4","1","0","1","0","0","1","1","0","1","1","0","0","0","0","0","5","4","5","1","2","4","4","5","2","4","598944297026322432","刘豪","592","","","","","","","","","","","","","","","","","","","true","2","2","ability","640","positive","全能","","","","","","","","","","","","","","",""
"null","","null","html-keyboard-response","52","178939","0.0-6.0-0.0-4.0-0.9","4","3","3","3","3","4","3","1","3","4","5","4","2","5","4","4","4","4","5","5","4","4","4","4","4","3","4","5","4","1","0","1","0","0","1","1","0","1","1","0","0","0","0","0","5","4","5","1","2","4","4","5","2","4","598944297026322432","刘豪","592","","","","","","","","","","","","","","","","","","","","","","","","","","","","","","","","","","","","","","","",""
"805","<p style=""color:white; font-size: 35px;"">精干</p>","i","categorize-html","53","179748","0.0-6.0-0.0-4.0-1.9","4","3","3","3","3","4","3","1","3","4","5","4","2","5","4","4","4","4","5","5","4","4","4","4","4","3","4","5","4","1","0","1","0","0","1","1","0","1","1","0","0","0","0","0","5","4","5","1","2","4","4","5","2","4","598944297026322432","刘豪","592","","","","","","","","","","","","","","","","","","","true","2","2","ability","805","positive","精干","","","","","","","","","","","","","","",""
"null","","null","html-keyboard-response","54","180000","0.0-6.0-0.0-4.0-0.10","4","3","3","3","3","4","3","1","3","4","5","4","2","5","4","4","4","4","5","5","4","4","4","4","4","3","4","5","4","1","0","1","0","0","1","1","0","1","1","0","0","0","0","0","5","4","5","1","2","4","4","5","2","4","598944297026322432","刘豪","592","","","","","","","","","","","","","","","","","","","","","","","","","","","","","","","","","","","","","","","",""
"493","<p style=""color:white; font-size: 35px;"">愚钝</p>","e","categorize-html","55","180496","0.0-6.0-0.0-4.0-1.10","4","3","3","3","3","4","3","1","3","4","5","4","2","5","4","4","4","4","5","5","4","4","4","4","4","3","4","5","4","1","0","1","0","0","1","1","0","1","1","0","0","0","0","0","5","4","5","1","2","4","4","5","2","4","598944297026322432","刘豪","592","","","","","","","","","","","","","","","","","","","true","2","2","ability","493","negative","愚钝","","","","","","","","","","","","","","",""
"null","","null","html-keyboard-response","56","180749","0.0-6.0-0.0-4.0-0.11","4","3","3","3","3","4","3","1","3","4","5","4","2","5","4","4","4","4","5","5","4","4","4","4","4","3","4","5","4","1","0","1","0","0","1","1","0","1","1","0","0","0","0","0","5","4","5","1","2","4","4","5","2","4","598944297026322432","刘豪","592","","","","","","","","","","","","","","","","","","","","","","","","","","","","","","","","","","","","","","","",""
"759","<p style=""color:white; font-size: 35px;"">低能</p>","e","categorize-html","57","181510","0.0-6.0-0.0-4.0-1.11","4","3","3","3","3","4","3","1","3","4","5","4","2","5","4","4","4","4","5","5","4","4","4","4","4","3","4","5","4","1","0","1","0","0","1","1","0","1","1","0","0","0","0","0","5","4","5","1","2","4","4","5","2","4","598944297026322432","刘豪","592","","","","","","","","","","","","","","","","","","","true","2","2","ability","759","negative","低能","","","","","","","","","","","","","","",""
"5851","
    <div class=""tag-bottom""><p>
    —— 任务3：对“他人/消极”词和“自我/积极”词分类 ——<p/>
    <span style=""color:#78DCE8""><b>注意上方，之前的四类词语将混合在一起交替呈现</b></span><p/>
    <span style=""color:#FFD866""><b>请根据上方标签的提示，尽可能正确并且快速地做出按键反应</b></span><p/>
    当按键错误时屏幕中会出现<span style=""color:red""> X </span>，需要按另一个键纠正才能继续<br/><p/>
    请把双手食指分别放在键盘的“E”键和“I”键上<p/>
    按<空格键>开始
    </p></div>"," ","html-keyboard-response","58","187362","0.0-6.0-0.0-5.0","4","3","3","3","3","4","3","1","3","4","5","4","2","5","4","4","4","4","5","5","4","4","4","4","4","3","4","5","4","1","0","1","0","0","1","1","0","1","1","0","0","0","0","0","5","4","5","1","2","4","4","5","2","4","598944297026322432","刘豪","592","","","","","","","","","","","","","","","","","","","","","","","","","","","","","","","","","","","","","","","",""
"null","","null","html-keyboard-response","59","187615","0.0-6.0-0.0-6.0-0.0","4","3","3","3","3","4","3","1","3","4","5","4","2","5","4","4","4","4","5","5","4","4","4","4","4","3","4","5","4","1","0","1","0","0","1","1","0","1","1","0","0","0","0","0","5","4","5","1","2","4","4","5","2","4","598944297026322432","刘豪","592","","","","","","","","","","","","","","","","","","","","","","","","","","","","","","","","","","","","","","","",""
"650","<p style=""color:rgb(150, 250, 100); font-size: 35px;"">本人</p>","i","categorize-html","60","188268","0.0-6.0-0.0-6.0-1.0","4","3","3","3","3","4","3","1","3","4","5","4","2","5","4","4","4","4","5","5","4","4","4","4","4","3","4","5","4","1","0","1","0","0","1","1","0","1","1","0","0","0","0","0","5","4","5","1","2","4","4","5","2","4","598944297026322432","刘豪","592","","","","","","","","","","","","","","","","","","","true","3","3","ability","650","self","本人","","","","","","","","","","","","","","",""
"null","","null","html-keyboard-response","61","188521","0.0-6.0-0.0-6.0-0.1","4","3","3","3","3","4","3","1","3","4","5","4","2","5","4","4","4","4","5","5","4","4","4","4","4","3","4","5","4","1","0","1","0","0","1","1","0","1","1","0","0","0","0","0","5","4","5","1","2","4","4","5","2","4","598944297026322432","刘豪","592","","","","","","","","","","","","","","","","","","","","","","","","","","","","","","","","","","","","","","","",""
"599","<p style=""color:white; font-size: 35px;"">无能</p>","e","categorize-html","62","189124","0.0-6.0-0.0-6.0-1.1","4","3","3","3","3","4","3","1","3","4","5","4","2","5","4","4","4","4","5","5","4","4","4","4","4","3","4","5","4","1","0","1","0","0","1","1","0","1","1","0","0","0","0","0","5","4","5","1","2","4","4","5","2","4","598944297026322432","刘豪","592","","","","","","","","","","","","","","","","","","","true","3","3","ability","599","negative","无能","","","","","","","","","","","","","","",""
"null","","null","html-keyboard-response","63","189376","0.0-6.0-0.0-6.0-0.2","4","3","3","3","3","4","3","1","3","4","5","4","2","5","4","4","4","4","5","5","4","4","4","4","4","3","4","5","4","1","0","1","0","0","1","1","0","1","1","0","0","0","0","0","5","4","5","1","2","4","4","5","2","4","598944297026322432","刘豪","592","","","","","","","","","","","","","","","","","","","","","","","","","","","","","","","","","","","","","","","",""
"666","<p style=""color:rgb(150, 250, 100); font-size: 35px;"">他人</p>","e","categorize-html","64","190045","0.0-6.0-0.0-6.0-1.2","4","3","3","3","3","4","3","1","3","4","5","4","2","5","4","4","4","4","5","5","4","4","4","4","4","3","4","5","4","1","0","1","0","0","1","1","0","1","1","0","0","0","0","0","5","4","5","1","2","4","4","5","2","4","598944297026322432","刘豪","592","","","","","","","","","","","","","","","","","","","true","3","3","ability","666","other","他人","","","","","","","","","","","","","","",""
"null","","null","html-keyboard-response","65","190296","0.0-6.0-0.0-6.0-0.3","4","3","3","3","3","4","3","1","3","4","5","4","2","5","4","4","4","4","5","5","4","4","4","4","4","3","4","5","4","1","0","1","0","0","1","1","0","1","1","0","0","0","0","0","5","4","5","1","2","4","4","5","2","4","598944297026322432","刘豪","592","","","","","","","","","","","","","","","","","","","","","","","","","","","","","","","","","","","","","","","",""
"604","<p style=""color:white; font-size: 35px;"">精干</p>","i","categorize-html","66","190904","0.0-6.0-0.0-6.0-1.3","4","3","3","3","3","4","3","1","3","4","5","4","2","5","4","4","4","4","5","5","4","4","4","4","4","3","4","5","4","1","0","1","0","0","1","1","0","1","1","0","0","0","0","0","5","4","5","1","2","4","4","5","2","4","598944297026322432","刘豪","592","","","","","","","","","","","","","","","","","","","true","3","3","ability","604","positive","精干","","","","","","","","","","","","","","",""
"null","","null","html-keyboard-response","67","191156","0.0-6.0-0.0-6.0-0.4","4","3","3","3","3","4","3","1","3","4","5","4","2","5","4","4","4","4","5","5","4","4","4","4","4","3","4","5","4","1","0","1","0","0","1","1","0","1","1","0","0","0","0","0","5","4","5","1","2","4","4","5","2","4","598944297026322432","刘豪","592","","","","","","","","","","","","","","","","","","","","","","","","","","","","","","","","","","","","","","","",""
"547","<p style=""color:rgb(150, 250, 100); font-size: 35px;"">自己的</p>","i","categorize-html","68","191707","0.0-6.0-0.0-6.0-1.4","4","3","3","3","3","4","3","1","3","4","5","4","2","5","4","4","4","4","5","5","4","4","4","4","4","3","4","5","4","1","0","1","0","0","1","1","0","1","1","0","0","0","0","0","5","4","5","1","2","4","4","5","2","4","598944297026322432","刘豪","592","","","","","","","","","","","","","","","","","","","true","3","3","ability","547","self","自己的","","","","","","","","","","","","","","",""
"null","","null","html-keyboard-response","69","191958","0.0-6.0-0.0-6.0-0.5","4","3","3","3","3","4","3","1","3","4","5","4","2","5","4","4","4","4","5","5","4","4","4","4","4","3","4","5","4","1","0","1","0","0","1","1","0","1","1","0","0","0","0","0","5","4","5","1","2","4","4","5","2","4","598944297026322432","刘豪","592","","","","","","","","","","","","","","","","","","","","","","","","","","","","","","","","","","","","","","","",""
"588","<p style=""color:white; font-size: 35px;"">能干</p>","i","categorize-html","70","192548","0.0-6.0-0.0-6.0-1.5","4","3","3","3","3","4","3","1","3","4","5","4","2","5","4","4","4","4","5","5","4","4","4","4","4","3","4","5","4","1","0","1","0","0","1","1","0","1","1","0","0","0","0","0","5","4","5","1","2","4","4","5","2","4","598944297026322432","刘豪","592","","","","","","","","","","","","","","","","","","","true","3","3","ability","588","positive","能干","","","","","","","","","","","","","","",""
"null","","null","html-keyboard-response","71","192801","0.0-6.0-0.0-6.0-0.6","4","3","3","3","3","4","3","1","3","4","5","4","2","5","4","4","4","4","5","5","4","4","4","4","4","3","4","5","4","1","0","1","0","0","1","1","0","1","1","0","0","0","0","0","5","4","5","1","2","4","4","5","2","4","598944297026322432","刘豪","592","","","","","","","","","","","","","","","","","","","","","","","","","","","","","","","","","","","","","","","",""
"653","<p style=""color:rgb(150, 250, 100); font-size: 35px;"">别人的</p>","e","categorize-html","72","193460","0.0-6.0-0.0-6.0-1.6","4","3","3","3","3","4","3","1","3","4","5","4","2","5","4","4","4","4","5","5","4","4","4","4","4","3","4","5","4","1","0","1","0","0","1","1","0","1","1","0","0","0","0","0","5","4","5","1","2","4","4","5","2","4","598944297026322432","刘豪","592","","","","","","","","","","","","","","","","","","","true","3","3","ability","653","other","别人的","","","","","","","","","","","","","","",""
"null","","null","html-keyboard-response","73","193714","0.0-6.0-0.0-6.0-0.7","4","3","3","3","3","4","3","1","3","4","5","4","2","5","4","4","4","4","5","5","4","4","4","4","4","3","4","5","4","1","0","1","0","0","1","1","0","1","1","0","0","0","0","0","5","4","5","1","2","4","4","5","2","4","598944297026322432","刘豪","592","","","","","","","","","","","","","","","","","","","","","","","","","","","","","","","","","","","","","","","",""
"651","<p style=""color:white; font-size: 35px;"">废物</p>","e","categorize-html","74","194373","0.0-6.0-0.0-6.0-1.7","4","3","3","3","3","4","3","1","3","4","5","4","2","5","4","4","4","4","5","5","4","4","4","4","4","3","4","5","4","1","0","1","0","0","1","1","0","1","1","0","0","0","0","0","5","4","5","1","2","4","4","5","2","4","598944297026322432","刘豪","592","","","","","","","","","","","","","","","","","","","true","3","3","ability","651","negative","废物","","","","","","","","","","","","","","",""
"null","","null","html-keyboard-response","75","194626","0.0-6.0-0.0-6.0-0.8","4","3","3","3","3","4","3","1","3","4","5","4","2","5","4","4","4","4","5","5","4","4","4","4","4","3","4","5","4","1","0","1","0","0","1","1","0","1","1","0","0","0","0","0","5","4","5","1","2","4","4","5","2","4","598944297026322432","刘豪","592","","","","","","","","","","","","","","","","","","","","","","","","","","","","","","","","","","","","","","","",""
"846","<p style=""color:rgb(150, 250, 100); font-size: 35px;"">他人的</p>","e","categorize-html","76","195475","0.0-6.0-0.0-6.0-1.8","4","3","3","3","3","4","3","1","3","4","5","4","2","5","4","4","4","4","5","5","4","4","4","4","4","3","4","5","4","1","0","1","0","0","1","1","0","1","1","0","0","0","0","0","5","4","5","1","2","4","4","5","2","4","598944297026322432","刘豪","592","","","","","","","","","","","","","","","","","","","true","3","3","ability","846","other","他人的","","","","","","","","","","","","","","",""
"null","","null","html-keyboard-response","77","195726","0.0-6.0-0.0-6.0-0.9","4","3","3","3","3","4","3","1","3","4","5","4","2","5","4","4","4","4","5","5","4","4","4","4","4","3","4","5","4","1","0","1","0","0","1","1","0","1","1","0","0","0","0","0","5","4","5","1","2","4","4","5","2","4","598944297026322432","刘豪","592","","","","","","","","","","","","","","","","","","","","","","","","","","","","","","","","","","","","","","","",""
"806","<p style=""color:white; font-size: 35px;"">蠢笨</p>","e","categorize-html","78","196537","0.0-6.0-0.0-6.0-1.9","4","3","3","3","3","4","3","1","3","4","5","4","2","5","4","4","4","4","5","5","4","4","4","4","4","3","4","5","4","1","0","1","0","0","1","1","0","1","1","0","0","0","0","0","5","4","5","1","2","4","4","5","2","4","598944297026322432","刘豪","592","","","","","","","","","","","","","","","","","","","true","3","3","ability","806","negative","蠢笨","","","","","","","","","","","","","","",""
"null","","null","html-keyboard-response","79","196789","0.0-6.0-0.0-6.0-0.10","4","3","3","3","3","4","3","1","3","4","5","4","2","5","4","4","4","4","5","5","4","4","4","4","4","3","4","5","4","1","0","1","0","0","1","1","0","1","1","0","0","0","0","0","5","4","5","1","2","4","4","5","2","4","598944297026322432","刘豪","592","","","","","","","","","","","","","","","","","","","","","","","","","","","","","","","","","","","","","","","",""
"620","<p style=""color:rgb(150, 250, 100); font-size: 35px;"">自己</p>","i","categorize-html","80","197415","0.0-6.0-0.0-6.0-1.10","4","3","3","3","3","4","3","1","3","4","5","4","2","5","4","4","4","4","5","5","4","4","4","4","4","3","4","5","4","1","0","1","0","0","1","1","0","1","1","0","0","0","0","0","5","4","5","1","2","4","4","5","2","4","598944297026322432","刘豪","592","","","","","","","","","","","","","","","","","","","true","3","3","ability","620","self","自己","","","","","","","","","","","","","","",""
"null","","null","html-keyboard-response","81","197667","0.0-6.0-0.0-6.0-0.11","4","3","3","3","3","4","3","1","3","4","5","4","2","5","4","4","4","4","5","5","4","4","4","4","4","3","4","5","4","1","0","1","0","0","1","1","0","1","1","0","0","0","0","0","5","4","5","1","2","4","4","5","2","4","598944297026322432","刘豪","592","","","","","","","","","","","","","","","","","","","","","","","","","","","","","","","","","","","","","","","",""
"959","<p style=""color:white; font-size: 35px;"">高效</p>","i","categorize-html","82","198632","0.0-6.0-0.0-6.0-1.11","4","3","3","3","3","4","3","1","3","4","5","4","2","5","4","4","4","4","5","5","4","4","4","4","4","3","4","5","4","1","0","1","0","0","1","1","0","1","1","0","0","0","0","0","5","4","5","1","2","4","4","5","2","4","598944297026322432","刘豪","592","","","","","","","","","","","","","","","","","","","true","3","3","ability","959","positive","高效","","","","","","","","","","","","","","",""
"null","","null","html-keyboard-response","83","198889","0.0-6.0-0.0-6.0-0.12","4","3","3","3","3","4","3","1","3","4","5","4","2","5","4","4","4","4","5","5","4","4","4","4","4","3","4","5","4","1","0","1","0","0","1","1","0","1","1","0","0","0","0","0","5","4","5","1","2","4","4","5","2","4","598944297026322432","刘豪","592","","","","","","","","","","","","","","","","","","","","","","","","","","","","","","","","","","","","","","","",""
"876","<p style=""color:rgb(150, 250, 100); font-size: 35px;"">他的</p>","e","categorize-html","84","199773","0.0-6.0-0.0-6.0-1.12","4","3","3","3","3","4","3","1","3","4","5","4","2","5","4","4","4","4","5","5","4","4","4","4","4","3","4","5","4","1","0","1","0","0","1","1","0","1","1","0","0","0","0","0","5","4","5","1","2","4","4","5","2","4","598944297026322432","刘豪","592","","","","","","","","","","","","","","","","","","","true","3","3","ability","876","other","他的","","","","","","","","","","","","","","",""
"null","","null","html-keyboard-response","85","200030","0.0-6.0-0.0-6.0-0.13","4","3","3","3","3","4","3","1","3","4","5","4","2","5","4","4","4","4","5","5","4","4","4","4","4","3","4","5","4","1","0","1","0","0","1","1","0","1","1","0","0","0","0","0","5","4","5","1","2","4","4","5","2","4","598944297026322432","刘豪","592","","","","","","","","","","","","","","","","","","","","","","","","","","","","","","","","","","","","","","","",""
"822","<p style=""color:white; font-size: 35px;"">低能</p>","e","categorize-html","86","200855","0.0-6.0-0.0-6.0-1.13","4","3","3","3","3","4","3","1","3","4","5","4","2","5","4","4","4","4","5","5","4","4","4","4","4","3","4","5","4","1","0","1","0","0","1","1","0","1","1","0","0","0","0","0","5","4","5","1","2","4","4","5","2","4","598944297026322432","刘豪","592","","","","","","","","","","","","","","","","","","","true","3","3","ability","822","negative","低能","","","","","","","","","","","","","","",""
"null","","null","html-keyboard-response","87","201118","0.0-6.0-0.0-6.0-0.14","4","3","3","3","3","4","3","1","3","4","5","4","2","5","4","4","4","4","5","5","4","4","4","4","4","3","4","5","4","1","0","1","0","0","1","1","0","1","1","0","0","0","0","0","5","4","5","1","2","4","4","5","2","4","598944297026322432","刘豪","592","","","","","","","","","","","","","","","","","","","","","","","","","","","","","","","","","","","","","","","",""
"668","<p style=""color:rgb(150, 250, 100); font-size: 35px;"">本人的</p>","i","categorize-html","88","201788","0.0-6.0-0.0-6.0-1.14","4","3","3","3","3","4","3","1","3","4","5","4","2","5","4","4","4","4","5","5","4","4","4","4","4","3","4","5","4","1","0","1","0","0","1","1","0","1","1","0","0","0","0","0","5","4","5","1","2","4","4","5","2","4","598944297026322432","刘豪","592","","","","","","","","","","","","","","","","","","","true","3","3","ability","668","self","本人的","","","","","","","","","","","","","","",""
"null","","null","html-keyboard-response","89","202041","0.0-6.0-0.0-6.0-0.15","4","3","3","3","3","4","3","1","3","4","5","4","2","5","4","4","4","4","5","5","4","4","4","4","4","3","4","5","4","1","0","1","0","0","1","1","0","1","1","0","0","0","0","0","5","4","5","1","2","4","4","5","2","4","598944297026322432","刘豪","592","","","","","","","","","","","","","","","","","","","","","","","","","","","","","","","","","","","","","","","",""
"1013","<p style=""color:white; font-size: 35px;"">全才</p>","i","categorize-html","90","203058","0.0-6.0-0.0-6.0-1.15","4","3","3","3","3","4","3","1","3","4","5","4","2","5","4","4","4","4","5","5","4","4","4","4","4","3","4","5","4","1","0","1","0","0","1","1","0","1","1","0","0","0","0","0","5","4","5","1","2","4","4","5","2","4","598944297026322432","刘豪","592","","","","","","","","","","","","","","","","","","","true","3","3","ability","1013","positive","全才","","","","","","","","","","","","","","",""
"null","","null","html-keyboard-response","91","203310","0.0-6.0-0.0-6.0-0.16","4","3","3","3","3","4","3","1","3","4","5","4","2","5","4","4","4","4","5","5","4","4","4","4","4","3","4","5","4","1","0","1","0","0","1","1","0","1","1","0","0","0","0","0","5","4","5","1","2","4","4","5","2","4","598944297026322432","刘豪","592","","","","","","","","","","","","","","","","","","","","","","","","","","","","","","","","","","","","","","","",""
"1014","<p style=""color:rgb(150, 250, 100); font-size: 35px;"">我</p>","i","categorize-html","92","204328","0.0-6.0-0.0-6.0-1.16","4","3","3","3","3","4","3","1","3","4","5","4","2","5","4","4","4","4","5","5","4","4","4","4","4","3","4","5","4","1","0","1","0","0","1","1","0","1","1","0","0","0","0","0","5","4","5","1","2","4","4","5","2","4","598944297026322432","刘豪","592","","","","","","","","","","","","","","","","","","","true","3","3","ability","1014","self","我","","","","","","","","","","","","","","",""
"null","","null","html-keyboard-response","93","204580","0.0-6.0-0.0-6.0-0.17","4","3","3","3","3","4","3","1","3","4","5","4","2","5","4","4","4","4","5","5","4","4","4","4","4","3","4","5","4","1","0","1","0","0","1","1","0","1","1","0","0","0","0","0","5","4","5","1","2","4","4","5","2","4","598944297026322432","刘豪","592","","","","","","","","","","","","","","","","","","","","","","","","","","","","","","","","","","","","","","","",""
"542","<p style=""color:white; font-size: 35px;"">愚钝</p>","e","categorize-html","94","205125","0.0-6.0-0.0-6.0-1.17","4","3","3","3","3","4","3","1","3","4","5","4","2","5","4","4","4","4","5","5","4","4","4","4","4","3","4","5","4","1","0","1","0","0","1","1","0","1","1","0","0","0","0","0","5","4","5","1","2","4","4","5","2","4","598944297026322432","刘豪","592","","","","","","","","","","","","","","","","","","","true","3","3","ability","542","negative","愚钝","","","","","","","","","","","","","","",""
"null","","null","html-keyboard-response","95","205378","0.0-6.0-0.0-6.0-0.18","4","3","3","3","3","4","3","1","3","4","5","4","2","5","4","4","4","4","5","5","4","4","4","4","4","3","4","5","4","1","0","1","0","0","1","1","0","1","1","0","0","0","0","0","5","4","5","1","2","4","4","5","2","4","598944297026322432","刘豪","592","","","","","","","","","","","","","","","","","","","","","","","","","","","","","","","","","","","","","","","",""
"585","<p style=""color:rgb(150, 250, 100); font-size: 35px;"">他</p>","e","categorize-html","96","205968","0.0-6.0-0.0-6.0-1.18","4","3","3","3","3","4","3","1","3","4","5","4","2","5","4","4","4","4","5","5","4","4","4","4","4","3","4","5","4","1","0","1","0","0","1","1","0","1","1","0","0","0","0","0","5","4","5","1","2","4","4","5","2","4","598944297026322432","刘豪","592","","","","","","","","","","","","","","","","","","","true","3","3","ability","585","other","他","","","","","","","","","","","","","","",""
"null","","null","html-keyboard-response","97","206221","0.0-6.0-0.0-6.0-0.19","4","3","3","3","3","4","3","1","3","4","5","4","2","5","4","4","4","4","5","5","4","4","4","4","4","3","4","5","4","1","0","1","0","0","1","1","0","1","1","0","0","0","0","0","5","4","5","1","2","4","4","5","2","4","598944297026322432","刘豪","592","","","","","","","","","","","","","","","","","","","","","","","","","","","","","","","","","","","","","","","",""
"902","<p style=""color:white; font-size: 35px;"">天才</p>","i","categorize-html","98","207127","0.0-6.0-0.0-6.0-1.19","4","3","3","3","3","4","3","1","3","4","5","4","2","5","4","4","4","4","5","5","4","4","4","4","4","3","4","5","4","1","0","1","0","0","1","1","0","1","1","0","0","0","0","0","5","4","5","1","2","4","4","5","2","4","598944297026322432","刘豪","592","","","","","","","","","","","","","","","","","","","true","3","3","ability","902","positive","天才","","","","","","","","","","","","","","",""
"null","","null","html-keyboard-response","99","207378","0.0-6.0-0.0-6.0-0.20","4","3","3","3","3","4","3","1","3","4","5","4","2","5","4","4","4","4","5","5","4","4","4","4","4","3","4","5","4","1","0","1","0","0","1","1","0","1","1","0","0","0","0","0","5","4","5","1","2","4","4","5","2","4","598944297026322432","刘豪","592","","","","","","","","","","","","","","","","","","","","","","","","","","","","","","","","","","","","","","","",""
"636","<p style=""color:rgb(150, 250, 100); font-size: 35px;"">别人</p>","e","categorize-html","100","208021","0.0-6.0-0.0-6.0-1.20","4","3","3","3","3","4","3","1","3","4","5","4","2","5","4","4","4","4","5","5","4","4","4","4","4","3","4","5","4","1","0","1","0","0","1","1","0","1","1","0","0","0","0","0","5","4","5","1","2","4","4","5","2","4","598944297026322432","刘豪","592","","","","","","","","","","","","","","","","","","","true","3","3","ability","636","other","别人","","","","","","","","","","","","","","",""
"null","","null","html-keyboard-response","101","208274","0.0-6.0-0.0-6.0-0.21","4","3","3","3","3","4","3","1","3","4","5","4","2","5","4","4","4","4","5","5","4","4","4","4","4","3","4","5","4","1","0","1","0","0","1","1","0","1","1","0","0","0","0","0","5","4","5","1","2","4","4","5","2","4","598944297026322432","刘豪","592","","","","","","","","","","","","","","","","","","","","","","","","","","","","","","","","","","","","","","","",""
"628","<p style=""color:white; font-size: 35px;"">全能</p>","i","categorize-html","102","208910","0.0-6.0-0.0-6.0-1.21","4","3","3","3","3","4","3","1","3","4","5","4","2","5","4","4","4","4","5","5","4","4","4","4","4","3","4","5","4","1","0","1","0","0","1","1","0","1","1","0","0","0","0","0","5","4","5","1","2","4","4","5","2","4","598944297026322432","刘豪","592","","","","","","","","","","","","","","","","","","","true","3","3","ability","628","positive","全能","","","","","","","","","","","","","","",""
"null","","null","html-keyboard-response","103","209165","0.0-6.0-0.0-6.0-0.22","4","3","3","3","3","4","3","1","3","4","5","4","2","5","4","4","4","4","5","5","4","4","4","4","4","3","4","5","4","1","0","1","0","0","1","1","0","1","1","0","0","0","0","0","5","4","5","1","2","4","4","5","2","4","598944297026322432","刘豪","592","","","","","","","","","","","","","","","","","","","","","","","","","","","","","","","","","","","","","","","",""
"978","<p style=""color:rgb(150, 250, 100); font-size: 35px;"">我的</p>","i","categorize-html","104","210150","0.0-6.0-0.0-6.0-1.22","4","3","3","3","3","4","3","1","3","4","5","4","2","5","4","4","4","4","5","5","4","4","4","4","4","3","4","5","4","1","0","1","0","0","1","1","0","1","1","0","0","0","0","0","5","4","5","1","2","4","4","5","2","4","598944297026322432","刘豪","592","","","","","","","","","","","","","","","","","","","true","3","3","ability","978","self","我的","","","","","","","","","","","","","","",""
"null","","null","html-keyboard-response","105","210405","0.0-6.0-0.0-6.0-0.23","4","3","3","3","3","4","3","1","3","4","5","4","2","5","4","4","4","4","5","5","4","4","4","4","4","3","4","5","4","1","0","1","0","0","1","1","0","1","1","0","0","0","0","0","5","4","5","1","2","4","4","5","2","4","598944297026322432","刘豪","592","","","","","","","","","","","","","","","","","","","","","","","","","","","","","","","","","","","","","","","",""
"813","<p style=""color:white; font-size: 35px;"">拙笨</p>","e","categorize-html","106","211225","0.0-6.0-0.0-6.0-1.23","4","3","3","3","3","4","3","1","3","4","5","4","2","5","4","4","4","4","5","5","4","4","4","4","4","3","4","5","4","1","0","1","0","0","1","1","0","1","1","0","0","0","0","0","5","4","5","1","2","4","4","5","2","4","598944297026322432","刘豪","592","","","","","","","","","","","","","","","","","","","true","3","3","ability","813","negative","拙笨","","","","","","","","","","","","","","",""
"3310","
    <div class=""tag-bottom""><p>
    —— 任务4：对“他人/消极”词和“自我/积极”词分类 ——<p/>
    <span style=""color:#78DCE8""><b>与刚才的任务完全相同，请再次对这四类词语分类</b></span><p/>
    <span style=""color:#FFD866""><b>请根据上方标签的提示，尽可能正确并且快速地做出按键反应</b></span><p/>
    当按键错误时屏幕中会出现<span style=""color:red""> X </span>，需要按另一个键纠正才能继续<br/><p/>
    请把双手食指分别放在键盘的“E”键和“I”键上<p/>
    按<空格键>开始
    </p></div>"," ","html-keyboard-response","107","214538","0.0-6.0-0.0-7.0","4","3","3","3","3","4","3","1","3","4","5","4","2","5","4","4","4","4","5","5","4","4","4","4","4","3","4","5","4","1","0","1","0","0","1","1","0","1","1","0","0","0","0","0","5","4","5","1","2","4","4","5","2","4","598944297026322432","刘豪","592","","","","","","","","","","","","","","","","","","","","","","","","","","","","","","","","","","","","","","","",""
"null","","null","html-keyboard-response","108","214791","0.0-6.0-0.0-8.0-0.0","4","3","3","3","3","4","3","1","3","4","5","4","2","5","4","4","4","4","5","5","4","4","4","4","4","3","4","5","4","1","0","1","0","0","1","1","0","1","1","0","0","0","0","0","5","4","5","1","2","4","4","5","2","4","598944297026322432","刘豪","592","","","","","","","","","","","","","","","","","","","","","","","","","","","","","","","","","","","","","","","",""
"943","<p style=""color:rgb(150, 250, 100); font-size: 35px;"">别人</p>","e","categorize-html","109","215743","0.0-6.0-0.0-8.0-1.0","4","3","3","3","3","4","3","1","3","4","5","4","2","5","4","4","4","4","5","5","4","4","4","4","4","3","4","5","4","1","0","1","0","0","1","1","0","1","1","0","0","0","0","0","5","4","5","1","2","4","4","5","2","4","598944297026322432","刘豪","592","","","","","","","","","","","","","","","","","","","true","4","4","ability","943","other","别人","","","","","","","","","","","","","","",""
"null","","null","html-keyboard-response","110","215998","0.0-6.0-0.0-8.0-0.1","4","3","3","3","3","4","3","1","3","4","5","4","2","5","4","4","4","4","5","5","4","4","4","4","4","3","4","5","4","1","0","1","0","0","1","1","0","1","1","0","0","0","0","0","5","4","5","1","2","4","4","5","2","4","598944297026322432","刘豪","592","","","","","","","","","","","","","","","","","","","","","","","","","","","","","","","","","","","","","","","",""
"567","<p style=""color:white; font-size: 35px;"">高效</p>","i","categorize-html","111","216571","0.0-6.0-0.0-8.0-1.1","4","3","3","3","3","4","3","1","3","4","5","4","2","5","4","4","4","4","5","5","4","4","4","4","4","3","4","5","4","1","0","1","0","0","1","1","0","1","1","0","0","0","0","0","5","4","5","1","2","4","4","5","2","4","598944297026322432","刘豪","592","","","","","","","","","","","","","","","","","","","true","4","4","ability","567","positive","高效","","","","","","","","","","","","","","",""
"null","","null","html-keyboard-response","112","216833","0.0-6.0-0.0-8.0-0.2","4","3","3","3","3","4","3","1","3","4","5","4","2","5","4","4","4","4","5","5","4","4","4","4","4","3","4","5","4","1","0","1","0","0","1","1","0","1","1","0","0","0","0","0","5","4","5","1","2","4","4","5","2","4","598944297026322432","刘豪","592","","","","","","","","","","","","","","","","","","","","","","","","","","","","","","","","","","","","","","","",""
"505","<p style=""color:rgb(150, 250, 100); font-size: 35px;"">我的</p>","i","categorize-html","113","217344","0.0-6.0-0.0-8.0-1.2","4","3","3","3","3","4","3","1","3","4","5","4","2","5","4","4","4","4","5","5","4","4","4","4","4","3","4","5","4","1","0","1","0","0","1","1","0","1","1","0","0","0","0","0","5","4","5","1","2","4","4","5","2","4","598944297026322432","刘豪","592","","","","","","","","","","","","","","","","","","","true","4","4","ability","505","self","我的","","","","","","","","","","","","","","",""
"null","","null","html-keyboard-response","114","217597","0.0-6.0-0.0-8.0-0.3","4","3","3","3","3","4","3","1","3","4","5","4","2","5","4","4","4","4","5","5","4","4","4","4","4","3","4","5","4","1","0","1","0","0","1","1","0","1","1","0","0","0","0","0","5","4","5","1","2","4","4","5","2","4","598944297026322432","刘豪","592","","","","","","","","","","","","","","","","","","","","","","","","","","","","","","","","","","","","","","","",""
"539","<p style=""color:white; font-size: 35px;"">废物</p>","e","categorize-html","115","218141","0.0-6.0-0.0-8.0-1.3","4","3","3","3","3","4","3","1","3","4","5","4","2","5","4","4","4","4","5","5","4","4","4","4","4","3","4","5","4","1","0","1","0","0","1","1","0","1","1","0","0","0","0","0","5","4","5","1","2","4","4","5","2","4","598944297026322432","刘豪","592","","","","","","","","","","","","","","","","","","","true","4","4","ability","539","negative","废物","","","","","","","","","","","","","","",""
"null","","null","html-keyboard-response","116","218396","0.0-6.0-0.0-8.0-0.4","4","3","3","3","3","4","3","1","3","4","5","4","2","5","4","4","4","4","5","5","4","4","4","4","4","3","4","5","4","1","0","1","0","0","1","1","0","1","1","0","0","0","0","0","5","4","5","1","2","4","4","5","2","4","598944297026322432","刘豪","592","","","","","","","","","","","","","","","","","","","","","","","","","","","","","","","","","","","","","","","",""
"505","<p style=""color:rgb(150, 250, 100); font-size: 35px;"">本人</p>","i","categorize-html","117","218910","0.0-6.0-0.0-8.0-1.4","4","3","3","3","3","4","3","1","3","4","5","4","2","5","4","4","4","4","5","5","4","4","4","4","4","3","4","5","4","1","0","1","0","0","1","1","0","1","1","0","0","0","0","0","5","4","5","1","2","4","4","5","2","4","598944297026322432","刘豪","592","","","","","","","","","","","","","","","","","","","true","4","4","ability","505","self","本人","","","","","","","","","","","","","","",""
"null","","null","html-keyboard-response","118","219162","0.0-6.0-0.0-8.0-0.5","4","3","3","3","3","4","3","1","3","4","5","4","2","5","4","4","4","4","5","5","4","4","4","4","4","3","4","5","4","1","0","1","0","0","1","1","0","1","1","0","0","0","0","0","5","4","5","1","2","4","4","5","2","4","598944297026322432","刘豪","592","","","","","","","","","","","","","","","","","","","","","","","","","","","","","","","","","","","","","","","",""
"597","<p style=""color:white; font-size: 35px;"">无能</p>","e","categorize-html","119","219766","0.0-6.0-0.0-8.0-1.5","4","3","3","3","3","4","3","1","3","4","5","4","2","5","4","4","4","4","5","5","4","4","4","4","4","3","4","5","4","1","0","1","0","0","1","1","0","1","1","0","0","0","0","0","5","4","5","1","2","4","4","5","2","4","598944297026322432","刘豪","592","","","","","","","","","","","","","","","","","","","true","4","4","ability","597","negative","无能","","","","","","","","","","","","","","",""
"null","","null","html-keyboard-response","120","220019","0.0-6.0-0.0-8.0-0.6","4","3","3","3","3","4","3","1","3","4","5","4","2","5","4","4","4","4","5","5","4","4","4","4","4","3","4","5","4","1","0","1","0","0","1","1","0","1","1","0","0","0","0","0","5","4","5","1","2","4","4","5","2","4","598944297026322432","刘豪","592","","","","","","","","","","","","","","","","","","","","","","","","","","","","","","","","","","","","","","","",""
"639","<p style=""color:rgb(150, 250, 100); font-size: 35px;"">他人</p>","e","categorize-html","121","220664","0.0-6.0-0.0-8.0-1.6","4","3","3","3","3","4","3","1","3","4","5","4","2","5","4","4","4","4","5","5","4","4","4","4","4","3","4","5","4","1","0","1","0","0","1","1","0","1","1","0","0","0","0","0","5","4","5","1","2","4","4","5","2","4","598944297026322432","刘豪","592","","","","","","","","","","","","","","","","","","","true","4","4","ability","639","other","他人","","","","","","","","","","","","","","",""
"null","","null","html-keyboard-response","122","220919","0.0-6.0-0.0-8.0-0.7","4","3","3","3","3","4","3","1","3","4","5","4","2","5","4","4","4","4","5","5","4","4","4","4","4","3","4","5","4","1","0","1","0","0","1","1","0","1","1","0","0","0","0","0","5","4","5","1","2","4","4","5","2","4","598944297026322432","刘豪","592","","","","","","","","","","","","","","","","","","","","","","","","","","","","","","","","","","","","","","","",""
"702","<p style=""color:white; font-size: 35px;"">天才</p>","i","categorize-html","123","221629","0.0-6.0-0.0-8.0-1.7","4","3","3","3","3","4","3","1","3","4","5","4","2","5","4","4","4","4","5","5","4","4","4","4","4","3","4","5","4","1","0","1","0","0","1","1","0","1","1","0","0","0","0","0","5","4","5","1","2","4","4","5","2","4","598944297026322432","刘豪","592","","","","","","","","","","","","","","","","","","","true","4","4","ability","702","positive","天才","","","","","","","","","","","","","","",""
"null","","null","html-keyboard-response","124","221882","0.0-6.0-0.0-8.0-0.8","4","3","3","3","3","4","3","1","3","4","5","4","2","5","4","4","4","4","5","5","4","4","4","4","4","3","4","5","4","1","0","1","0","0","1","1","0","1","1","0","0","0","0","0","5","4","5","1","2","4","4","5","2","4","598944297026322432","刘豪","592","","","","","","","","","","","","","","","","","","","","","","","","","","","","","","","","","","","","","","","",""
"594","<p style=""color:rgb(150, 250, 100); font-size: 35px;"">本人的</p>","i","categorize-html","125","222484","0.0-6.0-0.0-8.0-1.8","4","3","3","3","3","4","3","1","3","4","5","4","2","5","4","4","4","4","5","5","4","4","4","4","4","3","4","5","4","1","0","1","0","0","1","1","0","1","1","0","0","0","0","0","5","4","5","1","2","4","4","5","2","4","598944297026322432","刘豪","592","","","","","","","","","","","","","","","","","","","true","4","4","ability","594","self","本人的","","","","","","","","","","","","","","",""
"null","","null","html-keyboard-response","126","222738","0.0-6.0-0.0-8.0-0.9","4","3","3","3","3","4","3","1","3","4","5","4","2","5","4","4","4","4","5","5","4","4","4","4","4","3","4","5","4","1","0","1","0","0","1","1","0","1","1","0","0","0","0","0","5","4","5","1","2","4","4","5","2","4","598944297026322432","刘豪","592","","","","","","","","","","","","","","","","","","","","","","","","","","","","","","","","","","","","","","","",""
"594","<p style=""color:white; font-size: 35px;"">低能</p>","e","categorize-html","127","223339","0.0-6.0-0.0-8.0-1.9","4","3","3","3","3","4","3","1","3","4","5","4","2","5","4","4","4","4","5","5","4","4","4","4","4","3","4","5","4","1","0","1","0","0","1","1","0","1","1","0","0","0","0","0","5","4","5","1","2","4","4","5","2","4","598944297026322432","刘豪","592","","","","","","","","","","","","","","","","","","","true","4","4","ability","594","negative","低能","","","","","","","","","","","","","","",""
"null","","null","html-keyboard-response","128","223592","0.0-6.0-0.0-8.0-0.10","4","3","3","3","3","4","3","1","3","4","5","4","2","5","4","4","4","4","5","5","4","4","4","4","4","3","4","5","4","1","0","1","0","0","1","1","0","1","1","0","0","0","0","0","5","4","5","1","2","4","4","5","2","4","598944297026322432","刘豪","592","","","","","","","","","","","","","","","","","","","","","","","","","","","","","","","","","","","","","","","",""
"796","<p style=""color:rgb(150, 250, 100); font-size: 35px;"">他</p>","e","categorize-html","129","224399","0.0-6.0-0.0-8.0-1.10","4","3","3","3","3","4","3","1","3","4","5","4","2","5","4","4","4","4","5","5","4","4","4","4","4","3","4","5","4","1","0","1","0","0","1","1","0","1","1","0","0","0","0","0","5","4","5","1","2","4","4","5","2","4","598944297026322432","刘豪","592","","","","","","","","","","","","","","","","","","","true","4","4","ability","796","other","他","","","","","","","","","","","","","","",""
"null","","null","html-keyboard-response","130","224653","0.0-6.0-0.0-8.0-0.11","4","3","3","3","3","4","3","1","3","4","5","4","2","5","4","4","4","4","5","5","4","4","4","4","4","3","4","5","4","1","0","1","0","0","1","1","0","1","1","0","0","0","0","0","5","4","5","1","2","4","4","5","2","4","598944297026322432","刘豪","592","","","","","","","","","","","","","","","","","","","","","","","","","","","","","","","","","","","","","","","",""
"680","<p style=""color:white; font-size: 35px;"">天才</p>","i","categorize-html","131","225338","0.0-6.0-0.0-8.0-1.11","4","3","3","3","3","4","3","1","3","4","5","4","2","5","4","4","4","4","5","5","4","4","4","4","4","3","4","5","4","1","0","1","0","0","1","1","0","1","1","0","0","0","0","0","5","4","5","1","2","4","4","5","2","4","598944297026322432","刘豪","592","","","","","","","","","","","","","","","","","","","true","4","4","ability","680","positive","天才","","","","","","","","","","","","","","",""
"null","","null","html-keyboard-response","132","225595","0.0-6.0-0.0-8.0-0.12","4","3","3","3","3","4","3","1","3","4","5","4","2","5","4","4","4","4","5","5","4","4","4","4","4","3","4","5","4","1","0","1","0","0","1","1","0","1","1","0","0","0","0","0","5","4","5","1","2","4","4","5","2","4","598944297026322432","刘豪","592","","","","","","","","","","","","","","","","","","","","","","","","","","","","","","","","","","","","","","","",""
"575","<p style=""color:rgb(150, 250, 100); font-size: 35px;"">别人</p>","e","categorize-html","133","226177","0.0-6.0-0.0-8.0-1.12","4","3","3","3","3","4","3","1","3","4","5","4","2","5","4","4","4","4","5","5","4","4","4","4","4","3","4","5","4","1","0","1","0","0","1","1","0","1","1","0","0","0","0","0","5","4","5","1","2","4","4","5","2","4","598944297026322432","刘豪","592","","","","","","","","","","","","","","","","","","","true","4","4","ability","575","other","别人","","","","","","","","","","","","","","",""
"null","","null","html-keyboard-response","134","226431","0.0-6.0-0.0-8.0-0.13","4","3","3","3","3","4","3","1","3","4","5","4","2","5","4","4","4","4","5","5","4","4","4","4","4","3","4","5","4","1","0","1","0","0","1","1","0","1","1","0","0","0","0","0","5","4","5","1","2","4","4","5","2","4","598944297026322432","刘豪","592","","","","","","","","","","","","","","","","","","","","","","","","","","","","","","","","","","","","","","","",""
"660","<p style=""color:white; font-size: 35px;"">拙笨</p>","e","categorize-html","135","227102","0.0-6.0-0.0-8.0-1.13","4","3","3","3","3","4","3","1","3","4","5","4","2","5","4","4","4","4","5","5","4","4","4","4","4","3","4","5","4","1","0","1","0","0","1","1","0","1","1","0","0","0","0","0","5","4","5","1","2","4","4","5","2","4","598944297026322432","刘豪","592","","","","","","","","","","","","","","","","","","","true","4","4","ability","660","negative","拙笨","","","","","","","","","","","","","","",""
"null","","null","html-keyboard-response","136","227364","0.0-6.0-0.0-8.0-0.14","4","3","3","3","3","4","3","1","3","4","5","4","2","5","4","4","4","4","5","5","4","4","4","4","4","3","4","5","4","1","0","1","0","0","1","1","0","1","1","0","0","0","0","0","5","4","5","1","2","4","4","5","2","4","598944297026322432","刘豪","592","","","","","","","","","","","","","","","","","","","","","","","","","","","","","","","","","","","","","","","",""
"535","<p style=""color:rgb(150, 250, 100); font-size: 35px;"">自己的</p>","i","categorize-html","137","227905","0.0-6.0-0.0-8.0-1.14","4","3","3","3","3","4","3","1","3","4","5","4","2","5","4","4","4","4","5","5","4","4","4","4","4","3","4","5","4","1","0","1","0","0","1","1","0","1","1","0","0","0","0","0","5","4","5","1","2","4","4","5","2","4","598944297026322432","刘豪","592","","","","","","","","","","","","","","","","","","","true","4","4","ability","535","self","自己的","","","","","","","","","","","","","","",""
"null","","null","html-keyboard-response","138","228157","0.0-6.0-0.0-8.0-0.15","4","3","3","3","3","4","3","1","3","4","5","4","2","5","4","4","4","4","5","5","4","4","4","4","4","3","4","5","4","1","0","1","0","0","1","1","0","1","1","0","0","0","0","0","5","4","5","1","2","4","4","5","2","4","598944297026322432","刘豪","592","","","","","","","","","","","","","","","","","","","","","","","","","","","","","","","","","","","","","","","",""
"790","<p style=""color:white; font-size: 35px;"">精干</p>","i","categorize-html","139","228957","0.0-6.0-0.0-8.0-1.15","4","3","3","3","3","4","3","1","3","4","5","4","2","5","4","4","4","4","5","5","4","4","4","4","4","3","4","5","4","1","0","1","0","0","1","1","0","1","1","0","0","0","0","0","5","4","5","1","2","4","4","5","2","4","598944297026322432","刘豪","592","","","","","","","","","","","","","","","","","","","true","4","4","ability","790","positive","精干","","","","","","","","","","","","","","",""
"null","","null","html-keyboard-response","140","229210","0.0-6.0-0.0-8.0-0.16","4","3","3","3","3","4","3","1","3","4","5","4","2","5","4","4","4","4","5","5","4","4","4","4","4","3","4","5","4","1","0","1","0","0","1","1","0","1","1","0","0","0","0","0","5","4","5","1","2","4","4","5","2","4","598944297026322432","刘豪","592","","","","","","","","","","","","","","","","","","","","","","","","","","","","","","","","","","","","","","","",""
"570","<p style=""color:rgb(150, 250, 100); font-size: 35px;"">自己的</p>","i","categorize-html","141","229787","0.0-6.0-0.0-8.0-1.16","4","3","3","3","3","4","3","1","3","4","5","4","2","5","4","4","4","4","5","5","4","4","4","4","4","3","4","5","4","1","0","1","0","0","1","1","0","1","1","0","0","0","0","0","5","4","5","1","2","4","4","5","2","4","598944297026322432","刘豪","592","","","","","","","","","","","","","","","","","","","true","4","4","ability","570","self","自己的","","","","","","","","","","","","","","",""
"null","","null","html-keyboard-response","142","230040","0.0-6.0-0.0-8.0-0.17","4","3","3","3","3","4","3","1","3","4","5","4","2","5","4","4","4","4","5","5","4","4","4","4","4","3","4","5","4","1","0","1","0","0","1","1","0","1","1","0","0","0","0","0","5","4","5","1","2","4","4","5","2","4","598944297026322432","刘豪","592","","","","","","","","","","","","","","","","","","","","","","","","","","","","","","","","","","","","","","","",""
"820","<p style=""color:white; font-size: 35px;"">高效</p>","i","categorize-html","143","230868","0.0-6.0-0.0-8.0-1.17","4","3","3","3","3","4","3","1","3","4","5","4","2","5","4","4","4","4","5","5","4","4","4","4","4","3","4","5","4","1","0","1","0","0","1","1","0","1","1","0","0","0","0","0","5","4","5","1","2","4","4","5","2","4","598944297026322432","刘豪","592","","","","","","","","","","","","","","","","","","","true","4","4","ability","820","positive","高效","","","","","","","","","","","","","","",""
"null","","null","html-keyboard-response","144","231124","0.0-6.0-0.0-8.0-0.18","4","3","3","3","3","4","3","1","3","4","5","4","2","5","4","4","4","4","5","5","4","4","4","4","4","3","4","5","4","1","0","1","0","0","1","1","0","1","1","0","0","0","0","0","5","4","5","1","2","4","4","5","2","4","598944297026322432","刘豪","592","","","","","","","","","","","","","","","","","","","","","","","","","","","","","","","","","","","","","","","",""
"590","<p style=""color:rgb(150, 250, 100); font-size: 35px;"">别人的</p>","e","categorize-html","145","231723","0.0-6.0-0.0-8.0-1.18","4","3","3","3","3","4","3","1","3","4","5","4","2","5","4","4","4","4","5","5","4","4","4","4","4","3","4","5","4","1","0","1","0","0","1","1","0","1","1","0","0","0","0","0","5","4","5","1","2","4","4","5","2","4","598944297026322432","刘豪","592","","","","","","","","","","","","","","","","","","","true","4","4","ability","590","other","别人的","","","","","","","","","","","","","","",""
"null","","null","html-keyboard-response","146","231976","0.0-6.0-0.0-8.0-0.19","4","3","3","3","3","4","3","1","3","4","5","4","2","5","4","4","4","4","5","5","4","4","4","4","4","3","4","5","4","1","0","1","0","0","1","1","0","1","1","0","0","0","0","0","5","4","5","1","2","4","4","5","2","4","598944297026322432","刘豪","592","","","","","","","","","","","","","","","","","","","","","","","","","","","","","","","","","","","","","","","",""
"567","<p style=""color:white; font-size: 35px;"">低能</p>","e","categorize-html","147","232551","0.0-6.0-0.0-8.0-1.19","4","3","3","3","3","4","3","1","3","4","5","4","2","5","4","4","4","4","5","5","4","4","4","4","4","3","4","5","4","1","0","1","0","0","1","1","0","1","1","0","0","0","0","0","5","4","5","1","2","4","4","5","2","4","598944297026322432","刘豪","592","","","","","","","","","","","","","","","","","","","true","4","4","ability","567","negative","低能","","","","","","","","","","","","","","",""
"null","","null","html-keyboard-response","148","232804","0.0-6.0-0.0-8.0-0.20","4","3","3","3","3","4","3","1","3","4","5","4","2","5","4","4","4","4","5","5","4","4","4","4","4","3","4","5","4","1","0","1","0","0","1","1","0","1","1","0","0","0","0","0","5","4","5","1","2","4","4","5","2","4","598944297026322432","刘豪","592","","","","","","","","","","","","","","","","","","","","","","","","","","","","","","","","","","","","","","","",""
"782","<p style=""color:rgb(150, 250, 100); font-size: 35px;"">他人的</p>","e","categorize-html","149","233592","0.0-6.0-0.0-8.0-1.20","4","3","3","3","3","4","3","1","3","4","5","4","2","5","4","4","4","4","5","5","4","4","4","4","4","3","4","5","4","1","0","1","0","0","1","1","0","1","1","0","0","0","0","0","5","4","5","1","2","4","4","5","2","4","598944297026322432","刘豪","592","","","","","","","","","","","","","","","","","","","true","4","4","ability","782","other","他人的","","","","","","","","","","","","","","",""
"null","","null","html-keyboard-response","150","233846","0.0-6.0-0.0-8.0-0.21","4","3","3","3","3","4","3","1","3","4","5","4","2","5","4","4","4","4","5","5","4","4","4","4","4","3","4","5","4","1","0","1","0","0","1","1","0","1","1","0","0","0","0","0","5","4","5","1","2","4","4","5","2","4","598944297026322432","刘豪","592","","","","","","","","","","","","","","","","","","","","","","","","","","","","","","","","","","","","","","","",""
"721","<p style=""color:white; font-size: 35px;"">蠢笨</p>","e","categorize-html","151","234577","0.0-6.0-0.0-8.0-1.21","4","3","3","3","3","4","3","1","3","4","5","4","2","5","4","4","4","4","5","5","4","4","4","4","4","3","4","5","4","1","0","1","0","0","1","1","0","1","1","0","0","0","0","0","5","4","5","1","2","4","4","5","2","4","598944297026322432","刘豪","592","","","","","","","","","","","","","","","","","","","true","4","4","ability","721","negative","蠢笨","","","","","","","","","","","","","","",""
"null","","null","html-keyboard-response","152","234830","0.0-6.0-0.0-8.0-0.22","4","3","3","3","3","4","3","1","3","4","5","4","2","5","4","4","4","4","5","5","4","4","4","4","4","3","4","5","4","1","0","1","0","0","1","1","0","1","1","0","0","0","0","0","5","4","5","1","2","4","4","5","2","4","598944297026322432","刘豪","592","","","","","","","","","","","","","","","","","","","","","","","","","","","","","","","","","","","","","","","",""
"596","<p style=""color:rgb(150, 250, 100); font-size: 35px;"">我</p>","i","categorize-html","153","235432","0.0-6.0-0.0-8.0-1.22","4","3","3","3","3","4","3","1","3","4","5","4","2","5","4","4","4","4","5","5","4","4","4","4","4","3","4","5","4","1","0","1","0","0","1","1","0","1","1","0","0","0","0","0","5","4","5","1","2","4","4","5","2","4","598944297026322432","刘豪","592","","","","","","","","","","","","","","","","","","","true","4","4","ability","596","self","我","","","","","","","","","","","","","","",""
"null","","null","html-keyboard-response","154","235699","0.0-6.0-0.0-8.0-0.23","4","3","3","3","3","4","3","1","3","4","5","4","2","5","4","4","4","4","5","5","4","4","4","4","4","3","4","5","4","1","0","1","0","0","1","1","0","1","1","0","0","0","0","0","5","4","5","1","2","4","4","5","2","4","598944297026322432","刘豪","592","","","","","","","","","","","","","","","","","","","","","","","","","","","","","","","","","","","","","","","",""
"742","<p style=""color:white; font-size: 35px;"">能干</p>","i","categorize-html","155","236453","0.0-6.0-0.0-8.0-1.23","4","3","3","3","3","4","3","1","3","4","5","4","2","5","4","4","4","4","5","5","4","4","4","4","4","3","4","5","4","1","0","1","0","0","1","1","0","1","1","0","0","0","0","0","5","4","5","1","2","4","4","5","2","4","598944297026322432","刘豪","592","","","","","","","","","","","","","","","","","","","true","4","4","ability","742","positive","能干","","","","","","","","","","","","","","",""
"null","","null","html-keyboard-response","156","236706","0.0-6.0-0.0-8.0-0.24","4","3","3","3","3","4","3","1","3","4","5","4","2","5","4","4","4","4","5","5","4","4","4","4","4","3","4","5","4","1","0","1","0","0","1","1","0","1","1","0","0","0","0","0","5","4","5","1","2","4","4","5","2","4","598944297026322432","刘豪","592","","","","","","","","","","","","","","","","","","","","","","","","","","","","","","","","","","","","","","","",""
"717","<p style=""color:rgb(150, 250, 100); font-size: 35px;"">我</p>","i","categorize-html","157","237430","0.0-6.0-0.0-8.0-1.24","4","3","3","3","3","4","3","1","3","4","5","4","2","5","4","4","4","4","5","5","4","4","4","4","4","3","4","5","4","1","0","1","0","0","1","1","0","1","1","0","0","0","0","0","5","4","5","1","2","4","4","5","2","4","598944297026322432","刘豪","592","","","","","","","","","","","","","","","","","","","true","4","4","ability","717","self","我","","","","","","","","","","","","","","",""
"null","","null","html-keyboard-response","158","237684","0.0-6.0-0.0-8.0-0.25","4","3","3","3","3","4","3","1","3","4","5","4","2","5","4","4","4","4","5","5","4","4","4","4","4","3","4","5","4","1","0","1","0","0","1","1","0","1","1","0","0","0","0","0","5","4","5","1","2","4","4","5","2","4","598944297026322432","刘豪","592","","","","","","","","","","","","","","","","","","","","","","","","","","","","","","","","","","","","","","","",""
"585","<p style=""color:white; font-size: 35px;"">无能</p>","e","categorize-html","159","238275","0.0-6.0-0.0-8.0-1.25","4","3","3","3","3","4","3","1","3","4","5","4","2","5","4","4","4","4","5","5","4","4","4","4","4","3","4","5","4","1","0","1","0","0","1","1","0","1","1","0","0","0","0","0","5","4","5","1","2","4","4","5","2","4","598944297026322432","刘豪","592","","","","","","","","","","","","","","","","","","","true","4","4","ability","585","negative","无能","","","","","","","","","","","","","","",""
"null","","null","html-keyboard-response","160","238527","0.0-6.0-0.0-8.0-0.26","4","3","3","3","3","4","3","1","3","4","5","4","2","5","4","4","4","4","5","5","4","4","4","4","4","3","4","5","4","1","0","1","0","0","1","1","0","1","1","0","0","0","0","0","5","4","5","1","2","4","4","5","2","4","598944297026322432","刘豪","592","","","","","","","","","","","","","","","","","","","","","","","","","","","","","","","","","","","","","","","",""
"639","<p style=""color:rgb(150, 250, 100); font-size: 35px;"">别人的</p>","e","categorize-html","161","239173","0.0-6.0-0.0-8.0-1.26","4","3","3","3","3","4","3","1","3","4","5","4","2","5","4","4","4","4","5","5","4","4","4","4","4","3","4","5","4","1","0","1","0","0","1","1","0","1","1","0","0","0","0","0","5","4","5","1","2","4","4","5","2","4","598944297026322432","刘豪","592","","","","","","","","","","","","","","","","","","","true","4","4","ability","639","other","别人的","","","","","","","","","","","","","","",""
"null","","null","html-keyboard-response","162","239425","0.0-6.0-0.0-8.0-0.27","4","3","3","3","3","4","3","1","3","4","5","4","2","5","4","4","4","4","5","5","4","4","4","4","4","3","4","5","4","1","0","1","0","0","1","1","0","1","1","0","0","0","0","0","5","4","5","1","2","4","4","5","2","4","598944297026322432","刘豪","592","","","","","","","","","","","","","","","","","","","","","","","","","","","","","","","","","","","","","","","",""
"562","<p style=""color:white; font-size: 35px;"">全能</p>","i","categorize-html","163","239994","0.0-6.0-0.0-8.0-1.27","4","3","3","3","3","4","3","1","3","4","5","4","2","5","4","4","4","4","5","5","4","4","4","4","4","3","4","5","4","1","0","1","0","0","1","1","0","1","1","0","0","0","0","0","5","4","5","1","2","4","4","5","2","4","598944297026322432","刘豪","592","","","","","","","","","","","","","","","","","","","true","4","4","ability","562","positive","全能","","","","","","","","","","","","","","",""
"null","","null","html-keyboard-response","164","240246","0.0-6.0-0.0-8.0-0.28","4","3","3","3","3","4","3","1","3","4","5","4","2","5","4","4","4","4","5","5","4","4","4","4","4","3","4","5","4","1","0","1","0","0","1","1","0","1","1","0","0","0","0","0","5","4","5","1","2","4","4","5","2","4","598944297026322432","刘豪","592","","","","","","","","","","","","","","","","","","","","","","","","","","","","","","","","","","","","","","","",""
"614","<p style=""color:rgb(150, 250, 100); font-size: 35px;"">他人</p>","e","categorize-html","165","240866","0.0-6.0-0.0-8.0-1.28","4","3","3","3","3","4","3","1","3","4","5","4","2","5","4","4","4","4","5","5","4","4","4","4","4","3","4","5","4","1","0","1","0","0","1","1","0","1","1","0","0","0","0","0","5","4","5","1","2","4","4","5","2","4","598944297026322432","刘豪","592","","","","","","","","","","","","","","","","","","","true","4","4","ability","614","other","他人","","","","","","","","","","","","","","",""
"null","","null","html-keyboard-response","166","241123","0.0-6.0-0.0-8.0-0.29","4","3","3","3","3","4","3","1","3","4","5","4","2","5","4","4","4","4","5","5","4","4","4","4","4","3","4","5","4","1","0","1","0","0","1","1","0","1","1","0","0","0","0","0","5","4","5","1","2","4","4","5","2","4","598944297026322432","刘豪","592","","","","","","","","","","","","","","","","","","","","","","","","","","","","","","","","","","","","","","","",""
"690","<p style=""color:white; font-size: 35px;"">全才</p>","i","categorize-html","167","241820","0.0-6.0-0.0-8.0-1.29","4","3","3","3","3","4","3","1","3","4","5","4","2","5","4","4","4","4","5","5","4","4","4","4","4","3","4","5","4","1","0","1","0","0","1","1","0","1","1","0","0","0","0","0","5","4","5","1","2","4","4","5","2","4","598944297026322432","刘豪","592","","","","","","","","","","","","","","","","","","","true","4","4","ability","690","positive","全才","","","","","","","","","","","","","","",""
"null","","null","html-keyboard-response","168","242089","0.0-6.0-0.0-8.0-0.30","4","3","3","3","3","4","3","1","3","4","5","4","2","5","4","4","4","4","5","5","4","4","4","4","4","3","4","5","4","1","0","1","0","0","1","1","0","1","1","0","0","0","0","0","5","4","5","1","2","4","4","5","2","4","598944297026322432","刘豪","592","","","","","","","","","","","","","","","","","","","","","","","","","","","","","","","","","","","","","","","",""
"566","<p style=""color:rgb(150, 250, 100); font-size: 35px;"">我的</p>","i","categorize-html","169","242666","0.0-6.0-0.0-8.0-1.30","4","3","3","3","3","4","3","1","3","4","5","4","2","5","4","4","4","4","5","5","4","4","4","4","4","3","4","5","4","1","0","1","0","0","1","1","0","1","1","0","0","0","0","0","5","4","5","1","2","4","4","5","2","4","598944297026322432","刘豪","592","","","","","","","","","","","","","","","","","","","true","4","4","ability","566","self","我的","","","","","","","","","","","","","","",""
"null","","null","html-keyboard-response","170","242921","0.0-6.0-0.0-8.0-0.31","4","3","3","3","3","4","3","1","3","4","5","4","2","5","4","4","4","4","5","5","4","4","4","4","4","3","4","5","4","1","0","1","0","0","1","1","0","1","1","0","0","0","0","0","5","4","5","1","2","4","4","5","2","4","598944297026322432","刘豪","592","","","","","","","","","","","","","","","","","","","","","","","","","","","","","","","","","","","","","","","",""
"670","<p style=""color:white; font-size: 35px;"">愚钝</p>","e","categorize-html","171","243594","0.0-6.0-0.0-8.0-1.31","4","3","3","3","3","4","3","1","3","4","5","4","2","5","4","4","4","4","5","5","4","4","4","4","4","3","4","5","4","1","0","1","0","0","1","1","0","1","1","0","0","0","0","0","5","4","5","1","2","4","4","5","2","4","598944297026322432","刘豪","592","","","","","","","","","","","","","","","","","","","true","4","4","ability","670","negative","愚钝","","","","","","","","","","","","","","",""
"null","","null","html-keyboard-response","172","243848","0.0-6.0-0.0-8.0-0.32","4","3","3","3","3","4","3","1","3","4","5","4","2","5","4","4","4","4","5","5","4","4","4","4","4","3","4","5","4","1","0","1","0","0","1","1","0","1","1","0","0","0","0","0","5","4","5","1","2","4","4","5","2","4","598944297026322432","刘豪","592","","","","","","","","","","","","","","","","","","","","","","","","","","","","","","","","","","","","","","","",""
"598","<p style=""color:rgb(150, 250, 100); font-size: 35px;"">他</p>","e","categorize-html","173","244453","0.0-6.0-0.0-8.0-1.32","4","3","3","3","3","4","3","1","3","4","5","4","2","5","4","4","4","4","5","5","4","4","4","4","4","3","4","5","4","1","0","1","0","0","1","1","0","1","1","0","0","0","0","0","5","4","5","1","2","4","4","5","2","4","598944297026322432","刘豪","592","","","","","","","","","","","","","","","","","","","true","4","4","ability","598","other","他","","","","","","","","","","","","","","",""
"null","","null","html-keyboard-response","174","244720","0.0-6.0-0.0-8.0-0.33","4","3","3","3","3","4","3","1","3","4","5","4","2","5","4","4","4","4","5","5","4","4","4","4","4","3","4","5","4","1","0","1","0","0","1","1","0","1","1","0","0","0","0","0","5","4","5","1","2","4","4","5","2","4","598944297026322432","刘豪","592","","","","","","","","","","","","","","","","","","","","","","","","","","","","","","","","","","","","","","","",""
"590","<p style=""color:white; font-size: 35px;"">精干</p>","i","categorize-html","175","245315","0.0-6.0-0.0-8.0-1.33","4","3","3","3","3","4","3","1","3","4","5","4","2","5","4","4","4","4","5","5","4","4","4","4","4","3","4","5","4","1","0","1","0","0","1","1","0","1","1","0","0","0","0","0","5","4","5","1","2","4","4","5","2","4","598944297026322432","刘豪","592","","","","","","","","","","","","","","","","","","","true","4","4","ability","590","positive","精干","","","","","","","","","","","","","","",""
"null","","null","html-keyboard-response","176","245567","0.0-6.0-0.0-8.0-0.34","4","3","3","3","3","4","3","1","3","4","5","4","2","5","4","4","4","4","5","5","4","4","4","4","4","3","4","5","4","1","0","1","0","0","1","1","0","1","1","0","0","0","0","0","5","4","5","1","2","4","4","5","2","4","598944297026322432","刘豪","592","","","","","","","","","","","","","","","","","","","","","","","","","","","","","","","","","","","","","","","",""
"628","<p style=""color:rgb(150, 250, 100); font-size: 35px;"">自己</p>","i","categorize-html","177","246201","0.0-6.0-0.0-8.0-1.34","4","3","3","3","3","4","3","1","3","4","5","4","2","5","4","4","4","4","5","5","4","4","4","4","4","3","4","5","4","1","0","1","0","0","1","1","0","1","1","0","0","0","0","0","5","4","5","1","2","4","4","5","2","4","598944297026322432","刘豪","592","","","","","","","","","","","","","","","","","","","true","4","4","ability","628","self","自己","","","","","","","","","","","","","","",""
"null","","null","html-keyboard-response","178","246467","0.0-6.0-0.0-8.0-0.35","4","3","3","3","3","4","3","1","3","4","5","4","2","5","4","4","4","4","5","5","4","4","4","4","4","3","4","5","4","1","0","1","0","0","1","1","0","1","1","0","0","0","0","0","5","4","5","1","2","4","4","5","2","4","598944297026322432","刘豪","592","","","","","","","","","","","","","","","","","","","","","","","","","","","","","","","","","","","","","","","",""
"581","<p style=""color:white; font-size: 35px;"">愚钝</p>","e","categorize-html","179","247055","0.0-6.0-0.0-8.0-1.35","4","3","3","3","3","4","3","1","3","4","5","4","2","5","4","4","4","4","5","5","4","4","4","4","4","3","4","5","4","1","0","1","0","0","1","1","0","1","1","0","0","0","0","0","5","4","5","1","2","4","4","5","2","4","598944297026322432","刘豪","592","","","","","","","","","","","","","","","","","","","true","4","4","ability","581","negative","愚钝","","","","","","","","","","","","","","",""
"null","","null","html-keyboard-response","180","247307","0.0-6.0-0.0-8.0-0.36","4","3","3","3","3","4","3","1","3","4","5","4","2","5","4","4","4","4","5","5","4","4","4","4","4","3","4","5","4","1","0","1","0","0","1","1","0","1","1","0","0","0","0","0","5","4","5","1","2","4","4","5","2","4","598944297026322432","刘豪","592","","","","","","","","","","","","","","","","","","","","","","","","","","","","","","","","","","","","","","","",""
"738","<p style=""color:rgb(150, 250, 100); font-size: 35px;"">本人</p>","i","categorize-html","181","248056","0.0-6.0-0.0-8.0-1.36","4","3","3","3","3","4","3","1","3","4","5","4","2","5","4","4","4","4","5","5","4","4","4","4","4","3","4","5","4","1","0","1","0","0","1","1","0","1","1","0","0","0","0","0","5","4","5","1","2","4","4","5","2","4","598944297026322432","刘豪","592","","","","","","","","","","","","","","","","","","","true","4","4","ability","738","self","本人","","","","","","","","","","","","","","",""
"null","","null","html-keyboard-response","182","248309","0.0-6.0-0.0-8.0-0.37","4","3","3","3","3","4","3","1","3","4","5","4","2","5","4","4","4","4","5","5","4","4","4","4","4","3","4","5","4","1","0","1","0","0","1","1","0","1","1","0","0","0","0","0","5","4","5","1","2","4","4","5","2","4","598944297026322432","刘豪","592","","","","","","","","","","","","","","","","","","","","","","","","","","","","","","","","","","","","","","","",""
"621","<p style=""color:white; font-size: 35px;"">废物</p>","e","categorize-html","183","248938","0.0-6.0-0.0-8.0-1.37","4","3","3","3","3","4","3","1","3","4","5","4","2","5","4","4","4","4","5","5","4","4","4","4","4","3","4","5","4","1","0","1","0","0","1","1","0","1","1","0","0","0","0","0","5","4","5","1","2","4","4","5","2","4","598944297026322432","刘豪","592","","","","","","","","","","","","","","","","","","","true","4","4","ability","621","negative","废物","","","","","","","","","","","","","","",""
"null","","null","html-keyboard-response","184","249191","0.0-6.0-0.0-8.0-0.38","4","3","3","3","3","4","3","1","3","4","5","4","2","5","4","4","4","4","5","5","4","4","4","4","4","3","4","5","4","1","0","1","0","0","1","1","0","1","1","0","0","0","0","0","5","4","5","1","2","4","4","5","2","4","598944297026322432","刘豪","592","","","","","","","","","","","","","","","","","","","","","","","","","","","","","","","","","","","","","","","",""
"859","<p style=""color:rgb(150, 250, 100); font-size: 35px;"">他人的</p>","e","categorize-html","185","250057","0.0-6.0-0.0-8.0-1.38","4","3","3","3","3","4","3","1","3","4","5","4","2","5","4","4","4","4","5","5","4","4","4","4","4","3","4","5","4","1","0","1","0","0","1","1","0","1","1","0","0","0","0","0","5","4","5","1","2","4","4","5","2","4","598944297026322432","刘豪","592","","","","","","","","","","","","","","","","","","","true","4","4","ability","859","other","他人的","","","","","","","","","","","","","","",""
"null","","null","html-keyboard-response","186","250312","0.0-6.0-0.0-8.0-0.39","4","3","3","3","3","4","3","1","3","4","5","4","2","5","4","4","4","4","5","5","4","4","4","4","4","3","4","5","4","1","0","1","0","0","1","1","0","1","1","0","0","0","0","0","5","4","5","1","2","4","4","5","2","4","598944297026322432","刘豪","592","","","","","","","","","","","","","","","","","","","","","","","","","","","","","","","","","","","","","","","",""
"659","<p style=""color:white; font-size: 35px;"">能干</p>","i","categorize-html","187","250978","0.0-6.0-0.0-8.0-1.39","4","3","3","3","3","4","3","1","3","4","5","4","2","5","4","4","4","4","5","5","4","4","4","4","4","3","4","5","4","1","0","1","0","0","1","1","0","1","1","0","0","0","0","0","5","4","5","1","2","4","4","5","2","4","598944297026322432","刘豪","592","","","","","","","","","","","","","","","","","","","true","4","4","ability","659","positive","能干","","","","","","","","","","","","","","",""
"null","","null","html-keyboard-response","188","251232","0.0-6.0-0.0-8.0-0.40","4","3","3","3","3","4","3","1","3","4","5","4","2","5","4","4","4","4","5","5","4","4","4","4","4","3","4","5","4","1","0","1","0","0","1","1","0","1","1","0","0","0","0","0","5","4","5","1","2","4","4","5","2","4","598944297026322432","刘豪","592","","","","","","","","","","","","","","","","","","","","","","","","","","","","","","","","","","","","","","","",""
"693","<p style=""color:rgb(150, 250, 100); font-size: 35px;"">他的</p>","e","categorize-html","189","251934","0.0-6.0-0.0-8.0-1.40","4","3","3","3","3","4","3","1","3","4","5","4","2","5","4","4","4","4","5","5","4","4","4","4","4","3","4","5","4","1","0","1","0","0","1","1","0","1","1","0","0","0","0","0","5","4","5","1","2","4","4","5","2","4","598944297026322432","刘豪","592","","","","","","","","","","","","","","","","","","","true","4","4","ability","693","other","他的","","","","","","","","","","","","","","",""
"null","","null","html-keyboard-response","190","252187","0.0-6.0-0.0-8.0-0.41","4","3","3","3","3","4","3","1","3","4","5","4","2","5","4","4","4","4","5","5","4","4","4","4","4","3","4","5","4","1","0","1","0","0","1","1","0","1","1","0","0","0","0","0","5","4","5","1","2","4","4","5","2","4","598944297026322432","刘豪","592","","","","","","","","","","","","","","","","","","","","","","","","","","","","","","","","","","","","","","","",""
"562","<p style=""color:white; font-size: 35px;"">全能</p>","i","categorize-html","191","252758","0.0-6.0-0.0-8.0-1.41","4","3","3","3","3","4","3","1","3","4","5","4","2","5","4","4","4","4","5","5","4","4","4","4","4","3","4","5","4","1","0","1","0","0","1","1","0","1","1","0","0","0","0","0","5","4","5","1","2","4","4","5","2","4","598944297026322432","刘豪","592","","","","","","","","","","","","","","","","","","","true","4","4","ability","562","positive","全能","","","","","","","","","","","","","","",""
"null","","null","html-keyboard-response","192","253011","0.0-6.0-0.0-8.0-0.42","4","3","3","3","3","4","3","1","3","4","5","4","2","5","4","4","4","4","5","5","4","4","4","4","4","3","4","5","4","1","0","1","0","0","1","1","0","1","1","0","0","0","0","0","5","4","5","1","2","4","4","5","2","4","598944297026322432","刘豪","592","","","","","","","","","","","","","","","","","","","","","","","","","","","","","","","","","","","","","","","",""
"603","<p style=""color:rgb(150, 250, 100); font-size: 35px;"">本人的</p>","i","categorize-html","193","253623","0.0-6.0-0.0-8.0-1.42","4","3","3","3","3","4","3","1","3","4","5","4","2","5","4","4","4","4","5","5","4","4","4","4","4","3","4","5","4","1","0","1","0","0","1","1","0","1","1","0","0","0","0","0","5","4","5","1","2","4","4","5","2","4","598944297026322432","刘豪","592","","","","","","","","","","","","","","","","","","","true","4","4","ability","603","self","本人的","","","","","","","","","","","","","","",""
"null","","null","html-keyboard-response","194","253877","0.0-6.0-0.0-8.0-0.43","4","3","3","3","3","4","3","1","3","4","5","4","2","5","4","4","4","4","5","5","4","4","4","4","4","3","4","5","4","1","0","1","0","0","1","1","0","1","1","0","0","0","0","0","5","4","5","1","2","4","4","5","2","4","598944297026322432","刘豪","592","","","","","","","","","","","","","","","","","","","","","","","","","","","","","","","","","","","","","","","",""
"562","<p style=""color:white; font-size: 35px;"">蠢笨</p>","e","categorize-html","195","254446","0.0-6.0-0.0-8.0-1.43","4","3","3","3","3","4","3","1","3","4","5","4","2","5","4","4","4","4","5","5","4","4","4","4","4","3","4","5","4","1","0","1","0","0","1","1","0","1","1","0","0","0","0","0","5","4","5","1","2","4","4","5","2","4","598944297026322432","刘豪","592","","","","","","","","","","","","","","","","","","","true","4","4","ability","562","negative","蠢笨","","","","","","","","","","","","","","",""
"null","","null","html-keyboard-response","196","254698","0.0-6.0-0.0-8.0-0.44","4","3","3","3","3","4","3","1","3","4","5","4","2","5","4","4","4","4","5","5","4","4","4","4","4","3","4","5","4","1","0","1","0","0","1","1","0","1","1","0","0","0","0","0","5","4","5","1","2","4","4","5","2","4","598944297026322432","刘豪","592","","","","","","","","","","","","","","","","","","","","","","","","","","","","","","","","","","","","","","","",""
