"rt","stimulus","response","trial_type","trial_index","time_elapsed","internal_node_id","ses_1","ses_2","ses_3","ses_4","ses_5","ses_6","ses_7","ses_8","ses_9","ses_10","coreself_1","coreself_2","coreself_3","coreself_4","coreself_5","coreself_6","coreself_7","coreself_8","coreself_9","coreself_10","SGPS_1","SGPS_2","SGPS_3","SGPS_4","SGPS_5","SGPS_6","SGPS_7","SGPS_8","SGPS_9","NPI1","NPI2","NPI3","NPI4","NPI5","NPI6","NPI7","NPI8","NPI9","NPI10","NPI11","NPI12","NPI13","NPI14","NPI15","hsns_1","hsns_2","hsns_3","hsns_4","hsns_5","hsns_6","hsns_7","hsns_8","hsns_9","hsns_10","subj_idx","friend_name","ParticipantID","value","success","user_agent","responses","item_order","radio_event_ids","radio_event_times","key_event_times","mouse_event_times","straightlining","zigzagging","honeypot","timeout","failed_images","failed_audio","failed_video","version_attrib","version_target","correct","IAT","screen_id","task_id","RT","condition","word","varname","summary","version_attrib2","version_target2","time_stamp","view_history","response_type","key_press","avg_frame_time","center_x","center_y","correct_response","identity","Image","question_order"
"10649","
   <p><div style = ""color: white;font-size:25px;"">您好，欢迎参加本次实验。</div> </p>
   <p><div style = ""color: white;font-size:25px;"">为充分保障您的权利，请确保您已经知晓并同意《参与实验同意书》以及《数据公开知情同意书》。</div></p>
   <p><div style = ""color: white;font-size:25px;"">如果您未见过上述内容，请咨询实验员。</div></p>
   <p><div style = ""color: white;font-size:25px;"">如果您选择继续实验，则表示您已经清楚两份知情同意书的内容并同意。</div></p>
   <p> <div style = ""color: green;font-size:25px;""><按空格键至下页></div> </p>
   "," ","html-keyboard-response","0","10650","0.0-0.0","4","4","4","4","4","4","4","1","4","4","5","5","5","5","5","5","5","5","5","5","1","1","1","1","1","1","1","1","1","0","1","0","0","0","0","0","1","0","0","0","0","1","0","1","5","1","1","1","1","1","3","1","4","1","590543915338170368","李","613","","","","","","","","","","","","","","","","","","","","","","","","","","","","","","","","","","","","","","","",""
"","","","call-function","1","10651","0.0-1.0-0.0","4","4","4","4","4","4","4","1","4","4","5","5","5","5","5","5","5","5","5","5","1","1","1","1","1","1","1","1","1","0","1","0","0","0","0","0","1","0","0","0","0","1","0","1","5","1","1","1","1","1","3","1","4","1","590543915338170368","李","613","","","","","","","","","","","","","","","","","","","","","","","","","","","","","","","","","","","","","","","",""
"67867","","{""friend_name"":""李"",""ParticipantID"":""613""}","survey-html-form","2","78519","0.0-1.0-1.0","4","4","4","4","4","4","4","1","4","4","5","5","5","5","5","5","5","5","5","5","1","1","1","1","1","1","1","1","1","0","1","0","0","0","0","0","1","0","0","0","0","1","0","1","5","1","1","1","1","1","3","1","4","1","590543915338170368","李","613","","","","","","","","","","","","","","","","","","","","","","","","","","","","","","","","","","","","","","","",""
"","","","fullscreen","3","122115","0.0-2.0","4","4","4","4","4","4","4","1","4","4","5","5","5","5","5","5","5","5","5","5","1","1","1","1","1","1","1","1","1","0","1","0","0","0","0","0","1","0","0","0","0","1","0","1","5","1","1","1","1","1","3","1","4","1","590543915338170368","李","613","","true","{}","","","","","","","","","","","","","","","","","","","","","","","","","","","","","","","","","","","","",""
"73633.89999999997","","{""Q01"":""4"",""Q02"":""4"",""Q03"":""4"",""Q04"":""4"",""Q05"":""4"",""Q06"":""4"",""Q07"":""4"",""Q08"":""1"",""Q09"":""4"",""Q10"":""4""}","survey-template","4","195751","0.0-3.0","4","4","4","4","4","4","4","1","4","4","5","5","5","5","5","5","5","5","5","5","1","1","1","1","1","1","1","1","1","0","1","0","0","0","0","0","1","0","0","0","0","1","0","1","5","1","1","1","1","1","3","1","4","1","590543915338170368","李","613","","","","{""Q01"":""4"",""Q02"":""4"",""Q03"":""4"",""Q04"":""4"",""Q05"":""4"",""Q06"":""4"",""Q07"":""4"",""Q08"":""1"",""Q09"":""4"",""Q10"":""4""}","[0,1,2,3,4,5,6,7,8,9]","[""Q01"",""Q02"",""Q03"",""Q03"",""Q04"",""Q04"",""Q04"",""Q04"",""Q04"",""Q04"",""Q04"",""Q05"",""Q06"",""Q07"",""Q08"",""Q09"",""Q10"",""Q10"",""Q10""]","[10785.200000000012,13617.200000000012,16753.20000000001,17309.900000000023,18504.20000000001,19295.5,19356.29999999999,19433.70000000001,19654,19793.900000000023,19946.70000000001,21113.5,24145.100000000035,27321.70000000001,31121.20000000001,36697.5,41705.100000000035,41920.600000000035,42001.100000000035]","[]","[2046.7000000000116,4722.400000000023,5847,6119.200000000012,6686.799999999988,6947.900000000023,8832.900000000023,10177.600000000035,10313.200000000012,10785.200000000012,11417.700000000012,12593.700000000012,13281.100000000035,13617.200000000012,15072.299999999988,16121.900000000023,16191.400000000023,16329.5,16390.100000000035,16619,16753.20000000001,17309.900000000023,18030.5,18268.29999999999,18504.20000000001,19295.5,19356.29999999999,19433.70000000001,19654,19793.900000000023,19946.70000000001,21113.5,24145.100000000035,25037.79999999999,27321.70000000001,31121.20000000001,36697.5,40057.90000000002,40609.40000000002,41146.5,41473.5,41705.100000000035,41920.600000000035,42001.100000000035,42541.50000000006,42863.50000000006,42986.29999999999,43213.29999999999,73633.20000000001]","0.6","0.5555555555555556","0","","","","","","","","","","","","","","","","","","","","","","","","","","","",""
"42913.09999999998","","{""Q01"":""5"",""Q02"":""5"",""Q03"":""5"",""Q04"":""5"",""Q05"":""5"",""Q06"":""5"",""Q07"":""5"",""Q08"":""5"",""Q09"":""5"",""Q10"":""5""}","survey-template","5","238667","0.0-4.0","4","4","4","4","4","4","4","1","4","4","5","5","5","5","5","5","5","5","5","5","1","1","1","1","1","1","1","1","1","0","1","0","0","0","0","0","1","0","0","0","0","1","0","1","5","1","1","1","1","1","3","1","4","1","590543915338170368","李","613","","","","{""Q01"":""5"",""Q02"":""5"",""Q03"":""5"",""Q04"":""5"",""Q05"":""5"",""Q06"":""5"",""Q07"":""5"",""Q08"":""5"",""Q09"":""5"",""Q10"":""5""}","[0,1,2,3,4,5,6,7,8,9]","[""Q01"",""Q02"",""Q03"",""Q04"",""Q05"",""Q06"",""Q07"",""Q08"",""Q09"",""Q10""]","[3980.29999999993,6720.199999999953,7808.099999999977,10884.199999999953,14064.199999999953,15632.399999999907,16800.5,17984.199999999953,22472.79999999993,26024.199999999953]","[]","[3980.29999999993,6720.199999999953,7808.099999999977,10884.199999999953,13316.599999999977,14064.199999999953,15632.399999999907,16800.5,17984.199999999953,22472.79999999993,26024.199999999953,42912.29999999993]","0.6","0.7777777777777778","0","","","","","","","","","","","","","","","","","","","","","","","","","","","",""
"","","","preload","6","239262","0.0-5.0","4","4","4","4","4","4","4","1","4","4","5","5","5","5","5","5","5","5","5","5","1","1","1","1","1","1","1","1","1","0","1","0","0","0","0","0","1","0","0","0","0","1","0","1","5","1","1","1","1","1","3","1","4","1","590543915338170368","李","613","","true","","","","","","","","","","","false","[]","[]","[]","","","","","","","","","","","","","","","","","","","","","","","",""
"23780","
    <h3>词语分类任务</h3>
    <p>在接下来的任务中，你需要对一系列词语进行分类。</p>
    <p>请先熟悉这些词语，这有利于你完成接下来的任务。</p>
    <table align=""center"" border=1 cellpadding=3 cellspacing=0>
    <tr> <th>类别</th> <th>词语</th> </tr>
    <tr> <td>&emsp;积极&emsp;</td> <td>&emsp;能干、全能、全才、高效、精干、天才&emsp;</td> </tr>
    <tr> <td>&emsp;消极&emsp;</td> <td>&emsp;无能、低能、废物、拙笨、愚钝、蠢笨&emsp;</td> </tr>
    <tr> <td>&emsp;自我&emsp;</td> <td>&emsp;我、我的、自己、自己的、本人、本人的&emsp;</td> </tr>
    <tr> <td>&emsp;他人&emsp;</td> <td>&emsp;他、他的、别人、别人的、他人、他人的&emsp;</td> </tr>
    </table><br/>","0","html-button-response","7","263043","0.0-6.0-0.0-0.0","4","4","4","4","4","4","4","1","4","4","5","5","5","5","5","5","5","5","5","5","1","1","1","1","1","1","1","1","1","0","1","0","0","0","0","0","1","0","0","0","0","1","0","1","5","1","1","1","1","1","3","1","4","1","590543915338170368","李","613","","","","","","","","","","","","","","","","","2","2","","","","","","","","","","","","","","","","","","","","","",""
"27974","
    <div class=""tag-bottom"">
    <p> —— 任务1：对“他人”词和“自我”词分类 ——<p/>
    不同词语会出现在屏幕中央，类别标签将始终显示在屏幕上方<p/>   
    <span style=""color:#FFD866""><b>请根据上方标签的提示，尽可能正确并且快速地做出按键反应</b></span><p/>
    当按键错误时屏幕中会出现<span style=""color:red""> X </span>，需要按另一个键纠正才能继续<br/><p/>
    请把双手食指分别放在键盘的“E”键和“I”键上<p/>
    按<空格键>开始
    </p></div>"," ","html-keyboard-response","8","291018","0.0-6.0-0.0-1.0","4","4","4","4","4","4","4","1","4","4","5","5","5","5","5","5","5","5","5","5","1","1","1","1","1","1","1","1","1","0","1","0","0","0","0","0","1","0","0","0","0","1","0","1","5","1","1","1","1","1","3","1","4","1","590543915338170368","李","613","","","","","","","","","","","","","","","","","","","","","","","","","","","","","","","","","","","","","","","",""
"null","","null","html-keyboard-response","9","291268","0.0-6.0-0.0-2.0-0.0","4","4","4","4","4","4","4","1","4","4","5","5","5","5","5","5","5","5","5","5","1","1","1","1","1","1","1","1","1","0","1","0","0","0","0","0","1","0","0","0","0","1","0","1","5","1","1","1","1","1","3","1","4","1","590543915338170368","李","613","","","","","","","","","","","","","","","","","","","","","","","","","","","","","","","","","","","","","","","",""
"573","<p style=""color:rgb(150, 250, 100); font-size: 35px;"">自己</p>","i","categorize-html","10","291842","0.0-6.0-0.0-2.0-1.0","4","4","4","4","4","4","4","1","4","4","5","5","5","5","5","5","5","5","5","5","1","1","1","1","1","1","1","1","1","0","1","0","0","0","0","0","1","0","0","0","0","1","0","1","5","1","1","1","1","1","3","1","4","1","590543915338170368","李","613","","","","","","","","","","","","","","","","","","","true","1","1","ability","573","self","自己","","","","","","","","","","","","","","",""
"null","","null","html-keyboard-response","11","292092","0.0-6.0-0.0-2.0-0.1","4","4","4","4","4","4","4","1","4","4","5","5","5","5","5","5","5","5","5","5","1","1","1","1","1","1","1","1","1","0","1","0","0","0","0","0","1","0","0","0","0","1","0","1","5","1","1","1","1","1","3","1","4","1","590543915338170368","李","613","","","","","","","","","","","","","","","","","","","","","","","","","","","","","","","","","","","","","","","",""
"677","<p style=""color:rgb(150, 250, 100); font-size: 35px;"">别人的</p>","e","categorize-html","12","292770","0.0-6.0-0.0-2.0-1.1","4","4","4","4","4","4","4","1","4","4","5","5","5","5","5","5","5","5","5","5","1","1","1","1","1","1","1","1","1","0","1","0","0","0","0","0","1","0","0","0","0","1","0","1","5","1","1","1","1","1","3","1","4","1","590543915338170368","李","613","","","","","","","","","","","","","","","","","","","true","1","1","ability","677","other","别人的","","","","","","","","","","","","","","",""
"null","","null","html-keyboard-response","13","293027","0.0-6.0-0.0-2.0-0.2","4","4","4","4","4","4","4","1","4","4","5","5","5","5","5","5","5","5","5","5","1","1","1","1","1","1","1","1","1","0","1","0","0","0","0","0","1","0","0","0","0","1","0","1","5","1","1","1","1","1","3","1","4","1","590543915338170368","李","613","","","","","","","","","","","","","","","","","","","","","","","","","","","","","","","","","","","","","","","",""
"407","<p style=""color:rgb(150, 250, 100); font-size: 35px;"">他人的</p>","e","categorize-html","14","293434","0.0-6.0-0.0-2.0-1.2","4","4","4","4","4","4","4","1","4","4","5","5","5","5","5","5","5","5","5","5","1","1","1","1","1","1","1","1","1","0","1","0","0","0","0","0","1","0","0","0","0","1","0","1","5","1","1","1","1","1","3","1","4","1","590543915338170368","李","613","","","","","","","","","","","","","","","","","","","true","1","1","ability","407","other","他人的","","","","","","","","","","","","","","",""
"null","","null","html-keyboard-response","15","293685","0.0-6.0-0.0-2.0-0.3","4","4","4","4","4","4","4","1","4","4","5","5","5","5","5","5","5","5","5","5","1","1","1","1","1","1","1","1","1","0","1","0","0","0","0","0","1","0","0","0","0","1","0","1","5","1","1","1","1","1","3","1","4","1","590543915338170368","李","613","","","","","","","","","","","","","","","","","","","","","","","","","","","","","","","","","","","","","","","",""
"460","<p style=""color:rgb(150, 250, 100); font-size: 35px;"">我</p>","i","categorize-html","16","294146","0.0-6.0-0.0-2.0-1.3","4","4","4","4","4","4","4","1","4","4","5","5","5","5","5","5","5","5","5","5","1","1","1","1","1","1","1","1","1","0","1","0","0","0","0","0","1","0","0","0","0","1","0","1","5","1","1","1","1","1","3","1","4","1","590543915338170368","李","613","","","","","","","","","","","","","","","","","","","true","1","1","ability","460","self","我","","","","","","","","","","","","","","",""
"null","","null","html-keyboard-response","17","294403","0.0-6.0-0.0-2.0-0.4","4","4","4","4","4","4","4","1","4","4","5","5","5","5","5","5","5","5","5","5","1","1","1","1","1","1","1","1","1","0","1","0","0","0","0","0","1","0","0","0","0","1","0","1","5","1","1","1","1","1","3","1","4","1","590543915338170368","李","613","","","","","","","","","","","","","","","","","","","","","","","","","","","","","","","","","","","","","","","",""
"447","<p style=""color:rgb(150, 250, 100); font-size: 35px;"">他的</p>","e","categorize-html","18","294850","0.0-6.0-0.0-2.0-1.4","4","4","4","4","4","4","4","1","4","4","5","5","5","5","5","5","5","5","5","5","1","1","1","1","1","1","1","1","1","0","1","0","0","0","0","0","1","0","0","0","0","1","0","1","5","1","1","1","1","1","3","1","4","1","590543915338170368","李","613","","","","","","","","","","","","","","","","","","","true","1","1","ability","447","other","他的","","","","","","","","","","","","","","",""
"null","","null","html-keyboard-response","19","295101","0.0-6.0-0.0-2.0-0.5","4","4","4","4","4","4","4","1","4","4","5","5","5","5","5","5","5","5","5","5","1","1","1","1","1","1","1","1","1","0","1","0","0","0","0","0","1","0","0","0","0","1","0","1","5","1","1","1","1","1","3","1","4","1","590543915338170368","李","613","","","","","","","","","","","","","","","","","","","","","","","","","","","","","","","","","","","","","","","",""
"436","<p style=""color:rgb(150, 250, 100); font-size: 35px;"">自己的</p>","i","categorize-html","20","295538","0.0-6.0-0.0-2.0-1.5","4","4","4","4","4","4","4","1","4","4","5","5","5","5","5","5","5","5","5","5","1","1","1","1","1","1","1","1","1","0","1","0","0","0","0","0","1","0","0","0","0","1","0","1","5","1","1","1","1","1","3","1","4","1","590543915338170368","李","613","","","","","","","","","","","","","","","","","","","true","1","1","ability","436","self","自己的","","","","","","","","","","","","","","",""
"null","","null","html-keyboard-response","21","295795","0.0-6.0-0.0-2.0-0.6","4","4","4","4","4","4","4","1","4","4","5","5","5","5","5","5","5","5","5","5","1","1","1","1","1","1","1","1","1","0","1","0","0","0","0","0","1","0","0","0","0","1","0","1","5","1","1","1","1","1","3","1","4","1","590543915338170368","李","613","","","","","","","","","","","","","","","","","","","","","","","","","","","","","","","","","","","","","","","",""
"366","<p style=""color:rgb(150, 250, 100); font-size: 35px;"">我的</p>","i","categorize-html","22","296162","0.0-6.0-0.0-2.0-1.6","4","4","4","4","4","4","4","1","4","4","5","5","5","5","5","5","5","5","5","5","1","1","1","1","1","1","1","1","1","0","1","0","0","0","0","0","1","0","0","0","0","1","0","1","5","1","1","1","1","1","3","1","4","1","590543915338170368","李","613","","","","","","","","","","","","","","","","","","","true","1","1","ability","366","self","我的","","","","","","","","","","","","","","",""
"null","","null","html-keyboard-response","23","296419","0.0-6.0-0.0-2.0-0.7","4","4","4","4","4","4","4","1","4","4","5","5","5","5","5","5","5","5","5","5","1","1","1","1","1","1","1","1","1","0","1","0","0","0","0","0","1","0","0","0","0","1","0","1","5","1","1","1","1","1","3","1","4","1","590543915338170368","李","613","","","","","","","","","","","","","","","","","","","","","","","","","","","","","","","","","","","","","","","",""
"543","<p style=""color:rgb(150, 250, 100); font-size: 35px;"">本人的</p>","i","categorize-html","24","296962","0.0-6.0-0.0-2.0-1.7","4","4","4","4","4","4","4","1","4","4","5","5","5","5","5","5","5","5","5","5","1","1","1","1","1","1","1","1","1","0","1","0","0","0","0","0","1","0","0","0","0","1","0","1","5","1","1","1","1","1","3","1","4","1","590543915338170368","李","613","","","","","","","","","","","","","","","","","","","true","1","1","ability","543","self","本人的","","","","","","","","","","","","","","",""
"null","","null","html-keyboard-response","25","297212","0.0-6.0-0.0-2.0-0.8","4","4","4","4","4","4","4","1","4","4","5","5","5","5","5","5","5","5","5","5","1","1","1","1","1","1","1","1","1","0","1","0","0","0","0","0","1","0","0","0","0","1","0","1","5","1","1","1","1","1","3","1","4","1","590543915338170368","李","613","","","","","","","","","","","","","","","","","","","","","","","","","","","","","","","","","","","","","","","",""
"605","<p style=""color:rgb(150, 250, 100); font-size: 35px;"">他人</p>","e","categorize-html","26","297818","0.0-6.0-0.0-2.0-1.8","4","4","4","4","4","4","4","1","4","4","5","5","5","5","5","5","5","5","5","5","1","1","1","1","1","1","1","1","1","0","1","0","0","0","0","0","1","0","0","0","0","1","0","1","5","1","1","1","1","1","3","1","4","1","590543915338170368","李","613","","","","","","","","","","","","","","","","","","","true","1","1","ability","605","other","他人","","","","","","","","","","","","","","",""
"null","","null","html-keyboard-response","27","298075","0.0-6.0-0.0-2.0-0.9","4","4","4","4","4","4","4","1","4","4","5","5","5","5","5","5","5","5","5","5","1","1","1","1","1","1","1","1","1","0","1","0","0","0","0","0","1","0","0","0","0","1","0","1","5","1","1","1","1","1","3","1","4","1","590543915338170368","李","613","","","","","","","","","","","","","","","","","","","","","","","","","","","","","","","","","","","","","","","",""
"479","<p style=""color:rgb(150, 250, 100); font-size: 35px;"">他</p>","e","categorize-html","28","298554","0.0-6.0-0.0-2.0-1.9","4","4","4","4","4","4","4","1","4","4","5","5","5","5","5","5","5","5","5","5","1","1","1","1","1","1","1","1","1","0","1","0","0","0","0","0","1","0","0","0","0","1","0","1","5","1","1","1","1","1","3","1","4","1","590543915338170368","李","613","","","","","","","","","","","","","","","","","","","true","1","1","ability","479","other","他","","","","","","","","","","","","","","",""
"null","","null","html-keyboard-response","29","298805","0.0-6.0-0.0-2.0-0.10","4","4","4","4","4","4","4","1","4","4","5","5","5","5","5","5","5","5","5","5","1","1","1","1","1","1","1","1","1","0","1","0","0","0","0","0","1","0","0","0","0","1","0","1","5","1","1","1","1","1","3","1","4","1","590543915338170368","李","613","","","","","","","","","","","","","","","","","","","","","","","","","","","","","","","","","","","","","","","",""
"1301","<p style=""color:rgb(150, 250, 100); font-size: 35px;"">别人</p>","e","categorize-html","30","300106","0.0-6.0-0.0-2.0-1.10","4","4","4","4","4","4","4","1","4","4","5","5","5","5","5","5","5","5","5","5","1","1","1","1","1","1","1","1","1","0","1","0","0","0","0","0","1","0","0","0","0","1","0","1","5","1","1","1","1","1","3","1","4","1","590543915338170368","李","613","","","","","","","","","","","","","","","","","","","true","1","1","ability","1301","other","别人","","","","","","","","","","","","","","",""
"null","","null","html-keyboard-response","31","300357","0.0-6.0-0.0-2.0-0.11","4","4","4","4","4","4","4","1","4","4","5","5","5","5","5","5","5","5","5","5","1","1","1","1","1","1","1","1","1","0","1","0","0","0","0","0","1","0","0","0","0","1","0","1","5","1","1","1","1","1","3","1","4","1","590543915338170368","李","613","","","","","","","","","","","","","","","","","","","","","","","","","","","","","","","","","","","","","","","",""
"629","<p style=""color:rgb(150, 250, 100); font-size: 35px;"">本人</p>","i","categorize-html","32","300986","0.0-6.0-0.0-2.0-1.11","4","4","4","4","4","4","4","1","4","4","5","5","5","5","5","5","5","5","5","5","1","1","1","1","1","1","1","1","1","0","1","0","0","0","0","0","1","0","0","0","0","1","0","1","5","1","1","1","1","1","3","1","4","1","590543915338170368","李","613","","","","","","","","","","","","","","","","","","","true","1","1","ability","629","self","本人","","","","","","","","","","","","","","",""
"5768","
    <div class=""tag-bottom""><p>
    —— 任务2：对“消极”词和“积极”词分类 ——<p/>   
    <span style=""color:#78DCE8""><b>注意上方，类别标签和需要分类的词语都已经改变</b></span><p/>
    <span style=""color:#FFD866""><b>请根据上方标签的提示，尽可能正确并且快速地做出按键反应</b></span><p/>
    当按键错误时屏幕中会出现<span style=""color:red""> X </span>，需要按另一个键纠正才能继续<br/><p/>
    请把双手食指分别放在键盘的“E”键和“I”键上<p/>
    按<空格键>开始
    </p></div>"," ","html-keyboard-response","33","306754","0.0-6.0-0.0-3.0","4","4","4","4","4","4","4","1","4","4","5","5","5","5","5","5","5","5","5","5","1","1","1","1","1","1","1","1","1","0","1","0","0","0","0","0","1","0","0","0","0","1","0","1","5","1","1","1","1","1","3","1","4","1","590543915338170368","李","613","","","","","","","","","","","","","","","","","","","","","","","","","","","","","","","","","","","","","","","",""
"null","","null","html-keyboard-response","34","307005","0.0-6.0-0.0-4.0-0.0","4","4","4","4","4","4","4","1","4","4","5","5","5","5","5","5","5","5","5","5","1","1","1","1","1","1","1","1","1","0","1","0","0","0","0","0","1","0","0","0","0","1","0","1","5","1","1","1","1","1","3","1","4","1","590543915338170368","李","613","","","","","","","","","","","","","","","","","","","","","","","","","","","","","","","","","","","","","","","",""
"476","<p style=""color:white; font-size: 35px;"">天才</p>","i","categorize-html","35","307482","0.0-6.0-0.0-4.0-1.0","4","4","4","4","4","4","4","1","4","4","5","5","5","5","5","5","5","5","5","5","1","1","1","1","1","1","1","1","1","0","1","0","0","0","0","0","1","0","0","0","0","1","0","1","5","1","1","1","1","1","3","1","4","1","590543915338170368","李","613","","","","","","","","","","","","","","","","","","","true","2","2","ability","476","positive","天才","","","","","","","","","","","","","","",""
"null","","null","html-keyboard-response","36","307739","0.0-6.0-0.0-4.0-0.1","4","4","4","4","4","4","4","1","4","4","5","5","5","5","5","5","5","5","5","5","1","1","1","1","1","1","1","1","1","0","1","0","0","0","0","0","1","0","0","0","0","1","0","1","5","1","1","1","1","1","3","1","4","1","590543915338170368","李","613","","","","","","","","","","","","","","","","","","","","","","","","","","","","","","","","","","","","","","","",""
"487","<p style=""color:white; font-size: 35px;"">废物</p>","e","categorize-html","37","308226","0.0-6.0-0.0-4.0-1.1","4","4","4","4","4","4","4","1","4","4","5","5","5","5","5","5","5","5","5","5","1","1","1","1","1","1","1","1","1","0","1","0","0","0","0","0","1","0","0","0","0","1","0","1","5","1","1","1","1","1","3","1","4","1","590543915338170368","李","613","","","","","","","","","","","","","","","","","","","true","2","2","ability","487","negative","废物","","","","","","","","","","","","","","",""
"null","","null","html-keyboard-response","38","308483","0.0-6.0-0.0-4.0-0.2","4","4","4","4","4","4","4","1","4","4","5","5","5","5","5","5","5","5","5","5","1","1","1","1","1","1","1","1","1","0","1","0","0","0","0","0","1","0","0","0","0","1","0","1","5","1","1","1","1","1","3","1","4","1","590543915338170368","李","613","","","","","","","","","","","","","","","","","","","","","","","","","","","","","","","","","","","","","","","",""
"439","<p style=""color:white; font-size: 35px;"">拙笨</p>","e","categorize-html","39","308922","0.0-6.0-0.0-4.0-1.2","4","4","4","4","4","4","4","1","4","4","5","5","5","5","5","5","5","5","5","5","1","1","1","1","1","1","1","1","1","0","1","0","0","0","0","0","1","0","0","0","0","1","0","1","5","1","1","1","1","1","3","1","4","1","590543915338170368","李","613","","","","","","","","","","","","","","","","","","","true","2","2","ability","439","negative","拙笨","","","","","","","","","","","","","","",""
"null","","null","html-keyboard-response","40","309179","0.0-6.0-0.0-4.0-0.3","4","4","4","4","4","4","4","1","4","4","5","5","5","5","5","5","5","5","5","5","1","1","1","1","1","1","1","1","1","0","1","0","0","0","0","0","1","0","0","0","0","1","0","1","5","1","1","1","1","1","3","1","4","1","590543915338170368","李","613","","","","","","","","","","","","","","","","","","","","","","","","","","","","","","","","","","","","","","","",""
"383","<p style=""color:white; font-size: 35px;"">愚钝</p>","e","categorize-html","41","309562","0.0-6.0-0.0-4.0-1.3","4","4","4","4","4","4","4","1","4","4","5","5","5","5","5","5","5","5","5","5","1","1","1","1","1","1","1","1","1","0","1","0","0","0","0","0","1","0","0","0","0","1","0","1","5","1","1","1","1","1","3","1","4","1","590543915338170368","李","613","","","","","","","","","","","","","","","","","","","true","2","2","ability","383","negative","愚钝","","","","","","","","","","","","","","",""
"null","","null","html-keyboard-response","42","309820","0.0-6.0-0.0-4.0-0.4","4","4","4","4","4","4","4","1","4","4","5","5","5","5","5","5","5","5","5","5","1","1","1","1","1","1","1","1","1","0","1","0","0","0","0","0","1","0","0","0","0","1","0","1","5","1","1","1","1","1","3","1","4","1","590543915338170368","李","613","","","","","","","","","","","","","","","","","","","","","","","","","","","","","","","","","","","","","","","",""
"430","<p style=""color:white; font-size: 35px;"">蠢笨</p>","e","categorize-html","43","310250","0.0-6.0-0.0-4.0-1.4","4","4","4","4","4","4","4","1","4","4","5","5","5","5","5","5","5","5","5","5","1","1","1","1","1","1","1","1","1","0","1","0","0","0","0","0","1","0","0","0","0","1","0","1","5","1","1","1","1","1","3","1","4","1","590543915338170368","李","613","","","","","","","","","","","","","","","","","","","true","2","2","ability","430","negative","蠢笨","","","","","","","","","","","","","","",""
"null","","null","html-keyboard-response","44","310507","0.0-6.0-0.0-4.0-0.5","4","4","4","4","4","4","4","1","4","4","5","5","5","5","5","5","5","5","5","5","1","1","1","1","1","1","1","1","1","0","1","0","0","0","0","0","1","0","0","0","0","1","0","1","5","1","1","1","1","1","3","1","4","1","590543915338170368","李","613","","","","","","","","","","","","","","","","","","","","","","","","","","","","","","","","","","","","","","","",""
"407","<p style=""color:white; font-size: 35px;"">全能</p>","i","categorize-html","45","310914","0.0-6.0-0.0-4.0-1.5","4","4","4","4","4","4","4","1","4","4","5","5","5","5","5","5","5","5","5","5","1","1","1","1","1","1","1","1","1","0","1","0","0","0","0","0","1","0","0","0","0","1","0","1","5","1","1","1","1","1","3","1","4","1","590543915338170368","李","613","","","","","","","","","","","","","","","","","","","true","2","2","ability","407","positive","全能","","","","","","","","","","","","","","",""
"null","","null","html-keyboard-response","46","311171","0.0-6.0-0.0-4.0-0.6","4","4","4","4","4","4","4","1","4","4","5","5","5","5","5","5","5","5","5","5","1","1","1","1","1","1","1","1","1","0","1","0","0","0","0","0","1","0","0","0","0","1","0","1","5","1","1","1","1","1","3","1","4","1","590543915338170368","李","613","","","","","","","","","","","","","","","","","","","","","","","","","","","","","","","","","","","","","","","",""
"366","<p style=""color:white; font-size: 35px;"">全才</p>","i","categorize-html","47","311538","0.0-6.0-0.0-4.0-1.6","4","4","4","4","4","4","4","1","4","4","5","5","5","5","5","5","5","5","5","5","1","1","1","1","1","1","1","1","1","0","1","0","0","0","0","0","1","0","0","0","0","1","0","1","5","1","1","1","1","1","3","1","4","1","590543915338170368","李","613","","","","","","","","","","","","","","","","","","","true","2","2","ability","366","positive","全才","","","","","","","","","","","","","","",""
"null","","null","html-keyboard-response","48","311789","0.0-6.0-0.0-4.0-0.7","4","4","4","4","4","4","4","1","4","4","5","5","5","5","5","5","5","5","5","5","1","1","1","1","1","1","1","1","1","0","1","0","0","0","0","0","1","0","0","0","0","1","0","1","5","1","1","1","1","1","3","1","4","1","590543915338170368","李","613","","","","","","","","","","","","","","","","","","","","","","","","","","","","","","","","","","","","","","","",""
"429","<p style=""color:white; font-size: 35px;"">能干</p>","i","categorize-html","49","312218","0.0-6.0-0.0-4.0-1.7","4","4","4","4","4","4","4","1","4","4","5","5","5","5","5","5","5","5","5","5","1","1","1","1","1","1","1","1","1","0","1","0","0","0","0","0","1","0","0","0","0","1","0","1","5","1","1","1","1","1","3","1","4","1","590543915338170368","李","613","","","","","","","","","","","","","","","","","","","true","2","2","ability","429","positive","能干","","","","","","","","","","","","","","",""
"null","","null","html-keyboard-response","50","312475","0.0-6.0-0.0-4.0-0.8","4","4","4","4","4","4","4","1","4","4","5","5","5","5","5","5","5","5","5","5","1","1","1","1","1","1","1","1","1","0","1","0","0","0","0","0","1","0","0","0","0","1","0","1","5","1","1","1","1","1","3","1","4","1","590543915338170368","李","613","","","","","","","","","","","","","","","","","","","","","","","","","","","","","","","","","","","","","","","",""
"663","<p style=""color:white; font-size: 35px;"">高效</p>","i","categorize-html","51","313138","0.0-6.0-0.0-4.0-1.8","4","4","4","4","4","4","4","1","4","4","5","5","5","5","5","5","5","5","5","5","1","1","1","1","1","1","1","1","1","0","1","0","0","0","0","0","1","0","0","0","0","1","0","1","5","1","1","1","1","1","3","1","4","1","590543915338170368","李","613","","","","","","","","","","","","","","","","","","","true","2","2","ability","663","positive","高效","","","","","","","","","","","","","","",""
"null","","null","html-keyboard-response","52","313395","0.0-6.0-0.0-4.0-0.9","4","4","4","4","4","4","4","1","4","4","5","5","5","5","5","5","5","5","5","5","1","1","1","1","1","1","1","1","1","0","1","0","0","0","0","0","1","0","0","0","0","1","0","1","5","1","1","1","1","1","3","1","4","1","590543915338170368","李","613","","","","","","","","","","","","","","","","","","","","","","","","","","","","","","","","","","","","","","","",""
"518","<p style=""color:white; font-size: 35px;"">无能</p>","e","categorize-html","53","313914","0.0-6.0-0.0-4.0-1.9","4","4","4","4","4","4","4","1","4","4","5","5","5","5","5","5","5","5","5","5","1","1","1","1","1","1","1","1","1","0","1","0","0","0","0","0","1","0","0","0","0","1","0","1","5","1","1","1","1","1","3","1","4","1","590543915338170368","李","613","","","","","","","","","","","","","","","","","","","true","2","2","ability","518","negative","无能","","","","","","","","","","","","","","",""
"null","","null","html-keyboard-response","54","314171","0.0-6.0-0.0-4.0-0.10","4","4","4","4","4","4","4","1","4","4","5","5","5","5","5","5","5","5","5","5","1","1","1","1","1","1","1","1","1","0","1","0","0","0","0","0","1","0","0","0","0","1","0","1","5","1","1","1","1","1","3","1","4","1","590543915338170368","李","613","","","","","","","","","","","","","","","","","","","","","","","","","","","","","","","","","","","","","","","",""
"471","<p style=""color:white; font-size: 35px;"">低能</p>","e","categorize-html","55","314642","0.0-6.0-0.0-4.0-1.10","4","4","4","4","4","4","4","1","4","4","5","5","5","5","5","5","5","5","5","5","1","1","1","1","1","1","1","1","1","0","1","0","0","0","0","0","1","0","0","0","0","1","0","1","5","1","1","1","1","1","3","1","4","1","590543915338170368","李","613","","","","","","","","","","","","","","","","","","","true","2","2","ability","471","negative","低能","","","","","","","","","","","","","","",""
"null","","null","html-keyboard-response","56","314900","0.0-6.0-0.0-4.0-0.11","4","4","4","4","4","4","4","1","4","4","5","5","5","5","5","5","5","5","5","5","1","1","1","1","1","1","1","1","1","0","1","0","0","0","0","0","1","0","0","0","0","1","0","1","5","1","1","1","1","1","3","1","4","1","590543915338170368","李","613","","","","","","","","","","","","","","","","","","","","","","","","","","","","","","","","","","","","","","","",""
"454","<p style=""color:white; font-size: 35px;"">精干</p>","i","categorize-html","57","315354","0.0-6.0-0.0-4.0-1.11","4","4","4","4","4","4","4","1","4","4","5","5","5","5","5","5","5","5","5","5","1","1","1","1","1","1","1","1","1","0","1","0","0","0","0","0","1","0","0","0","0","1","0","1","5","1","1","1","1","1","3","1","4","1","590543915338170368","李","613","","","","","","","","","","","","","","","","","","","true","2","2","ability","454","positive","精干","","","","","","","","","","","","","","",""
"1328","
    <div class=""tag-bottom""><p>
    —— 任务3：对“他人/消极”词和“自我/积极”词分类 ——<p/>
    <span style=""color:#78DCE8""><b>注意上方，之前的四类词语将混合在一起交替呈现</b></span><p/>
    <span style=""color:#FFD866""><b>请根据上方标签的提示，尽可能正确并且快速地做出按键反应</b></span><p/>
    当按键错误时屏幕中会出现<span style=""color:red""> X </span>，需要按另一个键纠正才能继续<br/><p/>
    请把双手食指分别放在键盘的“E”键和“I”键上<p/>
    按<空格键>开始
    </p></div>"," ","html-keyboard-response","58","316682","0.0-6.0-0.0-5.0","4","4","4","4","4","4","4","1","4","4","5","5","5","5","5","5","5","5","5","5","1","1","1","1","1","1","1","1","1","0","1","0","0","0","0","0","1","0","0","0","0","1","0","1","5","1","1","1","1","1","3","1","4","1","590543915338170368","李","613","","","","","","","","","","","","","","","","","","","","","","","","","","","","","","","","","","","","","","","",""
"null","","null","html-keyboard-response","59","316939","0.0-6.0-0.0-6.0-0.0","4","4","4","4","4","4","4","1","4","4","5","5","5","5","5","5","5","5","5","5","1","1","1","1","1","1","1","1","1","0","1","0","0","0","0","0","1","0","0","0","0","1","0","1","5","1","1","1","1","1","3","1","4","1","590543915338170368","李","613","","","","","","","","","","","","","","","","","","","","","","","","","","","","","","","","","","","","","","","",""
"655","<p style=""color:rgb(150, 250, 100); font-size: 35px;"">我</p>","i","categorize-html","60","317594","0.0-6.0-0.0-6.0-1.0","4","4","4","4","4","4","4","1","4","4","5","5","5","5","5","5","5","5","5","5","1","1","1","1","1","1","1","1","1","0","1","0","0","0","0","0","1","0","0","0","0","1","0","1","5","1","1","1","1","1","3","1","4","1","590543915338170368","李","613","","","","","","","","","","","","","","","","","","","true","3","3","ability","655","self","我","","","","","","","","","","","","","","",""
"null","","null","html-keyboard-response","61","317852","0.0-6.0-0.0-6.0-0.1","4","4","4","4","4","4","4","1","4","4","5","5","5","5","5","5","5","5","5","5","1","1","1","1","1","1","1","1","1","0","1","0","0","0","0","0","1","0","0","0","0","1","0","1","5","1","1","1","1","1","3","1","4","1","590543915338170368","李","613","","","","","","","","","","","","","","","","","","","","","","","","","","","","","","","","","","","","","","","",""
"358","<p style=""color:white; font-size: 35px;"">全能</p>","i","categorize-html","62","318210","0.0-6.0-0.0-6.0-1.1","4","4","4","4","4","4","4","1","4","4","5","5","5","5","5","5","5","5","5","5","1","1","1","1","1","1","1","1","1","0","1","0","0","0","0","0","1","0","0","0","0","1","0","1","5","1","1","1","1","1","3","1","4","1","590543915338170368","李","613","","","","","","","","","","","","","","","","","","","true","3","3","ability","358","positive","全能","","","","","","","","","","","","","","",""
"null","","null","html-keyboard-response","63","318467","0.0-6.0-0.0-6.0-0.2","4","4","4","4","4","4","4","1","4","4","5","5","5","5","5","5","5","5","5","5","1","1","1","1","1","1","1","1","1","0","1","0","0","0","0","0","1","0","0","0","0","1","0","1","5","1","1","1","1","1","3","1","4","1","590543915338170368","李","613","","","","","","","","","","","","","","","","","","","","","","","","","","","","","","","","","","","","","","","",""
"391","<p style=""color:rgb(150, 250, 100); font-size: 35px;"">他人的</p>","i","categorize-html","64","319842","0.0-6.0-0.0-6.0-1.2","4","4","4","4","4","4","4","1","4","4","5","5","5","5","5","5","5","5","5","5","1","1","1","1","1","1","1","1","1","0","1","0","0","0","0","0","1","0","0","0","0","1","0","1","5","1","1","1","1","1","3","1","4","1","590543915338170368","李","613","","","","","","","","","","","","","","","","","","","false","3","3","ability","1262.9545454545455","other","他人的","","","","","","","","","","","","","","",""
"null","","null","html-keyboard-response","65","320093","0.0-6.0-0.0-6.0-0.3","4","4","4","4","4","4","4","1","4","4","5","5","5","5","5","5","5","5","5","5","1","1","1","1","1","1","1","1","1","0","1","0","0","0","0","0","1","0","0","0","0","1","0","1","5","1","1","1","1","1","3","1","4","1","590543915338170368","李","613","","","","","","","","","","","","","","","","","","","","","","","","","","","","","","","","","","","","","","","",""
"836","<p style=""color:white; font-size: 35px;"">无能</p>","e","categorize-html","66","320930","0.0-6.0-0.0-6.0-1.3","4","4","4","4","4","4","4","1","4","4","5","5","5","5","5","5","5","5","5","5","1","1","1","1","1","1","1","1","1","0","1","0","0","0","0","0","1","0","0","0","0","1","0","1","5","1","1","1","1","1","3","1","4","1","590543915338170368","李","613","","","","","","","","","","","","","","","","","","","true","3","3","ability","836","negative","无能","","","","","","","","","","","","","","",""
"null","","null","html-keyboard-response","67","321182","0.0-6.0-0.0-6.0-0.4","4","4","4","4","4","4","4","1","4","4","5","5","5","5","5","5","5","5","5","5","1","1","1","1","1","1","1","1","1","0","1","0","0","0","0","0","1","0","0","0","0","1","0","1","5","1","1","1","1","1","3","1","4","1","590543915338170368","李","613","","","","","","","","","","","","","","","","","","","","","","","","","","","","","","","","","","","","","","","",""
"493","<p style=""color:rgb(150, 250, 100); font-size: 35px;"">别人</p>","e","categorize-html","68","321675","0.0-6.0-0.0-6.0-1.4","4","4","4","4","4","4","4","1","4","4","5","5","5","5","5","5","5","5","5","5","1","1","1","1","1","1","1","1","1","0","1","0","0","0","0","0","1","0","0","0","0","1","0","1","5","1","1","1","1","1","3","1","4","1","590543915338170368","李","613","","","","","","","","","","","","","","","","","","","true","3","3","ability","493","other","别人","","","","","","","","","","","","","","",""
"null","","null","html-keyboard-response","69","321932","0.0-6.0-0.0-6.0-0.5","4","4","4","4","4","4","4","1","4","4","5","5","5","5","5","5","5","5","5","5","1","1","1","1","1","1","1","1","1","0","1","0","0","0","0","0","1","0","0","0","0","1","0","1","5","1","1","1","1","1","3","1","4","1","590543915338170368","李","613","","","","","","","","","","","","","","","","","","","","","","","","","","","","","","","","","","","","","","","",""
"606","<p style=""color:white; font-size: 35px;"">高效</p>","e","categorize-html","70","323570","0.0-6.0-0.0-6.0-1.5","4","4","4","4","4","4","4","1","4","4","5","5","5","5","5","5","5","5","5","5","1","1","1","1","1","1","1","1","1","0","1","0","0","0","0","0","1","0","0","0","0","1","0","1","5","1","1","1","1","1","3","1","4","1","590543915338170368","李","613","","","","","","","","","","","","","","","","","","","false","3","3","ability","1262.9545454545455","positive","高效","","","","","","","","","","","","","","",""
"null","","null","html-keyboard-response","71","323821","0.0-6.0-0.0-6.0-0.6","4","4","4","4","4","4","4","1","4","4","5","5","5","5","5","5","5","5","5","5","1","1","1","1","1","1","1","1","1","0","1","0","0","0","0","0","1","0","0","0","0","1","0","1","5","1","1","1","1","1","3","1","4","1","590543915338170368","李","613","","","","","","","","","","","","","","","","","","","","","","","","","","","","","","","","","","","","","","","",""
"493","<p style=""color:rgb(150, 250, 100); font-size: 35px;"">自己的</p>","i","categorize-html","72","324315","0.0-6.0-0.0-6.0-1.6","4","4","4","4","4","4","4","1","4","4","5","5","5","5","5","5","5","5","5","5","1","1","1","1","1","1","1","1","1","0","1","0","0","0","0","0","1","0","0","0","0","1","0","1","5","1","1","1","1","1","3","1","4","1","590543915338170368","李","613","","","","","","","","","","","","","","","","","","","true","3","3","ability","493","self","自己的","","","","","","","","","","","","","","",""
"null","","null","html-keyboard-response","73","324566","0.0-6.0-0.0-6.0-0.7","4","4","4","4","4","4","4","1","4","4","5","5","5","5","5","5","5","5","5","5","1","1","1","1","1","1","1","1","1","0","1","0","0","0","0","0","1","0","0","0","0","1","0","1","5","1","1","1","1","1","3","1","4","1","590543915338170368","李","613","","","","","","","","","","","","","","","","","","","","","","","","","","","","","","","","","","","","","","","",""
"1404","<p style=""color:white; font-size: 35px;"">拙笨</p>","e","categorize-html","74","325971","0.0-6.0-0.0-6.0-1.7","4","4","4","4","4","4","4","1","4","4","5","5","5","5","5","5","5","5","5","5","1","1","1","1","1","1","1","1","1","0","1","0","0","0","0","0","1","0","0","0","0","1","0","1","5","1","1","1","1","1","3","1","4","1","590543915338170368","李","613","","","","","","","","","","","","","","","","","","","true","3","3","ability","1404","negative","拙笨","","","","","","","","","","","","","","",""
"null","","null","html-keyboard-response","75","326227","0.0-6.0-0.0-6.0-0.8","4","4","4","4","4","4","4","1","4","4","5","5","5","5","5","5","5","5","5","5","1","1","1","1","1","1","1","1","1","0","1","0","0","0","0","0","1","0","0","0","0","1","0","1","5","1","1","1","1","1","3","1","4","1","590543915338170368","李","613","","","","","","","","","","","","","","","","","","","","","","","","","","","","","","","","","","","","","","","",""
"887","<p style=""color:rgb(150, 250, 100); font-size: 35px;"">他</p>","e","categorize-html","76","327114","0.0-6.0-0.0-6.0-1.8","4","4","4","4","4","4","4","1","4","4","5","5","5","5","5","5","5","5","5","5","1","1","1","1","1","1","1","1","1","0","1","0","0","0","0","0","1","0","0","0","0","1","0","1","5","1","1","1","1","1","3","1","4","1","590543915338170368","李","613","","","","","","","","","","","","","","","","","","","true","3","3","ability","887","other","他","","","","","","","","","","","","","","",""
"null","","null","html-keyboard-response","77","327371","0.0-6.0-0.0-6.0-0.9","4","4","4","4","4","4","4","1","4","4","5","5","5","5","5","5","5","5","5","5","1","1","1","1","1","1","1","1","1","0","1","0","0","0","0","0","1","0","0","0","0","1","0","1","5","1","1","1","1","1","3","1","4","1","590543915338170368","李","613","","","","","","","","","","","","","","","","","","","","","","","","","","","","","","","","","","","","","","","",""
"1015","<p style=""color:white; font-size: 35px;"">废物</p>","e","categorize-html","78","328387","0.0-6.0-0.0-6.0-1.9","4","4","4","4","4","4","4","1","4","4","5","5","5","5","5","5","5","5","5","5","1","1","1","1","1","1","1","1","1","0","1","0","0","0","0","0","1","0","0","0","0","1","0","1","5","1","1","1","1","1","3","1","4","1","590543915338170368","李","613","","","","","","","","","","","","","","","","","","","true","3","3","ability","1015","negative","废物","","","","","","","","","","","","","","",""
"null","","null","html-keyboard-response","79","328638","0.0-6.0-0.0-6.0-0.10","4","4","4","4","4","4","4","1","4","4","5","5","5","5","5","5","5","5","5","5","1","1","1","1","1","1","1","1","1","0","1","0","0","0","0","0","1","0","0","0","0","1","0","1","5","1","1","1","1","1","3","1","4","1","590543915338170368","李","613","","","","","","","","","","","","","","","","","","","","","","","","","","","","","","","","","","","","","","","",""
"588","<p style=""color:rgb(150, 250, 100); font-size: 35px;"">本人</p>","i","categorize-html","80","329227","0.0-6.0-0.0-6.0-1.10","4","4","4","4","4","4","4","1","4","4","5","5","5","5","5","5","5","5","5","5","1","1","1","1","1","1","1","1","1","0","1","0","0","0","0","0","1","0","0","0","0","1","0","1","5","1","1","1","1","1","3","1","4","1","590543915338170368","李","613","","","","","","","","","","","","","","","","","","","true","3","3","ability","588","self","本人","","","","","","","","","","","","","","",""
"null","","null","html-keyboard-response","81","329484","0.0-6.0-0.0-6.0-0.11","4","4","4","4","4","4","4","1","4","4","5","5","5","5","5","5","5","5","5","5","1","1","1","1","1","1","1","1","1","0","1","0","0","0","0","0","1","0","0","0","0","1","0","1","5","1","1","1","1","1","3","1","4","1","590543915338170368","李","613","","","","","","","","","","","","","","","","","","","","","","","","","","","","","","","","","","","","","","","",""
"503","<p style=""color:white; font-size: 35px;"">全才</p>","i","categorize-html","82","329987","0.0-6.0-0.0-6.0-1.11","4","4","4","4","4","4","4","1","4","4","5","5","5","5","5","5","5","5","5","5","1","1","1","1","1","1","1","1","1","0","1","0","0","0","0","0","1","0","0","0","0","1","0","1","5","1","1","1","1","1","3","1","4","1","590543915338170368","李","613","","","","","","","","","","","","","","","","","","","true","3","3","ability","503","positive","全才","","","","","","","","","","","","","","",""
"null","","null","html-keyboard-response","83","330244","0.0-6.0-0.0-6.0-0.12","4","4","4","4","4","4","4","1","4","4","5","5","5","5","5","5","5","5","5","5","1","1","1","1","1","1","1","1","1","0","1","0","0","0","0","0","1","0","0","0","0","1","0","1","5","1","1","1","1","1","3","1","4","1","590543915338170368","李","613","","","","","","","","","","","","","","","","","","","","","","","","","","","","","","","","","","","","","","","",""
"614","<p style=""color:rgb(150, 250, 100); font-size: 35px;"">他的</p>","e","categorize-html","84","330859","0.0-6.0-0.0-6.0-1.12","4","4","4","4","4","4","4","1","4","4","5","5","5","5","5","5","5","5","5","5","1","1","1","1","1","1","1","1","1","0","1","0","0","0","0","0","1","0","0","0","0","1","0","1","5","1","1","1","1","1","3","1","4","1","590543915338170368","李","613","","","","","","","","","","","","","","","","","","","true","3","3","ability","614","other","他的","","","","","","","","","","","","","","",""
"null","","null","html-keyboard-response","85","331116","0.0-6.0-0.0-6.0-0.13","4","4","4","4","4","4","4","1","4","4","5","5","5","5","5","5","5","5","5","5","1","1","1","1","1","1","1","1","1","0","1","0","0","0","0","0","1","0","0","0","0","1","0","1","5","1","1","1","1","1","3","1","4","1","590543915338170368","李","613","","","","","","","","","","","","","","","","","","","","","","","","","","","","","","","","","","","","","","","",""
"531","<p style=""color:white; font-size: 35px;"">蠢笨</p>","e","categorize-html","86","331647","0.0-6.0-0.0-6.0-1.13","4","4","4","4","4","4","4","1","4","4","5","5","5","5","5","5","5","5","5","5","1","1","1","1","1","1","1","1","1","0","1","0","0","0","0","0","1","0","0","0","0","1","0","1","5","1","1","1","1","1","3","1","4","1","590543915338170368","李","613","","","","","","","","","","","","","","","","","","","true","3","3","ability","531","negative","蠢笨","","","","","","","","","","","","","","",""
"null","","null","html-keyboard-response","87","331902","0.0-6.0-0.0-6.0-0.14","4","4","4","4","4","4","4","1","4","4","5","5","5","5","5","5","5","5","5","5","1","1","1","1","1","1","1","1","1","0","1","0","0","0","0","0","1","0","0","0","0","1","0","1","5","1","1","1","1","1","3","1","4","1","590543915338170368","李","613","","","","","","","","","","","","","","","","","","","","","","","","","","","","","","","","","","","","","","","",""
"556","<p style=""color:rgb(150, 250, 100); font-size: 35px;"">我的</p>","i","categorize-html","88","332459","0.0-6.0-0.0-6.0-1.14","4","4","4","4","4","4","4","1","4","4","5","5","5","5","5","5","5","5","5","5","1","1","1","1","1","1","1","1","1","0","1","0","0","0","0","0","1","0","0","0","0","1","0","1","5","1","1","1","1","1","3","1","4","1","590543915338170368","李","613","","","","","","","","","","","","","","","","","","","true","3","3","ability","556","self","我的","","","","","","","","","","","","","","",""
"null","","null","html-keyboard-response","89","332717","0.0-6.0-0.0-6.0-0.15","4","4","4","4","4","4","4","1","4","4","5","5","5","5","5","5","5","5","5","5","1","1","1","1","1","1","1","1","1","0","1","0","0","0","0","0","1","0","0","0","0","1","0","1","5","1","1","1","1","1","3","1","4","1","590543915338170368","李","613","","","","","","","","","","","","","","","","","","","","","","","","","","","","","","","","","","","","","","","",""
"1501","<p style=""color:white; font-size: 35px;"">精干</p>","i","categorize-html","90","334219","0.0-6.0-0.0-6.0-1.15","4","4","4","4","4","4","4","1","4","4","5","5","5","5","5","5","5","5","5","5","1","1","1","1","1","1","1","1","1","0","1","0","0","0","0","0","1","0","0","0","0","1","0","1","5","1","1","1","1","1","3","1","4","1","590543915338170368","李","613","","","","","","","","","","","","","","","","","","","true","3","3","ability","1501","positive","精干","","","","","","","","","","","","","","",""
"null","","null","html-keyboard-response","91","334476","0.0-6.0-0.0-6.0-0.16","4","4","4","4","4","4","4","1","4","4","5","5","5","5","5","5","5","5","5","5","1","1","1","1","1","1","1","1","1","0","1","0","0","0","0","0","1","0","0","0","0","1","0","1","5","1","1","1","1","1","3","1","4","1","590543915338170368","李","613","","","","","","","","","","","","","","","","","","","","","","","","","","","","","","","","","","","","","","","",""
"503","<p style=""color:rgb(150, 250, 100); font-size: 35px;"">别人的</p>","e","categorize-html","92","334979","0.0-6.0-0.0-6.0-1.16","4","4","4","4","4","4","4","1","4","4","5","5","5","5","5","5","5","5","5","5","1","1","1","1","1","1","1","1","1","0","1","0","0","0","0","0","1","0","0","0","0","1","0","1","5","1","1","1","1","1","3","1","4","1","590543915338170368","李","613","","","","","","","","","","","","","","","","","","","true","3","3","ability","503","other","别人的","","","","","","","","","","","","","","",""
"null","","null","html-keyboard-response","93","335236","0.0-6.0-0.0-6.0-0.17","4","4","4","4","4","4","4","1","4","4","5","5","5","5","5","5","5","5","5","5","1","1","1","1","1","1","1","1","1","0","1","0","0","0","0","0","1","0","0","0","0","1","0","1","5","1","1","1","1","1","3","1","4","1","590543915338170368","李","613","","","","","","","","","","","","","","","","","","","","","","","","","","","","","","","","","","","","","","","",""
"534","<p style=""color:white; font-size: 35px;"">愚钝</p>","e","categorize-html","94","335771","0.0-6.0-0.0-6.0-1.17","4","4","4","4","4","4","4","1","4","4","5","5","5","5","5","5","5","5","5","5","1","1","1","1","1","1","1","1","1","0","1","0","0","0","0","0","1","0","0","0","0","1","0","1","5","1","1","1","1","1","3","1","4","1","590543915338170368","李","613","","","","","","","","","","","","","","","","","","","true","3","3","ability","534","negative","愚钝","","","","","","","","","","","","","","",""
"null","","null","html-keyboard-response","95","336027","0.0-6.0-0.0-6.0-0.18","4","4","4","4","4","4","4","1","4","4","5","5","5","5","5","5","5","5","5","5","1","1","1","1","1","1","1","1","1","0","1","0","0","0","0","0","1","0","0","0","0","1","0","1","5","1","1","1","1","1","3","1","4","1","590543915338170368","李","613","","","","","","","","","","","","","","","","","","","","","","","","","","","","","","","","","","","","","","","",""
"551","<p style=""color:rgb(150, 250, 100); font-size: 35px;"">自己</p>","i","categorize-html","96","336578","0.0-6.0-0.0-6.0-1.18","4","4","4","4","4","4","4","1","4","4","5","5","5","5","5","5","5","5","5","5","1","1","1","1","1","1","1","1","1","0","1","0","0","0","0","0","1","0","0","0","0","1","0","1","5","1","1","1","1","1","3","1","4","1","590543915338170368","李","613","","","","","","","","","","","","","","","","","","","true","3","3","ability","551","self","自己","","","","","","","","","","","","","","",""
"null","","null","html-keyboard-response","97","336836","0.0-6.0-0.0-6.0-0.19","4","4","4","4","4","4","4","1","4","4","5","5","5","5","5","5","5","5","5","5","1","1","1","1","1","1","1","1","1","0","1","0","0","0","0","0","1","0","0","0","0","1","0","1","5","1","1","1","1","1","3","1","4","1","590543915338170368","李","613","","","","","","","","","","","","","","","","","","","","","","","","","","","","","","","","","","","","","","","",""
"606","<p style=""color:white; font-size: 35px;"">能干</p>","i","categorize-html","98","337443","0.0-6.0-0.0-6.0-1.19","4","4","4","4","4","4","4","1","4","4","5","5","5","5","5","5","5","5","5","5","1","1","1","1","1","1","1","1","1","0","1","0","0","0","0","0","1","0","0","0","0","1","0","1","5","1","1","1","1","1","3","1","4","1","590543915338170368","李","613","","","","","","","","","","","","","","","","","","","true","3","3","ability","606","positive","能干","","","","","","","","","","","","","","",""
"null","","null","html-keyboard-response","99","337699","0.0-6.0-0.0-6.0-0.20","4","4","4","4","4","4","4","1","4","4","5","5","5","5","5","5","5","5","5","5","1","1","1","1","1","1","1","1","1","0","1","0","0","0","0","0","1","0","0","0","0","1","0","1","5","1","1","1","1","1","3","1","4","1","590543915338170368","李","613","","","","","","","","","","","","","","","","","","","","","","","","","","","","","","","","","","","","","","","",""
"479","<p style=""color:rgb(150, 250, 100); font-size: 35px;"">本人的</p>","i","categorize-html","100","338179","0.0-6.0-0.0-6.0-1.20","4","4","4","4","4","4","4","1","4","4","5","5","5","5","5","5","5","5","5","5","1","1","1","1","1","1","1","1","1","0","1","0","0","0","0","0","1","0","0","0","0","1","0","1","5","1","1","1","1","1","3","1","4","1","590543915338170368","李","613","","","","","","","","","","","","","","","","","","","true","3","3","ability","479","self","本人的","","","","","","","","","","","","","","",""
"null","","null","html-keyboard-response","101","338436","0.0-6.0-0.0-6.0-0.21","4","4","4","4","4","4","4","1","4","4","5","5","5","5","5","5","5","5","5","5","1","1","1","1","1","1","1","1","1","0","1","0","0","0","0","0","1","0","0","0","0","1","0","1","5","1","1","1","1","1","3","1","4","1","590543915338170368","李","613","","","","","","","","","","","","","","","","","","","","","","","","","","","","","","","","","","","","","","","",""
"471","<p style=""color:white; font-size: 35px;"">低能</p>","e","categorize-html","102","338907","0.0-6.0-0.0-6.0-1.21","4","4","4","4","4","4","4","1","4","4","5","5","5","5","5","5","5","5","5","5","1","1","1","1","1","1","1","1","1","0","1","0","0","0","0","0","1","0","0","0","0","1","0","1","5","1","1","1","1","1","3","1","4","1","590543915338170368","李","613","","","","","","","","","","","","","","","","","","","true","3","3","ability","471","negative","低能","","","","","","","","","","","","","","",""
"null","","null","html-keyboard-response","103","339162","0.0-6.0-0.0-6.0-0.22","4","4","4","4","4","4","4","1","4","4","5","5","5","5","5","5","5","5","5","5","1","1","1","1","1","1","1","1","1","0","1","0","0","0","0","0","1","0","0","0","0","1","0","1","5","1","1","1","1","1","3","1","4","1","590543915338170368","李","613","","","","","","","","","","","","","","","","","","","","","","","","","","","","","","","","","","","","","","","",""
"528","<p style=""color:rgb(150, 250, 100); font-size: 35px;"">他人</p>","e","categorize-html","104","339691","0.0-6.0-0.0-6.0-1.22","4","4","4","4","4","4","4","1","4","4","5","5","5","5","5","5","5","5","5","5","1","1","1","1","1","1","1","1","1","0","1","0","0","0","0","0","1","0","0","0","0","1","0","1","5","1","1","1","1","1","3","1","4","1","590543915338170368","李","613","","","","","","","","","","","","","","","","","","","true","3","3","ability","528","other","他人","","","","","","","","","","","","","","",""
"null","","null","html-keyboard-response","105","339947","0.0-6.0-0.0-6.0-0.23","4","4","4","4","4","4","4","1","4","4","5","5","5","5","5","5","5","5","5","5","1","1","1","1","1","1","1","1","1","0","1","0","0","0","0","0","1","0","0","0","0","1","0","1","5","1","1","1","1","1","3","1","4","1","590543915338170368","李","613","","","","","","","","","","","","","","","","","","","","","","","","","","","","","","","","","","","","","","","",""
"479","<p style=""color:white; font-size: 35px;"">天才</p>","i","categorize-html","106","340427","0.0-6.0-0.0-6.0-1.23","4","4","4","4","4","4","4","1","4","4","5","5","5","5","5","5","5","5","5","5","1","1","1","1","1","1","1","1","1","0","1","0","0","0","0","0","1","0","0","0","0","1","0","1","5","1","1","1","1","1","3","1","4","1","590543915338170368","李","613","","","","","","","","","","","","","","","","","","","true","3","3","ability","479","positive","天才","","","","","","","","","","","","","","",""
"3744","
    <div class=""tag-bottom""><p>
    —— 任务4：对“他人/消极”词和“自我/积极”词分类 ——<p/>
    <span style=""color:#78DCE8""><b>与刚才的任务完全相同，请再次对这四类词语分类</b></span><p/>
    <span style=""color:#FFD866""><b>请根据上方标签的提示，尽可能正确并且快速地做出按键反应</b></span><p/>
    当按键错误时屏幕中会出现<span style=""color:red""> X </span>，需要按另一个键纠正才能继续<br/><p/>
    请把双手食指分别放在键盘的“E”键和“I”键上<p/>
    按<空格键>开始
    </p></div>"," ","html-keyboard-response","107","344170","0.0-6.0-0.0-7.0","4","4","4","4","4","4","4","1","4","4","5","5","5","5","5","5","5","5","5","5","1","1","1","1","1","1","1","1","1","0","1","0","0","0","0","0","1","0","0","0","0","1","0","1","5","1","1","1","1","1","3","1","4","1","590543915338170368","李","613","","","","","","","","","","","","","","","","","","","","","","","","","","","","","","","","","","","","","","","",""
"null","","null","html-keyboard-response","108","344427","0.0-6.0-0.0-8.0-0.0","4","4","4","4","4","4","4","1","4","4","5","5","5","5","5","5","5","5","5","5","1","1","1","1","1","1","1","1","1","0","1","0","0","0","0","0","1","0","0","0","0","1","0","1","5","1","1","1","1","1","3","1","4","1","590543915338170368","李","613","","","","","","","","","","","","","","","","","","","","","","","","","","","","","","","","","","","","","","","",""
"775","<p style=""color:rgb(150, 250, 100); font-size: 35px;"">本人的</p>","i","categorize-html","109","345203","0.0-6.0-0.0-8.0-1.0","4","4","4","4","4","4","4","1","4","4","5","5","5","5","5","5","5","5","5","5","1","1","1","1","1","1","1","1","1","0","1","0","0","0","0","0","1","0","0","0","0","1","0","1","5","1","1","1","1","1","3","1","4","1","590543915338170368","李","613","","","","","","","","","","","","","","","","","","","true","4","4","ability","775","self","本人的","","","","","","","","","","","","","","",""
"null","","null","html-keyboard-response","110","345459","0.0-6.0-0.0-8.0-0.1","4","4","4","4","4","4","4","1","4","4","5","5","5","5","5","5","5","5","5","5","1","1","1","1","1","1","1","1","1","0","1","0","0","0","0","0","1","0","0","0","0","1","0","1","5","1","1","1","1","1","3","1","4","1","590543915338170368","李","613","","","","","","","","","","","","","","","","","","","","","","","","","","","","","","","","","","","","","","","",""
"943","<p style=""color:white; font-size: 35px;"">精干</p>","i","categorize-html","111","346402","0.0-6.0-0.0-8.0-1.1","4","4","4","4","4","4","4","1","4","4","5","5","5","5","5","5","5","5","5","5","1","1","1","1","1","1","1","1","1","0","1","0","0","0","0","0","1","0","0","0","0","1","0","1","5","1","1","1","1","1","3","1","4","1","590543915338170368","李","613","","","","","","","","","","","","","","","","","","","true","4","4","ability","943","positive","精干","","","","","","","","","","","","","","",""
"null","","null","html-keyboard-response","112","346659","0.0-6.0-0.0-8.0-0.2","4","4","4","4","4","4","4","1","4","4","5","5","5","5","5","5","5","5","5","5","1","1","1","1","1","1","1","1","1","0","1","0","0","0","0","0","1","0","0","0","0","1","0","1","5","1","1","1","1","1","3","1","4","1","590543915338170368","李","613","","","","","","","","","","","","","","","","","","","","","","","","","","","","","","","","","","","","","","","",""
"606","<p style=""color:rgb(150, 250, 100); font-size: 35px;"">别人</p>","e","categorize-html","113","347266","0.0-6.0-0.0-8.0-1.2","4","4","4","4","4","4","4","1","4","4","5","5","5","5","5","5","5","5","5","5","1","1","1","1","1","1","1","1","1","0","1","0","0","0","0","0","1","0","0","0","0","1","0","1","5","1","1","1","1","1","3","1","4","1","590543915338170368","李","613","","","","","","","","","","","","","","","","","","","true","4","4","ability","606","other","别人","","","","","","","","","","","","","","",""
"null","","null","html-keyboard-response","114","347524","0.0-6.0-0.0-8.0-0.3","4","4","4","4","4","4","4","1","4","4","5","5","5","5","5","5","5","5","5","5","1","1","1","1","1","1","1","1","1","0","1","0","0","0","0","0","1","0","0","0","0","1","0","1","5","1","1","1","1","1","3","1","4","1","590543915338170368","李","613","","","","","","","","","","","","","","","","","","","","","","","","","","","","","","","","","","","","","","","",""
"879","<p style=""color:white; font-size: 35px;"">蠢笨</p>","e","categorize-html","115","348403","0.0-6.0-0.0-8.0-1.3","4","4","4","4","4","4","4","1","4","4","5","5","5","5","5","5","5","5","5","5","1","1","1","1","1","1","1","1","1","0","1","0","0","0","0","0","1","0","0","0","0","1","0","1","5","1","1","1","1","1","3","1","4","1","590543915338170368","李","613","","","","","","","","","","","","","","","","","","","true","4","4","ability","879","negative","蠢笨","","","","","","","","","","","","","","",""
"null","","null","html-keyboard-response","116","348653","0.0-6.0-0.0-8.0-0.4","4","4","4","4","4","4","4","1","4","4","5","5","5","5","5","5","5","5","5","5","1","1","1","1","1","1","1","1","1","0","1","0","0","0","0","0","1","0","0","0","0","1","0","1","5","1","1","1","1","1","3","1","4","1","590543915338170368","李","613","","","","","","","","","","","","","","","","","","","","","","","","","","","","","","","","","","","","","","","",""
"845","<p style=""color:rgb(150, 250, 100); font-size: 35px;"">他的</p>","e","categorize-html","117","349499","0.0-6.0-0.0-8.0-1.4","4","4","4","4","4","4","4","1","4","4","5","5","5","5","5","5","5","5","5","5","1","1","1","1","1","1","1","1","1","0","1","0","0","0","0","0","1","0","0","0","0","1","0","1","5","1","1","1","1","1","3","1","4","1","590543915338170368","李","613","","","","","","","","","","","","","","","","","","","true","4","4","ability","845","other","他的","","","","","","","","","","","","","","",""
"null","","null","html-keyboard-response","118","349749","0.0-6.0-0.0-8.0-0.5","4","4","4","4","4","4","4","1","4","4","5","5","5","5","5","5","5","5","5","5","1","1","1","1","1","1","1","1","1","0","1","0","0","0","0","0","1","0","0","0","0","1","0","1","5","1","1","1","1","1","3","1","4","1","590543915338170368","李","613","","","","","","","","","","","","","","","","","","","","","","","","","","","","","","","","","","","","","","","",""
"797","<p style=""color:white; font-size: 35px;"">蠢笨</p>","e","categorize-html","119","350547","0.0-6.0-0.0-8.0-1.5","4","4","4","4","4","4","4","1","4","4","5","5","5","5","5","5","5","5","5","5","1","1","1","1","1","1","1","1","1","0","1","0","0","0","0","0","1","0","0","0","0","1","0","1","5","1","1","1","1","1","3","1","4","1","590543915338170368","李","613","","","","","","","","","","","","","","","","","","","true","4","4","ability","797","negative","蠢笨","","","","","","","","","","","","","","",""
"null","","null","html-keyboard-response","120","350802","0.0-6.0-0.0-8.0-0.6","4","4","4","4","4","4","4","1","4","4","5","5","5","5","5","5","5","5","5","5","1","1","1","1","1","1","1","1","1","0","1","0","0","0","0","0","1","0","0","0","0","1","0","1","5","1","1","1","1","1","3","1","4","1","590543915338170368","李","613","","","","","","","","","","","","","","","","","","","","","","","","","","","","","","","","","","","","","","","",""
"424","<p style=""color:rgb(150, 250, 100); font-size: 35px;"">自己</p>","i","categorize-html","121","351227","0.0-6.0-0.0-8.0-1.6","4","4","4","4","4","4","4","1","4","4","5","5","5","5","5","5","5","5","5","5","1","1","1","1","1","1","1","1","1","0","1","0","0","0","0","0","1","0","0","0","0","1","0","1","5","1","1","1","1","1","3","1","4","1","590543915338170368","李","613","","","","","","","","","","","","","","","","","","","true","4","4","ability","424","self","自己","","","","","","","","","","","","","","",""
"null","","null","html-keyboard-response","122","351477","0.0-6.0-0.0-8.0-0.7","4","4","4","4","4","4","4","1","4","4","5","5","5","5","5","5","5","5","5","5","1","1","1","1","1","1","1","1","1","0","1","0","0","0","0","0","1","0","0","0","0","1","0","1","5","1","1","1","1","1","3","1","4","1","590543915338170368","李","613","","","","","","","","","","","","","","","","","","","","","","","","","","","","","","","","","","","","","","","",""
"381","<p style=""color:white; font-size: 35px;"">能干</p>","i","categorize-html","123","351859","0.0-6.0-0.0-8.0-1.7","4","4","4","4","4","4","4","1","4","4","5","5","5","5","5","5","5","5","5","5","1","1","1","1","1","1","1","1","1","0","1","0","0","0","0","0","1","0","0","0","0","1","0","1","5","1","1","1","1","1","3","1","4","1","590543915338170368","李","613","","","","","","","","","","","","","","","","","","","true","4","4","ability","381","positive","能干","","","","","","","","","","","","","","",""
"null","","null","html-keyboard-response","124","352115","0.0-6.0-0.0-8.0-0.8","4","4","4","4","4","4","4","1","4","4","5","5","5","5","5","5","5","5","5","5","1","1","1","1","1","1","1","1","1","0","1","0","0","0","0","0","1","0","0","0","0","1","0","1","5","1","1","1","1","1","3","1","4","1","590543915338170368","李","613","","","","","","","","","","","","","","","","","","","","","","","","","","","","","","","","","","","","","","","",""
"399","<p style=""color:rgb(150, 250, 100); font-size: 35px;"">我的</p>","i","categorize-html","125","352515","0.0-6.0-0.0-8.0-1.8","4","4","4","4","4","4","4","1","4","4","5","5","5","5","5","5","5","5","5","5","1","1","1","1","1","1","1","1","1","0","1","0","0","0","0","0","1","0","0","0","0","1","0","1","5","1","1","1","1","1","3","1","4","1","590543915338170368","李","613","","","","","","","","","","","","","","","","","","","true","4","4","ability","399","self","我的","","","","","","","","","","","","","","",""
"null","","null","html-keyboard-response","126","352771","0.0-6.0-0.0-8.0-0.9","4","4","4","4","4","4","4","1","4","4","5","5","5","5","5","5","5","5","5","5","1","1","1","1","1","1","1","1","1","0","1","0","0","0","0","0","1","0","0","0","0","1","0","1","5","1","1","1","1","1","3","1","4","1","590543915338170368","李","613","","","","","","","","","","","","","","","","","","","","","","","","","","","","","","","","","","","","","","","",""
"455","<p style=""color:white; font-size: 35px;"">愚钝</p>","e","categorize-html","127","353227","0.0-6.0-0.0-8.0-1.9","4","4","4","4","4","4","4","1","4","4","5","5","5","5","5","5","5","5","5","5","1","1","1","1","1","1","1","1","1","0","1","0","0","0","0","0","1","0","0","0","0","1","0","1","5","1","1","1","1","1","3","1","4","1","590543915338170368","李","613","","","","","","","","","","","","","","","","","","","true","4","4","ability","455","negative","愚钝","","","","","","","","","","","","","","",""
"null","","null","html-keyboard-response","128","353484","0.0-6.0-0.0-8.0-0.10","4","4","4","4","4","4","4","1","4","4","5","5","5","5","5","5","5","5","5","5","1","1","1","1","1","1","1","1","1","0","1","0","0","0","0","0","1","0","0","0","0","1","0","1","5","1","1","1","1","1","3","1","4","1","590543915338170368","李","613","","","","","","","","","","","","","","","","","","","","","","","","","","","","","","","","","","","","","","","",""
"846","<p style=""color:rgb(150, 250, 100); font-size: 35px;"">他</p>","e","categorize-html","129","354331","0.0-6.0-0.0-8.0-1.10","4","4","4","4","4","4","4","1","4","4","5","5","5","5","5","5","5","5","5","5","1","1","1","1","1","1","1","1","1","0","1","0","0","0","0","0","1","0","0","0","0","1","0","1","5","1","1","1","1","1","3","1","4","1","590543915338170368","李","613","","","","","","","","","","","","","","","","","","","true","4","4","ability","846","other","他","","","","","","","","","","","","","","",""
"null","","null","html-keyboard-response","130","354587","0.0-6.0-0.0-8.0-0.11","4","4","4","4","4","4","4","1","4","4","5","5","5","5","5","5","5","5","5","5","1","1","1","1","1","1","1","1","1","0","1","0","0","0","0","0","1","0","0","0","0","1","0","1","5","1","1","1","1","1","3","1","4","1","590543915338170368","李","613","","","","","","","","","","","","","","","","","","","","","","","","","","","","","","","","","","","","","","","",""
"567","<p style=""color:white; font-size: 35px;"">天才</p>","i","categorize-html","131","355155","0.0-6.0-0.0-8.0-1.11","4","4","4","4","4","4","4","1","4","4","5","5","5","5","5","5","5","5","5","5","1","1","1","1","1","1","1","1","1","0","1","0","0","0","0","0","1","0","0","0","0","1","0","1","5","1","1","1","1","1","3","1","4","1","590543915338170368","李","613","","","","","","","","","","","","","","","","","","","true","4","4","ability","567","positive","天才","","","","","","","","","","","","","","",""
"null","","null","html-keyboard-response","132","355406","0.0-6.0-0.0-8.0-0.12","4","4","4","4","4","4","4","1","4","4","5","5","5","5","5","5","5","5","5","5","1","1","1","1","1","1","1","1","1","0","1","0","0","0","0","0","1","0","0","0","0","1","0","1","5","1","1","1","1","1","3","1","4","1","590543915338170368","李","613","","","","","","","","","","","","","","","","","","","","","","","","","","","","","","","","","","","","","","","",""
"676","<p style=""color:rgb(150, 250, 100); font-size: 35px;"">别人的</p>","e","categorize-html","133","356083","0.0-6.0-0.0-8.0-1.12","4","4","4","4","4","4","4","1","4","4","5","5","5","5","5","5","5","5","5","5","1","1","1","1","1","1","1","1","1","0","1","0","0","0","0","0","1","0","0","0","0","1","0","1","5","1","1","1","1","1","3","1","4","1","590543915338170368","李","613","","","","","","","","","","","","","","","","","","","true","4","4","ability","676","other","别人的","","","","","","","","","","","","","","",""
"null","","null","html-keyboard-response","134","356339","0.0-6.0-0.0-8.0-0.13","4","4","4","4","4","4","4","1","4","4","5","5","5","5","5","5","5","5","5","5","1","1","1","1","1","1","1","1","1","0","1","0","0","0","0","0","1","0","0","0","0","1","0","1","5","1","1","1","1","1","3","1","4","1","590543915338170368","李","613","","","","","","","","","","","","","","","","","","","","","","","","","","","","","","","","","","","","","","","",""
"487","<p style=""color:white; font-size: 35px;"">拙笨</p>","e","categorize-html","135","356826","0.0-6.0-0.0-8.0-1.13","4","4","4","4","4","4","4","1","4","4","5","5","5","5","5","5","5","5","5","5","1","1","1","1","1","1","1","1","1","0","1","0","0","0","0","0","1","0","0","0","0","1","0","1","5","1","1","1","1","1","3","1","4","1","590543915338170368","李","613","","","","","","","","","","","","","","","","","","","true","4","4","ability","487","negative","拙笨","","","","","","","","","","","","","","",""
"null","","null","html-keyboard-response","136","357085","0.0-6.0-0.0-8.0-0.14","4","4","4","4","4","4","4","1","4","4","5","5","5","5","5","5","5","5","5","5","1","1","1","1","1","1","1","1","1","0","1","0","0","0","0","0","1","0","0","0","0","1","0","1","5","1","1","1","1","1","3","1","4","1","590543915338170368","李","613","","","","","","","","","","","","","","","","","","","","","","","","","","","","","","","","","","","","","","","",""
"502","<p style=""color:rgb(150, 250, 100); font-size: 35px;"">我</p>","i","categorize-html","137","357587","0.0-6.0-0.0-8.0-1.14","4","4","4","4","4","4","4","1","4","4","5","5","5","5","5","5","5","5","5","5","1","1","1","1","1","1","1","1","1","0","1","0","0","0","0","0","1","0","0","0","0","1","0","1","5","1","1","1","1","1","3","1","4","1","590543915338170368","李","613","","","","","","","","","","","","","","","","","","","true","4","4","ability","502","self","我","","","","","","","","","","","","","","",""
"null","","null","html-keyboard-response","138","357838","0.0-6.0-0.0-8.0-0.15","4","4","4","4","4","4","4","1","4","4","5","5","5","5","5","5","5","5","5","5","1","1","1","1","1","1","1","1","1","0","1","0","0","0","0","0","1","0","0","0","0","1","0","1","5","1","1","1","1","1","3","1","4","1","590543915338170368","李","613","","","","","","","","","","","","","","","","","","","","","","","","","","","","","","","","","","","","","","","",""
"700","<p style=""color:white; font-size: 35px;"">高效</p>","i","categorize-html","139","358539","0.0-6.0-0.0-8.0-1.15","4","4","4","4","4","4","4","1","4","4","5","5","5","5","5","5","5","5","5","5","1","1","1","1","1","1","1","1","1","0","1","0","0","0","0","0","1","0","0","0","0","1","0","1","5","1","1","1","1","1","3","1","4","1","590543915338170368","李","613","","","","","","","","","","","","","","","","","","","true","4","4","ability","700","positive","高效","","","","","","","","","","","","","","",""
"null","","null","html-keyboard-response","140","358789","0.0-6.0-0.0-8.0-0.16","4","4","4","4","4","4","4","1","4","4","5","5","5","5","5","5","5","5","5","5","1","1","1","1","1","1","1","1","1","0","1","0","0","0","0","0","1","0","0","0","0","1","0","1","5","1","1","1","1","1","3","1","4","1","590543915338170368","李","613","","","","","","","","","","","","","","","","","","","","","","","","","","","","","","","","","","","","","","","",""
"525","<p style=""color:rgb(150, 250, 100); font-size: 35px;"">他的</p>","e","categorize-html","141","359315","0.0-6.0-0.0-8.0-1.16","4","4","4","4","4","4","4","1","4","4","5","5","5","5","5","5","5","5","5","5","1","1","1","1","1","1","1","1","1","0","1","0","0","0","0","0","1","0","0","0","0","1","0","1","5","1","1","1","1","1","3","1","4","1","590543915338170368","李","613","","","","","","","","","","","","","","","","","","","true","4","4","ability","525","other","他的","","","","","","","","","","","","","","",""
"null","","null","html-keyboard-response","142","359571","0.0-6.0-0.0-8.0-0.17","4","4","4","4","4","4","4","1","4","4","5","5","5","5","5","5","5","5","5","5","1","1","1","1","1","1","1","1","1","0","1","0","0","0","0","0","1","0","0","0","0","1","0","1","5","1","1","1","1","1","3","1","4","1","590543915338170368","李","613","","","","","","","","","","","","","","","","","","","","","","","","","","","","","","","","","","","","","","","",""
"527","<p style=""color:white; font-size: 35px;"">精干</p>","i","categorize-html","143","360099","0.0-6.0-0.0-8.0-1.17","4","4","4","4","4","4","4","1","4","4","5","5","5","5","5","5","5","5","5","5","1","1","1","1","1","1","1","1","1","0","1","0","0","0","0","0","1","0","0","0","0","1","0","1","5","1","1","1","1","1","3","1","4","1","590543915338170368","李","613","","","","","","","","","","","","","","","","","","","true","4","4","ability","527","positive","精干","","","","","","","","","","","","","","",""
"null","","null","html-keyboard-response","144","360356","0.0-6.0-0.0-8.0-0.18","4","4","4","4","4","4","4","1","4","4","5","5","5","5","5","5","5","5","5","5","1","1","1","1","1","1","1","1","1","0","1","0","0","0","0","0","1","0","0","0","0","1","0","1","5","1","1","1","1","1","3","1","4","1","590543915338170368","李","613","","","","","","","","","","","","","","","","","","","","","","","","","","","","","","","","","","","","","","","",""
"487","<p style=""color:rgb(150, 250, 100); font-size: 35px;"">本人</p>","i","categorize-html","145","360843","0.0-6.0-0.0-8.0-1.18","4","4","4","4","4","4","4","1","4","4","5","5","5","5","5","5","5","5","5","5","1","1","1","1","1","1","1","1","1","0","1","0","0","0","0","0","1","0","0","0","0","1","0","1","5","1","1","1","1","1","3","1","4","1","590543915338170368","李","613","","","","","","","","","","","","","","","","","","","true","4","4","ability","487","self","本人","","","","","","","","","","","","","","",""
"null","","null","html-keyboard-response","146","361093","0.0-6.0-0.0-8.0-0.19","4","4","4","4","4","4","4","1","4","4","5","5","5","5","5","5","5","5","5","5","1","1","1","1","1","1","1","1","1","0","1","0","0","0","0","0","1","0","0","0","0","1","0","1","5","1","1","1","1","1","3","1","4","1","590543915338170368","李","613","","","","","","","","","","","","","","","","","","","","","","","","","","","","","","","","","","","","","","","",""
"861","<p style=""color:white; font-size: 35px;"">低能</p>","e","categorize-html","147","361955","0.0-6.0-0.0-8.0-1.19","4","4","4","4","4","4","4","1","4","4","5","5","5","5","5","5","5","5","5","5","1","1","1","1","1","1","1","1","1","0","1","0","0","0","0","0","1","0","0","0","0","1","0","1","5","1","1","1","1","1","3","1","4","1","590543915338170368","李","613","","","","","","","","","","","","","","","","","","","true","4","4","ability","861","negative","低能","","","","","","","","","","","","","","",""
"null","","null","html-keyboard-response","148","362213","0.0-6.0-0.0-8.0-0.20","4","4","4","4","4","4","4","1","4","4","5","5","5","5","5","5","5","5","5","5","1","1","1","1","1","1","1","1","1","0","1","0","0","0","0","0","1","0","0","0","0","1","0","1","5","1","1","1","1","1","3","1","4","1","590543915338170368","李","613","","","","","","","","","","","","","","","","","","","","","","","","","","","","","","","","","","","","","","","",""
"574","<p style=""color:rgb(150, 250, 100); font-size: 35px;"">他人的</p>","e","categorize-html","149","362787","0.0-6.0-0.0-8.0-1.20","4","4","4","4","4","4","4","1","4","4","5","5","5","5","5","5","5","5","5","5","1","1","1","1","1","1","1","1","1","0","1","0","0","0","0","0","1","0","0","0","0","1","0","1","5","1","1","1","1","1","3","1","4","1","590543915338170368","李","613","","","","","","","","","","","","","","","","","","","true","4","4","ability","574","other","他人的","","","","","","","","","","","","","","",""
"null","","null","html-keyboard-response","150","363044","0.0-6.0-0.0-8.0-0.21","4","4","4","4","4","4","4","1","4","4","5","5","5","5","5","5","5","5","5","5","1","1","1","1","1","1","1","1","1","0","1","0","0","0","0","0","1","0","0","0","0","1","0","1","5","1","1","1","1","1","3","1","4","1","590543915338170368","李","613","","","","","","","","","","","","","","","","","","","","","","","","","","","","","","","","","","","","","","","",""
"486","<p style=""color:white; font-size: 35px;"">废物</p>","e","categorize-html","151","363531","0.0-6.0-0.0-8.0-1.21","4","4","4","4","4","4","4","1","4","4","5","5","5","5","5","5","5","5","5","5","1","1","1","1","1","1","1","1","1","0","1","0","0","0","0","0","1","0","0","0","0","1","0","1","5","1","1","1","1","1","3","1","4","1","590543915338170368","李","613","","","","","","","","","","","","","","","","","","","true","4","4","ability","486","negative","废物","","","","","","","","","","","","","","",""
"null","","null","html-keyboard-response","152","363781","0.0-6.0-0.0-8.0-0.22","4","4","4","4","4","4","4","1","4","4","5","5","5","5","5","5","5","5","5","5","1","1","1","1","1","1","1","1","1","0","1","0","0","0","0","0","1","0","0","0","0","1","0","1","5","1","1","1","1","1","3","1","4","1","590543915338170368","李","613","","","","","","","","","","","","","","","","","","","","","","","","","","","","","","","","","","","","","","","",""
"461","<p style=""color:rgb(150, 250, 100); font-size: 35px;"">本人的</p>","i","categorize-html","153","364243","0.0-6.0-0.0-8.0-1.22","4","4","4","4","4","4","4","1","4","4","5","5","5","5","5","5","5","5","5","5","1","1","1","1","1","1","1","1","1","0","1","0","0","0","0","0","1","0","0","0","0","1","0","1","5","1","1","1","1","1","3","1","4","1","590543915338170368","李","613","","","","","","","","","","","","","","","","","","","true","4","4","ability","461","self","本人的","","","","","","","","","","","","","","",""
"null","","null","html-keyboard-response","154","364499","0.0-6.0-0.0-8.0-0.23","4","4","4","4","4","4","4","1","4","4","5","5","5","5","5","5","5","5","5","5","1","1","1","1","1","1","1","1","1","0","1","0","0","0","0","0","1","0","0","0","0","1","0","1","5","1","1","1","1","1","3","1","4","1","590543915338170368","李","613","","","","","","","","","","","","","","","","","","","","","","","","","","","","","","","","","","","","","","","",""
"423","<p style=""color:white; font-size: 35px;"">全才</p>","i","categorize-html","155","364923","0.0-6.0-0.0-8.0-1.23","4","4","4","4","4","4","4","1","4","4","5","5","5","5","5","5","5","5","5","5","1","1","1","1","1","1","1","1","1","0","1","0","0","0","0","0","1","0","0","0","0","1","0","1","5","1","1","1","1","1","3","1","4","1","590543915338170368","李","613","","","","","","","","","","","","","","","","","","","true","4","4","ability","423","positive","全才","","","","","","","","","","","","","","",""
"null","","null","html-keyboard-response","156","365173","0.0-6.0-0.0-8.0-0.24","4","4","4","4","4","4","4","1","4","4","5","5","5","5","5","5","5","5","5","5","1","1","1","1","1","1","1","1","1","0","1","0","0","0","0","0","1","0","0","0","0","1","0","1","5","1","1","1","1","1","3","1","4","1","590543915338170368","李","613","","","","","","","","","","","","","","","","","","","","","","","","","","","","","","","","","","","","","","","",""
"533","<p style=""color:rgb(150, 250, 100); font-size: 35px;"">别人</p>","e","categorize-html","157","365707","0.0-6.0-0.0-8.0-1.24","4","4","4","4","4","4","4","1","4","4","5","5","5","5","5","5","5","5","5","5","1","1","1","1","1","1","1","1","1","0","1","0","0","0","0","0","1","0","0","0","0","1","0","1","5","1","1","1","1","1","3","1","4","1","590543915338170368","李","613","","","","","","","","","","","","","","","","","","","true","4","4","ability","533","other","别人","","","","","","","","","","","","","","",""
"null","","null","html-keyboard-response","158","365963","0.0-6.0-0.0-8.0-0.25","4","4","4","4","4","4","4","1","4","4","5","5","5","5","5","5","5","5","5","5","1","1","1","1","1","1","1","1","1","0","1","0","0","0","0","0","1","0","0","0","0","1","0","1","5","1","1","1","1","1","3","1","4","1","590543915338170368","李","613","","","","","","","","","","","","","","","","","","","","","","","","","","","","","","","","","","","","","","","",""
"623","<p style=""color:white; font-size: 35px;"">全能</p>","e","categorize-html","159","367170","0.0-6.0-0.0-8.0-1.25","4","4","4","4","4","4","4","1","4","4","5","5","5","5","5","5","5","5","5","5","1","1","1","1","1","1","1","1","1","0","1","0","0","0","0","0","1","0","0","0","0","1","0","1","5","1","1","1","1","1","3","1","4","1","590543915338170368","李","613","","","","","","","","","","","","","","","","","","","false","4","4","ability","1213.8085106382978","positive","全能","","","","","","","","","","","","","","",""
"null","","null","html-keyboard-response","160","367428","0.0-6.0-0.0-8.0-0.26","4","4","4","4","4","4","4","1","4","4","5","5","5","5","5","5","5","5","5","5","1","1","1","1","1","1","1","1","1","0","1","0","0","0","0","0","1","0","0","0","0","1","0","1","5","1","1","1","1","1","3","1","4","1","590543915338170368","李","613","","","","","","","","","","","","","","","","","","","","","","","","","","","","","","","","","","","","","","","",""
"486","<p style=""color:rgb(150, 250, 100); font-size: 35px;"">自己</p>","i","categorize-html","161","367915","0.0-6.0-0.0-8.0-1.26","4","4","4","4","4","4","4","1","4","4","5","5","5","5","5","5","5","5","5","5","1","1","1","1","1","1","1","1","1","0","1","0","0","0","0","0","1","0","0","0","0","1","0","1","5","1","1","1","1","1","3","1","4","1","590543915338170368","李","613","","","","","","","","","","","","","","","","","","","true","4","4","ability","486","self","自己","","","","","","","","","","","","","","",""
"null","","null","html-keyboard-response","162","368171","0.0-6.0-0.0-8.0-0.27","4","4","4","4","4","4","4","1","4","4","5","5","5","5","5","5","5","5","5","5","1","1","1","1","1","1","1","1","1","0","1","0","0","0","0","0","1","0","0","0","0","1","0","1","5","1","1","1","1","1","3","1","4","1","590543915338170368","李","613","","","","","","","","","","","","","","","","","","","","","","","","","","","","","","","","","","","","","","","",""
"599","<p style=""color:white; font-size: 35px;"">拙笨</p>","e","categorize-html","163","368771","0.0-6.0-0.0-8.0-1.27","4","4","4","4","4","4","4","1","4","4","5","5","5","5","5","5","5","5","5","5","1","1","1","1","1","1","1","1","1","0","1","0","0","0","0","0","1","0","0","0","0","1","0","1","5","1","1","1","1","1","3","1","4","1","590543915338170368","李","613","","","","","","","","","","","","","","","","","","","true","4","4","ability","599","negative","拙笨","","","","","","","","","","","","","","",""
"null","","null","html-keyboard-response","164","369028","0.0-6.0-0.0-8.0-0.28","4","4","4","4","4","4","4","1","4","4","5","5","5","5","5","5","5","5","5","5","1","1","1","1","1","1","1","1","1","0","1","0","0","0","0","0","1","0","0","0","0","1","0","1","5","1","1","1","1","1","3","1","4","1","590543915338170368","李","613","","","","","","","","","","","","","","","","","","","","","","","","","","","","","","","","","","","","","","","",""
"494","<p style=""color:rgb(150, 250, 100); font-size: 35px;"">他人</p>","e","categorize-html","165","369523","0.0-6.0-0.0-8.0-1.28","4","4","4","4","4","4","4","1","4","4","5","5","5","5","5","5","5","5","5","5","1","1","1","1","1","1","1","1","1","0","1","0","0","0","0","0","1","0","0","0","0","1","0","1","5","1","1","1","1","1","3","1","4","1","590543915338170368","李","613","","","","","","","","","","","","","","","","","","","true","4","4","ability","494","other","他人","","","","","","","","","","","","","","",""
"null","","null","html-keyboard-response","166","369773","0.0-6.0-0.0-8.0-0.29","4","4","4","4","4","4","4","1","4","4","5","5","5","5","5","5","5","5","5","5","1","1","1","1","1","1","1","1","1","0","1","0","0","0","0","0","1","0","0","0","0","1","0","1","5","1","1","1","1","1","3","1","4","1","590543915338170368","李","613","","","","","","","","","","","","","","","","","","","","","","","","","","","","","","","","","","","","","","","",""
"509","<p style=""color:white; font-size: 35px;"">低能</p>","e","categorize-html","167","370283","0.0-6.0-0.0-8.0-1.29","4","4","4","4","4","4","4","1","4","4","5","5","5","5","5","5","5","5","5","5","1","1","1","1","1","1","1","1","1","0","1","0","0","0","0","0","1","0","0","0","0","1","0","1","5","1","1","1","1","1","3","1","4","1","590543915338170368","李","613","","","","","","","","","","","","","","","","","","","true","4","4","ability","509","negative","低能","","","","","","","","","","","","","","",""
"null","","null","html-keyboard-response","168","370539","0.0-6.0-0.0-8.0-0.30","4","4","4","4","4","4","4","1","4","4","5","5","5","5","5","5","5","5","5","5","1","1","1","1","1","1","1","1","1","0","1","0","0","0","0","0","1","0","0","0","0","1","0","1","5","1","1","1","1","1","3","1","4","1","590543915338170368","李","613","","","","","","","","","","","","","","","","","","","","","","","","","","","","","","","","","","","","","","","",""
"495","<p style=""color:rgb(150, 250, 100); font-size: 35px;"">自己的</p>","i","categorize-html","169","371035","0.0-6.0-0.0-8.0-1.30","4","4","4","4","4","4","4","1","4","4","5","5","5","5","5","5","5","5","5","5","1","1","1","1","1","1","1","1","1","0","1","0","0","0","0","0","1","0","0","0","0","1","0","1","5","1","1","1","1","1","3","1","4","1","590543915338170368","李","613","","","","","","","","","","","","","","","","","","","true","4","4","ability","495","self","自己的","","","","","","","","","","","","","","",""
"null","","null","html-keyboard-response","170","371293","0.0-6.0-0.0-8.0-0.31","4","4","4","4","4","4","4","1","4","4","5","5","5","5","5","5","5","5","5","5","1","1","1","1","1","1","1","1","1","0","1","0","0","0","0","0","1","0","0","0","0","1","0","1","5","1","1","1","1","1","3","1","4","1","590543915338170368","李","613","","","","","","","","","","","","","","","","","","","","","","","","","","","","","","","","","","","","","","","",""
"454","<p style=""color:white; font-size: 35px;"">能干</p>","i","categorize-html","171","371747","0.0-6.0-0.0-8.0-1.31","4","4","4","4","4","4","4","1","4","4","5","5","5","5","5","5","5","5","5","5","1","1","1","1","1","1","1","1","1","0","1","0","0","0","0","0","1","0","0","0","0","1","0","1","5","1","1","1","1","1","3","1","4","1","590543915338170368","李","613","","","","","","","","","","","","","","","","","","","true","4","4","ability","454","positive","能干","","","","","","","","","","","","","","",""
"null","","null","html-keyboard-response","172","372003","0.0-6.0-0.0-8.0-0.32","4","4","4","4","4","4","4","1","4","4","5","5","5","5","5","5","5","5","5","5","1","1","1","1","1","1","1","1","1","0","1","0","0","0","0","0","1","0","0","0","0","1","0","1","5","1","1","1","1","1","3","1","4","1","590543915338170368","李","613","","","","","","","","","","","","","","","","","","","","","","","","","","","","","","","","","","","","","","","",""
"455","<p style=""color:rgb(150, 250, 100); font-size: 35px;"">我</p>","i","categorize-html","173","372459","0.0-6.0-0.0-8.0-1.32","4","4","4","4","4","4","4","1","4","4","5","5","5","5","5","5","5","5","5","5","1","1","1","1","1","1","1","1","1","0","1","0","0","0","0","0","1","0","0","0","0","1","0","1","5","1","1","1","1","1","3","1","4","1","590543915338170368","李","613","","","","","","","","","","","","","","","","","","","true","4","4","ability","455","self","我","","","","","","","","","","","","","","",""
"null","","null","html-keyboard-response","174","372715","0.0-6.0-0.0-8.0-0.33","4","4","4","4","4","4","4","1","4","4","5","5","5","5","5","5","5","5","5","5","1","1","1","1","1","1","1","1","1","0","1","0","0","0","0","0","1","0","0","0","0","1","0","1","5","1","1","1","1","1","3","1","4","1","590543915338170368","李","613","","","","","","","","","","","","","","","","","","","","","","","","","","","","","","","","","","","","","","","",""
"519","<p style=""color:white; font-size: 35px;"">愚钝</p>","e","categorize-html","175","373234","0.0-6.0-0.0-8.0-1.33","4","4","4","4","4","4","4","1","4","4","5","5","5","5","5","5","5","5","5","5","1","1","1","1","1","1","1","1","1","0","1","0","0","0","0","0","1","0","0","0","0","1","0","1","5","1","1","1","1","1","3","1","4","1","590543915338170368","李","613","","","","","","","","","","","","","","","","","","","true","4","4","ability","519","negative","愚钝","","","","","","","","","","","","","","",""
"null","","null","html-keyboard-response","176","373491","0.0-6.0-0.0-8.0-0.34","4","4","4","4","4","4","4","1","4","4","5","5","5","5","5","5","5","5","5","5","1","1","1","1","1","1","1","1","1","0","1","0","0","0","0","0","1","0","0","0","0","1","0","1","5","1","1","1","1","1","3","1","4","1","590543915338170368","李","613","","","","","","","","","","","","","","","","","","","","","","","","","","","","","","","","","","","","","","","",""
"471","<p style=""color:rgb(150, 250, 100); font-size: 35px;"">他人</p>","e","categorize-html","177","373963","0.0-6.0-0.0-8.0-1.34","4","4","4","4","4","4","4","1","4","4","5","5","5","5","5","5","5","5","5","5","1","1","1","1","1","1","1","1","1","0","1","0","0","0","0","0","1","0","0","0","0","1","0","1","5","1","1","1","1","1","3","1","4","1","590543915338170368","李","613","","","","","","","","","","","","","","","","","","","true","4","4","ability","471","other","他人","","","","","","","","","","","","","","",""
"null","","null","html-keyboard-response","178","374218","0.0-6.0-0.0-8.0-0.35","4","4","4","4","4","4","4","1","4","4","5","5","5","5","5","5","5","5","5","5","1","1","1","1","1","1","1","1","1","0","1","0","0","0","0","0","1","0","0","0","0","1","0","1","5","1","1","1","1","1","3","1","4","1","590543915338170368","李","613","","","","","","","","","","","","","","","","","","","","","","","","","","","","","","","","","","","","","","","",""
"552","<p style=""color:white; font-size: 35px;"">天才</p>","i","categorize-html","179","374771","0.0-6.0-0.0-8.0-1.35","4","4","4","4","4","4","4","1","4","4","5","5","5","5","5","5","5","5","5","5","1","1","1","1","1","1","1","1","1","0","1","0","0","0","0","0","1","0","0","0","0","1","0","1","5","1","1","1","1","1","3","1","4","1","590543915338170368","李","613","","","","","","","","","","","","","","","","","","","true","4","4","ability","552","positive","天才","","","","","","","","","","","","","","",""
"null","","null","html-keyboard-response","180","375027","0.0-6.0-0.0-8.0-0.36","4","4","4","4","4","4","4","1","4","4","5","5","5","5","5","5","5","5","5","5","1","1","1","1","1","1","1","1","1","0","1","0","0","0","0","0","1","0","0","0","0","1","0","1","5","1","1","1","1","1","3","1","4","1","590543915338170368","李","613","","","","","","","","","","","","","","","","","","","","","","","","","","","","","","","","","","","","","","","",""
"639","<p style=""color:rgb(150, 250, 100); font-size: 35px;"">别人的</p>","e","categorize-html","181","375667","0.0-6.0-0.0-8.0-1.36","4","4","4","4","4","4","4","1","4","4","5","5","5","5","5","5","5","5","5","5","1","1","1","1","1","1","1","1","1","0","1","0","0","0","0","0","1","0","0","0","0","1","0","1","5","1","1","1","1","1","3","1","4","1","590543915338170368","李","613","","","","","","","","","","","","","","","","","","","true","4","4","ability","639","other","别人的","","","","","","","","","","","","","","",""
"null","","null","html-keyboard-response","182","375924","0.0-6.0-0.0-8.0-0.37","4","4","4","4","4","4","4","1","4","4","5","5","5","5","5","5","5","5","5","5","1","1","1","1","1","1","1","1","1","0","1","0","0","0","0","0","1","0","0","0","0","1","0","1","5","1","1","1","1","1","3","1","4","1","590543915338170368","李","613","","","","","","","","","","","","","","","","","","","","","","","","","","","","","","","","","","","","","","","",""
"1382","<p style=""color:white; font-size: 35px;"">无能</p>","e","categorize-html","183","377307","0.0-6.0-0.0-8.0-1.37","4","4","4","4","4","4","4","1","4","4","5","5","5","5","5","5","5","5","5","5","1","1","1","1","1","1","1","1","1","0","1","0","0","0","0","0","1","0","0","0","0","1","0","1","5","1","1","1","1","1","3","1","4","1","590543915338170368","李","613","","","","","","","","","","","","","","","","","","","true","4","4","ability","1382","negative","无能","","","","","","","","","","","","","","",""
"null","","null","html-keyboard-response","184","377563","0.0-6.0-0.0-8.0-0.38","4","4","4","4","4","4","4","1","4","4","5","5","5","5","5","5","5","5","5","5","1","1","1","1","1","1","1","1","1","0","1","0","0","0","0","0","1","0","0","0","0","1","0","1","5","1","1","1","1","1","3","1","4","1","590543915338170368","李","613","","","","","","","","","","","","","","","","","","","","","","","","","","","","","","","","","","","","","","","",""
"431","<p style=""color:rgb(150, 250, 100); font-size: 35px;"">本人</p>","i","categorize-html","185","377995","0.0-6.0-0.0-8.0-1.38","4","4","4","4","4","4","4","1","4","4","5","5","5","5","5","5","5","5","5","5","1","1","1","1","1","1","1","1","1","0","1","0","0","0","0","0","1","0","0","0","0","1","0","1","5","1","1","1","1","1","3","1","4","1","590543915338170368","李","613","","","","","","","","","","","","","","","","","","","true","4","4","ability","431","self","本人","","","","","","","","","","","","","","",""
"null","","null","html-keyboard-response","186","378252","0.0-6.0-0.0-8.0-0.39","4","4","4","4","4","4","4","1","4","4","5","5","5","5","5","5","5","5","5","5","1","1","1","1","1","1","1","1","1","0","1","0","0","0","0","0","1","0","0","0","0","1","0","1","5","1","1","1","1","1","3","1","4","1","590543915338170368","李","613","","","","","","","","","","","","","","","","","","","","","","","","","","","","","","","","","","","","","","","",""
"551","<p style=""color:white; font-size: 35px;"">全才</p>","i","categorize-html","187","378803","0.0-6.0-0.0-8.0-1.39","4","4","4","4","4","4","4","1","4","4","5","5","5","5","5","5","5","5","5","5","1","1","1","1","1","1","1","1","1","0","1","0","0","0","0","0","1","0","0","0","0","1","0","1","5","1","1","1","1","1","3","1","4","1","590543915338170368","李","613","","","","","","","","","","","","","","","","","","","true","4","4","ability","551","positive","全才","","","","","","","","","","","","","","",""
"null","","null","html-keyboard-response","188","379059","0.0-6.0-0.0-8.0-0.40","4","4","4","4","4","4","4","1","4","4","5","5","5","5","5","5","5","5","5","5","1","1","1","1","1","1","1","1","1","0","1","0","0","0","0","0","1","0","0","0","0","1","0","1","5","1","1","1","1","1","3","1","4","1","590543915338170368","李","613","","","","","","","","","","","","","","","","","","","","","","","","","","","","","","","","","","","","","","","",""
"447","<p style=""color:rgb(150, 250, 100); font-size: 35px;"">自己的</p>","i","categorize-html","189","379507","0.0-6.0-0.0-8.0-1.40","4","4","4","4","4","4","4","1","4","4","5","5","5","5","5","5","5","5","5","5","1","1","1","1","1","1","1","1","1","0","1","0","0","0","0","0","1","0","0","0","0","1","0","1","5","1","1","1","1","1","3","1","4","1","590543915338170368","李","613","","","","","","","","","","","","","","","","","","","true","4","4","ability","447","self","自己的","","","","","","","","","","","","","","",""
"null","","null","html-keyboard-response","190","379764","0.0-6.0-0.0-8.0-0.41","4","4","4","4","4","4","4","1","4","4","5","5","5","5","5","5","5","5","5","5","1","1","1","1","1","1","1","1","1","0","1","0","0","0","0","0","1","0","0","0","0","1","0","1","5","1","1","1","1","1","3","1","4","1","590543915338170368","李","613","","","","","","","","","","","","","","","","","","","","","","","","","","","","","","","","","","","","","","","",""
"2015","<p style=""color:white; font-size: 35px;"">全能</p>","i","categorize-html","191","381778","0.0-6.0-0.0-8.0-1.41","4","4","4","4","4","4","4","1","4","4","5","5","5","5","5","5","5","5","5","5","1","1","1","1","1","1","1","1","1","0","1","0","0","0","0","0","1","0","0","0","0","1","0","1","5","1","1","1","1","1","3","1","4","1","590543915338170368","李","613","","","","","","","","","","","","","","","","","","","true","4","4","ability","2015","positive","全能","","","","","","","","","","","","","","",""
"null","","null","html-keyboard-response","192","382035","0.0-6.0-0.0-8.0-0.42","4","4","4","4","4","4","4","1","4","4","5","5","5","5","5","5","5","5","5","5","1","1","1","1","1","1","1","1","1","0","1","0","0","0","0","0","1","0","0","0","0","1","0","1","5","1","1","1","1","1","3","1","4","1","590543915338170368","李","613","","","","","","","","","","","","","","","","","","","","","","","","","","","","","","","","","","","","","","","",""
"814","<p style=""color:rgb(150, 250, 100); font-size: 35px;"">他</p>","e","categorize-html","193","382850","0.0-6.0-0.0-8.0-1.42","4","4","4","4","4","4","4","1","4","4","5","5","5","5","5","5","5","5","5","5","1","1","1","1","1","1","1","1","1","0","1","0","0","0","0","0","1","0","0","0","0","1","0","1","5","1","1","1","1","1","3","1","4","1","590543915338170368","李","613","","","","","","","","","","","","","","","","","","","true","4","4","ability","814","other","他","","","","","","","","","","","","","","",""
"null","","null","html-keyboard-response","194","383107","0.0-6.0-0.0-8.0-0.43","4","4","4","4","4","4","4","1","4","4","5","5","5","5","5","5","5","5","5","5","1","1","1","1","1","1","1","1","1","0","1","0","0","0","0","0","1","0","0","0","0","1","0","1","5","1","1","1","1","1","3","1","4","1","590543915338170368","李","613","","","","","","","","","","","","","","","","","","","","","","","","","","","","","","","","","","","","","","","",""
"439","<p style=""color:white; font-size: 35px;"">无能</p>","e","categorize-html","195","383546","0.0-6.0-0.0-8.0-1.43","4","4","4","4","4","4","4","1","4","4","5","5","5","5","5","5","5","5","5","5","1","1","1","1","1","1","1","1","1","0","1","0","0","0","0","0","1","0","0","0","0","1","0","1","5","1","1","1","1","1","3","1","4","1","590543915338170368","李","613","","","","","","","","","","","","","","","","","","","true","4","4","ability","439","negative","无能","","","","","","","","","","","","","","",""
