"rt","stimulus","response","trial_type","trial_index","time_elapsed","internal_node_id","ses_1","ses_2","ses_3","ses_4","ses_5","ses_6","ses_7","ses_8","ses_9","ses_10","coreself_1","coreself_2","coreself_3","coreself_4","coreself_5","coreself_6","coreself_7","coreself_8","coreself_9","coreself_10","SGPS_1","SGPS_2","SGPS_3","SGPS_4","SGPS_5","SGPS_6","SGPS_7","SGPS_8","SGPS_9","NPI1","NPI2","NPI3","NPI4","NPI5","NPI6","NPI7","NPI8","NPI9","NPI10","NPI11","NPI12","NPI13","NPI14","NPI15","hsns_1","hsns_2","hsns_3","hsns_4","hsns_5","hsns_6","hsns_7","hsns_8","hsns_9","hsns_10","subj_idx","friend_name","ParticipantID","value","success","user_agent","responses","item_order","radio_event_ids","radio_event_times","key_event_times","mouse_event_times","straightlining","zigzagging","honeypot","timeout","failed_images","failed_audio","failed_video","version_attrib","version_target","correct","IAT","screen_id","task_id","RT","condition","word","varname","summary","version_attrib2","version_target2","time_stamp","view_history","response_type","key_press","avg_frame_time","center_x","center_y","correct_response","identity","Image","question_order"
"5223","
   <p><div style = ""color: white;font-size:25px;"">您好，欢迎参加本次实验。</div> </p>
   <p><div style = ""color: white;font-size:25px;"">为充分保障您的权利，请确保您已经知晓并同意《参与实验同意书》以及《数据公开知情同意书》。</div></p>
   <p><div style = ""color: white;font-size:25px;"">如果您未见过上述内容，请咨询实验员。</div></p>
   <p><div style = ""color: white;font-size:25px;"">如果您选择继续实验，则表示您已经清楚两份知情同意书的内容并同意。</div></p>
   <p> <div style = ""color: green;font-size:25px;""><按空格键至下页></div> </p>
   "," ","html-keyboard-response","0","5226","0.0-0.0","2","3","1","2","2","1","1","2","1","1","2","1","2","2","2","2","3","1","2","1","3","2","2","3","2","3","3","4","2","1","0","1","1","0","1","1","1","0","0","1","0","0","0","1","3","5","4","3","4","4","3","4","2","4","754335804045922305","曹","38","","","","","","","","","","","","","","","","","","","","","","","","","","","","","","","","","","","","","","","",""
"","","","call-function","1","5227","0.0-1.0-0.0","2","3","1","2","2","1","1","2","1","1","2","1","2","2","2","2","3","1","2","1","3","2","2","3","2","3","3","4","2","1","0","1","1","0","1","1","1","0","0","1","0","0","0","1","3","5","4","3","4","4","3","4","2","4","754335804045922305","曹","38","","","","","","","","","","","","","","","","","","","","","","","","","","","","","","","","","","","","","","","",""
"17430","","{""friend_name"":""曹"",""ParticipantID"":""38""}","survey-html-form","2","22658","0.0-1.0-1.0","2","3","1","2","2","1","1","2","1","1","2","1","2","2","2","2","3","1","2","1","3","2","2","3","2","3","3","4","2","1","0","1","1","0","1","1","1","0","0","1","0","0","0","1","3","5","4","3","4","4","3","4","2","4","754335804045922305","曹","38","","","","","","","","","","","","","","","","","","","","","","","","","","","","","","","","","","","","","","","",""
"","","","fullscreen","3","47114","0.0-2.0","2","3","1","2","2","1","1","2","1","1","2","1","2","2","2","2","3","1","2","1","3","2","2","3","2","3","3","4","2","1","0","1","1","0","1","1","1","0","0","1","0","0","0","1","3","5","4","3","4","4","3","4","2","4","754335804045922305","曹","38","","true","{}","","","","","","","","","","","","","","","","","","","","","","","","","","","","","","","","","","","","",""
"19205.799999998882","","{""Q01"":""2"",""Q02"":""3"",""Q03"":""1"",""Q04"":""2"",""Q05"":""2"",""Q06"":""1"",""Q07"":""1"",""Q08"":""2"",""Q09"":""1"",""Q10"":""1""}","survey-template","4","66323","0.0-3.0","2","3","1","2","2","1","1","2","1","1","2","1","2","2","2","2","3","1","2","1","3","2","2","3","2","3","3","4","2","1","0","1","1","0","1","1","1","0","0","1","0","0","0","1","3","5","4","3","4","4","3","4","2","4","754335804045922305","曹","38","","","","{""Q01"":""2"",""Q02"":""3"",""Q03"":""1"",""Q04"":""2"",""Q05"":""2"",""Q06"":""1"",""Q07"":""1"",""Q08"":""2"",""Q09"":""1"",""Q10"":""1""}","[0,1,2,3,4,5,6,7,8,9]","[""Q01"",""Q02"",""Q03"",""Q04"",""Q05"",""Q06"",""Q07"",""Q08"",""Q09"",""Q10""]","[6302.299999998882,9636.699999999255,10444.89999999851,11277.699999999255,12165.099999999627,14756.799999998882,15269,16301.299999998882,17508.699999999255,18557.099999999627]","[]","[6302.299999998882,9125.099999999627,9636.699999999255,10444.89999999851,11277.699999999255,12165.099999999627,13828.699999999255,14756.799999998882,15269,16301.299999998882,17508.699999999255,17909.5,18557.099999999627,19204.799999998882]","0.3","0.4444444444444444","0","","","","","","","","","","","","","","","","","","","","","","","","","","","",""
"14514.200000001118","","{""Q01"":""2"",""Q02"":""1"",""Q03"":""2"",""Q04"":""2"",""Q05"":""2"",""Q06"":""2"",""Q07"":""3"",""Q08"":""1"",""Q09"":""2"",""Q10"":""1""}","survey-template","5","80844","0.0-4.0","2","3","1","2","2","1","1","2","1","1","2","1","2","2","2","2","3","1","2","1","3","2","2","3","2","3","3","4","2","1","0","1","1","0","1","1","1","0","0","1","0","0","0","1","3","5","4","3","4","4","3","4","2","4","754335804045922305","曹","38","","","","{""Q01"":""2"",""Q02"":""1"",""Q03"":""2"",""Q04"":""2"",""Q05"":""2"",""Q06"":""2"",""Q07"":""3"",""Q08"":""1"",""Q09"":""2"",""Q10"":""1""}","[0,1,2,3,4,5,6,7,8,9]","[""Q01"",""Q02"",""Q03"",""Q04"",""Q05"",""Q06"",""Q07"",""Q08"",""Q09"",""Q10""]","[1817.1000000014901,2768.9000000003725,3736.800000000745,4744.800000000745,5680.9000000003725,7521.200000001118,9345.200000001118,10616.800000000745,12873,13585.900000000373]","[]","[1817.1000000014901,2768.9000000003725,3736.800000000745,4744.800000000745,5680.9000000003725,7521.200000001118,9345.200000001118,10616.800000000745,12121.5,12873,13585.900000000373,14512.900000000373]","0.4","0.2222222222222222","0","","","","","","","","","","","","","","","","","","","","","","","","","","","",""
"","","","preload","6","82165","0.0-5.0","2","3","1","2","2","1","1","2","1","1","2","1","2","2","2","2","3","1","2","1","3","2","2","3","2","3","3","4","2","1","0","1","1","0","1","1","1","0","0","1","0","0","0","1","3","5","4","3","4","4","3","4","2","4","754335804045922305","曹","38","","true","","","","","","","","","","","false","[]","[]","[]","","","","","","","","","","","","","","","","","","","","","","","",""
"22948","
    <h3>词语分类任务</h3>
    <p>在接下来的任务中，你需要对一系列词语进行分类。</p>
    <p>请先熟悉这些词语，这有利于你完成接下来的任务。</p>
    <table align=""center"" border=1 cellpadding=3 cellspacing=0>
    <tr> <th>类别</th> <th>词语</th> </tr>
    <tr> <td>&emsp;积极&emsp;</td> <td>&emsp;能干、全能、全才、高效、精干、天才&emsp;</td> </tr>
    <tr> <td>&emsp;消极&emsp;</td> <td>&emsp;无能、低能、废物、拙笨、愚钝、蠢笨&emsp;</td> </tr>
    <tr> <td>&emsp;自我&emsp;</td> <td>&emsp;我、我的、自己、自己的、本人、本人的&emsp;</td> </tr>
    <tr> <td>&emsp;他人&emsp;</td> <td>&emsp;他、他的、别人、别人的、他人、他人的&emsp;</td> </tr>
    </table><br/>","0","html-button-response","7","105115","0.0-6.0-0.0-0.0","2","3","1","2","2","1","1","2","1","1","2","1","2","2","2","2","3","1","2","1","3","2","2","3","2","3","3","4","2","1","0","1","1","0","1","1","1","0","0","1","0","0","0","1","3","5","4","3","4","4","3","4","2","4","754335804045922305","曹","38","","","","","","","","","","","","","","","","","2","1","","","","","","","","","","","","","","","","","","","","","",""
"12502","
    <div class=""tag-bottom"">
    <p> —— 任务1：对“自我”词和“他人”词分类 ——<p/>
    不同词语会出现在屏幕中央，类别标签将始终显示在屏幕上方<p/>   
    <span style=""color:#FFD866""><b>请根据上方标签的提示，尽可能正确并且快速地做出按键反应</b></span><p/>
    当按键错误时屏幕中会出现<span style=""color:red""> X </span>，需要按另一个键纠正才能继续<br/><p/>
    请把双手食指分别放在键盘的“E”键和“I”键上<p/>
    按<空格键>开始
    </p></div>"," ","html-keyboard-response","8","117620","0.0-6.0-0.0-1.0","2","3","1","2","2","1","1","2","1","1","2","1","2","2","2","2","3","1","2","1","3","2","2","3","2","3","3","4","2","1","0","1","1","0","1","1","1","0","0","1","0","0","0","1","3","5","4","3","4","4","3","4","2","4","754335804045922305","曹","38","","","","","","","","","","","","","","","","","","","","","","","","","","","","","","","","","","","","","","","",""
"null","","null","html-keyboard-response","9","117875","0.0-6.0-0.0-2.0-0.0","2","3","1","2","2","1","1","2","1","1","2","1","2","2","2","2","3","1","2","1","3","2","2","3","2","3","3","4","2","1","0","1","1","0","1","1","1","0","0","1","0","0","0","1","3","5","4","3","4","4","3","4","2","4","754335804045922305","曹","38","","","","","","","","","","","","","","","","","","","","","","","","","","","","","","","","","","","","","","","",""
"1236","<p style=""color:rgb(150, 250, 100); font-size: 35px;"">本人</p>","e","categorize-html","10","119114","0.0-6.0-0.0-2.0-1.0","2","3","1","2","2","1","1","2","1","1","2","1","2","2","2","2","3","1","2","1","3","2","2","3","2","3","3","4","2","1","0","1","1","0","1","1","1","0","0","1","0","0","0","1","3","5","4","3","4","4","3","4","2","4","754335804045922305","曹","38","","","","","","","","","","","","","","","","","","","true","1","1","ability","1236","self","本人","","","","","","","","","","","","","","",""
"null","","null","html-keyboard-response","11","119371","0.0-6.0-0.0-2.0-0.1","2","3","1","2","2","1","1","2","1","1","2","1","2","2","2","2","3","1","2","1","3","2","2","3","2","3","3","4","2","1","0","1","1","0","1","1","1","0","0","1","0","0","0","1","3","5","4","3","4","4","3","4","2","4","754335804045922305","曹","38","","","","","","","","","","","","","","","","","","","","","","","","","","","","","","","","","","","","","","","",""
"711","<p style=""color:rgb(150, 250, 100); font-size: 35px;"">他</p>","i","categorize-html","12","120084","0.0-6.0-0.0-2.0-1.1","2","3","1","2","2","1","1","2","1","1","2","1","2","2","2","2","3","1","2","1","3","2","2","3","2","3","3","4","2","1","0","1","1","0","1","1","1","0","0","1","0","0","0","1","3","5","4","3","4","4","3","4","2","4","754335804045922305","曹","38","","","","","","","","","","","","","","","","","","","true","1","1","ability","711","other","他","","","","","","","","","","","","","","",""
"null","","null","html-keyboard-response","13","120338","0.0-6.0-0.0-2.0-0.2","2","3","1","2","2","1","1","2","1","1","2","1","2","2","2","2","3","1","2","1","3","2","2","3","2","3","3","4","2","1","0","1","1","0","1","1","1","0","0","1","0","0","0","1","3","5","4","3","4","4","3","4","2","4","754335804045922305","曹","38","","","","","","","","","","","","","","","","","","","","","","","","","","","","","","","","","","","","","","","",""
"507","<p style=""color:rgb(150, 250, 100); font-size: 35px;"">自己</p>","e","categorize-html","14","120847","0.0-6.0-0.0-2.0-1.2","2","3","1","2","2","1","1","2","1","1","2","1","2","2","2","2","3","1","2","1","3","2","2","3","2","3","3","4","2","1","0","1","1","0","1","1","1","0","0","1","0","0","0","1","3","5","4","3","4","4","3","4","2","4","754335804045922305","曹","38","","","","","","","","","","","","","","","","","","","true","1","1","ability","507","self","自己","","","","","","","","","","","","","","",""
"null","","null","html-keyboard-response","15","121108","0.0-6.0-0.0-2.0-0.3","2","3","1","2","2","1","1","2","1","1","2","1","2","2","2","2","3","1","2","1","3","2","2","3","2","3","3","4","2","1","0","1","1","0","1","1","1","0","0","1","0","0","0","1","3","5","4","3","4","4","3","4","2","4","754335804045922305","曹","38","","","","","","","","","","","","","","","","","","","","","","","","","","","","","","","","","","","","","","","",""
"662","<p style=""color:rgb(150, 250, 100); font-size: 35px;"">自己的</p>","e","categorize-html","16","121772","0.0-6.0-0.0-2.0-1.3","2","3","1","2","2","1","1","2","1","1","2","1","2","2","2","2","3","1","2","1","3","2","2","3","2","3","3","4","2","1","0","1","1","0","1","1","1","0","0","1","0","0","0","1","3","5","4","3","4","4","3","4","2","4","754335804045922305","曹","38","","","","","","","","","","","","","","","","","","","true","1","1","ability","662","self","自己的","","","","","","","","","","","","","","",""
"null","","null","html-keyboard-response","17","122026","0.0-6.0-0.0-2.0-0.4","2","3","1","2","2","1","1","2","1","1","2","1","2","2","2","2","3","1","2","1","3","2","2","3","2","3","3","4","2","1","0","1","1","0","1","1","1","0","0","1","0","0","0","1","3","5","4","3","4","4","3","4","2","4","754335804045922305","曹","38","","","","","","","","","","","","","","","","","","","","","","","","","","","","","","","","","","","","","","","",""
"761","<p style=""color:rgb(150, 250, 100); font-size: 35px;"">本人的</p>","e","categorize-html","18","122790","0.0-6.0-0.0-2.0-1.4","2","3","1","2","2","1","1","2","1","1","2","1","2","2","2","2","3","1","2","1","3","2","2","3","2","3","3","4","2","1","0","1","1","0","1","1","1","0","0","1","0","0","0","1","3","5","4","3","4","4","3","4","2","4","754335804045922305","曹","38","","","","","","","","","","","","","","","","","","","true","1","1","ability","761","self","本人的","","","","","","","","","","","","","","",""
"null","","null","html-keyboard-response","19","123042","0.0-6.0-0.0-2.0-0.5","2","3","1","2","2","1","1","2","1","1","2","1","2","2","2","2","3","1","2","1","3","2","2","3","2","3","3","4","2","1","0","1","1","0","1","1","1","0","0","1","0","0","0","1","3","5","4","3","4","4","3","4","2","4","754335804045922305","曹","38","","","","","","","","","","","","","","","","","","","","","","","","","","","","","","","","","","","","","","","",""
"541","<p style=""color:rgb(150, 250, 100); font-size: 35px;"">他人的</p>","i","categorize-html","20","123586","0.0-6.0-0.0-2.0-1.5","2","3","1","2","2","1","1","2","1","1","2","1","2","2","2","2","3","1","2","1","3","2","2","3","2","3","3","4","2","1","0","1","1","0","1","1","1","0","0","1","0","0","0","1","3","5","4","3","4","4","3","4","2","4","754335804045922305","曹","38","","","","","","","","","","","","","","","","","","","true","1","1","ability","541","other","他人的","","","","","","","","","","","","","","",""
"null","","null","html-keyboard-response","21","123842","0.0-6.0-0.0-2.0-0.6","2","3","1","2","2","1","1","2","1","1","2","1","2","2","2","2","3","1","2","1","3","2","2","3","2","3","3","4","2","1","0","1","1","0","1","1","1","0","0","1","0","0","0","1","3","5","4","3","4","4","3","4","2","4","754335804045922305","曹","38","","","","","","","","","","","","","","","","","","","","","","","","","","","","","","","","","","","","","","","",""
"482","<p style=""color:rgb(150, 250, 100); font-size: 35px;"">我</p>","e","categorize-html","22","124326","0.0-6.0-0.0-2.0-1.6","2","3","1","2","2","1","1","2","1","1","2","1","2","2","2","2","3","1","2","1","3","2","2","3","2","3","3","4","2","1","0","1","1","0","1","1","1","0","0","1","0","0","0","1","3","5","4","3","4","4","3","4","2","4","754335804045922305","曹","38","","","","","","","","","","","","","","","","","","","true","1","1","ability","482","self","我","","","","","","","","","","","","","","",""
"null","","null","html-keyboard-response","23","124579","0.0-6.0-0.0-2.0-0.7","2","3","1","2","2","1","1","2","1","1","2","1","2","2","2","2","3","1","2","1","3","2","2","3","2","3","3","4","2","1","0","1","1","0","1","1","1","0","0","1","0","0","0","1","3","5","4","3","4","4","3","4","2","4","754335804045922305","曹","38","","","","","","","","","","","","","","","","","","","","","","","","","","","","","","","","","","","","","","","",""
"597","<p style=""color:rgb(150, 250, 100); font-size: 35px;"">别人的</p>","i","categorize-html","24","125178","0.0-6.0-0.0-2.0-1.7","2","3","1","2","2","1","1","2","1","1","2","1","2","2","2","2","3","1","2","1","3","2","2","3","2","3","3","4","2","1","0","1","1","0","1","1","1","0","0","1","0","0","0","1","3","5","4","3","4","4","3","4","2","4","754335804045922305","曹","38","","","","","","","","","","","","","","","","","","","true","1","1","ability","597","other","别人的","","","","","","","","","","","","","","",""
"null","","null","html-keyboard-response","25","125435","0.0-6.0-0.0-2.0-0.8","2","3","1","2","2","1","1","2","1","1","2","1","2","2","2","2","3","1","2","1","3","2","2","3","2","3","3","4","2","1","0","1","1","0","1","1","1","0","0","1","0","0","0","1","3","5","4","3","4","4","3","4","2","4","754335804045922305","曹","38","","","","","","","","","","","","","","","","","","","","","","","","","","","","","","","","","","","","","","","",""
"570","<p style=""color:rgb(150, 250, 100); font-size: 35px;"">别人</p>","i","categorize-html","26","126007","0.0-6.0-0.0-2.0-1.8","2","3","1","2","2","1","1","2","1","1","2","1","2","2","2","2","3","1","2","1","3","2","2","3","2","3","3","4","2","1","0","1","1","0","1","1","1","0","0","1","0","0","0","1","3","5","4","3","4","4","3","4","2","4","754335804045922305","曹","38","","","","","","","","","","","","","","","","","","","true","1","1","ability","570","other","别人","","","","","","","","","","","","","","",""
"null","","null","html-keyboard-response","27","126258","0.0-6.0-0.0-2.0-0.9","2","3","1","2","2","1","1","2","1","1","2","1","2","2","2","2","3","1","2","1","3","2","2","3","2","3","3","4","2","1","0","1","1","0","1","1","1","0","0","1","0","0","0","1","3","5","4","3","4","4","3","4","2","4","754335804045922305","曹","38","","","","","","","","","","","","","","","","","","","","","","","","","","","","","","","","","","","","","","","",""
"557","<p style=""color:rgb(150, 250, 100); font-size: 35px;"">我的</p>","e","categorize-html","28","126817","0.0-6.0-0.0-2.0-1.9","2","3","1","2","2","1","1","2","1","1","2","1","2","2","2","2","3","1","2","1","3","2","2","3","2","3","3","4","2","1","0","1","1","0","1","1","1","0","0","1","0","0","0","1","3","5","4","3","4","4","3","4","2","4","754335804045922305","曹","38","","","","","","","","","","","","","","","","","","","true","1","1","ability","557","self","我的","","","","","","","","","","","","","","",""
"null","","null","html-keyboard-response","29","127074","0.0-6.0-0.0-2.0-0.10","2","3","1","2","2","1","1","2","1","1","2","1","2","2","2","2","3","1","2","1","3","2","2","3","2","3","3","4","2","1","0","1","1","0","1","1","1","0","0","1","0","0","0","1","3","5","4","3","4","4","3","4","2","4","754335804045922305","曹","38","","","","","","","","","","","","","","","","","","","","","","","","","","","","","","","","","","","","","","","",""
"665","<p style=""color:rgb(150, 250, 100); font-size: 35px;"">他人</p>","i","categorize-html","30","127742","0.0-6.0-0.0-2.0-1.10","2","3","1","2","2","1","1","2","1","1","2","1","2","2","2","2","3","1","2","1","3","2","2","3","2","3","3","4","2","1","0","1","1","0","1","1","1","0","0","1","0","0","0","1","3","5","4","3","4","4","3","4","2","4","754335804045922305","曹","38","","","","","","","","","","","","","","","","","","","true","1","1","ability","665","other","他人","","","","","","","","","","","","","","",""
"null","","null","html-keyboard-response","31","127996","0.0-6.0-0.0-2.0-0.11","2","3","1","2","2","1","1","2","1","1","2","1","2","2","2","2","3","1","2","1","3","2","2","3","2","3","3","4","2","1","0","1","1","0","1","1","1","0","0","1","0","0","0","1","3","5","4","3","4","4","3","4","2","4","754335804045922305","曹","38","","","","","","","","","","","","","","","","","","","","","","","","","","","","","","","","","","","","","","","",""
"502","<p style=""color:rgb(150, 250, 100); font-size: 35px;"">他的</p>","i","categorize-html","32","128501","0.0-6.0-0.0-2.0-1.11","2","3","1","2","2","1","1","2","1","1","2","1","2","2","2","2","3","1","2","1","3","2","2","3","2","3","3","4","2","1","0","1","1","0","1","1","1","0","0","1","0","0","0","1","3","5","4","3","4","4","3","4","2","4","754335804045922305","曹","38","","","","","","","","","","","","","","","","","","","true","1","1","ability","502","other","他的","","","","","","","","","","","","","","",""
"5409","
    <div class=""tag-bottom""><p>
    —— 任务2：对“消极”词和“积极”词分类 ——<p/>   
    <span style=""color:#78DCE8""><b>注意上方，类别标签和需要分类的词语都已经改变</b></span><p/>
    <span style=""color:#FFD866""><b>请根据上方标签的提示，尽可能正确并且快速地做出按键反应</b></span><p/>
    当按键错误时屏幕中会出现<span style=""color:red""> X </span>，需要按另一个键纠正才能继续<br/><p/>
    请把双手食指分别放在键盘的“E”键和“I”键上<p/>
    按<空格键>开始
    </p></div>"," ","html-keyboard-response","33","133910","0.0-6.0-0.0-3.0","2","3","1","2","2","1","1","2","1","1","2","1","2","2","2","2","3","1","2","1","3","2","2","3","2","3","3","4","2","1","0","1","1","0","1","1","1","0","0","1","0","0","0","1","3","5","4","3","4","4","3","4","2","4","754335804045922305","曹","38","","","","","","","","","","","","","","","","","","","","","","","","","","","","","","","","","","","","","","","",""
"null","","null","html-keyboard-response","34","134162","0.0-6.0-0.0-4.0-0.0","2","3","1","2","2","1","1","2","1","1","2","1","2","2","2","2","3","1","2","1","3","2","2","3","2","3","3","4","2","1","0","1","1","0","1","1","1","0","0","1","0","0","0","1","3","5","4","3","4","4","3","4","2","4","754335804045922305","曹","38","","","","","","","","","","","","","","","","","","","","","","","","","","","","","","","","","","","","","","","",""
"758","<p style=""color:white; font-size: 35px;"">全才</p>","i","categorize-html","35","134922","0.0-6.0-0.0-4.0-1.0","2","3","1","2","2","1","1","2","1","1","2","1","2","2","2","2","3","1","2","1","3","2","2","3","2","3","3","4","2","1","0","1","1","0","1","1","1","0","0","1","0","0","0","1","3","5","4","3","4","4","3","4","2","4","754335804045922305","曹","38","","","","","","","","","","","","","","","","","","","true","2","2","ability","758","positive","全才","","","","","","","","","","","","","","",""
"null","","null","html-keyboard-response","36","135178","0.0-6.0-0.0-4.0-0.1","2","3","1","2","2","1","1","2","1","1","2","1","2","2","2","2","3","1","2","1","3","2","2","3","2","3","3","4","2","1","0","1","1","0","1","1","1","0","0","1","0","0","0","1","3","5","4","3","4","4","3","4","2","4","754335804045922305","曹","38","","","","","","","","","","","","","","","","","","","","","","","","","","","","","","","","","","","","","","","",""
"565","<p style=""color:white; font-size: 35px;"">无能</p>","e","categorize-html","37","135745","0.0-6.0-0.0-4.0-1.1","2","3","1","2","2","1","1","2","1","1","2","1","2","2","2","2","3","1","2","1","3","2","2","3","2","3","3","4","2","1","0","1","1","0","1","1","1","0","0","1","0","0","0","1","3","5","4","3","4","4","3","4","2","4","754335804045922305","曹","38","","","","","","","","","","","","","","","","","","","true","2","2","ability","565","negative","无能","","","","","","","","","","","","","","",""
"null","","null","html-keyboard-response","38","136001","0.0-6.0-0.0-4.0-0.2","2","3","1","2","2","1","1","2","1","1","2","1","2","2","2","2","3","1","2","1","3","2","2","3","2","3","3","4","2","1","0","1","1","0","1","1","1","0","0","1","0","0","0","1","3","5","4","3","4","4","3","4","2","4","754335804045922305","曹","38","","","","","","","","","","","","","","","","","","","","","","","","","","","","","","","","","","","","","","","",""
"791","<p style=""color:white; font-size: 35px;"">拙笨</p>","e","categorize-html","39","136795","0.0-6.0-0.0-4.0-1.2","2","3","1","2","2","1","1","2","1","1","2","1","2","2","2","2","3","1","2","1","3","2","2","3","2","3","3","4","2","1","0","1","1","0","1","1","1","0","0","1","0","0","0","1","3","5","4","3","4","4","3","4","2","4","754335804045922305","曹","38","","","","","","","","","","","","","","","","","","","true","2","2","ability","791","negative","拙笨","","","","","","","","","","","","","","",""
"null","","null","html-keyboard-response","40","137050","0.0-6.0-0.0-4.0-0.3","2","3","1","2","2","1","1","2","1","1","2","1","2","2","2","2","3","1","2","1","3","2","2","3","2","3","3","4","2","1","0","1","1","0","1","1","1","0","0","1","0","0","0","1","3","5","4","3","4","4","3","4","2","4","754335804045922305","曹","38","","","","","","","","","","","","","","","","","","","","","","","","","","","","","","","","","","","","","","","",""
"597","<p style=""color:white; font-size: 35px;"">天才</p>","i","categorize-html","41","137649","0.0-6.0-0.0-4.0-1.3","2","3","1","2","2","1","1","2","1","1","2","1","2","2","2","2","3","1","2","1","3","2","2","3","2","3","3","4","2","1","0","1","1","0","1","1","1","0","0","1","0","0","0","1","3","5","4","3","4","4","3","4","2","4","754335804045922305","曹","38","","","","","","","","","","","","","","","","","","","true","2","2","ability","597","positive","天才","","","","","","","","","","","","","","",""
"null","","null","html-keyboard-response","42","137906","0.0-6.0-0.0-4.0-0.4","2","3","1","2","2","1","1","2","1","1","2","1","2","2","2","2","3","1","2","1","3","2","2","3","2","3","3","4","2","1","0","1","1","0","1","1","1","0","0","1","0","0","0","1","3","5","4","3","4","4","3","4","2","4","754335804045922305","曹","38","","","","","","","","","","","","","","","","","","","","","","","","","","","","","","","","","","","","","","","",""
"1193","<p style=""color:white; font-size: 35px;"">愚钝</p>","e","categorize-html","43","139101","0.0-6.0-0.0-4.0-1.4","2","3","1","2","2","1","1","2","1","1","2","1","2","2","2","2","3","1","2","1","3","2","2","3","2","3","3","4","2","1","0","1","1","0","1","1","1","0","0","1","0","0","0","1","3","5","4","3","4","4","3","4","2","4","754335804045922305","曹","38","","","","","","","","","","","","","","","","","","","true","2","2","ability","1193","negative","愚钝","","","","","","","","","","","","","","",""
"null","","null","html-keyboard-response","44","139355","0.0-6.0-0.0-4.0-0.5","2","3","1","2","2","1","1","2","1","1","2","1","2","2","2","2","3","1","2","1","3","2","2","3","2","3","3","4","2","1","0","1","1","0","1","1","1","0","0","1","0","0","0","1","3","5","4","3","4","4","3","4","2","4","754335804045922305","曹","38","","","","","","","","","","","","","","","","","","","","","","","","","","","","","","","","","","","","","","","",""
"674","<p style=""color:white; font-size: 35px;"">能干</p>","i","categorize-html","45","140030","0.0-6.0-0.0-4.0-1.5","2","3","1","2","2","1","1","2","1","1","2","1","2","2","2","2","3","1","2","1","3","2","2","3","2","3","3","4","2","1","0","1","1","0","1","1","1","0","0","1","0","0","0","1","3","5","4","3","4","4","3","4","2","4","754335804045922305","曹","38","","","","","","","","","","","","","","","","","","","true","2","2","ability","674","positive","能干","","","","","","","","","","","","","","",""
"null","","null","html-keyboard-response","46","140281","0.0-6.0-0.0-4.0-0.6","2","3","1","2","2","1","1","2","1","1","2","1","2","2","2","2","3","1","2","1","3","2","2","3","2","3","3","4","2","1","0","1","1","0","1","1","1","0","0","1","0","0","0","1","3","5","4","3","4","4","3","4","2","4","754335804045922305","曹","38","","","","","","","","","","","","","","","","","","","","","","","","","","","","","","","","","","","","","","","",""
"1814","<p style=""color:white; font-size: 35px;"">全能</p>","i","categorize-html","47","142098","0.0-6.0-0.0-4.0-1.6","2","3","1","2","2","1","1","2","1","1","2","1","2","2","2","2","3","1","2","1","3","2","2","3","2","3","3","4","2","1","0","1","1","0","1","1","1","0","0","1","0","0","0","1","3","5","4","3","4","4","3","4","2","4","754335804045922305","曹","38","","","","","","","","","","","","","","","","","","","true","2","2","ability","1814","positive","全能","","","","","","","","","","","","","","",""
"null","","null","html-keyboard-response","48","142354","0.0-6.0-0.0-4.0-0.7","2","3","1","2","2","1","1","2","1","1","2","1","2","2","2","2","3","1","2","1","3","2","2","3","2","3","3","4","2","1","0","1","1","0","1","1","1","0","0","1","0","0","0","1","3","5","4","3","4","4","3","4","2","4","754335804045922305","曹","38","","","","","","","","","","","","","","","","","","","","","","","","","","","","","","","","","","","","","","","",""
"699","<p style=""color:white; font-size: 35px;"">蠢笨</p>","e","categorize-html","49","143056","0.0-6.0-0.0-4.0-1.7","2","3","1","2","2","1","1","2","1","1","2","1","2","2","2","2","3","1","2","1","3","2","2","3","2","3","3","4","2","1","0","1","1","0","1","1","1","0","0","1","0","0","0","1","3","5","4","3","4","4","3","4","2","4","754335804045922305","曹","38","","","","","","","","","","","","","","","","","","","true","2","2","ability","699","negative","蠢笨","","","","","","","","","","","","","","",""
"null","","null","html-keyboard-response","50","143313","0.0-6.0-0.0-4.0-0.8","2","3","1","2","2","1","1","2","1","1","2","1","2","2","2","2","3","1","2","1","3","2","2","3","2","3","3","4","2","1","0","1","1","0","1","1","1","0","0","1","0","0","0","1","3","5","4","3","4","4","3","4","2","4","754335804045922305","曹","38","","","","","","","","","","","","","","","","","","","","","","","","","","","","","","","","","","","","","","","",""
"831","<p style=""color:white; font-size: 35px;"">高效</p>","i","categorize-html","51","144146","0.0-6.0-0.0-4.0-1.8","2","3","1","2","2","1","1","2","1","1","2","1","2","2","2","2","3","1","2","1","3","2","2","3","2","3","3","4","2","1","0","1","1","0","1","1","1","0","0","1","0","0","0","1","3","5","4","3","4","4","3","4","2","4","754335804045922305","曹","38","","","","","","","","","","","","","","","","","","","true","2","2","ability","831","positive","高效","","","","","","","","","","","","","","",""
"null","","null","html-keyboard-response","52","144402","0.0-6.0-0.0-4.0-0.9","2","3","1","2","2","1","1","2","1","1","2","1","2","2","2","2","3","1","2","1","3","2","2","3","2","3","3","4","2","1","0","1","1","0","1","1","1","0","0","1","0","0","0","1","3","5","4","3","4","4","3","4","2","4","754335804045922305","曹","38","","","","","","","","","","","","","","","","","","","","","","","","","","","","","","","","","","","","","","","",""
"631","<p style=""color:white; font-size: 35px;"">废物</p>","e","categorize-html","53","145035","0.0-6.0-0.0-4.0-1.9","2","3","1","2","2","1","1","2","1","1","2","1","2","2","2","2","3","1","2","1","3","2","2","3","2","3","3","4","2","1","0","1","1","0","1","1","1","0","0","1","0","0","0","1","3","5","4","3","4","4","3","4","2","4","754335804045922305","曹","38","","","","","","","","","","","","","","","","","","","true","2","2","ability","631","negative","废物","","","","","","","","","","","","","","",""
"null","","null","html-keyboard-response","54","145289","0.0-6.0-0.0-4.0-0.10","2","3","1","2","2","1","1","2","1","1","2","1","2","2","2","2","3","1","2","1","3","2","2","3","2","3","3","4","2","1","0","1","1","0","1","1","1","0","0","1","0","0","0","1","3","5","4","3","4","4","3","4","2","4","754335804045922305","曹","38","","","","","","","","","","","","","","","","","","","","","","","","","","","","","","","","","","","","","","","",""
"489","<p style=""color:white; font-size: 35px;"">低能</p>","e","categorize-html","55","145780","0.0-6.0-0.0-4.0-1.10","2","3","1","2","2","1","1","2","1","1","2","1","2","2","2","2","3","1","2","1","3","2","2","3","2","3","3","4","2","1","0","1","1","0","1","1","1","0","0","1","0","0","0","1","3","5","4","3","4","4","3","4","2","4","754335804045922305","曹","38","","","","","","","","","","","","","","","","","","","true","2","2","ability","489","negative","低能","","","","","","","","","","","","","","",""
"null","","null","html-keyboard-response","56","146034","0.0-6.0-0.0-4.0-0.11","2","3","1","2","2","1","1","2","1","1","2","1","2","2","2","2","3","1","2","1","3","2","2","3","2","3","3","4","2","1","0","1","1","0","1","1","1","0","0","1","0","0","0","1","3","5","4","3","4","4","3","4","2","4","754335804045922305","曹","38","","","","","","","","","","","","","","","","","","","","","","","","","","","","","","","","","","","","","","","",""
"707","<p style=""color:white; font-size: 35px;"">精干</p>","i","categorize-html","57","146744","0.0-6.0-0.0-4.0-1.11","2","3","1","2","2","1","1","2","1","1","2","1","2","2","2","2","3","1","2","1","3","2","2","3","2","3","3","4","2","1","0","1","1","0","1","1","1","0","0","1","0","0","0","1","3","5","4","3","4","4","3","4","2","4","754335804045922305","曹","38","","","","","","","","","","","","","","","","","","","true","2","2","ability","707","positive","精干","","","","","","","","","","","","","","",""
"11711","
    <div class=""tag-bottom""><p>
    —— 任务3：对“自我/消极”词和“他人/积极”词分类 ——<p/>
    <span style=""color:#78DCE8""><b>注意上方，之前的四类词语将混合在一起交替呈现</b></span><p/>
    <span style=""color:#FFD866""><b>请根据上方标签的提示，尽可能正确并且快速地做出按键反应</b></span><p/>
    当按键错误时屏幕中会出现<span style=""color:red""> X </span>，需要按另一个键纠正才能继续<br/><p/>
    请把双手食指分别放在键盘的“E”键和“I”键上<p/>
    按<空格键>开始
    </p></div>"," ","html-keyboard-response","58","158455","0.0-6.0-0.0-5.0","2","3","1","2","2","1","1","2","1","1","2","1","2","2","2","2","3","1","2","1","3","2","2","3","2","3","3","4","2","1","0","1","1","0","1","1","1","0","0","1","0","0","0","1","3","5","4","3","4","4","3","4","2","4","754335804045922305","曹","38","","","","","","","","","","","","","","","","","","","","","","","","","","","","","","","","","","","","","","","",""
"null","","null","html-keyboard-response","59","158714","0.0-6.0-0.0-6.0-0.0","2","3","1","2","2","1","1","2","1","1","2","1","2","2","2","2","3","1","2","1","3","2","2","3","2","3","3","4","2","1","0","1","1","0","1","1","1","0","0","1","0","0","0","1","3","5","4","3","4","4","3","4","2","4","754335804045922305","曹","38","","","","","","","","","","","","","","","","","","","","","","","","","","","","","","","","","","","","","","","",""
"1337","<p style=""color:rgb(150, 250, 100); font-size: 35px;"">他</p>","i","categorize-html","60","160054","0.0-6.0-0.0-6.0-1.0","2","3","1","2","2","1","1","2","1","1","2","1","2","2","2","2","3","1","2","1","3","2","2","3","2","3","3","4","2","1","0","1","1","0","1","1","1","0","0","1","0","0","0","1","3","5","4","3","4","4","3","4","2","4","754335804045922305","曹","38","","","","","","","","","","","","","","","","","","","true","3","3","ability","1337","other","他","","","","","","","","","","","","","","",""
"null","","null","html-keyboard-response","61","160306","0.0-6.0-0.0-6.0-0.1","2","3","1","2","2","1","1","2","1","1","2","1","2","2","2","2","3","1","2","1","3","2","2","3","2","3","3","4","2","1","0","1","1","0","1","1","1","0","0","1","0","0","0","1","3","5","4","3","4","4","3","4","2","4","754335804045922305","曹","38","","","","","","","","","","","","","","","","","","","","","","","","","","","","","","","","","","","","","","","",""
"1682","<p style=""color:white; font-size: 35px;"">精干</p>","i","categorize-html","62","161990","0.0-6.0-0.0-6.0-1.1","2","3","1","2","2","1","1","2","1","1","2","1","2","2","2","2","3","1","2","1","3","2","2","3","2","3","3","4","2","1","0","1","1","0","1","1","1","0","0","1","0","0","0","1","3","5","4","3","4","4","3","4","2","4","754335804045922305","曹","38","","","","","","","","","","","","","","","","","","","true","3","3","ability","1682","positive","精干","","","","","","","","","","","","","","",""
"null","","null","html-keyboard-response","63","162241","0.0-6.0-0.0-6.0-0.2","2","3","1","2","2","1","1","2","1","1","2","1","2","2","2","2","3","1","2","1","3","2","2","3","2","3","3","4","2","1","0","1","1","0","1","1","1","0","0","1","0","0","0","1","3","5","4","3","4","4","3","4","2","4","754335804045922305","曹","38","","","","","","","","","","","","","","","","","","","","","","","","","","","","","","","","","","","","","","","",""
"1804","<p style=""color:rgb(150, 250, 100); font-size: 35px;"">本人</p>","e","categorize-html","64","164048","0.0-6.0-0.0-6.0-1.2","2","3","1","2","2","1","1","2","1","1","2","1","2","2","2","2","3","1","2","1","3","2","2","3","2","3","3","4","2","1","0","1","1","0","1","1","1","0","0","1","0","0","0","1","3","5","4","3","4","4","3","4","2","4","754335804045922305","曹","38","","","","","","","","","","","","","","","","","","","true","3","3","ability","1804","self","本人","","","","","","","","","","","","","","",""
"null","","null","html-keyboard-response","65","164305","0.0-6.0-0.0-6.0-0.3","2","3","1","2","2","1","1","2","1","1","2","1","2","2","2","2","3","1","2","1","3","2","2","3","2","3","3","4","2","1","0","1","1","0","1","1","1","0","0","1","0","0","0","1","3","5","4","3","4","4","3","4","2","4","754335804045922305","曹","38","","","","","","","","","","","","","","","","","","","","","","","","","","","","","","","","","","","","","","","",""
"831","<p style=""color:white; font-size: 35px;"">蠢笨</p>","e","categorize-html","66","165138","0.0-6.0-0.0-6.0-1.3","2","3","1","2","2","1","1","2","1","1","2","1","2","2","2","2","3","1","2","1","3","2","2","3","2","3","3","4","2","1","0","1","1","0","1","1","1","0","0","1","0","0","0","1","3","5","4","3","4","4","3","4","2","4","754335804045922305","曹","38","","","","","","","","","","","","","","","","","","","true","3","3","ability","831","negative","蠢笨","","","","","","","","","","","","","","",""
"null","","null","html-keyboard-response","67","165394","0.0-6.0-0.0-6.0-0.4","2","3","1","2","2","1","1","2","1","1","2","1","2","2","2","2","3","1","2","1","3","2","2","3","2","3","3","4","2","1","0","1","1","0","1","1","1","0","0","1","0","0","0","1","3","5","4","3","4","4","3","4","2","4","754335804045922305","曹","38","","","","","","","","","","","","","","","","","","","","","","","","","","","","","","","","","","","","","","","",""
"678","<p style=""color:rgb(150, 250, 100); font-size: 35px;"">我的</p>","e","categorize-html","68","166074","0.0-6.0-0.0-6.0-1.4","2","3","1","2","2","1","1","2","1","1","2","1","2","2","2","2","3","1","2","1","3","2","2","3","2","3","3","4","2","1","0","1","1","0","1","1","1","0","0","1","0","0","0","1","3","5","4","3","4","4","3","4","2","4","754335804045922305","曹","38","","","","","","","","","","","","","","","","","","","true","3","3","ability","678","self","我的","","","","","","","","","","","","","","",""
"null","","null","html-keyboard-response","69","166330","0.0-6.0-0.0-6.0-0.5","2","3","1","2","2","1","1","2","1","1","2","1","2","2","2","2","3","1","2","1","3","2","2","3","2","3","3","4","2","1","0","1","1","0","1","1","1","0","0","1","0","0","0","1","3","5","4","3","4","4","3","4","2","4","754335804045922305","曹","38","","","","","","","","","","","","","","","","","","","","","","","","","","","","","","","","","","","","","","","",""
"983","<p style=""color:white; font-size: 35px;"">全能</p>","i","categorize-html","70","167316","0.0-6.0-0.0-6.0-1.5","2","3","1","2","2","1","1","2","1","1","2","1","2","2","2","2","3","1","2","1","3","2","2","3","2","3","3","4","2","1","0","1","1","0","1","1","1","0","0","1","0","0","0","1","3","5","4","3","4","4","3","4","2","4","754335804045922305","曹","38","","","","","","","","","","","","","","","","","","","true","3","3","ability","983","positive","全能","","","","","","","","","","","","","","",""
"null","","null","html-keyboard-response","71","167570","0.0-6.0-0.0-6.0-0.6","2","3","1","2","2","1","1","2","1","1","2","1","2","2","2","2","3","1","2","1","3","2","2","3","2","3","3","4","2","1","0","1","1","0","1","1","1","0","0","1","0","0","0","1","3","5","4","3","4","4","3","4","2","4","754335804045922305","曹","38","","","","","","","","","","","","","","","","","","","","","","","","","","","","","","","","","","","","","","","",""
"652","<p style=""color:rgb(150, 250, 100); font-size: 35px;"">他人的</p>","i","categorize-html","72","168225","0.0-6.0-0.0-6.0-1.6","2","3","1","2","2","1","1","2","1","1","2","1","2","2","2","2","3","1","2","1","3","2","2","3","2","3","3","4","2","1","0","1","1","0","1","1","1","0","0","1","0","0","0","1","3","5","4","3","4","4","3","4","2","4","754335804045922305","曹","38","","","","","","","","","","","","","","","","","","","true","3","3","ability","652","other","他人的","","","","","","","","","","","","","","",""
"null","","null","html-keyboard-response","73","168482","0.0-6.0-0.0-6.0-0.7","2","3","1","2","2","1","1","2","1","1","2","1","2","2","2","2","3","1","2","1","3","2","2","3","2","3","3","4","2","1","0","1","1","0","1","1","1","0","0","1","0","0","0","1","3","5","4","3","4","4","3","4","2","4","754335804045922305","曹","38","","","","","","","","","","","","","","","","","","","","","","","","","","","","","","","","","","","","","","","",""
"2106","<p style=""color:white; font-size: 35px;"">低能</p>","e","categorize-html","74","170590","0.0-6.0-0.0-6.0-1.7","2","3","1","2","2","1","1","2","1","1","2","1","2","2","2","2","3","1","2","1","3","2","2","3","2","3","3","4","2","1","0","1","1","0","1","1","1","0","0","1","0","0","0","1","3","5","4","3","4","4","3","4","2","4","754335804045922305","曹","38","","","","","","","","","","","","","","","","","","","true","3","3","ability","2106","negative","低能","","","","","","","","","","","","","","",""
"null","","null","html-keyboard-response","75","170842","0.0-6.0-0.0-6.0-0.8","2","3","1","2","2","1","1","2","1","1","2","1","2","2","2","2","3","1","2","1","3","2","2","3","2","3","3","4","2","1","0","1","1","0","1","1","1","0","0","1","0","0","0","1","3","5","4","3","4","4","3","4","2","4","754335804045922305","曹","38","","","","","","","","","","","","","","","","","","","","","","","","","","","","","","","","","","","","","","","",""
"872","<p style=""color:rgb(150, 250, 100); font-size: 35px;"">别人的</p>","i","categorize-html","76","171717","0.0-6.0-0.0-6.0-1.8","2","3","1","2","2","1","1","2","1","1","2","1","2","2","2","2","3","1","2","1","3","2","2","3","2","3","3","4","2","1","0","1","1","0","1","1","1","0","0","1","0","0","0","1","3","5","4","3","4","4","3","4","2","4","754335804045922305","曹","38","","","","","","","","","","","","","","","","","","","true","3","3","ability","872","other","别人的","","","","","","","","","","","","","","",""
"null","","null","html-keyboard-response","77","171969","0.0-6.0-0.0-6.0-0.9","2","3","1","2","2","1","1","2","1","1","2","1","2","2","2","2","3","1","2","1","3","2","2","3","2","3","3","4","2","1","0","1","1","0","1","1","1","0","0","1","0","0","0","1","3","5","4","3","4","4","3","4","2","4","754335804045922305","曹","38","","","","","","","","","","","","","","","","","","","","","","","","","","","","","","","","","","","","","","","",""
"781","<p style=""color:white; font-size: 35px;"">全才</p>","i","categorize-html","78","172753","0.0-6.0-0.0-6.0-1.9","2","3","1","2","2","1","1","2","1","1","2","1","2","2","2","2","3","1","2","1","3","2","2","3","2","3","3","4","2","1","0","1","1","0","1","1","1","0","0","1","0","0","0","1","3","5","4","3","4","4","3","4","2","4","754335804045922305","曹","38","","","","","","","","","","","","","","","","","","","true","3","3","ability","781","positive","全才","","","","","","","","","","","","","","",""
"null","","null","html-keyboard-response","79","173011","0.0-6.0-0.0-6.0-0.10","2","3","1","2","2","1","1","2","1","1","2","1","2","2","2","2","3","1","2","1","3","2","2","3","2","3","3","4","2","1","0","1","1","0","1","1","1","0","0","1","0","0","0","1","3","5","4","3","4","4","3","4","2","4","754335804045922305","曹","38","","","","","","","","","","","","","","","","","","","","","","","","","","","","","","","","","","","","","","","",""
"878","<p style=""color:rgb(150, 250, 100); font-size: 35px;"">本人的</p>","e","categorize-html","80","173891","0.0-6.0-0.0-6.0-1.10","2","3","1","2","2","1","1","2","1","1","2","1","2","2","2","2","3","1","2","1","3","2","2","3","2","3","3","4","2","1","0","1","1","0","1","1","1","0","0","1","0","0","0","1","3","5","4","3","4","4","3","4","2","4","754335804045922305","曹","38","","","","","","","","","","","","","","","","","","","true","3","3","ability","878","self","本人的","","","","","","","","","","","","","","",""
"null","","null","html-keyboard-response","81","174147","0.0-6.0-0.0-6.0-0.11","2","3","1","2","2","1","1","2","1","1","2","1","2","2","2","2","3","1","2","1","3","2","2","3","2","3","3","4","2","1","0","1","1","0","1","1","1","0","0","1","0","0","0","1","3","5","4","3","4","4","3","4","2","4","754335804045922305","曹","38","","","","","","","","","","","","","","","","","","","","","","","","","","","","","","","","","","","","","","","",""
"702","<p style=""color:white; font-size: 35px;"">废物</p>","e","categorize-html","82","174850","0.0-6.0-0.0-6.0-1.11","2","3","1","2","2","1","1","2","1","1","2","1","2","2","2","2","3","1","2","1","3","2","2","3","2","3","3","4","2","1","0","1","1","0","1","1","1","0","0","1","0","0","0","1","3","5","4","3","4","4","3","4","2","4","754335804045922305","曹","38","","","","","","","","","","","","","","","","","","","true","3","3","ability","702","negative","废物","","","","","","","","","","","","","","",""
"null","","null","html-keyboard-response","83","175106","0.0-6.0-0.0-6.0-0.12","2","3","1","2","2","1","1","2","1","1","2","1","2","2","2","2","3","1","2","1","3","2","2","3","2","3","3","4","2","1","0","1","1","0","1","1","1","0","0","1","0","0","0","1","3","5","4","3","4","4","3","4","2","4","754335804045922305","曹","38","","","","","","","","","","","","","","","","","","","","","","","","","","","","","","","","","","","","","","","",""
"681","<p style=""color:rgb(150, 250, 100); font-size: 35px;"">我</p>","e","categorize-html","84","175790","0.0-6.0-0.0-6.0-1.12","2","3","1","2","2","1","1","2","1","1","2","1","2","2","2","2","3","1","2","1","3","2","2","3","2","3","3","4","2","1","0","1","1","0","1","1","1","0","0","1","0","0","0","1","3","5","4","3","4","4","3","4","2","4","754335804045922305","曹","38","","","","","","","","","","","","","","","","","","","true","3","3","ability","681","self","我","","","","","","","","","","","","","","",""
"null","","null","html-keyboard-response","85","176042","0.0-6.0-0.0-6.0-0.13","2","3","1","2","2","1","1","2","1","1","2","1","2","2","2","2","3","1","2","1","3","2","2","3","2","3","3","4","2","1","0","1","1","0","1","1","1","0","0","1","0","0","0","1","3","5","4","3","4","4","3","4","2","4","754335804045922305","曹","38","","","","","","","","","","","","","","","","","","","","","","","","","","","","","","","","","","","","","","","",""
"1089","<p style=""color:white; font-size: 35px;"">能干</p>","i","categorize-html","86","177134","0.0-6.0-0.0-6.0-1.13","2","3","1","2","2","1","1","2","1","1","2","1","2","2","2","2","3","1","2","1","3","2","2","3","2","3","3","4","2","1","0","1","1","0","1","1","1","0","0","1","0","0","0","1","3","5","4","3","4","4","3","4","2","4","754335804045922305","曹","38","","","","","","","","","","","","","","","","","","","true","3","3","ability","1089","positive","能干","","","","","","","","","","","","","","",""
"null","","null","html-keyboard-response","87","177386","0.0-6.0-0.0-6.0-0.14","2","3","1","2","2","1","1","2","1","1","2","1","2","2","2","2","3","1","2","1","3","2","2","3","2","3","3","4","2","1","0","1","1","0","1","1","1","0","0","1","0","0","0","1","3","5","4","3","4","4","3","4","2","4","754335804045922305","曹","38","","","","","","","","","","","","","","","","","","","","","","","","","","","","","","","","","","","","","","","",""
"551","<p style=""color:rgb(150, 250, 100); font-size: 35px;"">他人</p>","i","categorize-html","88","177940","0.0-6.0-0.0-6.0-1.14","2","3","1","2","2","1","1","2","1","1","2","1","2","2","2","2","3","1","2","1","3","2","2","3","2","3","3","4","2","1","0","1","1","0","1","1","1","0","0","1","0","0","0","1","3","5","4","3","4","4","3","4","2","4","754335804045922305","曹","38","","","","","","","","","","","","","","","","","","","true","3","3","ability","551","other","他人","","","","","","","","","","","","","","",""
"null","","null","html-keyboard-response","89","178193","0.0-6.0-0.0-6.0-0.15","2","3","1","2","2","1","1","2","1","1","2","1","2","2","2","2","3","1","2","1","3","2","2","3","2","3","3","4","2","1","0","1","1","0","1","1","1","0","0","1","0","0","0","1","3","5","4","3","4","4","3","4","2","4","754335804045922305","曹","38","","","","","","","","","","","","","","","","","","","","","","","","","","","","","","","","","","","","","","","",""
"1529","<p style=""color:white; font-size: 35px;"">愚钝</p>","e","categorize-html","90","179724","0.0-6.0-0.0-6.0-1.15","2","3","1","2","2","1","1","2","1","1","2","1","2","2","2","2","3","1","2","1","3","2","2","3","2","3","3","4","2","1","0","1","1","0","1","1","1","0","0","1","0","0","0","1","3","5","4","3","4","4","3","4","2","4","754335804045922305","曹","38","","","","","","","","","","","","","","","","","","","true","3","3","ability","1529","negative","愚钝","","","","","","","","","","","","","","",""
"null","","null","html-keyboard-response","91","179977","0.0-6.0-0.0-6.0-0.16","2","3","1","2","2","1","1","2","1","1","2","1","2","2","2","2","3","1","2","1","3","2","2","3","2","3","3","4","2","1","0","1","1","0","1","1","1","0","0","1","0","0","0","1","3","5","4","3","4","4","3","4","2","4","754335804045922305","曹","38","","","","","","","","","","","","","","","","","","","","","","","","","","","","","","","","","","","","","","","",""
"1875","<p style=""color:rgb(150, 250, 100); font-size: 35px;"">别人</p>","i","categorize-html","92","181855","0.0-6.0-0.0-6.0-1.16","2","3","1","2","2","1","1","2","1","1","2","1","2","2","2","2","3","1","2","1","3","2","2","3","2","3","3","4","2","1","0","1","1","0","1","1","1","0","0","1","0","0","0","1","3","5","4","3","4","4","3","4","2","4","754335804045922305","曹","38","","","","","","","","","","","","","","","","","","","true","3","3","ability","1875","other","别人","","","","","","","","","","","","","","",""
"null","","null","html-keyboard-response","93","182113","0.0-6.0-0.0-6.0-0.17","2","3","1","2","2","1","1","2","1","1","2","1","2","2","2","2","3","1","2","1","3","2","2","3","2","3","3","4","2","1","0","1","1","0","1","1","1","0","0","1","0","0","0","1","3","5","4","3","4","4","3","4","2","4","754335804045922305","曹","38","","","","","","","","","","","","","","","","","","","","","","","","","","","","","","","","","","","","","","","",""
"648","<p style=""color:white; font-size: 35px;"">高效</p>","i","categorize-html","94","182763","0.0-6.0-0.0-6.0-1.17","2","3","1","2","2","1","1","2","1","1","2","1","2","2","2","2","3","1","2","1","3","2","2","3","2","3","3","4","2","1","0","1","1","0","1","1","1","0","0","1","0","0","0","1","3","5","4","3","4","4","3","4","2","4","754335804045922305","曹","38","","","","","","","","","","","","","","","","","","","true","3","3","ability","648","positive","高效","","","","","","","","","","","","","","",""
"null","","null","html-keyboard-response","95","183018","0.0-6.0-0.0-6.0-0.18","2","3","1","2","2","1","1","2","1","1","2","1","2","2","2","2","3","1","2","1","3","2","2","3","2","3","3","4","2","1","0","1","1","0","1","1","1","0","0","1","0","0","0","1","3","5","4","3","4","4","3","4","2","4","754335804045922305","曹","38","","","","","","","","","","","","","","","","","","","","","","","","","","","","","","","","","","","","","","","",""
"549","<p style=""color:rgb(150, 250, 100); font-size: 35px;"">自己的</p>","e","categorize-html","96","183569","0.0-6.0-0.0-6.0-1.18","2","3","1","2","2","1","1","2","1","1","2","1","2","2","2","2","3","1","2","1","3","2","2","3","2","3","3","4","2","1","0","1","1","0","1","1","1","0","0","1","0","0","0","1","3","5","4","3","4","4","3","4","2","4","754335804045922305","曹","38","","","","","","","","","","","","","","","","","","","true","3","3","ability","549","self","自己的","","","","","","","","","","","","","","",""
"null","","null","html-keyboard-response","97","183826","0.0-6.0-0.0-6.0-0.19","2","3","1","2","2","1","1","2","1","1","2","1","2","2","2","2","3","1","2","1","3","2","2","3","2","3","3","4","2","1","0","1","1","0","1","1","1","0","0","1","0","0","0","1","3","5","4","3","4","4","3","4","2","4","754335804045922305","曹","38","","","","","","","","","","","","","","","","","","","","","","","","","","","","","","","","","","","","","","","",""
"2492","<p style=""color:white; font-size: 35px;"">无能</p>","e","categorize-html","98","186321","0.0-6.0-0.0-6.0-1.19","2","3","1","2","2","1","1","2","1","1","2","1","2","2","2","2","3","1","2","1","3","2","2","3","2","3","3","4","2","1","0","1","1","0","1","1","1","0","0","1","0","0","0","1","3","5","4","3","4","4","3","4","2","4","754335804045922305","曹","38","","","","","","","","","","","","","","","","","","","true","3","3","ability","2492","negative","无能","","","","","","","","","","","","","","",""
"null","","null","html-keyboard-response","99","186578","0.0-6.0-0.0-6.0-0.20","2","3","1","2","2","1","1","2","1","1","2","1","2","2","2","2","3","1","2","1","3","2","2","3","2","3","3","4","2","1","0","1","1","0","1","1","1","0","0","1","0","0","0","1","3","5","4","3","4","4","3","4","2","4","754335804045922305","曹","38","","","","","","","","","","","","","","","","","","","","","","","","","","","","","","","","","","","","","","","",""
"988","<p style=""color:rgb(150, 250, 100); font-size: 35px;"">自己</p>","e","categorize-html","100","187568","0.0-6.0-0.0-6.0-1.20","2","3","1","2","2","1","1","2","1","1","2","1","2","2","2","2","3","1","2","1","3","2","2","3","2","3","3","4","2","1","0","1","1","0","1","1","1","0","0","1","0","0","0","1","3","5","4","3","4","4","3","4","2","4","754335804045922305","曹","38","","","","","","","","","","","","","","","","","","","true","3","3","ability","988","self","自己","","","","","","","","","","","","","","",""
"null","","null","html-keyboard-response","101","187827","0.0-6.0-0.0-6.0-0.21","2","3","1","2","2","1","1","2","1","1","2","1","2","2","2","2","3","1","2","1","3","2","2","3","2","3","3","4","2","1","0","1","1","0","1","1","1","0","0","1","0","0","0","1","3","5","4","3","4","4","3","4","2","4","754335804045922305","曹","38","","","","","","","","","","","","","","","","","","","","","","","","","","","","","","","","","","","","","","","",""
"510","<p style=""color:white; font-size: 35px;"">拙笨</p>","e","categorize-html","102","188340","0.0-6.0-0.0-6.0-1.21","2","3","1","2","2","1","1","2","1","1","2","1","2","2","2","2","3","1","2","1","3","2","2","3","2","3","3","4","2","1","0","1","1","0","1","1","1","0","0","1","0","0","0","1","3","5","4","3","4","4","3","4","2","4","754335804045922305","曹","38","","","","","","","","","","","","","","","","","","","true","3","3","ability","510","negative","拙笨","","","","","","","","","","","","","","",""
"null","","null","html-keyboard-response","103","188594","0.0-6.0-0.0-6.0-0.22","2","3","1","2","2","1","1","2","1","1","2","1","2","2","2","2","3","1","2","1","3","2","2","3","2","3","3","4","2","1","0","1","1","0","1","1","1","0","0","1","0","0","0","1","3","5","4","3","4","4","3","4","2","4","754335804045922305","曹","38","","","","","","","","","","","","","","","","","","","","","","","","","","","","","","","","","","","","","","","",""
"543","<p style=""color:rgb(150, 250, 100); font-size: 35px;"">他的</p>","i","categorize-html","104","189139","0.0-6.0-0.0-6.0-1.22","2","3","1","2","2","1","1","2","1","1","2","1","2","2","2","2","3","1","2","1","3","2","2","3","2","3","3","4","2","1","0","1","1","0","1","1","1","0","0","1","0","0","0","1","3","5","4","3","4","4","3","4","2","4","754335804045922305","曹","38","","","","","","","","","","","","","","","","","","","true","3","3","ability","543","other","他的","","","","","","","","","","","","","","",""
"null","","null","html-keyboard-response","105","189394","0.0-6.0-0.0-6.0-0.23","2","3","1","2","2","1","1","2","1","1","2","1","2","2","2","2","3","1","2","1","3","2","2","3","2","3","3","4","2","1","0","1","1","0","1","1","1","0","0","1","0","0","0","1","3","5","4","3","4","4","3","4","2","4","754335804045922305","曹","38","","","","","","","","","","","","","","","","","","","","","","","","","","","","","","","","","","","","","","","",""
"503","<p style=""color:white; font-size: 35px;"">天才</p>","i","categorize-html","106","189898","0.0-6.0-0.0-6.0-1.23","2","3","1","2","2","1","1","2","1","1","2","1","2","2","2","2","3","1","2","1","3","2","2","3","2","3","3","4","2","1","0","1","1","0","1","1","1","0","0","1","0","0","0","1","3","5","4","3","4","4","3","4","2","4","754335804045922305","曹","38","","","","","","","","","","","","","","","","","","","true","3","3","ability","503","positive","天才","","","","","","","","","","","","","","",""
"6158","
    <div class=""tag-bottom""><p>
    —— 任务4：对“自我/消极”词和“他人/积极”词分类 ——<p/>
    <span style=""color:#78DCE8""><b>与刚才的任务完全相同，请再次对这四类词语分类</b></span><p/>
    <span style=""color:#FFD866""><b>请根据上方标签的提示，尽可能正确并且快速地做出按键反应</b></span><p/>
    当按键错误时屏幕中会出现<span style=""color:red""> X </span>，需要按另一个键纠正才能继续<br/><p/>
    请把双手食指分别放在键盘的“E”键和“I”键上<p/>
    按<空格键>开始
    </p></div>"," ","html-keyboard-response","107","196057","0.0-6.0-0.0-7.0","2","3","1","2","2","1","1","2","1","1","2","1","2","2","2","2","3","1","2","1","3","2","2","3","2","3","3","4","2","1","0","1","1","0","1","1","1","0","0","1","0","0","0","1","3","5","4","3","4","4","3","4","2","4","754335804045922305","曹","38","","","","","","","","","","","","","","","","","","","","","","","","","","","","","","","","","","","","","","","",""
"null","","null","html-keyboard-response","108","196314","0.0-6.0-0.0-8.0-0.0","2","3","1","2","2","1","1","2","1","1","2","1","2","2","2","2","3","1","2","1","3","2","2","3","2","3","3","4","2","1","0","1","1","0","1","1","1","0","0","1","0","0","0","1","3","5","4","3","4","4","3","4","2","4","754335804045922305","曹","38","","","","","","","","","","","","","","","","","","","","","","","","","","","","","","","","","","","","","","","",""
"955","<p style=""color:rgb(150, 250, 100); font-size: 35px;"">自己</p>","e","categorize-html","109","197272","0.0-6.0-0.0-8.0-1.0","2","3","1","2","2","1","1","2","1","1","2","1","2","2","2","2","3","1","2","1","3","2","2","3","2","3","3","4","2","1","0","1","1","0","1","1","1","0","0","1","0","0","0","1","3","5","4","3","4","4","3","4","2","4","754335804045922305","曹","38","","","","","","","","","","","","","","","","","","","true","4","4","ability","955","self","自己","","","","","","","","","","","","","","",""
"null","","null","html-keyboard-response","110","197530","0.0-6.0-0.0-8.0-0.1","2","3","1","2","2","1","1","2","1","1","2","1","2","2","2","2","3","1","2","1","3","2","2","3","2","3","3","4","2","1","0","1","1","0","1","1","1","0","0","1","0","0","0","1","3","5","4","3","4","4","3","4","2","4","754335804045922305","曹","38","","","","","","","","","","","","","","","","","","","","","","","","","","","","","","","","","","","","","","","",""
"2260","<p style=""color:white; font-size: 35px;"">能干</p>","i","categorize-html","111","199792","0.0-6.0-0.0-8.0-1.1","2","3","1","2","2","1","1","2","1","1","2","1","2","2","2","2","3","1","2","1","3","2","2","3","2","3","3","4","2","1","0","1","1","0","1","1","1","0","0","1","0","0","0","1","3","5","4","3","4","4","3","4","2","4","754335804045922305","曹","38","","","","","","","","","","","","","","","","","","","true","4","4","ability","2260","positive","能干","","","","","","","","","","","","","","",""
"null","","null","html-keyboard-response","112","200050","0.0-6.0-0.0-8.0-0.2","2","3","1","2","2","1","1","2","1","1","2","1","2","2","2","2","3","1","2","1","3","2","2","3","2","3","3","4","2","1","0","1","1","0","1","1","1","0","0","1","0","0","0","1","3","5","4","3","4","4","3","4","2","4","754335804045922305","曹","38","","","","","","","","","","","","","","","","","","","","","","","","","","","","","","","","","","","","","","","",""
"544","<p style=""color:rgb(150, 250, 100); font-size: 35px;"">别人的</p>","i","categorize-html","113","200595","0.0-6.0-0.0-8.0-1.2","2","3","1","2","2","1","1","2","1","1","2","1","2","2","2","2","3","1","2","1","3","2","2","3","2","3","3","4","2","1","0","1","1","0","1","1","1","0","0","1","0","0","0","1","3","5","4","3","4","4","3","4","2","4","754335804045922305","曹","38","","","","","","","","","","","","","","","","","","","true","4","4","ability","544","other","别人的","","","","","","","","","","","","","","",""
"null","","null","html-keyboard-response","114","200864","0.0-6.0-0.0-8.0-0.3","2","3","1","2","2","1","1","2","1","1","2","1","2","2","2","2","3","1","2","1","3","2","2","3","2","3","3","4","2","1","0","1","1","0","1","1","1","0","0","1","0","0","0","1","3","5","4","3","4","4","3","4","2","4","754335804045922305","曹","38","","","","","","","","","","","","","","","","","","","","","","","","","","","","","","","","","","","","","","","",""
"864","<p style=""color:white; font-size: 35px;"">愚钝</p>","e","categorize-html","115","201730","0.0-6.0-0.0-8.0-1.3","2","3","1","2","2","1","1","2","1","1","2","1","2","2","2","2","3","1","2","1","3","2","2","3","2","3","3","4","2","1","0","1","1","0","1","1","1","0","0","1","0","0","0","1","3","5","4","3","4","4","3","4","2","4","754335804045922305","曹","38","","","","","","","","","","","","","","","","","","","true","4","4","ability","864","negative","愚钝","","","","","","","","","","","","","","",""
"null","","null","html-keyboard-response","116","201986","0.0-6.0-0.0-8.0-0.4","2","3","1","2","2","1","1","2","1","1","2","1","2","2","2","2","3","1","2","1","3","2","2","3","2","3","3","4","2","1","0","1","1","0","1","1","1","0","0","1","0","0","0","1","3","5","4","3","4","4","3","4","2","4","754335804045922305","曹","38","","","","","","","","","","","","","","","","","","","","","","","","","","","","","","","","","","","","","","","",""
"1074","<p style=""color:rgb(150, 250, 100); font-size: 35px;"">他人的</p>","i","categorize-html","117","203061","0.0-6.0-0.0-8.0-1.4","2","3","1","2","2","1","1","2","1","1","2","1","2","2","2","2","3","1","2","1","3","2","2","3","2","3","3","4","2","1","0","1","1","0","1","1","1","0","0","1","0","0","0","1","3","5","4","3","4","4","3","4","2","4","754335804045922305","曹","38","","","","","","","","","","","","","","","","","","","true","4","4","ability","1074","other","他人的","","","","","","","","","","","","","","",""
"null","","null","html-keyboard-response","118","203314","0.0-6.0-0.0-8.0-0.5","2","3","1","2","2","1","1","2","1","1","2","1","2","2","2","2","3","1","2","1","3","2","2","3","2","3","3","4","2","1","0","1","1","0","1","1","1","0","0","1","0","0","0","1","3","5","4","3","4","4","3","4","2","4","754335804045922305","曹","38","","","","","","","","","","","","","","","","","","","","","","","","","","","","","","","","","","","","","","","",""
"927","<p style=""color:white; font-size: 35px;"">无能</p>","e","categorize-html","119","204243","0.0-6.0-0.0-8.0-1.5","2","3","1","2","2","1","1","2","1","1","2","1","2","2","2","2","3","1","2","1","3","2","2","3","2","3","3","4","2","1","0","1","1","0","1","1","1","0","0","1","0","0","0","1","3","5","4","3","4","4","3","4","2","4","754335804045922305","曹","38","","","","","","","","","","","","","","","","","","","true","4","4","ability","927","negative","无能","","","","","","","","","","","","","","",""
"null","","null","html-keyboard-response","120","204497","0.0-6.0-0.0-8.0-0.6","2","3","1","2","2","1","1","2","1","1","2","1","2","2","2","2","3","1","2","1","3","2","2","3","2","3","3","4","2","1","0","1","1","0","1","1","1","0","0","1","0","0","0","1","3","5","4","3","4","4","3","4","2","4","754335804045922305","曹","38","","","","","","","","","","","","","","","","","","","","","","","","","","","","","","","","","","","","","","","",""
"401","<p style=""color:rgb(150, 250, 100); font-size: 35px;"">我</p>","e","categorize-html","121","204901","0.0-6.0-0.0-8.0-1.6","2","3","1","2","2","1","1","2","1","1","2","1","2","2","2","2","3","1","2","1","3","2","2","3","2","3","3","4","2","1","0","1","1","0","1","1","1","0","0","1","0","0","0","1","3","5","4","3","4","4","3","4","2","4","754335804045922305","曹","38","","","","","","","","","","","","","","","","","","","true","4","4","ability","401","self","我","","","","","","","","","","","","","","",""
"null","","null","html-keyboard-response","122","205153","0.0-6.0-0.0-8.0-0.7","2","3","1","2","2","1","1","2","1","1","2","1","2","2","2","2","3","1","2","1","3","2","2","3","2","3","3","4","2","1","0","1","1","0","1","1","1","0","0","1","0","0","0","1","3","5","4","3","4","4","3","4","2","4","754335804045922305","曹","38","","","","","","","","","","","","","","","","","","","","","","","","","","","","","","","","","","","","","","","",""
"672","<p style=""color:white; font-size: 35px;"">精干</p>","i","categorize-html","123","205827","0.0-6.0-0.0-8.0-1.7","2","3","1","2","2","1","1","2","1","1","2","1","2","2","2","2","3","1","2","1","3","2","2","3","2","3","3","4","2","1","0","1","1","0","1","1","1","0","0","1","0","0","0","1","3","5","4","3","4","4","3","4","2","4","754335804045922305","曹","38","","","","","","","","","","","","","","","","","","","true","4","4","ability","672","positive","精干","","","","","","","","","","","","","","",""
"null","","null","html-keyboard-response","124","206082","0.0-6.0-0.0-8.0-0.8","2","3","1","2","2","1","1","2","1","1","2","1","2","2","2","2","3","1","2","1","3","2","2","3","2","3","3","4","2","1","0","1","1","0","1","1","1","0","0","1","0","0","0","1","3","5","4","3","4","4","3","4","2","4","754335804045922305","曹","38","","","","","","","","","","","","","","","","","","","","","","","","","","","","","","","","","","","","","","","",""
"481","<p style=""color:rgb(150, 250, 100); font-size: 35px;"">他人的</p>","i","categorize-html","125","206565","0.0-6.0-0.0-8.0-1.8","2","3","1","2","2","1","1","2","1","1","2","1","2","2","2","2","3","1","2","1","3","2","2","3","2","3","3","4","2","1","0","1","1","0","1","1","1","0","0","1","0","0","0","1","3","5","4","3","4","4","3","4","2","4","754335804045922305","曹","38","","","","","","","","","","","","","","","","","","","true","4","4","ability","481","other","他人的","","","","","","","","","","","","","","",""
"null","","null","html-keyboard-response","126","206818","0.0-6.0-0.0-8.0-0.9","2","3","1","2","2","1","1","2","1","1","2","1","2","2","2","2","3","1","2","1","3","2","2","3","2","3","3","4","2","1","0","1","1","0","1","1","1","0","0","1","0","0","0","1","3","5","4","3","4","4","3","4","2","4","754335804045922305","曹","38","","","","","","","","","","","","","","","","","","","","","","","","","","","","","","","","","","","","","","","",""
"879","<p style=""color:white; font-size: 35px;"">废物</p>","e","categorize-html","127","207699","0.0-6.0-0.0-8.0-1.9","2","3","1","2","2","1","1","2","1","1","2","1","2","2","2","2","3","1","2","1","3","2","2","3","2","3","3","4","2","1","0","1","1","0","1","1","1","0","0","1","0","0","0","1","3","5","4","3","4","4","3","4","2","4","754335804045922305","曹","38","","","","","","","","","","","","","","","","","","","true","4","4","ability","879","negative","废物","","","","","","","","","","","","","","",""
"null","","null","html-keyboard-response","128","207955","0.0-6.0-0.0-8.0-0.10","2","3","1","2","2","1","1","2","1","1","2","1","2","2","2","2","3","1","2","1","3","2","2","3","2","3","3","4","2","1","0","1","1","0","1","1","1","0","0","1","0","0","0","1","3","5","4","3","4","4","3","4","2","4","754335804045922305","曹","38","","","","","","","","","","","","","","","","","","","","","","","","","","","","","","","","","","","","","","","",""
"489","<p style=""color:rgb(150, 250, 100); font-size: 35px;"">自己</p>","e","categorize-html","129","208447","0.0-6.0-0.0-8.0-1.10","2","3","1","2","2","1","1","2","1","1","2","1","2","2","2","2","3","1","2","1","3","2","2","3","2","3","3","4","2","1","0","1","1","0","1","1","1","0","0","1","0","0","0","1","3","5","4","3","4","4","3","4","2","4","754335804045922305","曹","38","","","","","","","","","","","","","","","","","","","true","4","4","ability","489","self","自己","","","","","","","","","","","","","","",""
"null","","null","html-keyboard-response","130","208705","0.0-6.0-0.0-8.0-0.11","2","3","1","2","2","1","1","2","1","1","2","1","2","2","2","2","3","1","2","1","3","2","2","3","2","3","3","4","2","1","0","1","1","0","1","1","1","0","0","1","0","0","0","1","3","5","4","3","4","4","3","4","2","4","754335804045922305","曹","38","","","","","","","","","","","","","","","","","","","","","","","","","","","","","","","","","","","","","","","",""
"605","<p style=""color:white; font-size: 35px;"">全能</p>","i","categorize-html","131","209313","0.0-6.0-0.0-8.0-1.11","2","3","1","2","2","1","1","2","1","1","2","1","2","2","2","2","3","1","2","1","3","2","2","3","2","3","3","4","2","1","0","1","1","0","1","1","1","0","0","1","0","0","0","1","3","5","4","3","4","4","3","4","2","4","754335804045922305","曹","38","","","","","","","","","","","","","","","","","","","true","4","4","ability","605","positive","全能","","","","","","","","","","","","","","",""
"null","","null","html-keyboard-response","132","209570","0.0-6.0-0.0-8.0-0.12","2","3","1","2","2","1","1","2","1","1","2","1","2","2","2","2","3","1","2","1","3","2","2","3","2","3","3","4","2","1","0","1","1","0","1","1","1","0","0","1","0","0","0","1","3","5","4","3","4","4","3","4","2","4","754335804045922305","曹","38","","","","","","","","","","","","","","","","","","","","","","","","","","","","","","","","","","","","","","","",""
"431","<p style=""color:rgb(150, 250, 100); font-size: 35px;"">他人</p>","i","categorize-html","133","210003","0.0-6.0-0.0-8.0-1.12","2","3","1","2","2","1","1","2","1","1","2","1","2","2","2","2","3","1","2","1","3","2","2","3","2","3","3","4","2","1","0","1","1","0","1","1","1","0","0","1","0","0","0","1","3","5","4","3","4","4","3","4","2","4","754335804045922305","曹","38","","","","","","","","","","","","","","","","","","","true","4","4","ability","431","other","他人","","","","","","","","","","","","","","",""
"null","","null","html-keyboard-response","134","210258","0.0-6.0-0.0-8.0-0.13","2","3","1","2","2","1","1","2","1","1","2","1","2","2","2","2","3","1","2","1","3","2","2","3","2","3","3","4","2","1","0","1","1","0","1","1","1","0","0","1","0","0","0","1","3","5","4","3","4","4","3","4","2","4","754335804045922305","曹","38","","","","","","","","","","","","","","","","","","","","","","","","","","","","","","","","","","","","","","","",""
"968","<p style=""color:white; font-size: 35px;"">愚钝</p>","e","categorize-html","135","211229","0.0-6.0-0.0-8.0-1.13","2","3","1","2","2","1","1","2","1","1","2","1","2","2","2","2","3","1","2","1","3","2","2","3","2","3","3","4","2","1","0","1","1","0","1","1","1","0","0","1","0","0","0","1","3","5","4","3","4","4","3","4","2","4","754335804045922305","曹","38","","","","","","","","","","","","","","","","","","","true","4","4","ability","968","negative","愚钝","","","","","","","","","","","","","","",""
"null","","null","html-keyboard-response","136","211482","0.0-6.0-0.0-8.0-0.14","2","3","1","2","2","1","1","2","1","1","2","1","2","2","2","2","3","1","2","1","3","2","2","3","2","3","3","4","2","1","0","1","1","0","1","1","1","0","0","1","0","0","0","1","3","5","4","3","4","4","3","4","2","4","754335804045922305","曹","38","","","","","","","","","","","","","","","","","","","","","","","","","","","","","","","","","","","","","","","",""
"420","<p style=""color:rgb(150, 250, 100); font-size: 35px;"">本人</p>","e","categorize-html","137","211904","0.0-6.0-0.0-8.0-1.14","2","3","1","2","2","1","1","2","1","1","2","1","2","2","2","2","3","1","2","1","3","2","2","3","2","3","3","4","2","1","0","1","1","0","1","1","1","0","0","1","0","0","0","1","3","5","4","3","4","4","3","4","2","4","754335804045922305","曹","38","","","","","","","","","","","","","","","","","","","true","4","4","ability","420","self","本人","","","","","","","","","","","","","","",""
"null","","null","html-keyboard-response","138","212161","0.0-6.0-0.0-8.0-0.15","2","3","1","2","2","1","1","2","1","1","2","1","2","2","2","2","3","1","2","1","3","2","2","3","2","3","3","4","2","1","0","1","1","0","1","1","1","0","0","1","0","0","0","1","3","5","4","3","4","4","3","4","2","4","754335804045922305","曹","38","","","","","","","","","","","","","","","","","","","","","","","","","","","","","","","","","","","","","","","",""
"644","<p style=""color:white; font-size: 35px;"">高效</p>","i","categorize-html","139","212808","0.0-6.0-0.0-8.0-1.15","2","3","1","2","2","1","1","2","1","1","2","1","2","2","2","2","3","1","2","1","3","2","2","3","2","3","3","4","2","1","0","1","1","0","1","1","1","0","0","1","0","0","0","1","3","5","4","3","4","4","3","4","2","4","754335804045922305","曹","38","","","","","","","","","","","","","","","","","","","true","4","4","ability","644","positive","高效","","","","","","","","","","","","","","",""
"null","","null","html-keyboard-response","140","213065","0.0-6.0-0.0-8.0-0.16","2","3","1","2","2","1","1","2","1","1","2","1","2","2","2","2","3","1","2","1","3","2","2","3","2","3","3","4","2","1","0","1","1","0","1","1","1","0","0","1","0","0","0","1","3","5","4","3","4","4","3","4","2","4","754335804045922305","曹","38","","","","","","","","","","","","","","","","","","","","","","","","","","","","","","","","","","","","","","","",""
"430","<p style=""color:rgb(150, 250, 100); font-size: 35px;"">他</p>","i","categorize-html","141","213498","0.0-6.0-0.0-8.0-1.16","2","3","1","2","2","1","1","2","1","1","2","1","2","2","2","2","3","1","2","1","3","2","2","3","2","3","3","4","2","1","0","1","1","0","1","1","1","0","0","1","0","0","0","1","3","5","4","3","4","4","3","4","2","4","754335804045922305","曹","38","","","","","","","","","","","","","","","","","","","true","4","4","ability","430","other","他","","","","","","","","","","","","","","",""
"null","","null","html-keyboard-response","142","213754","0.0-6.0-0.0-8.0-0.17","2","3","1","2","2","1","1","2","1","1","2","1","2","2","2","2","3","1","2","1","3","2","2","3","2","3","3","4","2","1","0","1","1","0","1","1","1","0","0","1","0","0","0","1","3","5","4","3","4","4","3","4","2","4","754335804045922305","曹","38","","","","","","","","","","","","","","","","","","","","","","","","","","","","","","","","","","","","","","","",""
"1219","<p style=""color:white; font-size: 35px;"">全能</p>","i","categorize-html","143","214975","0.0-6.0-0.0-8.0-1.17","2","3","1","2","2","1","1","2","1","1","2","1","2","2","2","2","3","1","2","1","3","2","2","3","2","3","3","4","2","1","0","1","1","0","1","1","1","0","0","1","0","0","0","1","3","5","4","3","4","4","3","4","2","4","754335804045922305","曹","38","","","","","","","","","","","","","","","","","","","true","4","4","ability","1219","positive","全能","","","","","","","","","","","","","","",""
"null","","null","html-keyboard-response","144","215234","0.0-6.0-0.0-8.0-0.18","2","3","1","2","2","1","1","2","1","1","2","1","2","2","2","2","3","1","2","1","3","2","2","3","2","3","3","4","2","1","0","1","1","0","1","1","1","0","0","1","0","0","0","1","3","5","4","3","4","4","3","4","2","4","754335804045922305","曹","38","","","","","","","","","","","","","","","","","","","","","","","","","","","","","","","","","","","","","","","",""
"1049","<p style=""color:rgb(150, 250, 100); font-size: 35px;"">本人</p>","e","categorize-html","145","216286","0.0-6.0-0.0-8.0-1.18","2","3","1","2","2","1","1","2","1","1","2","1","2","2","2","2","3","1","2","1","3","2","2","3","2","3","3","4","2","1","0","1","1","0","1","1","1","0","0","1","0","0","0","1","3","5","4","3","4","4","3","4","2","4","754335804045922305","曹","38","","","","","","","","","","","","","","","","","","","true","4","4","ability","1049","self","本人","","","","","","","","","","","","","","",""
"null","","null","html-keyboard-response","146","216537","0.0-6.0-0.0-8.0-0.19","2","3","1","2","2","1","1","2","1","1","2","1","2","2","2","2","3","1","2","1","3","2","2","3","2","3","3","4","2","1","0","1","1","0","1","1","1","0","0","1","0","0","0","1","3","5","4","3","4","4","3","4","2","4","754335804045922305","曹","38","","","","","","","","","","","","","","","","","","","","","","","","","","","","","","","","","","","","","","","",""
"535","<p style=""color:white; font-size: 35px;"">废物</p>","e","categorize-html","147","217075","0.0-6.0-0.0-8.0-1.19","2","3","1","2","2","1","1","2","1","1","2","1","2","2","2","2","3","1","2","1","3","2","2","3","2","3","3","4","2","1","0","1","1","0","1","1","1","0","0","1","0","0","0","1","3","5","4","3","4","4","3","4","2","4","754335804045922305","曹","38","","","","","","","","","","","","","","","","","","","true","4","4","ability","535","negative","废物","","","","","","","","","","","","","","",""
"null","","null","html-keyboard-response","148","217330","0.0-6.0-0.0-8.0-0.20","2","3","1","2","2","1","1","2","1","1","2","1","2","2","2","2","3","1","2","1","3","2","2","3","2","3","3","4","2","1","0","1","1","0","1","1","1","0","0","1","0","0","0","1","3","5","4","3","4","4","3","4","2","4","754335804045922305","曹","38","","","","","","","","","","","","","","","","","","","","","","","","","","","","","","","","","","","","","","","",""
"522","<p style=""color:rgb(150, 250, 100); font-size: 35px;"">他</p>","i","categorize-html","149","217854","0.0-6.0-0.0-8.0-1.20","2","3","1","2","2","1","1","2","1","1","2","1","2","2","2","2","3","1","2","1","3","2","2","3","2","3","3","4","2","1","0","1","1","0","1","1","1","0","0","1","0","0","0","1","3","5","4","3","4","4","3","4","2","4","754335804045922305","曹","38","","","","","","","","","","","","","","","","","","","true","4","4","ability","522","other","他","","","","","","","","","","","","","","",""
"null","","null","html-keyboard-response","150","218106","0.0-6.0-0.0-8.0-0.21","2","3","1","2","2","1","1","2","1","1","2","1","2","2","2","2","3","1","2","1","3","2","2","3","2","3","3","4","2","1","0","1","1","0","1","1","1","0","0","1","0","0","0","1","3","5","4","3","4","4","3","4","2","4","754335804045922305","曹","38","","","","","","","","","","","","","","","","","","","","","","","","","","","","","","","","","","","","","","","",""
"722","<p style=""color:white; font-size: 35px;"">蠢笨</p>","e","categorize-html","151","218830","0.0-6.0-0.0-8.0-1.21","2","3","1","2","2","1","1","2","1","1","2","1","2","2","2","2","3","1","2","1","3","2","2","3","2","3","3","4","2","1","0","1","1","0","1","1","1","0","0","1","0","0","0","1","3","5","4","3","4","4","3","4","2","4","754335804045922305","曹","38","","","","","","","","","","","","","","","","","","","true","4","4","ability","722","negative","蠢笨","","","","","","","","","","","","","","",""
"null","","null","html-keyboard-response","152","219082","0.0-6.0-0.0-8.0-0.22","2","3","1","2","2","1","1","2","1","1","2","1","2","2","2","2","3","1","2","1","3","2","2","3","2","3","3","4","2","1","0","1","1","0","1","1","1","0","0","1","0","0","0","1","3","5","4","3","4","4","3","4","2","4","754335804045922305","曹","38","","","","","","","","","","","","","","","","","","","","","","","","","","","","","","","","","","","","","","","",""
"1639","<p style=""color:rgb(150, 250, 100); font-size: 35px;"">自己的</p>","e","categorize-html","153","220723","0.0-6.0-0.0-8.0-1.22","2","3","1","2","2","1","1","2","1","1","2","1","2","2","2","2","3","1","2","1","3","2","2","3","2","3","3","4","2","1","0","1","1","0","1","1","1","0","0","1","0","0","0","1","3","5","4","3","4","4","3","4","2","4","754335804045922305","曹","38","","","","","","","","","","","","","","","","","","","true","4","4","ability","1639","self","自己的","","","","","","","","","","","","","","",""
"null","","null","html-keyboard-response","154","220978","0.0-6.0-0.0-8.0-0.23","2","3","1","2","2","1","1","2","1","1","2","1","2","2","2","2","3","1","2","1","3","2","2","3","2","3","3","4","2","1","0","1","1","0","1","1","1","0","0","1","0","0","0","1","3","5","4","3","4","4","3","4","2","4","754335804045922305","曹","38","","","","","","","","","","","","","","","","","","","","","","","","","","","","","","","","","","","","","","","",""
"578","<p style=""color:white; font-size: 35px;"">精干</p>","i","categorize-html","155","221558","0.0-6.0-0.0-8.0-1.23","2","3","1","2","2","1","1","2","1","1","2","1","2","2","2","2","3","1","2","1","3","2","2","3","2","3","3","4","2","1","0","1","1","0","1","1","1","0","0","1","0","0","0","1","3","5","4","3","4","4","3","4","2","4","754335804045922305","曹","38","","","","","","","","","","","","","","","","","","","true","4","4","ability","578","positive","精干","","","","","","","","","","","","","","",""
"null","","null","html-keyboard-response","156","221810","0.0-6.0-0.0-8.0-0.24","2","3","1","2","2","1","1","2","1","1","2","1","2","2","2","2","3","1","2","1","3","2","2","3","2","3","3","4","2","1","0","1","1","0","1","1","1","0","0","1","0","0","0","1","3","5","4","3","4","4","3","4","2","4","754335804045922305","曹","38","","","","","","","","","","","","","","","","","","","","","","","","","","","","","","","","","","","","","","","",""
"704","<p style=""color:rgb(150, 250, 100); font-size: 35px;"">他人</p>","i","categorize-html","157","222516","0.0-6.0-0.0-8.0-1.24","2","3","1","2","2","1","1","2","1","1","2","1","2","2","2","2","3","1","2","1","3","2","2","3","2","3","3","4","2","1","0","1","1","0","1","1","1","0","0","1","0","0","0","1","3","5","4","3","4","4","3","4","2","4","754335804045922305","曹","38","","","","","","","","","","","","","","","","","","","true","4","4","ability","704","other","他人","","","","","","","","","","","","","","",""
"null","","null","html-keyboard-response","158","222770","0.0-6.0-0.0-8.0-0.25","2","3","1","2","2","1","1","2","1","1","2","1","2","2","2","2","3","1","2","1","3","2","2","3","2","3","3","4","2","1","0","1","1","0","1","1","1","0","0","1","0","0","0","1","3","5","4","3","4","4","3","4","2","4","754335804045922305","曹","38","","","","","","","","","","","","","","","","","","","","","","","","","","","","","","","","","","","","","","","",""
"555","<p style=""color:white; font-size: 35px;"">拙笨</p>","e","categorize-html","159","223327","0.0-6.0-0.0-8.0-1.25","2","3","1","2","2","1","1","2","1","1","2","1","2","2","2","2","3","1","2","1","3","2","2","3","2","3","3","4","2","1","0","1","1","0","1","1","1","0","0","1","0","0","0","1","3","5","4","3","4","4","3","4","2","4","754335804045922305","曹","38","","","","","","","","","","","","","","","","","","","true","4","4","ability","555","negative","拙笨","","","","","","","","","","","","","","",""
"null","","null","html-keyboard-response","160","223586","0.0-6.0-0.0-8.0-0.26","2","3","1","2","2","1","1","2","1","1","2","1","2","2","2","2","3","1","2","1","3","2","2","3","2","3","3","4","2","1","0","1","1","0","1","1","1","0","0","1","0","0","0","1","3","5","4","3","4","4","3","4","2","4","754335804045922305","曹","38","","","","","","","","","","","","","","","","","","","","","","","","","","","","","","","","","","","","","","","",""
"652","<p style=""color:rgb(150, 250, 100); font-size: 35px;"">我的</p>","e","categorize-html","161","224241","0.0-6.0-0.0-8.0-1.26","2","3","1","2","2","1","1","2","1","1","2","1","2","2","2","2","3","1","2","1","3","2","2","3","2","3","3","4","2","1","0","1","1","0","1","1","1","0","0","1","0","0","0","1","3","5","4","3","4","4","3","4","2","4","754335804045922305","曹","38","","","","","","","","","","","","","","","","","","","true","4","4","ability","652","self","我的","","","","","","","","","","","","","","",""
"null","","null","html-keyboard-response","162","224498","0.0-6.0-0.0-8.0-0.27","2","3","1","2","2","1","1","2","1","1","2","1","2","2","2","2","3","1","2","1","3","2","2","3","2","3","3","4","2","1","0","1","1","0","1","1","1","0","0","1","0","0","0","1","3","5","4","3","4","4","3","4","2","4","754335804045922305","曹","38","","","","","","","","","","","","","","","","","","","","","","","","","","","","","","","","","","","","","","","",""
"759","<p style=""color:white; font-size: 35px;"">能干</p>","i","categorize-html","163","225259","0.0-6.0-0.0-8.0-1.27","2","3","1","2","2","1","1","2","1","1","2","1","2","2","2","2","3","1","2","1","3","2","2","3","2","3","3","4","2","1","0","1","1","0","1","1","1","0","0","1","0","0","0","1","3","5","4","3","4","4","3","4","2","4","754335804045922305","曹","38","","","","","","","","","","","","","","","","","","","true","4","4","ability","759","positive","能干","","","","","","","","","","","","","","",""
"null","","null","html-keyboard-response","164","225513","0.0-6.0-0.0-8.0-0.28","2","3","1","2","2","1","1","2","1","1","2","1","2","2","2","2","3","1","2","1","3","2","2","3","2","3","3","4","2","1","0","1","1","0","1","1","1","0","0","1","0","0","0","1","3","5","4","3","4","4","3","4","2","4","754335804045922305","曹","38","","","","","","","","","","","","","","","","","","","","","","","","","","","","","","","","","","","","","","","",""
"620","<p style=""color:rgb(150, 250, 100); font-size: 35px;"">本人的</p>","e","categorize-html","165","226135","0.0-6.0-0.0-8.0-1.28","2","3","1","2","2","1","1","2","1","1","2","1","2","2","2","2","3","1","2","1","3","2","2","3","2","3","3","4","2","1","0","1","1","0","1","1","1","0","0","1","0","0","0","1","3","5","4","3","4","4","3","4","2","4","754335804045922305","曹","38","","","","","","","","","","","","","","","","","","","true","4","4","ability","620","self","本人的","","","","","","","","","","","","","","",""
"null","","null","html-keyboard-response","166","226394","0.0-6.0-0.0-8.0-0.29","2","3","1","2","2","1","1","2","1","1","2","1","2","2","2","2","3","1","2","1","3","2","2","3","2","3","3","4","2","1","0","1","1","0","1","1","1","0","0","1","0","0","0","1","3","5","4","3","4","4","3","4","2","4","754335804045922305","曹","38","","","","","","","","","","","","","","","","","","","","","","","","","","","","","","","","","","","","","","","",""
"1567","<p style=""color:white; font-size: 35px;"">全才</p>","i","categorize-html","167","227963","0.0-6.0-0.0-8.0-1.29","2","3","1","2","2","1","1","2","1","1","2","1","2","2","2","2","3","1","2","1","3","2","2","3","2","3","3","4","2","1","0","1","1","0","1","1","1","0","0","1","0","0","0","1","3","5","4","3","4","4","3","4","2","4","754335804045922305","曹","38","","","","","","","","","","","","","","","","","","","true","4","4","ability","1567","positive","全才","","","","","","","","","","","","","","",""
"null","","null","html-keyboard-response","168","228219","0.0-6.0-0.0-8.0-0.30","2","3","1","2","2","1","1","2","1","1","2","1","2","2","2","2","3","1","2","1","3","2","2","3","2","3","3","4","2","1","0","1","1","0","1","1","1","0","0","1","0","0","0","1","3","5","4","3","4","4","3","4","2","4","754335804045922305","曹","38","","","","","","","","","","","","","","","","","","","","","","","","","","","","","","","","","","","","","","","",""
"787","<p style=""color:rgb(150, 250, 100); font-size: 35px;"">他的</p>","i","categorize-html","169","229007","0.0-6.0-0.0-8.0-1.30","2","3","1","2","2","1","1","2","1","1","2","1","2","2","2","2","3","1","2","1","3","2","2","3","2","3","3","4","2","1","0","1","1","0","1","1","1","0","0","1","0","0","0","1","3","5","4","3","4","4","3","4","2","4","754335804045922305","曹","38","","","","","","","","","","","","","","","","","","","true","4","4","ability","787","other","他的","","","","","","","","","","","","","","",""
"null","","null","html-keyboard-response","170","229266","0.0-6.0-0.0-8.0-0.31","2","3","1","2","2","1","1","2","1","1","2","1","2","2","2","2","3","1","2","1","3","2","2","3","2","3","3","4","2","1","0","1","1","0","1","1","1","0","0","1","0","0","0","1","3","5","4","3","4","4","3","4","2","4","754335804045922305","曹","38","","","","","","","","","","","","","","","","","","","","","","","","","","","","","","","","","","","","","","","",""
"694","<p style=""color:white; font-size: 35px;"">低能</p>","e","categorize-html","171","229962","0.0-6.0-0.0-8.0-1.31","2","3","1","2","2","1","1","2","1","1","2","1","2","2","2","2","3","1","2","1","3","2","2","3","2","3","3","4","2","1","0","1","1","0","1","1","1","0","0","1","0","0","0","1","3","5","4","3","4","4","3","4","2","4","754335804045922305","曹","38","","","","","","","","","","","","","","","","","","","true","4","4","ability","694","negative","低能","","","","","","","","","","","","","","",""
"null","","null","html-keyboard-response","172","230217","0.0-6.0-0.0-8.0-0.32","2","3","1","2","2","1","1","2","1","1","2","1","2","2","2","2","3","1","2","1","3","2","2","3","2","3","3","4","2","1","0","1","1","0","1","1","1","0","0","1","0","0","0","1","3","5","4","3","4","4","3","4","2","4","754335804045922305","曹","38","","","","","","","","","","","","","","","","","","","","","","","","","","","","","","","","","","","","","","","",""
"577","<p style=""color:rgb(150, 250, 100); font-size: 35px;"">本人的</p>","e","categorize-html","173","230796","0.0-6.0-0.0-8.0-1.32","2","3","1","2","2","1","1","2","1","1","2","1","2","2","2","2","3","1","2","1","3","2","2","3","2","3","3","4","2","1","0","1","1","0","1","1","1","0","0","1","0","0","0","1","3","5","4","3","4","4","3","4","2","4","754335804045922305","曹","38","","","","","","","","","","","","","","","","","","","true","4","4","ability","577","self","本人的","","","","","","","","","","","","","","",""
"null","","null","html-keyboard-response","174","231051","0.0-6.0-0.0-8.0-0.33","2","3","1","2","2","1","1","2","1","1","2","1","2","2","2","2","3","1","2","1","3","2","2","3","2","3","3","4","2","1","0","1","1","0","1","1","1","0","0","1","0","0","0","1","3","5","4","3","4","4","3","4","2","4","754335804045922305","曹","38","","","","","","","","","","","","","","","","","","","","","","","","","","","","","","","","","","","","","","","",""
"747","<p style=""color:white; font-size: 35px;"">无能</p>","e","categorize-html","175","231801","0.0-6.0-0.0-8.0-1.33","2","3","1","2","2","1","1","2","1","1","2","1","2","2","2","2","3","1","2","1","3","2","2","3","2","3","3","4","2","1","0","1","1","0","1","1","1","0","0","1","0","0","0","1","3","5","4","3","4","4","3","4","2","4","754335804045922305","曹","38","","","","","","","","","","","","","","","","","","","true","4","4","ability","747","negative","无能","","","","","","","","","","","","","","",""
"null","","null","html-keyboard-response","176","232058","0.0-6.0-0.0-8.0-0.34","2","3","1","2","2","1","1","2","1","1","2","1","2","2","2","2","3","1","2","1","3","2","2","3","2","3","3","4","2","1","0","1","1","0","1","1","1","0","0","1","0","0","0","1","3","5","4","3","4","4","3","4","2","4","754335804045922305","曹","38","","","","","","","","","","","","","","","","","","","","","","","","","","","","","","","","","","","","","","","",""
"530","<p style=""color:rgb(150, 250, 100); font-size: 35px;"">他的</p>","i","categorize-html","177","232590","0.0-6.0-0.0-8.0-1.34","2","3","1","2","2","1","1","2","1","1","2","1","2","2","2","2","3","1","2","1","3","2","2","3","2","3","3","4","2","1","0","1","1","0","1","1","1","0","0","1","0","0","0","1","3","5","4","3","4","4","3","4","2","4","754335804045922305","曹","38","","","","","","","","","","","","","","","","","","","true","4","4","ability","530","other","他的","","","","","","","","","","","","","","",""
"null","","null","html-keyboard-response","178","232841","0.0-6.0-0.0-8.0-0.35","2","3","1","2","2","1","1","2","1","1","2","1","2","2","2","2","3","1","2","1","3","2","2","3","2","3","3","4","2","1","0","1","1","0","1","1","1","0","0","1","0","0","0","1","3","5","4","3","4","4","3","4","2","4","754335804045922305","曹","38","","","","","","","","","","","","","","","","","","","","","","","","","","","","","","","","","","","","","","","",""
"2797","<p style=""color:white; font-size: 35px;"">天才</p>","i","categorize-html","179","235641","0.0-6.0-0.0-8.0-1.35","2","3","1","2","2","1","1","2","1","1","2","1","2","2","2","2","3","1","2","1","3","2","2","3","2","3","3","4","2","1","0","1","1","0","1","1","1","0","0","1","0","0","0","1","3","5","4","3","4","4","3","4","2","4","754335804045922305","曹","38","","","","","","","","","","","","","","","","","","","true","4","4","ability","2797","positive","天才","","","","","","","","","","","","","","",""
"null","","null","html-keyboard-response","180","235898","0.0-6.0-0.0-8.0-0.36","2","3","1","2","2","1","1","2","1","1","2","1","2","2","2","2","3","1","2","1","3","2","2","3","2","3","3","4","2","1","0","1","1","0","1","1","1","0","0","1","0","0","0","1","3","5","4","3","4","4","3","4","2","4","754335804045922305","曹","38","","","","","","","","","","","","","","","","","","","","","","","","","","","","","","","","","","","","","","","",""
"721","<p style=""color:rgb(150, 250, 100); font-size: 35px;"">自己的</p>","e","categorize-html","181","236622","0.0-6.0-0.0-8.0-1.36","2","3","1","2","2","1","1","2","1","1","2","1","2","2","2","2","3","1","2","1","3","2","2","3","2","3","3","4","2","1","0","1","1","0","1","1","1","0","0","1","0","0","0","1","3","5","4","3","4","4","3","4","2","4","754335804045922305","曹","38","","","","","","","","","","","","","","","","","","","true","4","4","ability","721","self","自己的","","","","","","","","","","","","","","",""
"null","","null","html-keyboard-response","182","236873","0.0-6.0-0.0-8.0-0.37","2","3","1","2","2","1","1","2","1","1","2","1","2","2","2","2","3","1","2","1","3","2","2","3","2","3","3","4","2","1","0","1","1","0","1","1","1","0","0","1","0","0","0","1","3","5","4","3","4","4","3","4","2","4","754335804045922305","曹","38","","","","","","","","","","","","","","","","","","","","","","","","","","","","","","","","","","","","","","","",""
"648","<p style=""color:white; font-size: 35px;"">高效</p>","i","categorize-html","183","237524","0.0-6.0-0.0-8.0-1.37","2","3","1","2","2","1","1","2","1","1","2","1","2","2","2","2","3","1","2","1","3","2","2","3","2","3","3","4","2","1","0","1","1","0","1","1","1","0","0","1","0","0","0","1","3","5","4","3","4","4","3","4","2","4","754335804045922305","曹","38","","","","","","","","","","","","","","","","","","","true","4","4","ability","648","positive","高效","","","","","","","","","","","","","","",""
"null","","null","html-keyboard-response","184","237778","0.0-6.0-0.0-8.0-0.38","2","3","1","2","2","1","1","2","1","1","2","1","2","2","2","2","3","1","2","1","3","2","2","3","2","3","3","4","2","1","0","1","1","0","1","1","1","0","0","1","0","0","0","1","3","5","4","3","4","4","3","4","2","4","754335804045922305","曹","38","","","","","","","","","","","","","","","","","","","","","","","","","","","","","","","","","","","","","","","",""
"487","<p style=""color:rgb(150, 250, 100); font-size: 35px;"">别人的</p>","i","categorize-html","185","238267","0.0-6.0-0.0-8.0-1.38","2","3","1","2","2","1","1","2","1","1","2","1","2","2","2","2","3","1","2","1","3","2","2","3","2","3","3","4","2","1","0","1","1","0","1","1","1","0","0","1","0","0","0","1","3","5","4","3","4","4","3","4","2","4","754335804045922305","曹","38","","","","","","","","","","","","","","","","","","","true","4","4","ability","487","other","别人的","","","","","","","","","","","","","","",""
"null","","null","html-keyboard-response","186","238522","0.0-6.0-0.0-8.0-0.39","2","3","1","2","2","1","1","2","1","1","2","1","2","2","2","2","3","1","2","1","3","2","2","3","2","3","3","4","2","1","0","1","1","0","1","1","1","0","0","1","0","0","0","1","3","5","4","3","4","4","3","4","2","4","754335804045922305","曹","38","","","","","","","","","","","","","","","","","","","","","","","","","","","","","","","","","","","","","","","",""
"607","<p style=""color:white; font-size: 35px;"">蠢笨</p>","e","categorize-html","187","239132","0.0-6.0-0.0-8.0-1.39","2","3","1","2","2","1","1","2","1","1","2","1","2","2","2","2","3","1","2","1","3","2","2","3","2","3","3","4","2","1","0","1","1","0","1","1","1","0","0","1","0","0","0","1","3","5","4","3","4","4","3","4","2","4","754335804045922305","曹","38","","","","","","","","","","","","","","","","","","","true","4","4","ability","607","negative","蠢笨","","","","","","","","","","","","","","",""
"null","","null","html-keyboard-response","188","239386","0.0-6.0-0.0-8.0-0.40","2","3","1","2","2","1","1","2","1","1","2","1","2","2","2","2","3","1","2","1","3","2","2","3","2","3","3","4","2","1","0","1","1","0","1","1","1","0","0","1","0","0","0","1","3","5","4","3","4","4","3","4","2","4","754335804045922305","曹","38","","","","","","","","","","","","","","","","","","","","","","","","","","","","","","","","","","","","","","","",""
"663","<p style=""color:rgb(150, 250, 100); font-size: 35px;"">我的</p>","e","categorize-html","189","240051","0.0-6.0-0.0-8.0-1.40","2","3","1","2","2","1","1","2","1","1","2","1","2","2","2","2","3","1","2","1","3","2","2","3","2","3","3","4","2","1","0","1","1","0","1","1","1","0","0","1","0","0","0","1","3","5","4","3","4","4","3","4","2","4","754335804045922305","曹","38","","","","","","","","","","","","","","","","","","","true","4","4","ability","663","self","我的","","","","","","","","","","","","","","",""
"null","","null","html-keyboard-response","190","240305","0.0-6.0-0.0-8.0-0.41","2","3","1","2","2","1","1","2","1","1","2","1","2","2","2","2","3","1","2","1","3","2","2","3","2","3","3","4","2","1","0","1","1","0","1","1","1","0","0","1","0","0","0","1","3","5","4","3","4","4","3","4","2","4","754335804045922305","曹","38","","","","","","","","","","","","","","","","","","","","","","","","","","","","","","","","","","","","","","","",""
"618","<p style=""color:white; font-size: 35px;"">拙笨</p>","e","categorize-html","191","240926","0.0-6.0-0.0-8.0-1.41","2","3","1","2","2","1","1","2","1","1","2","1","2","2","2","2","3","1","2","1","3","2","2","3","2","3","3","4","2","1","0","1","1","0","1","1","1","0","0","1","0","0","0","1","3","5","4","3","4","4","3","4","2","4","754335804045922305","曹","38","","","","","","","","","","","","","","","","","","","true","4","4","ability","618","negative","拙笨","","","","","","","","","","","","","","",""
"null","","null","html-keyboard-response","192","241178","0.0-6.0-0.0-8.0-0.42","2","3","1","2","2","1","1","2","1","1","2","1","2","2","2","2","3","1","2","1","3","2","2","3","2","3","3","4","2","1","0","1","1","0","1","1","1","0","0","1","0","0","0","1","3","5","4","3","4","4","3","4","2","4","754335804045922305","曹","38","","","","","","","","","","","","","","","","","","","","","","","","","","","","","","","","","","","","","","","",""
"538","<p style=""color:rgb(150, 250, 100); font-size: 35px;"">别人</p>","i","categorize-html","193","241719","0.0-6.0-0.0-8.0-1.42","2","3","1","2","2","1","1","2","1","1","2","1","2","2","2","2","3","1","2","1","3","2","2","3","2","3","3","4","2","1","0","1","1","0","1","1","1","0","0","1","0","0","0","1","3","5","4","3","4","4","3","4","2","4","754335804045922305","曹","38","","","","","","","","","","","","","","","","","","","true","4","4","ability","538","other","别人","","","","","","","","","","","","","","",""
"null","","null","html-keyboard-response","194","241978","0.0-6.0-0.0-8.0-0.43","2","3","1","2","2","1","1","2","1","1","2","1","2","2","2","2","3","1","2","1","3","2","2","3","2","3","3","4","2","1","0","1","1","0","1","1","1","0","0","1","0","0","0","1","3","5","4","3","4","4","3","4","2","4","754335804045922305","曹","38","","","","","","","","","","","","","","","","","","","","","","","","","","","","","","","","","","","","","","","",""
"598","<p style=""color:white; font-size: 35px;"">全才</p>","i","categorize-html","195","242579","0.0-6.0-0.0-8.0-1.43","2","3","1","2","2","1","1","2","1","1","2","1","2","2","2","2","3","1","2","1","3","2","2","3","2","3","3","4","2","1","0","1","1","0","1","1","1","0","0","1","0","0","0","1","3","5","4","3","4","4","3","4","2","4","754335804045922305","曹","38","","","","","","","","","","","","","","","","","","","true","4","4","ability","598","positive","全才","","","","","","","","","","","","","","",""
"null","","null","html-keyboard-response","196","242834","0.0-6.0-0.0-8.0-0.44","2","3","1","2","2","1","1","2","1","1","2","1","2","2","2","2","3","1","2","1","3","2","2","3","2","3","3","4","2","1","0","1","1","0","1","1","1","0","0","1","0","0","0","1","3","5","4","3","4","4","3","4","2","4","754335804045922305","曹","38","","","","","","","","","","","","","","","","","","","","","","","","","","","","","","","","","","","","","","","",""
"525","<p style=""color:rgb(150, 250, 100); font-size: 35px;"">别人</p>","i","categorize-html","197","243362","0.0-6.0-0.0-8.0-1.44","2","3","1","2","2","1","1","2","1","1","2","1","2","2","2","2","3","1","2","1","3","2","2","3","2","3","3","4","2","1","0","1","1","0","1","1","1","0","0","1","0","0","0","1","3","5","4","3","4","4","3","4","2","4","754335804045922305","曹","38","","","","","","","","","","","","","","","","","","","true","4","4","ability","525","other","别人","","","","","","","","","","","","","","",""
