"rt","stimulus","response","trial_type","trial_index","time_elapsed","internal_node_id","ses_1","ses_2","ses_3","ses_4","ses_5","ses_6","ses_7","ses_8","ses_9","ses_10","coreself_1","coreself_2","coreself_3","coreself_4","coreself_5","coreself_6","coreself_7","coreself_8","coreself_9","coreself_10","SGPS_1","SGPS_2","SGPS_3","SGPS_4","SGPS_5","SGPS_6","SGPS_7","SGPS_8","SGPS_9","NPI1","NPI2","NPI3","NPI4","NPI5","NPI6","NPI7","NPI8","NPI9","NPI10","NPI11","NPI12","NPI13","NPI14","NPI15","hsns_1","hsns_2","hsns_3","hsns_4","hsns_5","hsns_6","hsns_7","hsns_8","hsns_9","hsns_10","subj_idx","friend_name","ParticipantID","value","success","user_agent","responses","item_order","radio_event_ids","radio_event_times","key_event_times","mouse_event_times","straightlining","zigzagging","honeypot","timeout","failed_images","failed_audio","failed_video","view_history","response_type","key_press","avg_frame_time","center_x","center_y","correct_response","correct","identity","Image","word","condition","task_id","screen_id","time_stamp","version_attrib2","version_target2","IAT","RT","varname","summary","version_attrib","version_target","question_order"
"4983","
   <p><div style = ""color: white;font-size:25px;"">您好，欢迎参加本次实验。</div> </p>
   <p><div style = ""color: white;font-size:25px;"">为充分保障您的权利，请确保您已经知晓并同意《参与实验同意书》以及《数据公开知情同意书》。</div></p>
   <p><div style = ""color: white;font-size:25px;"">如果您未见过上述内容，请咨询实验员。</div></p>
   <p><div style = ""color: white;font-size:25px;"">如果您选择继续实验，则表示您已经清楚两份知情同意书的内容并同意。</div></p>
   <p> <div style = ""color: green;font-size:25px;""><按空格键至下页></div> </p>
   "," ","html-keyboard-response","0","4998","0.0-0.0","3","4","4","3","4","3","4","4","4","3","4","5","4","5","5","4","4","5","4","5","1","1","2","2","1","2","2","1","1","1","0","1","1","0","0","0","1","0","1","1","1","0","0","1","4","1","2","1","1","2","2","1","2","1","612329083165999104","罗","378","","","","","","","","","","","","","","","","","","","","","","","","","","","","","","","","","","","","","","","",""
"","","","call-function","1","4999","0.0-1.0-0.0","3","4","4","3","4","3","4","4","4","3","4","5","4","5","5","4","4","5","4","5","1","1","2","2","1","2","2","1","1","1","0","1","1","0","0","0","1","0","1","1","1","0","0","1","4","1","2","1","1","2","2","1","2","1","612329083165999104","罗","378","","","","","","","","","","","","","","","","","","","","","","","","","","","","","","","","","","","","","","","",""
"20950","","{""friend_name"":""罗"",""ParticipantID"":""378""}","survey-html-form","2","25992","0.0-1.0-1.0","3","4","4","3","4","3","4","4","4","3","4","5","4","5","5","4","4","5","4","5","1","1","2","2","1","2","2","1","1","1","0","1","1","0","0","0","1","0","1","1","1","0","0","1","4","1","2","1","1","2","2","1","2","1","612329083165999104","罗","378","","","","","","","","","","","","","","","","","","","","","","","","","","","","","","","","","","","","","","","",""
"","","","fullscreen","3","35510","0.0-2.0","3","4","4","3","4","3","4","4","4","3","4","5","4","5","5","4","4","5","4","5","1","1","2","2","1","2","2","1","1","1","0","1","1","0","0","0","1","0","1","1","1","0","0","1","4","1","2","1","1","2","2","1","2","1","612329083165999104","罗","378","","true","","","","","","","","","","","","","","","","","","","","","","","","","","","","","","","","","","","","","",""
"225896","","{""Q01"":""3"",""Q02"":""4"",""Q03"":""4"",""Q04"":""3"",""Q05"":""4"",""Q06"":""3"",""Q07"":""4"",""Q08"":""4"",""Q09"":""4"",""Q10"":""3""}","survey-template","4","261476","0.0-3.0","3","4","4","3","4","3","4","4","4","3","4","5","4","5","5","4","4","5","4","5","1","1","2","2","1","2","2","1","1","1","0","1","1","0","0","0","1","0","1","1","1","0","0","1","4","1","2","1","1","2","2","1","2","1","612329083165999104","罗","378","","","","{""Q01"":""3"",""Q02"":""4"",""Q03"":""4"",""Q04"":""3"",""Q05"":""4"",""Q06"":""3"",""Q07"":""4"",""Q08"":""4"",""Q09"":""4"",""Q10"":""3""}","[0,1,2,3,4,5,6,7,8,9]","[""Q01"",""Q02"",""Q03"",""Q04"",""Q05"",""Q06"",""Q07"",""Q08"",""Q09"",""Q10"",""Q10""]","[63604,69508,76103,77934,80387,97017,107242,108503,110088,112157,112681]","[]","[63604,69508,76103,77934,80387,97017,106278,107242,108503,110088,112157,112681,225896]","0.4","0.5555555555555556","0","","","","","","","","","","","","","","","","","","","","","","","","","","","",""
"27468","","{""Q01"":""4"",""Q02"":""5"",""Q03"":""4"",""Q04"":""5"",""Q05"":""5"",""Q06"":""4"",""Q07"":""4"",""Q08"":""5"",""Q09"":""4"",""Q10"":""5""}","survey-template","5","288952","0.0-4.0","3","4","4","3","4","3","4","4","4","3","4","5","4","5","5","4","4","5","4","5","1","1","2","2","1","2","2","1","1","1","0","1","1","0","0","0","1","0","1","1","1","0","0","1","4","1","2","1","1","2","2","1","2","1","612329083165999104","罗","378","","","","{""Q01"":""4"",""Q02"":""5"",""Q03"":""4"",""Q04"":""5"",""Q05"":""5"",""Q06"":""4"",""Q07"":""4"",""Q08"":""5"",""Q09"":""4"",""Q10"":""5""}","[0,1,2,3,4,5,6,7,8,9]","[""Q01"",""Q02"",""Q03"",""Q04"",""Q05"",""Q06"",""Q07"",""Q08"",""Q09"",""Q10""]","[1559,3111,4738,5792,7139,9344,10192,11333,12739,14280]","[]","[1559,3111,4356,4738,5792,7139,8498,9344,10192,11333,12739,13889,14280,27468]","0.4","0.3333333333333333","0","","","","","","","","","","","","","","","","","","","","","","","","","","","",""
"","","","preload","6","289412","0.0-5.0","3","4","4","3","4","3","4","4","4","3","4","5","4","5","5","4","4","5","4","5","1","1","2","2","1","2","2","1","1","1","0","1","1","0","0","0","1","0","1","1","1","0","0","1","4","1","2","1","1","2","2","1","2","1","612329083165999104","罗","378","","true","","","","","","","","","","","false","[]","[]","[]","","","","","","","","","","","","","","","","","","","","","","","",""
"382561","","","instructions","7","671973","0.0-6.0","3","4","4","3","4","3","4","4","4","3","4","5","4","5","5","4","4","5","4","5","1","1","2","2","1","2","2","1","1","1","0","1","1","0","0","0","1","0","1","1","1","0","0","1","4","1","2","1","1","2","2","1","2","1","612329083165999104","罗","378","","","","","","","","","","","","","","","","","[{""page_index"":0,""viewing_time"":382560}]","","","","","","","","","","","","","","","","","","","","","","",""
"5453","","","instructions","8","677431","0.0-7.0-1.0-0.0","3","4","4","3","4","3","4","4","4","3","4","5","4","5","5","4","4","5","4","5","1","1","2","2","1","2","2","1","1","1","0","1","1","0","0","0","1","0","1","1","1","0","0","1","4","1","2","1","1","2","2","1","2","1","612329083165999104","罗","378","","","","","","","","","","","","","","","","","[{""page_index"":0,""viewing_time"":1408},{""page_index"":1,""viewing_time"":1374},{""page_index"":2,""viewing_time"":2671}]","","","","","","","","","","","","","","","","","","","","","","",""
"1040","","j","psychophysics","9","679542","0.0-7.0-1.0-1.0-0.0-0.0","3","4","4","3","4","3","4","4","4","3","4","5","4","5","5","4","4","5","4","5","1","1","2","2","1","2","2","1","1","1","0","1","1","0","0","0","1","0","1","1","1","0","0","1","4","1","2","1","1","2","2","1","2","1","612329083165999104","罗","378","","","","nonmatch","","","","","","","","","","","","","","key","j","20.816041666666326","640","356","j","true","nonmatch","img/circle.png","五边","圆形","ALT1_2","prac_ALT1_2","","","","","","","","","",""
"null","<span style='color:GreenYellow; font-size: 70px;'>正确! </span>","null","html-keyboard-response","10","680054","0.0-7.0-1.0-1.0-0.0-1.0","3","4","4","3","4","3","4","4","4","3","4","5","4","5","5","4","4","5","4","5","1","1","2","2","1","2","2","1","1","1","0","1","1","0","0","0","1","0","1","1","1","0","0","1","4","1","2","1","1","2","2","1","2","1","612329083165999104","罗","378","","","","","","","","","","","","","","","","","","","","","","","","","","","","","","feedback_test","","","","","","","","","",""
"682","","f","psychophysics","11","681758","0.0-7.0-1.0-1.0-0.0-0.1","3","4","4","3","4","3","4","4","4","3","4","5","4","5","5","4","4","5","4","5","1","1","2","2","1","2","2","1","1","1","0","1","1","0","0","0","1","0","1","1","1","0","0","1","4","1","2","1","1","2","2","1","2","1","612329083165999104","罗","378","","","","match","","","","","","","","","","","","","","key","f","16.99224489795909","640","356","f","true","match","img/square.png","方形","方形","ALT1_2","prac_ALT1_2","","","","","","","","","",""
"null","<span style='color:GreenYellow; font-size: 70px;'>正确! </span>","null","html-keyboard-response","12","682267","0.0-7.0-1.0-1.0-0.0-1.1","3","4","4","3","4","3","4","4","4","3","4","5","4","5","5","4","4","5","4","5","1","1","2","2","1","2","2","1","1","1","0","1","1","0","0","0","1","0","1","1","1","0","0","1","4","1","2","1","1","2","2","1","2","1","612329083165999104","罗","378","","","","","","","","","","","","","","","","","","","","","","","","","","","","","","feedback_test","","","","","","","","","",""
"null","","null","psychophysics","13","684478","0.0-7.0-1.0-1.0-0.0-0.2","3","4","4","3","4","3","4","4","4","3","4","5","4","5","5","4","4","5","4","5","1","1","2","2","1","2","2","1","1","1","0","1","1","0","0","0","1","0","1","1","1","0","0","1","4","1","2","1","1","2","2","1","2","1","612329083165999104","罗","378","","","","null","","","","","","","","","","","","","","key","null","17.587096774193924","640","356","f","false","match","img/triangle.png","三角","三角","ALT1_2","prac_ALT1_2","","","","","","","","","",""
"null","<span class='add_' style='color:yellow; font-size: 70px;'> 太慢! </span>","null","html-keyboard-response","14","684993","0.0-7.0-1.0-1.0-0.0-1.2","3","4","4","3","4","3","4","4","4","3","4","5","4","5","5","4","4","5","4","5","1","1","2","2","1","2","2","1","1","1","0","1","1","0","0","0","1","0","1","1","1","0","0","1","4","1","2","1","1","2","2","1","2","1","612329083165999104","罗","378","","","","","","","","","","","","","","","","","","","","","","","","","","","","","","feedback_test","","","","","","","","","",""
"864","","j","psychophysics","15","686868","0.0-7.0-1.0-1.0-0.0-0.3","3","4","4","3","4","3","4","4","4","3","4","5","4","5","5","4","4","5","4","5","1","1","2","2","1","2","2","1","1","1","0","1","1","0","0","0","1","0","1","1","1","0","0","1","4","1","2","1","1","2","2","1","2","1","612329083165999104","罗","378","","","","nonmatch","","","","","","","","","","","","","","key","j","16.652727272727695","640","356","j","true","nonmatch","img/circle.png","三角","圆形","ALT1_2","prac_ALT1_2","","","","","","","","","",""
"null","<span style='color:GreenYellow; font-size: 70px;'>正确! </span>","null","html-keyboard-response","16","687378","0.0-7.0-1.0-1.0-0.0-1.3","3","4","4","3","4","3","4","4","4","3","4","5","4","5","5","4","4","5","4","5","1","1","2","2","1","2","2","1","1","1","0","1","1","0","0","0","1","0","1","1","1","0","0","1","4","1","2","1","1","2","2","1","2","1","612329083165999104","罗","378","","","","","","","","","","","","","","","","","","","","","","","","","","","","","","feedback_test","","","","","","","","","",""
"793","","j","psychophysics","17","689186","0.0-7.0-1.0-1.0-0.0-0.4","3","4","4","3","4","3","4","4","4","3","4","5","4","5","5","4","4","5","4","5","1","1","2","2","1","2","2","1","1","1","0","1","1","0","0","0","1","0","1","1","1","0","0","1","4","1","2","1","1","2","2","1","2","1","612329083165999104","罗","378","","","","nonmatch","","","","","","","","","","","","","","key","j","16.652897196261552","640","356","j","true","nonmatch","img/pentagon.png","方形","五边","ALT1_2","prac_ALT1_2","","","","","","","","","",""
"null","<span style='color:GreenYellow; font-size: 70px;'>正确! </span>","null","html-keyboard-response","18","689695","0.0-7.0-1.0-1.0-0.0-1.4","3","4","4","3","4","3","4","4","4","3","4","5","4","5","5","4","4","5","4","5","1","1","2","2","1","2","2","1","1","1","0","1","1","0","0","0","1","0","1","1","1","0","0","1","4","1","2","1","1","2","2","1","2","1","612329083165999104","罗","378","","","","","","","","","","","","","","","","","","","","","","","","","","","","","","feedback_test","","","","","","","","","",""
"761","","j","psychophysics","19","691473","0.0-7.0-1.0-1.0-0.0-0.5","3","4","4","3","4","3","4","4","4","3","4","5","4","5","5","4","4","5","4","5","1","1","2","2","1","2","2","1","1","1","0","1","1","0","0","0","1","0","1","1","1","0","0","1","4","1","2","1","1","2","2","1","2","1","612329083165999104","罗","378","","","","nonmatch","","","","","","","","","","","","","","key","j","17.141764705881986","640","356","j","true","nonmatch","img/triangle.png","圆形","三角","ALT1_2","prac_ALT1_2","","","","","","","","","",""
"null","<span style='color:GreenYellow; font-size: 70px;'>正确! </span>","null","html-keyboard-response","20","691982","0.0-7.0-1.0-1.0-0.0-1.5","3","4","4","3","4","3","4","4","4","3","4","5","4","5","5","4","4","5","4","5","1","1","2","2","1","2","2","1","1","1","0","1","1","0","0","0","1","0","1","1","1","0","0","1","4","1","2","1","1","2","2","1","2","1","612329083165999104","罗","378","","","","","","","","","","","","","","","","","","","","","","","","","","","","","","feedback_test","","","","","","","","","",""
"734","","f","psychophysics","21","693732","0.0-7.0-1.0-1.0-0.0-0.6","3","4","4","3","4","3","4","4","4","3","4","5","4","5","5","4","4","5","4","5","1","1","2","2","1","2","2","1","1","1","0","1","1","0","0","0","1","0","1","1","1","0","0","1","4","1","2","1","1","2","2","1","2","1","612329083165999104","罗","378","","","","match","","","","","","","","","","","","","","key","f","16.816078431373597","640","356","f","true","match","img/square.png","方形","方形","ALT1_2","prac_ALT1_2","","","","","","","","","",""
"null","<span style='color:GreenYellow; font-size: 70px;'>正确! </span>","null","html-keyboard-response","22","694242","0.0-7.0-1.0-1.0-0.0-1.6","3","4","4","3","4","3","4","4","4","3","4","5","4","5","5","4","4","5","4","5","1","1","2","2","1","2","2","1","1","1","0","1","1","0","0","0","1","0","1","1","1","0","0","1","4","1","2","1","1","2","2","1","2","1","612329083165999104","罗","378","","","","","","","","","","","","","","","","","","","","","","","","","","","","","","feedback_test","","","","","","","","","",""
"631","","f","psychophysics","23","695965","0.0-7.0-1.0-1.0-0.0-0.7","3","4","4","3","4","3","4","4","4","3","4","5","4","5","5","4","4","5","4","5","1","1","2","2","1","2","2","1","1","1","0","1","1","0","0","0","1","0","1","1","1","0","0","1","4","1","2","1","1","2","2","1","2","1","612329083165999104","罗","378","","","","match","","","","","","","","","","","","","","key","f","16.64568627451081","640","356","f","true","match","img/triangle.png","三角","三角","ALT1_2","prac_ALT1_2","","","","","","","","","",""
"null","<span style='color:GreenYellow; font-size: 70px;'>正确! </span>","null","html-keyboard-response","24","696479","0.0-7.0-1.0-1.0-0.0-1.7","3","4","4","3","4","3","4","4","4","3","4","5","4","5","5","4","4","5","4","5","1","1","2","2","1","2","2","1","1","1","0","1","1","0","0","0","1","0","1","1","1","0","0","1","4","1","2","1","1","2","2","1","2","1","612329083165999104","罗","378","","","","","","","","","","","","","","","","","","","","","","","","","","","","","","feedback_test","","","","","","","","","",""
"801","","j","psychophysics","25","698295","0.0-7.0-1.0-1.0-0.0-0.8","3","4","4","3","4","3","4","4","4","3","4","5","4","5","5","4","4","5","4","5","1","1","2","2","1","2","2","1","1","1","0","1","1","0","0","0","1","0","1","1","1","0","0","1","4","1","2","1","1","2","2","1","2","1","612329083165999104","罗","378","","","","nonmatch","","","","","","","","","","","","","","key","j","16.652962962963134","640","356","j","true","nonmatch","img/pentagon.png","三角","五边","ALT1_2","prac_ALT1_2","","","","","","","","","",""
"null","<span style='color:GreenYellow; font-size: 70px;'>正确! </span>","null","html-keyboard-response","26","698839","0.0-7.0-1.0-1.0-0.0-1.8","3","4","4","3","4","3","4","4","4","3","4","5","4","5","5","4","4","5","4","5","1","1","2","2","1","2","2","1","1","1","0","1","1","0","0","0","1","0","1","1","1","0","0","1","4","1","2","1","1","2","2","1","2","1","612329083165999104","罗","378","","","","","","","","","","","","","","","","","","","","","","","","","","","","","","feedback_test","","","","","","","","","",""
"917","","j","psychophysics","27","700774","0.0-7.0-1.0-1.0-0.0-0.9","3","4","4","3","4","3","4","4","4","3","4","5","4","5","5","4","4","5","4","5","1","1","2","2","1","2","2","1","1","1","0","1","1","0","0","0","1","0","1","1","1","0","0","1","4","1","2","1","1","2","2","1","2","1","612329083165999104","罗","378","","","","nonmatch","","","","","","","","","","","","","","key","j","16.644736842105264","640","356","j","true","nonmatch","img/circle.png","方形","圆形","ALT1_2","prac_ALT1_2","","","","","","","","","",""
"null","<span style='color:GreenYellow; font-size: 70px;'>正确! </span>","null","html-keyboard-response","28","701284","0.0-7.0-1.0-1.0-0.0-1.9","3","4","4","3","4","3","4","4","4","3","4","5","4","5","5","4","4","5","4","5","1","1","2","2","1","2","2","1","1","1","0","1","1","0","0","0","1","0","1","1","1","0","0","1","4","1","2","1","1","2","2","1","2","1","612329083165999104","罗","378","","","","","","","","","","","","","","","","","","","","","","","","","","","","","","feedback_test","","","","","","","","","",""
"1030","","f","psychophysics","29","703322","0.0-7.0-1.0-1.0-0.0-0.10","3","4","4","3","4","3","4","4","4","3","4","5","4","5","5","4","4","5","4","5","1","1","2","2","1","2","2","1","1","1","0","1","1","0","0","0","1","0","1","1","1","0","0","1","4","1","2","1","1","2","2","1","2","1","612329083165999104","罗","378","","","","match","","","","","","","","","","","","","","key","f","16.652727272728082","640","356","f","true","match","img/pentagon.png","五边","五边","ALT1_2","prac_ALT1_2","","","","","","","","","",""
"null","<span style='color:GreenYellow; font-size: 70px;'>正确! </span>","null","html-keyboard-response","30","703885","0.0-7.0-1.0-1.0-0.0-1.10","3","4","4","3","4","3","4","4","4","3","4","5","4","5","5","4","4","5","4","5","1","1","2","2","1","2","2","1","1","1","0","1","1","0","0","0","1","0","1","1","1","0","0","1","4","1","2","1","1","2","2","1","2","1","612329083165999104","罗","378","","","","","","","","","","","","","","","","","","","","","","","","","","","","","","feedback_test","","","","","","","","","",""
"831","","j","psychophysics","31","705737","0.0-7.0-1.0-1.0-0.0-0.11","3","4","4","3","4","3","4","4","4","3","4","5","4","5","5","4","4","5","4","5","1","1","2","2","1","2","2","1","1","1","0","1","1","0","0","0","1","0","1","1","1","0","0","1","4","1","2","1","1","2","2","1","2","1","612329083165999104","罗","378","","","","nonmatch","","","","","","","","","","","","","","key","j","16.64181818181797","640","356","j","true","nonmatch","img/triangle.png","方形","三角","ALT1_2","prac_ALT1_2","","","","","","","","","",""
"null","<span style='color:GreenYellow; font-size: 70px;'>正确! </span>","null","html-keyboard-response","32","706242","0.0-7.0-1.0-1.0-0.0-1.11","3","4","4","3","4","3","4","4","4","3","4","5","4","5","5","4","4","5","4","5","1","1","2","2","1","2","2","1","1","1","0","1","1","0","0","0","1","0","1","1","1","0","0","1","4","1","2","1","1","2","2","1","2","1","612329083165999104","罗","378","","","","","","","","","","","","","","","","","","","","","","","","","","","","","","feedback_test","","","","","","","","","",""
"760","","f","psychophysics","33","708004","0.0-7.0-1.0-1.0-0.0-0.12","3","4","4","3","4","3","4","4","4","3","4","5","4","5","5","4","4","5","4","5","1","1","2","2","1","2","2","1","1","1","0","1","1","0","0","0","1","0","1","1","1","0","0","1","4","1","2","1","1","2","2","1","2","1","612329083165999104","罗","378","","","","match","","","","","","","","","","","","","","key","f","16.65269230769235","640","356","f","true","match","img/circle.png","圆形","圆形","ALT1_2","prac_ALT1_2","","","","","","","","","",""
"null","<span style='color:GreenYellow; font-size: 70px;'>正确! </span>","null","html-keyboard-response","34","708515","0.0-7.0-1.0-1.0-0.0-1.12","3","4","4","3","4","3","4","4","4","3","4","5","4","5","5","4","4","5","4","5","1","1","2","2","1","2","2","1","1","1","0","1","1","0","0","0","1","0","1","1","1","0","0","1","4","1","2","1","1","2","2","1","2","1","612329083165999104","罗","378","","","","","","","","","","","","","","","","","","","","","","","","","","","","","","feedback_test","","","","","","","","","",""
"835","","j","psychophysics","35","710452","0.0-7.0-1.0-1.0-0.0-0.13","3","4","4","3","4","3","4","4","4","3","4","5","4","5","5","4","4","5","4","5","1","1","2","2","1","2","2","1","1","1","0","1","1","0","0","0","1","0","1","1","1","0","0","1","4","1","2","1","1","2","2","1","2","1","612329083165999104","罗","378","","","","nonmatch","","","","","","","","","","","","","","key","j","16.649043478260992","640","356","j","true","nonmatch","img/square.png","五边","方形","ALT1_2","prac_ALT1_2","","","","","","","","","",""
"null","<span style='color:GreenYellow; font-size: 70px;'>正确! </span>","null","html-keyboard-response","36","710991","0.0-7.0-1.0-1.0-0.0-1.13","3","4","4","3","4","3","4","4","4","3","4","5","4","5","5","4","4","5","4","5","1","1","2","2","1","2","2","1","1","1","0","1","1","0","0","0","1","0","1","1","1","0","0","1","4","1","2","1","1","2","2","1","2","1","612329083165999104","罗","378","","","","","","","","","","","","","","","","","","","","","","","","","","","","","","feedback_test","","","","","","","","","",""
"885","","f","psychophysics","37","712887","0.0-7.0-1.0-1.0-0.0-0.14","3","4","4","3","4","3","4","4","4","3","4","5","4","5","5","4","4","5","4","5","1","1","2","2","1","2","2","1","1","1","0","1","1","0","0","0","1","0","1","1","1","0","0","1","4","1","2","1","1","2","2","1","2","1","612329083165999104","罗","378","","","","match","","","","","","","","","","","","","","key","f","16.59446428571391","640","356","f","true","match","img/square.png","方形","方形","ALT1_2","prac_ALT1_2","","","","","","","","","",""
"null","<span style='color:GreenYellow; font-size: 70px;'>正确! </span>","null","html-keyboard-response","38","713399","0.0-7.0-1.0-1.0-0.0-1.14","3","4","4","3","4","3","4","4","4","3","4","5","4","5","5","4","4","5","4","5","1","1","2","2","1","2","2","1","1","1","0","1","1","0","0","0","1","0","1","1","1","0","0","1","4","1","2","1","1","2","2","1","2","1","612329083165999104","罗","378","","","","","","","","","","","","","","","","","","","","","","","","","","","","","","feedback_test","","","","","","","","","",""
"912","","j","psychophysics","39","715329","0.0-7.0-1.0-1.0-0.0-0.15","3","4","4","3","4","3","4","4","4","3","4","5","4","5","5","4","4","5","4","5","1","1","2","2","1","2","2","1","1","1","0","1","1","0","0","0","1","0","1","1","1","0","0","1","4","1","2","1","1","2","2","1","2","1","612329083165999104","罗","378","","","","nonmatch","","","","","","","","","","","","","","key","j","16.65298245613986","640","356","j","true","nonmatch","img/triangle.png","五边","三角","ALT1_2","prac_ALT1_2","","","","","","","","","",""
"null","<span style='color:GreenYellow; font-size: 70px;'>正确! </span>","null","html-keyboard-response","40","715844","0.0-7.0-1.0-1.0-0.0-1.15","3","4","4","3","4","3","4","4","4","3","4","5","4","5","5","4","4","5","4","5","1","1","2","2","1","2","2","1","1","1","0","1","1","0","0","0","1","0","1","1","1","0","0","1","4","1","2","1","1","2","2","1","2","1","612329083165999104","罗","378","","","","","","","","","","","","","","","","","","","","","","","","","","","","","","feedback_test","","","","","","","","","",""
"833","","f","psychophysics","41","717711","0.0-7.0-1.0-1.0-0.0-0.16","3","4","4","3","4","3","4","4","4","3","4","5","4","5","5","4","4","5","4","5","1","1","2","2","1","2","2","1","1","1","0","1","1","0","0","0","1","0","1","1","1","0","0","1","4","1","2","1","1","2","2","1","2","1","612329083165999104","罗","378","","","","match","","","","","","","","","","","","","","key","f","16.652072072072112","640","356","f","true","match","img/pentagon.png","五边","五边","ALT1_2","prac_ALT1_2","","","","","","","","","",""
"null","<span style='color:GreenYellow; font-size: 70px;'>正确! </span>","null","html-keyboard-response","42","718224","0.0-7.0-1.0-1.0-0.0-1.16","3","4","4","3","4","3","4","4","4","3","4","5","4","5","5","4","4","5","4","5","1","1","2","2","1","2","2","1","1","1","0","1","1","0","0","0","1","0","1","1","1","0","0","1","4","1","2","1","1","2","2","1","2","1","612329083165999104","罗","378","","","","","","","","","","","","","","","","","","","","","","","","","","","","","","feedback_test","","","","","","","","","",""
"724","","j","psychophysics","43","719958","0.0-7.0-1.0-1.0-0.0-0.17","3","4","4","3","4","3","4","4","4","3","4","5","4","5","5","4","4","5","4","5","1","1","2","2","1","2","2","1","1","1","0","1","1","0","0","0","1","0","1","1","1","0","0","1","4","1","2","1","1","2","2","1","2","1","612329083165999104","罗","378","","","","nonmatch","","","","","","","","","","","","","","key","j","16.653009708737954","640","356","j","true","nonmatch","img/square.png","圆形","方形","ALT1_2","prac_ALT1_2","","","","","","","","","",""
"null","<span style='color:GreenYellow; font-size: 70px;'>正确! </span>","null","html-keyboard-response","44","720464","0.0-7.0-1.0-1.0-0.0-1.17","3","4","4","3","4","3","4","4","4","3","4","5","4","5","5","4","4","5","4","5","1","1","2","2","1","2","2","1","1","1","0","1","1","0","0","0","1","0","1","1","1","0","0","1","4","1","2","1","1","2","2","1","2","1","612329083165999104","罗","378","","","","","","","","","","","","","","","","","","","","","","","","","","","","","","feedback_test","","","","","","","","","",""
"919","","f","psychophysics","45","722394","0.0-7.0-1.0-1.0-0.0-0.18","3","4","4","3","4","3","4","4","4","3","4","5","4","5","5","4","4","5","4","5","1","1","2","2","1","2","2","1","1","1","0","1","1","0","0","0","1","0","1","1","1","0","0","1","4","1","2","1","1","2","2","1","2","1","612329083165999104","罗","378","","","","match","","","","","","","","","","","","","","key","f","16.652807017543207","640","356","f","true","match","img/triangle.png","三角","三角","ALT1_2","prac_ALT1_2","","","","","","","","","",""
"null","<span style='color:GreenYellow; font-size: 70px;'>正确! </span>","null","html-keyboard-response","46","722926","0.0-7.0-1.0-1.0-0.0-1.18","3","4","4","3","4","3","4","4","4","3","4","5","4","5","5","4","4","5","4","5","1","1","2","2","1","2","2","1","1","1","0","1","1","0","0","0","1","0","1","1","1","0","0","1","4","1","2","1","1","2","2","1","2","1","612329083165999104","罗","378","","","","","","","","","","","","","","","","","","","","","","","","","","","","","","feedback_test","","","","","","","","","",""
"687","","f","psychophysics","47","724640","0.0-7.0-1.0-1.0-0.0-0.19","3","4","4","3","4","3","4","4","4","3","4","5","4","5","5","4","4","5","4","5","1","1","2","2","1","2","2","1","1","1","0","1","1","0","0","0","1","0","1","1","1","0","0","1","4","1","2","1","1","2","2","1","2","1","612329083165999104","罗","378","","","","match","","","","","","","","","","","","","","key","f","16.652475247524983","640","356","f","true","match","img/circle.png","圆形","圆形","ALT1_2","prac_ALT1_2","","","","","","","","","",""
"null","<span style='color:GreenYellow; font-size: 70px;'>正确! </span>","null","html-keyboard-response","48","725151","0.0-7.0-1.0-1.0-0.0-1.19","3","4","4","3","4","3","4","4","4","3","4","5","4","5","5","4","4","5","4","5","1","1","2","2","1","2","2","1","1","1","0","1","1","0","0","0","1","0","1","1","1","0","0","1","4","1","2","1","1","2","2","1","2","1","612329083165999104","罗","378","","","","","","","","","","","","","","","","","","","","","","","","","","","","","","feedback_test","","","","","","","","","",""
"815","","j","psychophysics","49","726989","0.0-7.0-1.0-1.0-0.0-0.20","3","4","4","3","4","3","4","4","4","3","4","5","4","5","5","4","4","5","4","5","1","1","2","2","1","2","2","1","1","1","0","1","1","0","0","0","1","0","1","1","1","0","0","1","4","1","2","1","1","2","2","1","2","1","612329083165999104","罗","378","","","","nonmatch","","","","","","","","","","","","","","key","j","16.65284403669648","640","356","j","true","nonmatch","img/square.png","三角","方形","ALT1_2","prac_ALT1_2","","","","","","","","","",""
"null","<span style='color:GreenYellow; font-size: 70px;'>正确! </span>","null","html-keyboard-response","50","727493","0.0-7.0-1.0-1.0-0.0-1.20","3","4","4","3","4","3","4","4","4","3","4","5","4","5","5","4","4","5","4","5","1","1","2","2","1","2","2","1","1","1","0","1","1","0","0","0","1","0","1","1","1","0","0","1","4","1","2","1","1","2","2","1","2","1","612329083165999104","罗","378","","","","","","","","","","","","","","","","","","","","","","","","","","","","","","feedback_test","","","","","","","","","",""
"689","","f","psychophysics","51","729191","0.0-7.0-1.0-1.0-0.0-0.21","3","4","4","3","4","3","4","4","4","3","4","5","4","5","5","4","4","5","4","5","1","1","2","2","1","2","2","1","1","1","0","1","1","0","0","0","1","0","1","1","1","0","0","1","4","1","2","1","1","2","2","1","2","1","612329083165999104","罗","378","","","","match","","","","","","","","","","","","","","key","f","16.653000000000464","640","356","f","true","match","img/pentagon.png","五边","五边","ALT1_2","prac_ALT1_2","","","","","","","","","",""
"null","<span style='color:GreenYellow; font-size: 70px;'>正确! </span>","null","html-keyboard-response","52","729702","0.0-7.0-1.0-1.0-0.0-1.21","3","4","4","3","4","3","4","4","4","3","4","5","4","5","5","4","4","5","4","5","1","1","2","2","1","2","2","1","1","1","0","1","1","0","0","0","1","0","1","1","1","0","0","1","4","1","2","1","1","2","2","1","2","1","612329083165999104","罗","378","","","","","","","","","","","","","","","","","","","","","","","","","","","","","","feedback_test","","","","","","","","","",""
"668","","j","psychophysics","53","731385","0.0-7.0-1.0-1.0-0.0-0.22","3","4","4","3","4","3","4","4","4","3","4","5","4","5","5","4","4","5","4","5","1","1","2","2","1","2","2","1","1","1","0","1","1","0","0","0","1","0","1","1","1","0","0","1","4","1","2","1","1","2","2","1","2","1","612329083165999104","罗","378","","","","nonmatch","","","","","","","","","","","","","","key","j","17.34666666666696","640","356","j","true","nonmatch","img/pentagon.png","圆形","五边","ALT1_2","prac_ALT1_2","","","","","","","","","",""
"null","<span style='color:GreenYellow; font-size: 70px;'>正确! </span>","null","html-keyboard-response","54","731894","0.0-7.0-1.0-1.0-0.0-1.22","3","4","4","3","4","3","4","4","4","3","4","5","4","5","5","4","4","5","4","5","1","1","2","2","1","2","2","1","1","1","0","1","1","0","0","0","1","0","1","1","1","0","0","1","4","1","2","1","1","2","2","1","2","1","612329083165999104","罗","378","","","","","","","","","","","","","","","","","","","","","","","","","","","","","","feedback_test","","","","","","","","","",""
"637","","f","psychophysics","55","733551","0.0-7.0-1.0-1.0-0.0-0.23","3","4","4","3","4","3","4","4","4","3","4","5","4","5","5","4","4","5","4","5","1","1","2","2","1","2","2","1","1","1","0","1","1","0","0","0","1","0","1","1","1","0","0","1","4","1","2","1","1","2","2","1","2","1","612329083165999104","罗","378","","","","match","","","","","","","","","","","","","","key","f","16.646530612245943","640","356","f","true","match","img/circle.png","圆形","圆形","ALT1_2","prac_ALT1_2","","","","","","","","","",""
"null","<span style='color:GreenYellow; font-size: 70px;'>正确! </span>","null","html-keyboard-response","56","734108","0.0-7.0-1.0-1.0-0.0-1.23","3","4","4","3","4","3","4","4","4","3","4","5","4","5","5","4","4","5","4","5","1","1","2","2","1","2","2","1","1","1","0","1","1","0","0","0","1","0","1","1","1","0","0","1","4","1","2","1","1","2","2","1","2","1","612329083165999104","罗","378","","","","","","","","","","","","","","","","","","","","","","","","","","","","","","feedback_test","","","","","","","","","",""
"745","","j","psychophysics","57","735862","0.0-7.0-1.0-1.0-0.0-0.24","3","4","4","3","4","3","4","4","4","3","4","5","4","5","5","4","4","5","4","5","1","1","2","2","1","2","2","1","1","1","0","1","1","0","0","0","1","0","1","1","1","0","0","1","4","1","2","1","1","2","2","1","2","1","612329083165999104","罗","378","","","","nonmatch","","","","","","","","","","","","","","key","j","16.65288461538372","640","356","f","false","match","img/square.png","方形","方形","ALT1_2","prac_ALT1_2","","","","","","","","","",""
"null","<span style='color:red; font-size: 70px;'>错误! </span>","null","html-keyboard-response","58","736366","0.0-7.0-1.0-1.0-0.0-1.24","3","4","4","3","4","3","4","4","4","3","4","5","4","5","5","4","4","5","4","5","1","1","2","2","1","2","2","1","1","1","0","1","1","0","0","0","1","0","1","1","1","0","0","1","4","1","2","1","1","2","2","1","2","1","612329083165999104","罗","378","","","","","","","","","","","","","","","","","","","","","","","","","","","","","","feedback_test","","","","","","","","","",""
"756","","j","psychophysics","59","738135","0.0-7.0-1.0-1.0-0.0-0.25","3","4","4","3","4","3","4","4","4","3","4","5","4","5","5","4","4","5","4","5","1","1","2","2","1","2","2","1","1","1","0","1","1","0","0","0","1","0","1","1","1","0","0","1","4","1","2","1","1","2","2","1","2","1","612329083165999104","罗","378","","","","nonmatch","","","","","","","","","","","","","","key","j","16.65288461538484","640","356","j","true","nonmatch","img/square.png","三角","方形","ALT1_2","prac_ALT1_2","","","","","","","","","",""
"null","<span style='color:GreenYellow; font-size: 70px;'>正确! </span>","null","html-keyboard-response","60","738636","0.0-7.0-1.0-1.0-0.0-1.25","3","4","4","3","4","3","4","4","4","3","4","5","4","5","5","4","4","5","4","5","1","1","2","2","1","2","2","1","1","1","0","1","1","0","0","0","1","0","1","1","1","0","0","1","4","1","2","1","1","2","2","1","2","1","612329083165999104","罗","378","","","","","","","","","","","","","","","","","","","","","","","","","","","","","","feedback_test","","","","","","","","","",""
"812","","j","psychophysics","61","740460","0.0-7.0-1.0-1.0-0.0-0.26","3","4","4","3","4","3","4","4","4","3","4","5","4","5","5","4","4","5","4","5","1","1","2","2","1","2","2","1","1","1","0","1","1","0","0","0","1","0","1","1","1","0","0","1","4","1","2","1","1","2","2","1","2","1","612329083165999104","罗","378","","","","nonmatch","","","","","","","","","","","","","","key","j","16.652962962963134","640","356","f","false","match","img/triangle.png","三角","三角","ALT1_2","prac_ALT1_2","","","","","","","","","",""
"null","<span style='color:red; font-size: 70px;'>错误! </span>","null","html-keyboard-response","62","740969","0.0-7.0-1.0-1.0-0.0-1.26","3","4","4","3","4","3","4","4","4","3","4","5","4","5","5","4","4","5","4","5","1","1","2","2","1","2","2","1","1","1","0","1","1","0","0","0","1","0","1","1","1","0","0","1","4","1","2","1","1","2","2","1","2","1","612329083165999104","罗","378","","","","","","","","","","","","","","","","","","","","","","","","","","","","","","feedback_test","","","","","","","","","",""
"791","","j","psychophysics","63","742773","0.0-7.0-1.0-1.0-0.0-0.27","3","4","4","3","4","3","4","4","4","3","4","5","4","5","5","4","4","5","4","5","1","1","2","2","1","2","2","1","1","1","0","1","1","0","0","0","1","0","1","1","1","0","0","1","4","1","2","1","1","2","2","1","2","1","612329083165999104","罗","378","","","","nonmatch","","","","","","","","","","","","","","key","j","16.652897196261552","640","356","j","true","nonmatch","img/pentagon.png","圆形","五边","ALT1_2","prac_ALT1_2","","","","","","","","","",""
"null","<span style='color:GreenYellow; font-size: 70px;'>正确! </span>","null","html-keyboard-response","64","743290","0.0-7.0-1.0-1.0-0.0-1.27","3","4","4","3","4","3","4","4","4","3","4","5","4","5","5","4","4","5","4","5","1","1","2","2","1","2","2","1","1","1","0","1","1","0","0","0","1","0","1","1","1","0","0","1","4","1","2","1","1","2","2","1","2","1","612329083165999104","罗","378","","","","","","","","","","","","","","","","","","","","","","","","","","","","","","feedback_test","","","","","","","","","",""
"649","","f","psychophysics","65","744955","0.0-7.0-1.0-1.0-0.0-0.28","3","4","4","3","4","3","4","4","4","3","4","5","4","5","5","4","4","5","4","5","1","1","2","2","1","2","2","1","1","1","0","1","1","0","0","0","1","0","1","1","1","0","0","1","4","1","2","1","1","2","2","1","2","1","612329083165999104","罗","378","","","","match","","","","","","","","","","","","","","key","f","17.354105263158043","640","356","f","true","match","img/square.png","方形","方形","ALT1_2","prac_ALT1_2","","","","","","","","","",""
"null","<span style='color:GreenYellow; font-size: 70px;'>正确! </span>","null","html-keyboard-response","66","745462","0.0-7.0-1.0-1.0-0.0-1.28","3","4","4","3","4","3","4","4","4","3","4","5","4","5","5","4","4","5","4","5","1","1","2","2","1","2","2","1","1","1","0","1","1","0","0","0","1","0","1","1","1","0","0","1","4","1","2","1","1","2","2","1","2","1","612329083165999104","罗","378","","","","","","","","","","","","","","","","","","","","","","","","","","","","","","feedback_test","","","","","","","","","",""
"618","","f","psychophysics","67","747186","0.0-7.0-1.0-1.0-0.0-0.29","3","4","4","3","4","3","4","4","4","3","4","5","4","5","5","4","4","5","4","5","1","1","2","2","1","2","2","1","1","1","0","1","1","0","0","0","1","0","1","1","1","0","0","1","4","1","2","1","1","2","2","1","2","1","612329083165999104","罗","378","","","","match","","","","","","","","","","","","","","key","f","16.65294117647036","640","356","f","true","match","img/circle.png","圆形","圆形","ALT1_2","prac_ALT1_2","","","","","","","","","",""
"null","<span style='color:GreenYellow; font-size: 70px;'>正确! </span>","null","html-keyboard-response","68","747691","0.0-7.0-1.0-1.0-0.0-1.29","3","4","4","3","4","3","4","4","4","3","4","5","4","5","5","4","4","5","4","5","1","1","2","2","1","2","2","1","1","1","0","1","1","0","0","0","1","0","1","1","1","0","0","1","4","1","2","1","1","2","2","1","2","1","612329083165999104","罗","378","","","","","","","","","","","","","","","","","","","","","","","","","","","","","","feedback_test","","","","","","","","","",""
"1008","","j","psychophysics","69","749709","0.0-7.0-1.0-1.0-0.0-0.30","3","4","4","3","4","3","4","4","4","3","4","5","4","5","5","4","4","5","4","5","1","1","2","2","1","2","2","1","1","1","0","1","1","0","0","0","1","0","1","1","1","0","0","1","4","1","2","1","1","2","2","1","2","1","612329083165999104","罗","378","","","","nonmatch","","","","","","","","","","","","","","key","j","16.652941176470197","640","356","j","true","nonmatch","img/triangle.png","五边","三角","ALT1_2","prac_ALT1_2","","","","","","","","","",""
"null","<span style='color:GreenYellow; font-size: 70px;'>正确! </span>","null","html-keyboard-response","70","750230","0.0-7.0-1.0-1.0-0.0-1.30","3","4","4","3","4","3","4","4","4","3","4","5","4","5","5","4","4","5","4","5","1","1","2","2","1","2","2","1","1","1","0","1","1","0","0","0","1","0","1","1","1","0","0","1","4","1","2","1","1","2","2","1","2","1","612329083165999104","罗","378","","","","","","","","","","","","","","","","","","","","","","","","","","","","","","feedback_test","","","","","","","","","",""
"769","","j","psychophysics","71","752136","0.0-7.0-1.0-1.0-0.0-0.31","3","4","4","3","4","3","4","4","4","3","4","5","4","5","5","4","4","5","4","5","1","1","2","2","1","2","2","1","1","1","0","1","1","0","0","0","1","0","1","1","1","0","0","1","4","1","2","1","1","2","2","1","2","1","612329083165999104","罗","378","","","","nonmatch","","","","","","","","","","","","","","key","j","16.652920353982548","640","356","j","true","nonmatch","img/square.png","五边","方形","ALT1_2","prac_ALT1_2","","","","","","","","","",""
"null","<span style='color:GreenYellow; font-size: 70px;'>正确! </span>","null","html-keyboard-response","72","752683","0.0-7.0-1.0-1.0-0.0-1.31","3","4","4","3","4","3","4","4","4","3","4","5","4","5","5","4","4","5","4","5","1","1","2","2","1","2","2","1","1","1","0","1","1","0","0","0","1","0","1","1","1","0","0","1","4","1","2","1","1","2","2","1","2","1","612329083165999104","罗","378","","","","","","","","","","","","","","","","","","","","","","","","","","","","","","feedback_test","","","","","","","","","",""
"868","","f","psychophysics","73","754637","0.0-7.0-1.0-1.0-0.0-0.32","3","4","4","3","4","3","4","4","4","3","4","5","4","5","5","4","4","5","4","5","1","1","2","2","1","2","2","1","1","1","0","1","1","0","0","0","1","0","1","1","1","0","0","1","4","1","2","1","1","2","2","1","2","1","612329083165999104","罗","378","","","","match","","","","","","","","","","","","","","key","f","17.402882882882633","640","356","f","true","match","img/pentagon.png","五边","五边","ALT1_2","prac_ALT1_2","","","","","","","","","",""
"null","<span style='color:GreenYellow; font-size: 70px;'>正确! </span>","null","html-keyboard-response","74","755140","0.0-7.0-1.0-1.0-0.0-1.32","3","4","4","3","4","3","4","4","4","3","4","5","4","5","5","4","4","5","4","5","1","1","2","2","1","2","2","1","1","1","0","1","1","0","0","0","1","0","1","1","1","0","0","1","4","1","2","1","1","2","2","1","2","1","612329083165999104","罗","378","","","","","","","","","","","","","","","","","","","","","","","","","","","","","","feedback_test","","","","","","","","","",""
"978","","j","psychophysics","75","757127","0.0-7.0-1.0-1.0-0.0-0.33","3","4","4","3","4","3","4","4","4","3","4","5","4","5","5","4","4","5","4","5","1","1","2","2","1","2","2","1","1","1","0","1","1","0","0","0","1","0","1","1","1","0","0","1","4","1","2","1","1","2","2","1","2","1","612329083165999104","罗","378","","","","nonmatch","","","","","","","","","","","","","","key","j","16.652820512820554","640","356","j","true","nonmatch","img/circle.png","三角","圆形","ALT1_2","prac_ALT1_2","","","","","","","","","",""
"null","<span style='color:GreenYellow; font-size: 70px;'>正确! </span>","null","html-keyboard-response","76","757634","0.0-7.0-1.0-1.0-0.0-1.33","3","4","4","3","4","3","4","4","4","3","4","5","4","5","5","4","4","5","4","5","1","1","2","2","1","2","2","1","1","1","0","1","1","0","0","0","1","0","1","1","1","0","0","1","4","1","2","1","1","2","2","1","2","1","612329083165999104","罗","378","","","","","","","","","","","","","","","","","","","","","","","","","","","","","","feedback_test","","","","","","","","","",""
"748","","f","psychophysics","77","759391","0.0-7.0-1.0-1.0-0.0-0.34","3","4","4","3","4","3","4","4","4","3","4","5","4","5","5","4","4","5","4","5","1","1","2","2","1","2","2","1","1","1","0","1","1","0","0","0","1","0","1","1","1","0","0","1","4","1","2","1","1","2","2","1","2","1","612329083165999104","罗","378","","","","match","","","","","","","","","","","","","","key","f","17.502040816327245","640","356","f","true","match","img/pentagon.png","五边","五边","ALT1_2","prac_ALT1_2","","","","","","","","","",""
"null","<span style='color:GreenYellow; font-size: 70px;'>正确! </span>","null","html-keyboard-response","78","759934","0.0-7.0-1.0-1.0-0.0-1.34","3","4","4","3","4","3","4","4","4","3","4","5","4","5","5","4","4","5","4","5","1","1","2","2","1","2","2","1","1","1","0","1","1","0","0","0","1","0","1","1","1","0","0","1","4","1","2","1","1","2","2","1","2","1","612329083165999104","罗","378","","","","","","","","","","","","","","","","","","","","","","","","","","","","","","feedback_test","","","","","","","","","",""
"712","","j","psychophysics","79","761723","0.0-7.0-1.0-1.0-0.0-0.35","3","4","4","3","4","3","4","4","4","3","4","5","4","5","5","4","4","5","4","5","1","1","2","2","1","2","2","1","1","1","0","1","1","0","0","0","1","0","1","1","1","0","0","1","4","1","2","1","1","2","2","1","2","1","612329083165999104","罗","378","","","","nonmatch","","","","","","","","","","","","","","key","j","16.652952380952915","640","356","j","true","nonmatch","img/circle.png","方形","圆形","ALT1_2","prac_ALT1_2","","","","","","","","","",""
"null","<span style='color:GreenYellow; font-size: 70px;'>正确! </span>","null","html-keyboard-response","80","762248","0.0-7.0-1.0-1.0-0.0-1.35","3","4","4","3","4","3","4","4","4","3","4","5","4","5","5","4","4","5","4","5","1","1","2","2","1","2","2","1","1","1","0","1","1","0","0","0","1","0","1","1","1","0","0","1","4","1","2","1","1","2","2","1","2","1","612329083165999104","罗","378","","","","","","","","","","","","","","","","","","","","","","","","","","","","","","feedback_test","","","","","","","","","",""
"596","","f","psychophysics","81","763888","0.0-7.0-1.0-1.0-0.0-0.36","3","4","4","3","4","3","4","4","4","3","4","5","4","5","5","4","4","5","4","5","1","1","2","2","1","2","2","1","1","1","0","1","1","0","0","0","1","0","1","1","1","0","0","1","4","1","2","1","1","2","2","1","2","1","612329083165999104","罗","378","","","","match","","","","","","","","","","","","","","key","f","17.007234042552497","640","356","f","true","match","img/circle.png","圆形","圆形","ALT1_2","prac_ALT1_2","","","","","","","","","",""
"null","<span style='color:GreenYellow; font-size: 70px;'>正确! </span>","null","html-keyboard-response","82","764397","0.0-7.0-1.0-1.0-0.0-1.36","3","4","4","3","4","3","4","4","4","3","4","5","4","5","5","4","4","5","4","5","1","1","2","2","1","2","2","1","1","1","0","1","1","0","0","0","1","0","1","1","1","0","0","1","4","1","2","1","1","2","2","1","2","1","612329083165999104","罗","378","","","","","","","","","","","","","","","","","","","","","","","","","","","","","","feedback_test","","","","","","","","","",""
"747","","f","psychophysics","83","766158","0.0-7.0-1.0-1.0-0.0-0.37","3","4","4","3","4","3","4","4","4","3","4","5","4","5","5","4","4","5","4","5","1","1","2","2","1","2","2","1","1","1","0","1","1","0","0","0","1","0","1","1","1","0","0","1","4","1","2","1","1","2","2","1","2","1","612329083165999104","罗","378","","","","match","","","","","","","","","","","","","","key","f","16.65288461538484","640","356","f","true","match","img/square.png","方形","方形","ALT1_2","prac_ALT1_2","","","","","","","","","",""
"null","<span style='color:GreenYellow; font-size: 70px;'>正确! </span>","null","html-keyboard-response","84","766697","0.0-7.0-1.0-1.0-0.0-1.37","3","4","4","3","4","3","4","4","4","3","4","5","4","5","5","4","4","5","4","5","1","1","2","2","1","2","2","1","1","1","0","1","1","0","0","0","1","0","1","1","1","0","0","1","4","1","2","1","1","2","2","1","2","1","612329083165999104","罗","378","","","","","","","","","","","","","","","","","","","","","","","","","","","","","","feedback_test","","","","","","","","","",""
"788","","j","psychophysics","85","768500","0.0-7.0-1.0-1.0-0.0-0.38","3","4","4","3","4","3","4","4","4","3","4","5","4","5","5","4","4","5","4","5","1","1","2","2","1","2","2","1","1","1","0","1","1","0","0","0","1","0","1","1","1","0","0","1","4","1","2","1","1","2","2","1","2","1","612329083165999104","罗","378","","","","nonmatch","","","","","","","","","","","","","","key","j","16.646981132075076","640","356","j","true","nonmatch","img/pentagon.png","三角","五边","ALT1_2","prac_ALT1_2","","","","","","","","","",""
"null","<span style='color:GreenYellow; font-size: 70px;'>正确! </span>","null","html-keyboard-response","86","769011","0.0-7.0-1.0-1.0-0.0-1.38","3","4","4","3","4","3","4","4","4","3","4","5","4","5","5","4","4","5","4","5","1","1","2","2","1","2","2","1","1","1","0","1","1","0","0","0","1","0","1","1","1","0","0","1","4","1","2","1","1","2","2","1","2","1","612329083165999104","罗","378","","","","","","","","","","","","","","","","","","","","","","","","","","","","","","feedback_test","","","","","","","","","",""
"757","","j","psychophysics","87","770875","0.0-7.0-1.0-1.0-0.0-0.39","3","4","4","3","4","3","4","4","4","3","4","5","4","5","5","4","4","5","4","5","1","1","2","2","1","2","2","1","1","1","0","1","1","0","0","0","1","0","1","1","1","0","0","1","4","1","2","1","1","2","2","1","2","1","612329083165999104","罗","378","","","","nonmatch","","","","","","","","","","","","","","key","j","16.65247706422014","640","356","j","true","nonmatch","img/circle.png","五边","圆形","ALT1_2","prac_ALT1_2","","","","","","","","","",""
"null","<span style='color:GreenYellow; font-size: 70px;'>正确! </span>","null","html-keyboard-response","88","771382","0.0-7.0-1.0-1.0-0.0-1.39","3","4","4","3","4","3","4","4","4","3","4","5","4","5","5","4","4","5","4","5","1","1","2","2","1","2","2","1","1","1","0","1","1","0","0","0","1","0","1","1","1","0","0","1","4","1","2","1","1","2","2","1","2","1","612329083165999104","罗","378","","","","","","","","","","","","","","","","","","","","","","","","","","","","","","feedback_test","","","","","","","","","",""
"1003","","f","psychophysics","89","773406","0.0-7.0-1.0-1.0-0.0-0.40","3","4","4","3","4","3","4","4","4","3","4","5","4","5","5","4","4","5","4","5","1","1","2","2","1","2","2","1","1","1","0","1","1","0","0","0","1","0","1","1","1","0","0","1","4","1","2","1","1","2","2","1","2","1","612329083165999104","罗","378","","","","match","","","","","","","","","","","","","","key","f","16.78806722689099","640","356","j","false","nonmatch","img/triangle.png","方形","三角","ALT1_2","prac_ALT1_2","","","","","","","","","",""
"null","<span style='color:red; font-size: 70px;'>错误! </span>","null","html-keyboard-response","90","773917","0.0-7.0-1.0-1.0-0.0-1.40","3","4","4","3","4","3","4","4","4","3","4","5","4","5","5","4","4","5","4","5","1","1","2","2","1","2","2","1","1","1","0","1","1","0","0","0","1","0","1","1","1","0","0","1","4","1","2","1","1","2","2","1","2","1","612329083165999104","罗","378","","","","","","","","","","","","","","","","","","","","","","","","","","","","","","feedback_test","","","","","","","","","",""
"984","","j","psychophysics","91","775915","0.0-7.0-1.0-1.0-0.0-0.41","3","4","4","3","4","3","4","4","4","3","4","5","4","5","5","4","4","5","4","5","1","1","2","2","1","2","2","1","1","1","0","1","1","0","0","0","1","0","1","1","1","0","0","1","4","1","2","1","1","2","2","1","2","1","612329083165999104","罗","378","","","","nonmatch","","","","","","","","","","","","","","key","j","16.653050847457113","640","356","j","true","nonmatch","img/pentagon.png","方形","五边","ALT1_2","prac_ALT1_2","","","","","","","","","",""
"null","<span style='color:GreenYellow; font-size: 70px;'>正确! </span>","null","html-keyboard-response","92","776421","0.0-7.0-1.0-1.0-0.0-1.41","3","4","4","3","4","3","4","4","4","3","4","5","4","5","5","4","4","5","4","5","1","1","2","2","1","2","2","1","1","1","0","1","1","0","0","0","1","0","1","1","1","0","0","1","4","1","2","1","1","2","2","1","2","1","612329083165999104","罗","378","","","","","","","","","","","","","","","","","","","","","","","","","","","","","","feedback_test","","","","","","","","","",""
"694","","f","psychophysics","93","778129","0.0-7.0-1.0-1.0-0.0-0.42","3","4","4","3","4","3","4","4","4","3","4","5","4","5","5","4","4","5","4","5","1","1","2","2","1","2","2","1","1","1","0","1","1","0","0","0","1","0","1","1","1","0","0","1","4","1","2","1","1","2","2","1","2","1","612329083165999104","罗","378","","","","match","","","","","","","","","","","","","","key","f","16.65287128712816","640","356","f","true","match","img/triangle.png","三角","三角","ALT1_2","prac_ALT1_2","","","","","","","","","",""
"null","<span style='color:GreenYellow; font-size: 70px;'>正确! </span>","null","html-keyboard-response","94","778632","0.0-7.0-1.0-1.0-0.0-1.42","3","4","4","3","4","3","4","4","4","3","4","5","4","5","5","4","4","5","4","5","1","1","2","2","1","2","2","1","1","1","0","1","1","0","0","0","1","0","1","1","1","0","0","1","4","1","2","1","1","2","2","1","2","1","612329083165999104","罗","378","","","","","","","","","","","","","","","","","","","","","","","","","","","","","","feedback_test","","","","","","","","","",""
"567","","f","psychophysics","95","780210","0.0-7.0-1.0-1.0-0.0-0.43","3","4","4","3","4","3","4","4","4","3","4","5","4","5","5","4","4","5","4","5","1","1","2","2","1","2","2","1","1","1","0","1","1","0","0","0","1","0","1","1","1","0","0","1","4","1","2","1","1","2","2","1","2","1","612329083165999104","罗","378","","","","match","","","","","","","","","","","","","","key","f","16.65282608695713","640","356","f","true","match","img/triangle.png","三角","三角","ALT1_2","prac_ALT1_2","","","","","","","","","",""
"null","<span style='color:GreenYellow; font-size: 70px;'>正确! </span>","null","html-keyboard-response","96","780717","0.0-7.0-1.0-1.0-0.0-1.43","3","4","4","3","4","3","4","4","4","3","4","5","4","5","5","4","4","5","4","5","1","1","2","2","1","2","2","1","1","1","0","1","1","0","0","0","1","0","1","1","1","0","0","1","4","1","2","1","1","2","2","1","2","1","612329083165999104","罗","378","","","","","","","","","","","","","","","","","","","","","","","","","","","","","","feedback_test","","","","","","","","","",""
"670","","j","psychophysics","97","782395","0.0-7.0-1.0-1.0-0.0-0.44","3","4","4","3","4","3","4","4","4","3","4","5","4","5","5","4","4","5","4","5","1","1","2","2","1","2","2","1","1","1","0","1","1","0","0","0","1","0","1","1","1","0","0","1","4","1","2","1","1","2","2","1","2","1","612329083165999104","罗","378","","","","nonmatch","","","","","","","","","","","","","","key","j","17.532127659574666","640","356","j","true","nonmatch","img/square.png","圆形","方形","ALT1_2","prac_ALT1_2","","","","","","","","","",""
"null","<span style='color:GreenYellow; font-size: 70px;'>正确! </span>","null","html-keyboard-response","98","782919","0.0-7.0-1.0-1.0-0.0-1.44","3","4","4","3","4","3","4","4","4","3","4","5","4","5","5","4","4","5","4","5","1","1","2","2","1","2","2","1","1","1","0","1","1","0","0","0","1","0","1","1","1","0","0","1","4","1","2","1","1","2","2","1","2","1","612329083165999104","罗","378","","","","","","","","","","","","","","","","","","","","","","","","","","","","","","feedback_test","","","","","","","","","",""
"897","","j","psychophysics","99","784830","0.0-7.0-1.0-1.0-0.0-0.45","3","4","4","3","4","3","4","4","4","3","4","5","4","5","5","4","4","5","4","5","1","1","2","2","1","2","2","1","1","1","0","1","1","0","0","0","1","0","1","1","1","0","0","1","4","1","2","1","1","2","2","1","2","1","612329083165999104","罗","378","","","","nonmatch","","","","","","","","","","","","","","key","j","16.652389380530725","640","356","f","false","match","img/circle.png","圆形","圆形","ALT1_2","prac_ALT1_2","","","","","","","","","",""
"null","<span style='color:red; font-size: 70px;'>错误! </span>","null","html-keyboard-response","100","785334","0.0-7.0-1.0-1.0-0.0-1.45","3","4","4","3","4","3","4","4","4","3","4","5","4","5","5","4","4","5","4","5","1","1","2","2","1","2","2","1","1","1","0","1","1","0","0","0","1","0","1","1","1","0","0","1","4","1","2","1","1","2","2","1","2","1","612329083165999104","罗","378","","","","","","","","","","","","","","","","","","","","","","","","","","","","","","feedback_test","","","","","","","","","",""
"952","","j","psychophysics","101","787294","0.0-7.0-1.0-1.0-0.0-0.46","3","4","4","3","4","3","4","4","4","3","4","5","4","5","5","4","4","5","4","5","1","1","2","2","1","2","2","1","1","1","0","1","1","0","0","0","1","0","1","1","1","0","0","1","4","1","2","1","1","2","2","1","2","1","612329083165999104","罗","378","","","","nonmatch","","","","","","","","","","","","","","key","j","16.65103448275878","640","356","j","true","nonmatch","img/triangle.png","圆形","三角","ALT1_2","prac_ALT1_2","","","","","","","","","",""
"null","<span style='color:GreenYellow; font-size: 70px;'>正确! </span>","null","html-keyboard-response","102","787805","0.0-7.0-1.0-1.0-0.0-1.46","3","4","4","3","4","3","4","4","4","3","4","5","4","5","5","4","4","5","4","5","1","1","2","2","1","2","2","1","1","1","0","1","1","0","0","0","1","0","1","1","1","0","0","1","4","1","2","1","1","2","2","1","2","1","612329083165999104","罗","378","","","","","","","","","","","","","","","","","","","","","","","","","","","","","","feedback_test","","","","","","","","","",""
"934","","f","psychophysics","103","789752","0.0-7.0-1.0-1.0-0.0-0.47","3","4","4","3","4","3","4","4","4","3","4","5","4","5","5","4","4","5","4","5","1","1","2","2","1","2","2","1","1","1","0","1","1","0","0","0","1","0","1","1","1","0","0","1","4","1","2","1","1","2","2","1","2","1","612329083165999104","罗","378","","","","match","","","","","","","","","","","","","","key","f","16.652869565217028","640","356","f","true","match","img/pentagon.png","五边","五边","ALT1_2","prac_ALT1_2","","","","","","","","","",""
"null","<span style='color:GreenYellow; font-size: 70px;'>正确! </span>","null","html-keyboard-response","104","790257","0.0-7.0-1.0-1.0-0.0-1.47","3","4","4","3","4","3","4","4","4","3","4","5","4","5","5","4","4","5","4","5","1","1","2","2","1","2","2","1","1","1","0","1","1","0","0","0","1","0","1","1","1","0","0","1","4","1","2","1","1","2","2","1","2","1","612329083165999104","罗","378","","","","","","","","","","","","","","","","","","","","","","","","","","","","","","feedback_test","","","","","","","","","",""
"1975","<style>.context{color:white; font-size: 35px; line-height:40px}</style>                          <div><p class='context'>您正确回答了90% 的试次。</p><p class='context'>您的平均反应时为791毫秒。</p><p class='context'>恭喜您完成练习。按空格键进入正式实验。</p><p class='footer' style='font-size: 35px; line-height:40px;'>请在进入正式实验实验之前将您的<span style='color: lightgreen;'>食指</span>放在电脑键盘的相应键位上进行按键。</p>"," ","html-keyboard-response","105","792266","0.0-7.0-1.0-2.0","3","4","4","3","4","3","4","4","4","3","4","5","4","5","5","4","4","5","4","5","1","1","2","2","1","2","2","1","1","1","0","1","1","0","0","0","1","0","1","1","1","0","0","1","4","1","2","1","1","2","2","1","2","1","612329083165999104","罗","378","","","","","","","","","","","","","","","","","","","","","","","","","","","","","","","","","","","","","","","",""
"1308","
  <p style='color: white; font-size: 22px'>请您将手指放在按键上，准备进入正式的匹配任务。</p>
  <p> <div style = ""color: green""><按空格键进入下一阶段的匹配任务></div></p>
  "," ","html-keyboard-response","106","793608","0.0-7.0-1.0-3.0","3","4","4","3","4","3","4","4","4","3","4","5","4","5","5","4","4","5","4","5","1","1","2","2","1","2","2","1","1","1","0","1","1","0","0","0","1","0","1","1","1","0","0","1","4","1","2","1","1","2","2","1","2","1","612329083165999104","罗","378","","","","","","","","","","","","","","","","","","","","","","","","","","","","","","","","","","","","","","","",""
"716","","f","psychophysics","107","795337","0.0-7.0-1.0-4.0-0.0-0.0","3","4","4","3","4","3","4","4","4","3","4","5","4","5","5","4","4","5","4","5","1","1","2","2","1","2","2","1","1","1","0","1","1","0","0","0","1","0","1","1","1","0","0","1","4","1","2","1","1","2","2","1","2","1","612329083165999104","罗","378","","","","match","","","","","","","","","","","","","","key","f","16.81782178217914","640","356","f","true","match","img/circle.png","圆形","圆形","ALT1","formal_ALT1_2","","","","","","","","","",""
"null","<span style='color:GreenYellow; font-size: 70px;'>正确! </span>","null","html-keyboard-response","108","795839","0.0-7.0-1.0-4.0-0.0-1.0","3","4","4","3","4","3","4","4","4","3","4","5","4","5","5","4","4","5","4","5","1","1","2","2","1","2","2","1","1","1","0","1","1","0","0","0","1","0","1","1","1","0","0","1","4","1","2","1","1","2","2","1","2","1","612329083165999104","罗","378","","","","","","","","","","","","","","","","","","","","","","","","","","","","","","feedback_test","","","","","","","","","",""
"628","","f","psychophysics","109","797480","0.0-7.0-1.0-4.0-0.0-0.1","3","4","4","3","4","3","4","4","4","3","4","5","4","5","5","4","4","5","4","5","1","1","2","2","1","2","2","1","1","1","0","1","1","0","0","0","1","0","1","1","1","0","0","1","4","1","2","1","1","2","2","1","2","1","612329083165999104","罗","378","","","","match","","","","","","","","","","","","","","key","f","16.652989690721313","640","356","f","true","match","img/square.png","方形","方形","ALT1","formal_ALT1_2","","","","","","","","","",""
"null","<span style='color:GreenYellow; font-size: 70px;'>正确! </span>","null","html-keyboard-response","110","797995","0.0-7.0-1.0-4.0-0.0-1.1","3","4","4","3","4","3","4","4","4","3","4","5","4","5","5","4","4","5","4","5","1","1","2","2","1","2","2","1","1","1","0","1","1","0","0","0","1","0","1","1","1","0","0","1","4","1","2","1","1","2","2","1","2","1","612329083165999104","罗","378","","","","","","","","","","","","","","","","","","","","","","","","","","","","","","feedback_test","","","","","","","","","",""
"815","","j","psychophysics","111","799825","0.0-7.0-1.0-4.0-0.0-0.2","3","4","4","3","4","3","4","4","4","3","4","5","4","5","5","4","4","5","4","5","1","1","2","2","1","2","2","1","1","1","0","1","1","0","0","0","1","0","1","1","1","0","0","1","4","1","2","1","1","2","2","1","2","1","612329083165999104","罗","378","","","","nonmatch","","","","","","","","","","","","","","key","j","16.652962962963134","640","356","j","true","nonmatch","img/pentagon.png","方形","五边","ALT1","formal_ALT1_2","","","","","","","","","",""
"null","<span style='color:GreenYellow; font-size: 70px;'>正确! </span>","null","html-keyboard-response","112","800336","0.0-7.0-1.0-4.0-0.0-1.2","3","4","4","3","4","3","4","4","4","3","4","5","4","5","5","4","4","5","4","5","1","1","2","2","1","2","2","1","1","1","0","1","1","0","0","0","1","0","1","1","1","0","0","1","4","1","2","1","1","2","2","1","2","1","612329083165999104","罗","378","","","","","","","","","","","","","","","","","","","","","","","","","","","","","","feedback_test","","","","","","","","","",""
"797","","f","psychophysics","113","802146","0.0-7.0-1.0-4.0-0.0-0.3","3","4","4","3","4","3","4","4","4","3","4","5","4","5","5","4","4","5","4","5","1","1","2","2","1","2","2","1","1","1","0","1","1","0","0","0","1","0","1","1","1","0","0","1","4","1","2","1","1","2","2","1","2","1","612329083165999104","罗","378","","","","match","","","","","","","","","","","","","","key","f","16.653084112149575","640","356","f","true","match","img/pentagon.png","五边","五边","ALT1","formal_ALT1_2","","","","","","","","","",""
"null","<span style='color:GreenYellow; font-size: 70px;'>正确! </span>","null","html-keyboard-response","114","802655","0.0-7.0-1.0-4.0-0.0-1.3","3","4","4","3","4","3","4","4","4","3","4","5","4","5","5","4","4","5","4","5","1","1","2","2","1","2","2","1","1","1","0","1","1","0","0","0","1","0","1","1","1","0","0","1","4","1","2","1","1","2","2","1","2","1","612329083165999104","罗","378","","","","","","","","","","","","","","","","","","","","","","","","","","","","","","feedback_test","","","","","","","","","",""
"587","","f","psychophysics","115","804347","0.0-7.0-1.0-4.0-0.0-0.4","3","4","4","3","4","3","4","4","4","3","4","5","4","5","5","4","4","5","4","5","1","1","2","2","1","2","2","1","1","1","0","1","1","0","0","0","1","0","1","1","1","0","0","1","4","1","2","1","1","2","2","1","2","1","612329083165999104","罗","378","","","","match","","","","","","","","","","","","","","key","f","16.650400000000374","640","356","f","true","match","img/square.png","方形","方形","ALT1","formal_ALT1_2","","","","","","","","","",""
"null","<span style='color:GreenYellow; font-size: 70px;'>正确! </span>","null","html-keyboard-response","116","804859","0.0-7.0-1.0-4.0-0.0-1.4","3","4","4","3","4","3","4","4","4","3","4","5","4","5","5","4","4","5","4","5","1","1","2","2","1","2","2","1","1","1","0","1","1","0","0","0","1","0","1","1","1","0","0","1","4","1","2","1","1","2","2","1","2","1","612329083165999104","罗","378","","","","","","","","","","","","","","","","","","","","","","","","","","","","","","feedback_test","","","","","","","","","",""
"752","","f","psychophysics","117","806627","0.0-7.0-1.0-4.0-0.0-0.5","3","4","4","3","4","3","4","4","4","3","4","5","4","5","5","4","4","5","4","5","1","1","2","2","1","2","2","1","1","1","0","1","1","0","0","0","1","0","1","1","1","0","0","1","4","1","2","1","1","2","2","1","2","1","612329083165999104","罗","378","","","","match","","","","","","","","","","","","","","key","f","16.65288461538484","640","356","f","true","match","img/circle.png","圆形","圆形","ALT1","formal_ALT1_2","","","","","","","","","",""
"null","<span style='color:GreenYellow; font-size: 70px;'>正确! </span>","null","html-keyboard-response","118","807135","0.0-7.0-1.0-4.0-0.0-1.5","3","4","4","3","4","3","4","4","4","3","4","5","4","5","5","4","4","5","4","5","1","1","2","2","1","2","2","1","1","1","0","1","1","0","0","0","1","0","1","1","1","0","0","1","4","1","2","1","1","2","2","1","2","1","612329083165999104","罗","378","","","","","","","","","","","","","","","","","","","","","","","","","","","","","","feedback_test","","","","","","","","","",""
"905","","j","psychophysics","119","809058","0.0-7.0-1.0-4.0-0.0-0.6","3","4","4","3","4","3","4","4","4","3","4","5","4","5","5","4","4","5","4","5","1","1","2","2","1","2","2","1","1","1","0","1","1","0","0","0","1","0","1","1","1","0","0","1","4","1","2","1","1","2","2","1","2","1","612329083165999104","罗","378","","","","nonmatch","","","","","","","","","","","","","","key","j","16.64421052631632","640","356","j","true","nonmatch","img/square.png","圆形","方形","ALT1","formal_ALT1_2","","","","","","","","","",""
"null","<span style='color:GreenYellow; font-size: 70px;'>正确! </span>","null","html-keyboard-response","120","809565","0.0-7.0-1.0-4.0-0.0-1.6","3","4","4","3","4","3","4","4","4","3","4","5","4","5","5","4","4","5","4","5","1","1","2","2","1","2","2","1","1","1","0","1","1","0","0","0","1","0","1","1","1","0","0","1","4","1","2","1","1","2","2","1","2","1","612329083165999104","罗","378","","","","","","","","","","","","","","","","","","","","","","","","","","","","","","feedback_test","","","","","","","","","",""
"609","","f","psychophysics","121","811181","0.0-7.0-1.0-4.0-0.0-0.7","3","4","4","3","4","3","4","4","4","3","4","5","4","5","5","4","4","5","4","5","1","1","2","2","1","2","2","1","1","1","0","1","1","0","0","0","1","0","1","1","1","0","0","1","4","1","2","1","1","2","2","1","2","1","612329083165999104","罗","378","","","","match","","","","","","","","","","","","","","key","f","16.652842105263353","640","356","j","false","nonmatch","img/circle.png","五边","圆形","ALT1","formal_ALT1_2","","","","","","","","","",""
"null","<span style='color:red; font-size: 70px;'>错误! </span>","null","html-keyboard-response","122","811693","0.0-7.0-1.0-4.0-0.0-1.7","3","4","4","3","4","3","4","4","4","3","4","5","4","5","5","4","4","5","4","5","1","1","2","2","1","2","2","1","1","1","0","1","1","0","0","0","1","0","1","1","1","0","0","1","4","1","2","1","1","2","2","1","2","1","612329083165999104","罗","378","","","","","","","","","","","","","","","","","","","","","","","","","","","","","","feedback_test","","","","","","","","","",""
"784","","f","psychophysics","123","813483","0.0-7.0-1.0-4.0-0.0-0.8","3","4","4","3","4","3","4","4","4","3","4","5","4","5","5","4","4","5","4","5","1","1","2","2","1","2","2","1","1","1","0","1","1","0","0","0","1","0","1","1","1","0","0","1","4","1","2","1","1","2","2","1","2","1","612329083165999104","罗","378","","","","match","","","","","","","","","","","","","","key","f","16.652999999999302","640","356","f","true","match","img/circle.png","圆形","圆形","ALT1","formal_ALT1_2","","","","","","","","","",""
"null","<span style='color:GreenYellow; font-size: 70px;'>正确! </span>","null","html-keyboard-response","124","814023","0.0-7.0-1.0-4.0-0.0-1.8","3","4","4","3","4","3","4","4","4","3","4","5","4","5","5","4","4","5","4","5","1","1","2","2","1","2","2","1","1","1","0","1","1","0","0","0","1","0","1","1","1","0","0","1","4","1","2","1","1","2","2","1","2","1","612329083165999104","罗","378","","","","","","","","","","","","","","","","","","","","","","","","","","","","","","feedback_test","","","","","","","","","",""
"780","","f","psychophysics","125","815811","0.0-7.0-1.0-4.0-0.0-0.9","3","4","4","3","4","3","4","4","4","3","4","5","4","5","5","4","4","5","4","5","1","1","2","2","1","2","2","1","1","1","0","1","1","0","0","0","1","0","1","1","1","0","0","1","4","1","2","1","1","2","2","1","2","1","612329083165999104","罗","378","","","","match","","","","","","","","","","","","","","key","f","16.65314285714246","640","356","f","true","match","img/pentagon.png","五边","五边","ALT1","formal_ALT1_2","","","","","","","","","",""
"null","<span style='color:GreenYellow; font-size: 70px;'>正确! </span>","null","html-keyboard-response","126","816321","0.0-7.0-1.0-4.0-0.0-1.9","3","4","4","3","4","3","4","4","4","3","4","5","4","5","5","4","4","5","4","5","1","1","2","2","1","2","2","1","1","1","0","1","1","0","0","0","1","0","1","1","1","0","0","1","4","1","2","1","1","2","2","1","2","1","612329083165999104","罗","378","","","","","","","","","","","","","","","","","","","","","","","","","","","","","","feedback_test","","","","","","","","","",""
"768","","j","psychophysics","127","818098","0.0-7.0-1.0-4.0-0.0-0.10","3","4","4","3","4","3","4","4","4","3","4","5","4","5","5","4","4","5","4","5","1","1","2","2","1","2","2","1","1","1","0","1","1","0","0","0","1","0","1","1","1","0","0","1","4","1","2","1","1","2","2","1","2","1","612329083165999104","罗","378","","","","nonmatch","","","","","","","","","","","","","","key","j","16.65288461538484","640","356","j","true","nonmatch","img/pentagon.png","三角","五边","ALT1","formal_ALT1_2","","","","","","","","","",""
"null","<span style='color:GreenYellow; font-size: 70px;'>正确! </span>","null","html-keyboard-response","128","818616","0.0-7.0-1.0-4.0-0.0-1.10","3","4","4","3","4","3","4","4","4","3","4","5","4","5","5","4","4","5","4","5","1","1","2","2","1","2","2","1","1","1","0","1","1","0","0","0","1","0","1","1","1","0","0","1","4","1","2","1","1","2","2","1","2","1","612329083165999104","罗","378","","","","","","","","","","","","","","","","","","","","","","","","","","","","","","feedback_test","","","","","","","","","",""
"836","","f","psychophysics","129","820464","0.0-7.0-1.0-4.0-0.0-0.11","3","4","4","3","4","3","4","4","4","3","4","5","4","5","5","4","4","5","4","5","1","1","2","2","1","2","2","1","1","1","0","1","1","0","0","0","1","0","1","1","1","0","0","1","4","1","2","1","1","2","2","1","2","1","612329083165999104","罗","378","","","","match","","","","","","","","","","","","","","key","f","16.652660550458844","640","356","f","true","match","img/triangle.png","三角","三角","ALT1","formal_ALT1_2","","","","","","","","","",""
"null","<span style='color:GreenYellow; font-size: 70px;'>正确! </span>","null","html-keyboard-response","130","820968","0.0-7.0-1.0-4.0-0.0-1.11","3","4","4","3","4","3","4","4","4","3","4","5","4","5","5","4","4","5","4","5","1","1","2","2","1","2","2","1","1","1","0","1","1","0","0","0","1","0","1","1","1","0","0","1","4","1","2","1","1","2","2","1","2","1","612329083165999104","罗","378","","","","","","","","","","","","","","","","","","","","","","","","","","","","","","feedback_test","","","","","","","","","",""
"734","","j","psychophysics","131","822708","0.0-7.0-1.0-4.0-0.0-0.12","3","4","4","3","4","3","4","4","4","3","4","5","4","5","5","4","4","5","4","5","1","1","2","2","1","2","2","1","1","1","0","1","1","0","0","0","1","0","1","1","1","0","0","1","4","1","2","1","1","2","2","1","2","1","612329083165999104","罗","378","","","","nonmatch","","","","","","","","","","","","","","key","j","16.65281553398049","640","356","f","false","match","img/pentagon.png","五边","五边","ALT1","formal_ALT1_2","","","","","","","","","",""
"null","<span style='color:red; font-size: 70px;'>错误! </span>","null","html-keyboard-response","132","823214","0.0-7.0-1.0-4.0-0.0-1.12","3","4","4","3","4","3","4","4","4","3","4","5","4","5","5","4","4","5","4","5","1","1","2","2","1","2","2","1","1","1","0","1","1","0","0","0","1","0","1","1","1","0","0","1","4","1","2","1","1","2","2","1","2","1","612329083165999104","罗","378","","","","","","","","","","","","","","","","","","","","","","","","","","","","","","feedback_test","","","","","","","","","",""
"851","","j","psychophysics","133","825074","0.0-7.0-1.0-4.0-0.0-0.13","3","4","4","3","4","3","4","4","4","3","4","5","4","5","5","4","4","5","4","5","1","1","2","2","1","2","2","1","1","1","0","1","1","0","0","0","1","0","1","1","1","0","0","1","4","1","2","1","1","2","2","1","2","1","612329083165999104","罗","378","","","","nonmatch","","","","","","","","","","","","","","key","j","16.652909090909684","640","356","j","true","nonmatch","img/pentagon.png","圆形","五边","ALT1","formal_ALT1_2","","","","","","","","","",""
"null","<span style='color:GreenYellow; font-size: 70px;'>正确! </span>","null","html-keyboard-response","134","825586","0.0-7.0-1.0-4.0-0.0-1.13","3","4","4","3","4","3","4","4","4","3","4","5","4","5","5","4","4","5","4","5","1","1","2","2","1","2","2","1","1","1","0","1","1","0","0","0","1","0","1","1","1","0","0","1","4","1","2","1","1","2","2","1","2","1","612329083165999104","罗","378","","","","","","","","","","","","","","","","","","","","","","","","","","","","","","feedback_test","","","","","","","","","",""
"834","","f","psychophysics","135","827440","0.0-7.0-1.0-4.0-0.0-0.14","3","4","4","3","4","3","4","4","4","3","4","5","4","5","5","4","4","5","4","5","1","1","2","2","1","2","2","1","1","1","0","1","1","0","0","0","1","0","1","1","1","0","0","1","4","1","2","1","1","2","2","1","2","1","612329083165999104","罗","378","","","","match","","","","","","","","","","","","","","key","f","16.652909090909684","640","356","f","true","match","img/square.png","方形","方形","ALT1","formal_ALT1_2","","","","","","","","","",""
"null","<span style='color:GreenYellow; font-size: 70px;'>正确! </span>","null","html-keyboard-response","136","827945","0.0-7.0-1.0-4.0-0.0-1.14","3","4","4","3","4","3","4","4","4","3","4","5","4","5","5","4","4","5","4","5","1","1","2","2","1","2","2","1","1","1","0","1","1","0","0","0","1","0","1","1","1","0","0","1","4","1","2","1","1","2","2","1","2","1","612329083165999104","罗","378","","","","","","","","","","","","","","","","","","","","","","","","","","","","","","feedback_test","","","","","","","","","",""
"786","","j","psychophysics","137","829742","0.0-7.0-1.0-4.0-0.0-0.15","3","4","4","3","4","3","4","4","4","3","4","5","4","5","5","4","4","5","4","5","1","1","2","2","1","2","2","1","1","1","0","1","1","0","0","0","1","0","1","1","1","0","0","1","4","1","2","1","1","2","2","1","2","1","612329083165999104","罗","378","","","","nonmatch","","","","","","","","","","","","","","key","j","16.81161904761878","640","356","j","true","nonmatch","img/square.png","三角","方形","ALT1","formal_ALT1_2","","","","","","","","","",""
"null","<span style='color:GreenYellow; font-size: 70px;'>正确! </span>","null","html-keyboard-response","138","830254","0.0-7.0-1.0-4.0-0.0-1.15","3","4","4","3","4","3","4","4","4","3","4","5","4","5","5","4","4","5","4","5","1","1","2","2","1","2","2","1","1","1","0","1","1","0","0","0","1","0","1","1","1","0","0","1","4","1","2","1","1","2","2","1","2","1","612329083165999104","罗","378","","","","","","","","","","","","","","","","","","","","","","","","","","","","","","feedback_test","","","","","","","","","",""
"714","","j","psychophysics","139","832102","0.0-7.0-1.0-4.0-0.0-0.16","3","4","4","3","4","3","4","4","4","3","4","5","4","5","5","4","4","5","4","5","1","1","2","2","1","2","2","1","1","1","0","1","1","0","0","0","1","0","1","1","1","0","0","1","4","1","2","1","1","2","2","1","2","1","612329083165999104","罗","378","","","","nonmatch","","","","","","","","","","","","","","key","j","16.652222222221706","640","356","j","true","nonmatch","img/circle.png","三角","圆形","ALT1","formal_ALT1_2","","","","","","","","","",""
"null","<span style='color:GreenYellow; font-size: 70px;'>正确! </span>","null","html-keyboard-response","140","832613","0.0-7.0-1.0-4.0-0.0-1.16","3","4","4","3","4","3","4","4","4","3","4","5","4","5","5","4","4","5","4","5","1","1","2","2","1","2","2","1","1","1","0","1","1","0","0","0","1","0","1","1","1","0","0","1","4","1","2","1","1","2","2","1","2","1","612329083165999104","罗","378","","","","","","","","","","","","","","","","","","","","","","","","","","","","","","feedback_test","","","","","","","","","",""
"918","","j","psychophysics","141","834549","0.0-7.0-1.0-4.0-0.0-0.17","3","4","4","3","4","3","4","4","4","3","4","5","4","5","5","4","4","5","4","5","1","1","2","2","1","2","2","1","1","1","0","1","1","0","0","0","1","0","1","1","1","0","0","1","4","1","2","1","1","2","2","1","2","1","612329083165999104","罗","378","","","","nonmatch","","","","","","","","","","","","","","key","j","16.65147826086993","640","356","j","true","nonmatch","img/triangle.png","圆形","三角","ALT1","formal_ALT1_2","","","","","","","","","",""
"null","<span style='color:GreenYellow; font-size: 70px;'>正确! </span>","null","html-keyboard-response","142","835059","0.0-7.0-1.0-4.0-0.0-1.17","3","4","4","3","4","3","4","4","4","3","4","5","4","5","5","4","4","5","4","5","1","1","2","2","1","2","2","1","1","1","0","1","1","0","0","0","1","0","1","1","1","0","0","1","4","1","2","1","1","2","2","1","2","1","612329083165999104","罗","378","","","","","","","","","","","","","","","","","","","","","","","","","","","","","","feedback_test","","","","","","","","","",""
"667","","f","psychophysics","143","836747","0.0-7.0-1.0-4.0-0.0-0.18","3","4","4","3","4","3","4","4","4","3","4","5","4","5","5","4","4","5","4","5","1","1","2","2","1","2","2","1","1","1","0","1","1","0","0","0","1","0","1","1","1","0","0","1","4","1","2","1","1","2","2","1","2","1","612329083165999104","罗","378","","","","match","","","","","","","","","","","","","","key","f","16.653000000000464","640","356","f","true","match","img/triangle.png","三角","三角","ALT1","formal_ALT1_2","","","","","","","","","",""
"null","<span style='color:GreenYellow; font-size: 70px;'>正确! </span>","null","html-keyboard-response","144","837253","0.0-7.0-1.0-4.0-0.0-1.18","3","4","4","3","4","3","4","4","4","3","4","5","4","5","5","4","4","5","4","5","1","1","2","2","1","2","2","1","1","1","0","1","1","0","0","0","1","0","1","1","1","0","0","1","4","1","2","1","1","2","2","1","2","1","612329083165999104","罗","378","","","","","","","","","","","","","","","","","","","","","","","","","","","","","","feedback_test","","","","","","","","","",""
"751","","j","psychophysics","145","839016","0.0-7.0-1.0-4.0-0.0-0.19","3","4","4","3","4","3","4","4","4","3","4","5","4","5","5","4","4","5","4","5","1","1","2","2","1","2","2","1","1","1","0","1","1","0","0","0","1","0","1","1","1","0","0","1","4","1","2","1","1","2","2","1","2","1","612329083165999104","罗","378","","","","nonmatch","","","","","","","","","","","","","","key","j","16.653076923076206","640","356","j","true","nonmatch","img/circle.png","方形","圆形","ALT1","formal_ALT1_2","","","","","","","","","",""
"null","<span style='color:GreenYellow; font-size: 70px;'>正确! </span>","null","html-keyboard-response","146","839525","0.0-7.0-1.0-4.0-0.0-1.19","3","4","4","3","4","3","4","4","4","3","4","5","4","5","5","4","4","5","4","5","1","1","2","2","1","2","2","1","1","1","0","1","1","0","0","0","1","0","1","1","1","0","0","1","4","1","2","1","1","2","2","1","2","1","612329083165999104","罗","378","","","","","","","","","","","","","","","","","","","","","","","","","","","","","","feedback_test","","","","","","","","","",""
"849","","f","psychophysics","147","841392","0.0-7.0-1.0-4.0-0.0-0.20","3","4","4","3","4","3","4","4","4","3","4","5","4","5","5","4","4","5","4","5","1","1","2","2","1","2","2","1","1","1","0","1","1","0","0","0","1","0","1","1","1","0","0","1","4","1","2","1","1","2","2","1","2","1","612329083165999104","罗","378","","","","match","","","","","","","","","","","","","","key","f","16.651351351350723","640","356","j","false","nonmatch","img/square.png","五边","方形","ALT1","formal_ALT1_2","","","","","","","","","",""
"null","<span style='color:red; font-size: 70px;'>错误! </span>","null","html-keyboard-response","148","841902","0.0-7.0-1.0-4.0-0.0-1.20","3","4","4","3","4","3","4","4","4","3","4","5","4","5","5","4","4","5","4","5","1","1","2","2","1","2","2","1","1","1","0","1","1","0","0","0","1","0","1","1","1","0","0","1","4","1","2","1","1","2","2","1","2","1","612329083165999104","罗","378","","","","","","","","","","","","","","","","","","","","","","","","","","","","","","feedback_test","","","","","","","","","",""
"770","","j","psychophysics","149","843794","0.0-7.0-1.0-4.0-0.0-0.21","3","4","4","3","4","3","4","4","4","3","4","5","4","5","5","4","4","5","4","5","1","1","2","2","1","2","2","1","1","1","0","1","1","0","0","0","1","0","1","1","1","0","0","1","4","1","2","1","1","2","2","1","2","1","612329083165999104","罗","378","","","","nonmatch","","","","","","","","","","","","","","key","j","16.651607142856978","640","356","j","true","nonmatch","img/triangle.png","方形","三角","ALT1","formal_ALT1_2","","","","","","","","","",""
"null","<span style='color:GreenYellow; font-size: 70px;'>正确! </span>","null","html-keyboard-response","150","844305","0.0-7.0-1.0-4.0-0.0-1.21","3","4","4","3","4","3","4","4","4","3","4","5","4","5","5","4","4","5","4","5","1","1","2","2","1","2","2","1","1","1","0","1","1","0","0","0","1","0","1","1","1","0","0","1","4","1","2","1","1","2","2","1","2","1","612329083165999104","罗","378","","","","","","","","","","","","","","","","","","","","","","","","","","","","","","feedback_test","","","","","","","","","",""
"798","","j","psychophysics","151","846107","0.0-7.0-1.0-4.0-0.0-0.22","3","4","4","3","4","3","4","4","4","3","4","5","4","5","5","4","4","5","4","5","1","1","2","2","1","2","2","1","1","1","0","1","1","0","0","0","1","0","1","1","1","0","0","1","4","1","2","1","1","2","2","1","2","1","612329083165999104","罗","378","","","","nonmatch","","","","","","","","","","","","","","key","j","16.650280373832473","640","356","j","true","nonmatch","img/triangle.png","五边","三角","ALT1","formal_ALT1_2","","","","","","","","","",""
"null","<span style='color:GreenYellow; font-size: 70px;'>正确! </span>","null","html-keyboard-response","152","846611","0.0-7.0-1.0-4.0-0.0-1.22","3","4","4","3","4","3","4","4","4","3","4","5","4","5","5","4","4","5","4","5","1","1","2","2","1","2","2","1","1","1","0","1","1","0","0","0","1","0","1","1","1","0","0","1","4","1","2","1","1","2","2","1","2","1","612329083165999104","罗","378","","","","","","","","","","","","","","","","","","","","","","","","","","","","","","feedback_test","","","","","","","","","",""
"598","","f","psychophysics","153","848306","0.0-7.0-1.0-4.0-0.0-0.23","3","4","4","3","4","3","4","4","4","3","4","5","4","5","5","4","4","5","4","5","1","1","2","2","1","2","2","1","1","1","0","1","1","0","0","0","1","0","1","1","1","0","0","1","4","1","2","1","1","2","2","1","2","1","612329083165999104","罗","378","","","","match","","","","","","","","","","","","","","key","f","16.652999999999302","640","356","f","true","match","img/triangle.png","三角","三角","ALT1","formal_ALT1_2","","","","","","","","","",""
"null","<span style='color:GreenYellow; font-size: 70px;'>正确! </span>","null","html-keyboard-response","154","848816","0.0-7.0-1.0-4.0-0.0-1.23","3","4","4","3","4","3","4","4","4","3","4","5","4","5","5","4","4","5","4","5","1","1","2","2","1","2","2","1","1","1","0","1","1","0","0","0","1","0","1","1","1","0","0","1","4","1","2","1","1","2","2","1","2","1","612329083165999104","罗","378","","","","","","","","","","","","","","","","","","","","","","","","","","","","","","feedback_test","","","","","","","","","",""
"725","","j","psychophysics","155","850550","0.0-7.0-1.0-4.0-0.0-0.24","3","4","4","3","4","3","4","4","4","3","4","5","4","5","5","4","4","5","4","5","1","1","2","2","1","2","2","1","1","1","0","1","1","0","0","0","1","0","1","1","1","0","0","1","4","1","2","1","1","2","2","1","2","1","612329083165999104","罗","378","","","","nonmatch","","","","","","","","","","","","","","key","j","16.653009708737954","640","356","j","true","nonmatch","img/circle.png","五边","圆形","ALT1","formal_ALT1_2","","","","","","","","","",""
"null","<span style='color:GreenYellow; font-size: 70px;'>正确! </span>","null","html-keyboard-response","156","851055","0.0-7.0-1.0-4.0-0.0-1.24","3","4","4","3","4","3","4","4","4","3","4","5","4","5","5","4","4","5","4","5","1","1","2","2","1","2","2","1","1","1","0","1","1","0","0","0","1","0","1","1","1","0","0","1","4","1","2","1","1","2","2","1","2","1","612329083165999104","罗","378","","","","","","","","","","","","","","","","","","","","","","","","","","","","","","feedback_test","","","","","","","","","",""
"751","","j","psychophysics","157","852869","0.0-7.0-1.0-4.0-0.0-0.25","3","4","4","3","4","3","4","4","4","3","4","5","4","5","5","4","4","5","4","5","1","1","2","2","1","2","2","1","1","1","0","1","1","0","0","0","1","0","1","1","1","0","0","1","4","1","2","1","1","2","2","1","2","1","612329083165999104","罗","378","","","","nonmatch","","","","","","","","","","","","","","key","j","16.652897196261552","640","356","j","true","nonmatch","img/triangle.png","圆形","三角","ALT1","formal_ALT1_2","","","","","","","","","",""
"null","<span style='color:GreenYellow; font-size: 70px;'>正确! </span>","null","html-keyboard-response","158","853382","0.0-7.0-1.0-4.0-0.0-1.25","3","4","4","3","4","3","4","4","4","3","4","5","4","5","5","4","4","5","4","5","1","1","2","2","1","2","2","1","1","1","0","1","1","0","0","0","1","0","1","1","1","0","0","1","4","1","2","1","1","2","2","1","2","1","612329083165999104","罗","378","","","","","","","","","","","","","","","","","","","","","","","","","","","","","","feedback_test","","","","","","","","","",""
"801","","f","psychophysics","159","855199","0.0-7.0-1.0-4.0-0.0-0.26","3","4","4","3","4","3","4","4","4","3","4","5","4","5","5","4","4","5","4","5","1","1","2","2","1","2","2","1","1","1","0","1","1","0","0","0","1","0","1","1","1","0","0","1","4","1","2","1","1","2","2","1","2","1","612329083165999104","罗","378","","","","match","","","","","","","","","","","","","","key","f","16.652962962963134","640","356","f","true","match","img/pentagon.png","五边","五边","ALT1","formal_ALT1_2","","","","","","","","","",""
"null","<span style='color:GreenYellow; font-size: 70px;'>正确! </span>","null","html-keyboard-response","160","855705","0.0-7.0-1.0-4.0-0.0-1.26","3","4","4","3","4","3","4","4","4","3","4","5","4","5","5","4","4","5","4","5","1","1","2","2","1","2","2","1","1","1","0","1","1","0","0","0","1","0","1","1","1","0","0","1","4","1","2","1","1","2","2","1","2","1","612329083165999104","罗","378","","","","","","","","","","","","","","","","","","","","","","","","","","","","","","feedback_test","","","","","","","","","",""
"737","","f","psychophysics","161","857452","0.0-7.0-1.0-4.0-0.0-0.27","3","4","4","3","4","3","4","4","4","3","4","5","4","5","5","4","4","5","4","5","1","1","2","2","1","2","2","1","1","1","0","1","1","0","0","0","1","0","1","1","1","0","0","1","4","1","2","1","1","2","2","1","2","1","612329083165999104","罗","378","","","","match","","","","","","","","","","","","","","key","f","16.815882352942044","640","356","f","true","match","img/pentagon.png","五边","五边","ALT1","formal_ALT1_2","","","","","","","","","",""
"null","<span style='color:GreenYellow; font-size: 70px;'>正确! </span>","null","html-keyboard-response","162","857961","0.0-7.0-1.0-4.0-0.0-1.27","3","4","4","3","4","3","4","4","4","3","4","5","4","5","5","4","4","5","4","5","1","1","2","2","1","2","2","1","1","1","0","1","1","0","0","0","1","0","1","1","1","0","0","1","4","1","2","1","1","2","2","1","2","1","612329083165999104","罗","378","","","","","","","","","","","","","","","","","","","","","","","","","","","","","","feedback_test","","","","","","","","","",""
"772","","j","psychophysics","163","859738","0.0-7.0-1.0-4.0-0.0-0.28","3","4","4","3","4","3","4","4","4","3","4","5","4","5","5","4","4","5","4","5","1","1","2","2","1","2","2","1","1","1","0","1","1","0","0","0","1","0","1","1","1","0","0","1","4","1","2","1","1","2","2","1","2","1","612329083165999104","罗","378","","","","nonmatch","","","","","","","","","","","","","","key","j","16.652952380952915","640","356","j","true","nonmatch","img/pentagon.png","圆形","五边","ALT1","formal_ALT1_2","","","","","","","","","",""
"null","<span style='color:GreenYellow; font-size: 70px;'>正确! </span>","null","html-keyboard-response","164","860244","0.0-7.0-1.0-4.0-0.0-1.28","3","4","4","3","4","3","4","4","4","3","4","5","4","5","5","4","4","5","4","5","1","1","2","2","1","2","2","1","1","1","0","1","1","0","0","0","1","0","1","1","1","0","0","1","4","1","2","1","1","2","2","1","2","1","612329083165999104","罗","378","","","","","","","","","","","","","","","","","","","","","","","","","","","","","","feedback_test","","","","","","","","","",""
"803","","f","psychophysics","165","862061","0.0-7.0-1.0-4.0-0.0-0.29","3","4","4","3","4","3","4","4","4","3","4","5","4","5","5","4","4","5","4","5","1","1","2","2","1","2","2","1","1","1","0","1","1","0","0","0","1","0","1","1","1","0","0","1","4","1","2","1","1","2","2","1","2","1","612329083165999104","罗","378","","","","match","","","","","","","","","","","","","","key","f","16.65277777777778","640","356","f","true","match","img/triangle.png","三角","三角","ALT1","formal_ALT1_2","","","","","","","","","",""
"null","<span style='color:GreenYellow; font-size: 70px;'>正确! </span>","null","html-keyboard-response","166","862601","0.0-7.0-1.0-4.0-0.0-1.29","3","4","4","3","4","3","4","4","4","3","4","5","4","5","5","4","4","5","4","5","1","1","2","2","1","2","2","1","1","1","0","1","1","0","0","0","1","0","1","1","1","0","0","1","4","1","2","1","1","2","2","1","2","1","612329083165999104","罗","378","","","","","","","","","","","","","","","","","","","","","","","","","","","","","","feedback_test","","","","","","","","","",""
"984","","j","psychophysics","167","864593","0.0-7.0-1.0-4.0-0.0-0.30","3","4","4","3","4","3","4","4","4","3","4","5","4","5","5","4","4","5","4","5","1","1","2","2","1","2","2","1","1","1","0","1","1","0","0","0","1","0","1","1","1","0","0","1","4","1","2","1","1","2","2","1","2","1","612329083165999104","罗","378","","","","nonmatch","","","","","","","","","","","","","","key","j","16.652881355932518","640","356","j","true","nonmatch","img/square.png","五边","方形","ALT1","formal_ALT1_2","","","","","","","","","",""
"null","<span style='color:GreenYellow; font-size: 70px;'>正确! </span>","null","html-keyboard-response","168","865096","0.0-7.0-1.0-4.0-0.0-1.30","3","4","4","3","4","3","4","4","4","3","4","5","4","5","5","4","4","5","4","5","1","1","2","2","1","2","2","1","1","1","0","1","1","0","0","0","1","0","1","1","1","0","0","1","4","1","2","1","1","2","2","1","2","1","612329083165999104","罗","378","","","","","","","","","","","","","","","","","","","","","","","","","","","","","","feedback_test","","","","","","","","","",""
"801","","j","psychophysics","169","866907","0.0-7.0-1.0-4.0-0.0-0.31","3","4","4","3","4","3","4","4","4","3","4","5","4","5","5","4","4","5","4","5","1","1","2","2","1","2","2","1","1","1","0","1","1","0","0","0","1","0","1","1","1","0","0","1","4","1","2","1","1","2","2","1","2","1","612329083165999104","罗","378","","","","nonmatch","","","","","","","","","","","","","","key","j","16.652897196261552","640","356","j","true","nonmatch","img/triangle.png","方形","三角","ALT1","formal_ALT1_2","","","","","","","","","",""
"null","<span style='color:GreenYellow; font-size: 70px;'>正确! </span>","null","html-keyboard-response","170","867415","0.0-7.0-1.0-4.0-0.0-1.31","3","4","4","3","4","3","4","4","4","3","4","5","4","5","5","4","4","5","4","5","1","1","2","2","1","2","2","1","1","1","0","1","1","0","0","0","1","0","1","1","1","0","0","1","4","1","2","1","1","2","2","1","2","1","612329083165999104","罗","378","","","","","","","","","","","","","","","","","","","","","","","","","","","","","","feedback_test","","","","","","","","","",""
"766","","f","psychophysics","171","869205","0.0-7.0-1.0-4.0-0.0-0.32","3","4","4","3","4","3","4","4","4","3","4","5","4","5","5","4","4","5","4","5","1","1","2","2","1","2","2","1","1","1","0","1","1","0","0","0","1","0","1","1","1","0","0","1","4","1","2","1","1","2","2","1","2","1","612329083165999104","罗","378","","","","match","","","","","","","","","","","","","","key","f","16.652641509434446","640","356","f","true","match","img/square.png","方形","方形","ALT1","formal_ALT1_2","","","","","","","","","",""
"null","<span style='color:GreenYellow; font-size: 70px;'>正确! </span>","null","html-keyboard-response","172","869743","0.0-7.0-1.0-4.0-0.0-1.32","3","4","4","3","4","3","4","4","4","3","4","5","4","5","5","4","4","5","4","5","1","1","2","2","1","2","2","1","1","1","0","1","1","0","0","0","1","0","1","1","1","0","0","1","4","1","2","1","1","2","2","1","2","1","612329083165999104","罗","378","","","","","","","","","","","","","","","","","","","","","","","","","","","","","","feedback_test","","","","","","","","","",""
"677","","j","psychophysics","173","871434","0.0-7.0-1.0-4.0-0.0-0.33","3","4","4","3","4","3","4","4","4","3","4","5","4","5","5","4","4","5","4","5","1","1","2","2","1","2","2","1","1","1","0","1","1","0","0","0","1","0","1","1","1","0","0","1","4","1","2","1","1","2","2","1","2","1","612329083165999104","罗","378","","","","nonmatch","","","","","","","","","","","","","","key","j","16.652929292929436","640","356","j","true","nonmatch","img/triangle.png","五边","三角","ALT1","formal_ALT1_2","","","","","","","","","",""
"null","<span style='color:GreenYellow; font-size: 70px;'>正确! </span>","null","html-keyboard-response","174","871939","0.0-7.0-1.0-4.0-0.0-1.33","3","4","4","3","4","3","4","4","4","3","4","5","4","5","5","4","4","5","4","5","1","1","2","2","1","2","2","1","1","1","0","1","1","0","0","0","1","0","1","1","1","0","0","1","4","1","2","1","1","2","2","1","2","1","612329083165999104","罗","378","","","","","","","","","","","","","","","","","","","","","","","","","","","","","","feedback_test","","","","","","","","","",""
"886","","j","psychophysics","175","873836","0.0-7.0-1.0-4.0-0.0-0.34","3","4","4","3","4","3","4","4","4","3","4","5","4","5","5","4","4","5","4","5","1","1","2","2","1","2","2","1","1","1","0","1","1","0","0","0","1","0","1","1","1","0","0","1","4","1","2","1","1","2","2","1","2","1","612329083165999104","罗","378","","","","nonmatch","","","","","","","","","","","","","","key","j","16.65303571428584","640","356","j","true","nonmatch","img/pentagon.png","方形","五边","ALT1","formal_ALT1_2","","","","","","","","","",""
"null","<span style='color:GreenYellow; font-size: 70px;'>正确! </span>","null","html-keyboard-response","176","874351","0.0-7.0-1.0-4.0-0.0-1.34","3","4","4","3","4","3","4","4","4","3","4","5","4","5","5","4","4","5","4","5","1","1","2","2","1","2","2","1","1","1","0","1","1","0","0","0","1","0","1","1","1","0","0","1","4","1","2","1","1","2","2","1","2","1","612329083165999104","罗","378","","","","","","","","","","","","","","","","","","","","","","","","","","","","","","feedback_test","","","","","","","","","",""
"715","","f","psychophysics","177","876082","0.0-7.0-1.0-4.0-0.0-0.35","3","4","4","3","4","3","4","4","4","3","4","5","4","5","5","4","4","5","4","5","1","1","2","2","1","2","2","1","1","1","0","1","1","0","0","0","1","0","1","1","1","0","0","1","4","1","2","1","1","2","2","1","2","1","612329083165999104","罗","378","","","","match","","","","","","","","","","","","","","key","f","16.65294117647036","640","356","f","true","match","img/square.png","方形","方形","ALT1","formal_ALT1_2","","","","","","","","","",""
"null","<span style='color:GreenYellow; font-size: 70px;'>正确! </span>","null","html-keyboard-response","178","876597","0.0-7.0-1.0-4.0-0.0-1.35","3","4","4","3","4","3","4","4","4","3","4","5","4","5","5","4","4","5","4","5","1","1","2","2","1","2","2","1","1","1","0","1","1","0","0","0","1","0","1","1","1","0","0","1","4","1","2","1","1","2","2","1","2","1","612329083165999104","罗","378","","","","","","","","","","","","","","","","","","","","","","","","","","","","","","feedback_test","","","","","","","","","",""
"768","","j","psychophysics","179","878383","0.0-7.0-1.0-4.0-0.0-0.36","3","4","4","3","4","3","4","4","4","3","4","5","4","5","5","4","4","5","4","5","1","1","2","2","1","2","2","1","1","1","0","1","1","0","0","0","1","0","1","1","1","0","0","1","4","1","2","1","1","2","2","1","2","1","612329083165999104","罗","378","","","","nonmatch","","","","","","","","","","","","","","key","j","16.652952380952915","640","356","j","true","nonmatch","img/circle.png","三角","圆形","ALT1","formal_ALT1_2","","","","","","","","","",""
"null","<span style='color:GreenYellow; font-size: 70px;'>正确! </span>","null","html-keyboard-response","180","878888","0.0-7.0-1.0-4.0-0.0-1.36","3","4","4","3","4","3","4","4","4","3","4","5","4","5","5","4","4","5","4","5","1","1","2","2","1","2","2","1","1","1","0","1","1","0","0","0","1","0","1","1","1","0","0","1","4","1","2","1","1","2","2","1","2","1","612329083165999104","罗","378","","","","","","","","","","","","","","","","","","","","","","","","","","","","","","feedback_test","","","","","","","","","",""
"704","","j","psychophysics","181","880616","0.0-7.0-1.0-4.0-0.0-0.37","3","4","4","3","4","3","4","4","4","3","4","5","4","5","5","4","4","5","4","5","1","1","2","2","1","2","2","1","1","1","0","1","1","0","0","0","1","0","1","1","1","0","0","1","4","1","2","1","1","2","2","1","2","1","612329083165999104","罗","378","","","","nonmatch","","","","","","","","","","","","","","key","j","16.65294117647036","640","356","j","true","nonmatch","img/pentagon.png","三角","五边","ALT1","formal_ALT1_2","","","","","","","","","",""
"null","<span style='color:GreenYellow; font-size: 70px;'>正确! </span>","null","html-keyboard-response","182","881119","0.0-7.0-1.0-4.0-0.0-1.37","3","4","4","3","4","3","4","4","4","3","4","5","4","5","5","4","4","5","4","5","1","1","2","2","1","2","2","1","1","1","0","1","1","0","0","0","1","0","1","1","1","0","0","1","4","1","2","1","1","2","2","1","2","1","612329083165999104","罗","378","","","","","","","","","","","","","","","","","","","","","","","","","","","","","","feedback_test","","","","","","","","","",""
"767","","f","psychophysics","183","882899","0.0-7.0-1.0-4.0-0.0-0.38","3","4","4","3","4","3","4","4","4","3","4","5","4","5","5","4","4","5","4","5","1","1","2","2","1","2","2","1","1","1","0","1","1","0","0","0","1","0","1","1","1","0","0","1","4","1","2","1","1","2","2","1","2","1","612329083165999104","罗","378","","","","match","","","","","","","","","","","","","","key","f","16.652952380952915","640","356","f","true","match","img/circle.png","圆形","圆形","ALT1","formal_ALT1_2","","","","","","","","","",""
"null","<span style='color:GreenYellow; font-size: 70px;'>正确! </span>","null","html-keyboard-response","184","883412","0.0-7.0-1.0-4.0-0.0-1.38","3","4","4","3","4","3","4","4","4","3","4","5","4","5","5","4","4","5","4","5","1","1","2","2","1","2","2","1","1","1","0","1","1","0","0","0","1","0","1","1","1","0","0","1","4","1","2","1","1","2","2","1","2","1","612329083165999104","罗","378","","","","","","","","","","","","","","","","","","","","","","","","","","","","","","feedback_test","","","","","","","","","",""
"835","","j","psychophysics","185","885324","0.0-7.0-1.0-4.0-0.0-0.39","3","4","4","3","4","3","4","4","4","3","4","5","4","5","5","4","4","5","4","5","1","1","2","2","1","2","2","1","1","1","0","1","1","0","0","0","1","0","1","1","1","0","0","1","4","1","2","1","1","2","2","1","2","1","612329083165999104","罗","378","","","","nonmatch","","","","","","","","","","","","","","key","j","16.652920353982548","640","356","f","false","match","img/pentagon.png","五边","五边","ALT1","formal_ALT1_2","","","","","","","","","",""
"null","<span style='color:red; font-size: 70px;'>错误! </span>","null","html-keyboard-response","186","885840","0.0-7.0-1.0-4.0-0.0-1.39","3","4","4","3","4","3","4","4","4","3","4","5","4","5","5","4","4","5","4","5","1","1","2","2","1","2","2","1","1","1","0","1","1","0","0","0","1","0","1","1","1","0","0","1","4","1","2","1","1","2","2","1","2","1","612329083165999104","罗","378","","","","","","","","","","","","","","","","","","","","","","","","","","","","","","feedback_test","","","","","","","","","",""
