"rt","stimulus","response","trial_type","trial_index","time_elapsed","internal_node_id","ses_1","ses_2","ses_3","ses_4","ses_5","ses_6","ses_7","ses_8","ses_9","ses_10","coreself_1","coreself_2","coreself_3","coreself_4","coreself_5","coreself_6","coreself_7","coreself_8","coreself_9","coreself_10","SGPS_1","SGPS_2","SGPS_3","SGPS_4","SGPS_5","SGPS_6","SGPS_7","SGPS_8","SGPS_9","NPI1","NPI2","NPI3","NPI4","NPI5","NPI6","NPI7","NPI8","NPI9","NPI10","NPI11","NPI12","NPI13","NPI14","NPI15","hsns_1","hsns_2","hsns_3","hsns_4","hsns_5","hsns_6","hsns_7","hsns_8","hsns_9","hsns_10","subj_idx","friend_name","ParticipantID","value","success","user_agent","responses","item_order","radio_event_ids","radio_event_times","key_event_times","mouse_event_times","straightlining","zigzagging","honeypot","timeout","failed_images","failed_audio","failed_video","view_history","response_type","key_press","avg_frame_time","center_x","center_y","correct_response","correct","identity","Image","word","condition","task_id","screen_id","time_stamp","version_attrib","version_target","IAT","RT","varname","summary","version_attrib2","version_target2","question_order"
"2804","
   <p><div style = ""color: white;font-size:25px;"">您好，欢迎参加本次实验。</div> </p>
   <p><div style = ""color: white;font-size:25px;"">为充分保障您的权利，请确保您已经知晓并同意《参与实验同意书》以及《数据公开知情同意书》。</div></p>
   <p><div style = ""color: white;font-size:25px;"">如果您未见过上述内容，请咨询实验员。</div></p>
   <p><div style = ""color: white;font-size:25px;"">如果您选择继续实验，则表示您已经清楚两份知情同意书的内容并同意。</div></p>
   <p> <div style = ""color: green;font-size:25px;""><按空格键至下页></div> </p>
   "," ","html-keyboard-response","0","2809","0.0-0.0","3","4","4","3","4","3","3","4","3","4","4","4","5","4","5","5","5","4","4","5","1","1","2","2","2","1","2","4","2","1","0","0","1","0","0","0","0","0","1","1","0","0","0","0","5","1","2","1","2","2","1","2","4","1","633791437602816000","王","394","","","","","","","","","","","","","","","","","","","","","","","","","","","","","","","","","","","","","","","",""
"","","","call-function","1","2811","0.0-1.0-0.0","3","4","4","3","4","3","3","4","3","4","4","4","5","4","5","5","5","4","4","5","1","1","2","2","2","1","2","4","2","1","0","0","1","0","0","0","0","0","1","1","0","0","0","0","5","1","2","1","2","2","1","2","4","1","633791437602816000","王","394","","","","","","","","","","","","","","","","","","","","","","","","","","","","","","","","","","","","","","","",""
"113630","","{""friend_name"":""王"",""ParticipantID"":""394""}","survey-html-form","2","116442","0.0-1.0-1.0","3","4","4","3","4","3","3","4","3","4","4","4","5","4","5","5","5","4","4","5","1","1","2","2","2","1","2","4","2","1","0","0","1","0","0","0","0","0","1","1","0","0","0","0","5","1","2","1","2","2","1","2","4","1","633791437602816000","王","394","","","","","","","","","","","","","","","","","","","","","","","","","","","","","","","","","","","","","","","",""
"","","","fullscreen","3","216811","0.0-2.0","3","4","4","3","4","3","3","4","3","4","4","4","5","4","5","5","5","4","4","5","1","1","2","2","2","1","2","4","2","1","0","0","1","0","0","0","0","0","1","1","0","0","0","0","5","1","2","1","2","2","1","2","4","1","633791437602816000","王","394","","true","{""brands"":[{""brand"":""Edge"",""version"":""107""},{""brand"":""Chromium"",""version"":""107""},{""brand"":""Not=A?Brand"",""version"":""24""}],""mobile"":false,""platform"":""macOS""}","","","","","","","","","","","","","","","","","","","","","","","","","","","","","","","","","","","","",""
"226869.29999998212","","{""Q01"":""3"",""Q02"":""4"",""Q03"":""4"",""Q04"":""3"",""Q05"":""4"",""Q06"":""3"",""Q07"":""3"",""Q08"":""4"",""Q09"":""3"",""Q10"":""4""}","survey-template","4","443689","0.0-3.0","3","4","4","3","4","3","3","4","3","4","4","4","5","4","5","5","5","4","4","5","1","1","2","2","2","1","2","4","2","1","0","0","1","0","0","0","0","0","1","1","0","0","0","0","5","1","2","1","2","2","1","2","4","1","633791437602816000","王","394","","","","{""Q01"":""3"",""Q02"":""4"",""Q03"":""4"",""Q04"":""3"",""Q05"":""4"",""Q06"":""3"",""Q07"":""3"",""Q08"":""4"",""Q09"":""3"",""Q10"":""4""}","[0,1,2,3,4,5,6,7,8,9]","[""Q01"",""Q02"",""Q03"",""Q04"",""Q05"",""Q06"",""Q07"",""Q08"",""Q09"",""Q10"",""Q09"",""Q10""]","[2641.7999999821186,7398.0999999940395,9534,181292.5,182707.89999997616,184194.09999999404,187054,189157.5,191281.59999999404,192117.79999998212,224643.19999998808,225733.39999997616]","[]","[2641.7999999821186,7398.0999999940395,9534,175923.79999998212,181292.5,182707.89999997616,184194.09999999404,187054,189157.5,191281.59999999404,192117.79999998212,224643.19999998808,225385.59999999404,225733.39999997616,226867.69999998808]","0.4","0.4444444444444444","0","","","","","","","","","","","","","","","","","","","","","","","","","","","",""
"118585.5","","{""Q01"":""4"",""Q02"":""4"",""Q03"":""5"",""Q04"":""4"",""Q05"":""5"",""Q06"":""5"",""Q07"":""5"",""Q08"":""4"",""Q09"":""4"",""Q10"":""5""}","survey-template","5","562283","0.0-4.0","3","4","4","3","4","3","3","4","3","4","4","4","5","4","5","5","5","4","4","5","1","1","2","2","2","1","2","4","2","1","0","0","1","0","0","0","0","0","1","1","0","0","0","0","5","1","2","1","2","2","1","2","4","1","633791437602816000","王","394","","","","{""Q01"":""4"",""Q02"":""4"",""Q03"":""5"",""Q04"":""4"",""Q05"":""5"",""Q06"":""5"",""Q07"":""5"",""Q08"":""4"",""Q09"":""4"",""Q10"":""5""}","[0,1,2,3,4,5,6,7,8,9]","[""Q01"",""Q02"",""Q03"",""Q04"",""Q04"",""Q04"",""Q04"",""Q05"",""Q06"",""Q07"",""Q08"",""Q09"",""Q10"",""Q06""]","[26571,27877,29992.20000001788,31520.5,33595.09999999404,34524.70000001788,35156.70000001788,42236.59999999404,44075,46194.90000000596,47958.90000000596,49584.59999999404,51699.30000001192,113629.80000001192]","[]","[26571,27877,29001.30000001192,29992.20000001788,31520.5,33182.70000001788,33595.09999999404,34047,34524.70000001788,35156.70000001788,36994.59999999404,42236.59999999404,43530.5,44075,46194.90000000596,47958.90000000596,49584.59999999404,51699.30000001192,113130.20000001788,113629.80000001192,118584]","0.4","0.4444444444444444","0","","","","","","","","","","","","","","","","","","","","","","","","","","","",""
"","","","preload","6","563029","0.0-5.0","3","4","4","3","4","3","3","4","3","4","4","4","5","4","5","5","5","4","4","5","1","1","2","2","2","1","2","4","2","1","0","0","1","0","0","0","0","0","1","1","0","0","0","0","5","1","2","1","2","2","1","2","4","1","633791437602816000","王","394","","true","","","","","","","","","","","false","[]","[]","[]","","","","","","","","","","","","","","","","","","","","","","","",""
"4016","","","instructions","7","567046","0.0-6.0","3","4","4","3","4","3","3","4","3","4","4","4","5","4","5","5","5","4","4","5","1","1","2","2","2","1","2","4","2","1","0","0","1","0","0","0","0","0","1","1","0","0","0","0","5","1","2","1","2","2","1","2","4","1","633791437602816000","王","394","","","","","","","","","","","","","","","","","[{""page_index"":0,""viewing_time"":4015}]","","","","","","","","","","","","","","","","","","","","","","",""
"14208","","","instructions","8","581255","0.0-7.0-1.0-0.0","3","4","4","3","4","3","3","4","3","4","4","4","5","4","5","5","5","4","4","5","1","1","2","2","2","1","2","4","2","1","0","0","1","0","0","0","0","0","1","1","0","0","0","0","5","1","2","1","2","2","1","2","4","1","633791437602816000","王","394","","","","","","","","","","","","","","","","","[{""page_index"":0,""viewing_time"":1192},{""page_index"":1,""viewing_time"":1436},{""page_index"":0,""viewing_time"":6351},{""page_index"":1,""viewing_time"":3269},{""page_index"":2,""viewing_time"":1960}]","","","","","","","","","","","","","","","","","","","","","","",""
"null","","null","psychophysics","9","583464","0.0-7.0-1.0-1.0-0.0-0.0","3","4","4","3","4","3","3","4","3","4","4","4","5","4","5","5","5","4","4","5","1","1","2","2","2","1","2","4","2","1","0","0","1","0","0","0","0","0","1","1","0","0","0","0","5","1","2","1","2","2","1","2","4","1","633791437602816000","王","394","","","","null","","","","","","","","","","","","","","key","null","16.780312977098497","710.7407909492769","395.92595389514173","j","false","nonmatch","img/pentagon.png","三角","五边","ALT1_2","prac_ALT1_2","","","","","","","","","",""
"null","<span class='add_' style='color:yellow; font-size: 70px;'> 太慢! </span>","null","html-keyboard-response","10","583965","0.0-7.0-1.0-1.0-0.0-1.0","3","4","4","3","4","3","3","4","3","4","4","4","5","4","5","5","5","4","4","5","1","1","2","2","2","1","2","4","2","1","0","0","1","0","0","0","0","0","1","1","0","0","0","0","5","1","2","1","2","2","1","2","4","1","633791437602816000","王","394","","","","","","","","","","","","","","","","","","","","","","","","","","","","","","feedback_test","","","","","","","","","",""
"932","","j","psychophysics","11","585899","0.0-7.0-1.0-1.0-0.0-0.1","3","4","4","3","4","3","3","4","3","4","4","4","5","4","5","5","5","4","4","5","1","1","2","2","2","1","2","4","2","1","0","0","1","0","0","0","0","0","1","1","0","0","0","0","5","1","2","1","2","2","1","2","4","1","633791437602816000","王","394","","","","nonmatch","","","","","","","","","","","","","","key","j","16.653617391304074","710.7407909492769","395.92595389514173","j","true","nonmatch","img/circle.png","五边","圆形","ALT1_2","prac_ALT1_2","","","","","","","","","",""
"null","<span style='color:GreenYellow; font-size: 70px;'>正确! </span>","null","html-keyboard-response","12","586400","0.0-7.0-1.0-1.0-0.0-1.1","3","4","4","3","4","3","3","4","3","4","4","4","5","4","5","5","5","4","4","5","1","1","2","2","2","1","2","4","2","1","0","0","1","0","0","0","0","0","1","1","0","0","0","0","5","1","2","1","2","2","1","2","4","1","633791437602816000","王","394","","","","","","","","","","","","","","","","","","","","","","","","","","","","","","feedback_test","","","","","","","","","",""
"860","","j","psychophysics","13","588262","0.0-7.0-1.0-1.0-0.0-0.2","3","4","4","3","4","3","3","4","3","4","4","4","5","4","5","5","5","4","4","5","1","1","2","2","2","1","2","4","2","1","0","0","1","0","0","0","0","0","1","1","0","0","0","0","5","1","2","1","2","2","1","2","4","1","633791437602816000","王","394","","","","nonmatch","","","","","","","","","","","","","","key","j","16.653801801802196","710.7407909492769","395.92595389514173","j","true","nonmatch","img/pentagon.png","菱形","五边","ALT1_2","prac_ALT1_2","","","","","","","","","",""
"null","<span style='color:GreenYellow; font-size: 70px;'>正确! </span>","null","html-keyboard-response","14","588763","0.0-7.0-1.0-1.0-0.0-1.2","3","4","4","3","4","3","3","4","3","4","4","4","5","4","5","5","5","4","4","5","1","1","2","2","2","1","2","4","2","1","0","0","1","0","0","0","0","0","1","1","0","0","0","0","5","1","2","1","2","2","1","2","4","1","633791437602816000","王","394","","","","","","","","","","","","","","","","","","","","","","","","","","","","","","feedback_test","","","","","","","","","",""
"817","","f","psychophysics","15","590582","0.0-7.0-1.0-1.0-0.0-0.3","3","4","4","3","4","3","3","4","3","4","4","4","5","4","5","5","5","4","4","5","1","1","2","2","2","1","2","4","2","1","0","0","1","0","0","0","0","0","1","1","0","0","0","0","5","1","2","1","2","2","1","2","4","1","633791437602816000","王","394","","","","match","","","","","","","","","","","","","","key","f","16.653574074074168","710.7407909492769","395.92595389514173","j","false","nonmatch","img/circle.png","三角","圆形","ALT1_2","prac_ALT1_2","","","","","","","","","",""
"null","<span style='color:red; font-size: 70px;'>错误! </span>","null","html-keyboard-response","16","591083","0.0-7.0-1.0-1.0-0.0-1.3","3","4","4","3","4","3","3","4","3","4","4","4","5","4","5","5","5","4","4","5","1","1","2","2","2","1","2","4","2","1","0","0","1","0","0","0","0","0","1","1","0","0","0","0","5","1","2","1","2","2","1","2","4","1","633791437602816000","王","394","","","","","","","","","","","","","","","","","","","","","","","","","","","","","","feedback_test","","","","","","","","","",""
"null","","null","psychophysics","17","593289","0.0-7.0-1.0-1.0-0.0-0.4","3","4","4","3","4","3","3","4","3","4","4","4","5","4","5","5","5","4","4","5","1","1","2","2","2","1","2","4","2","1","0","0","1","0","0","0","0","0","1","1","0","0","0","0","5","1","2","1","2","2","1","2","4","1","633791437602816000","王","394","","","","null","","","","","","","","","","","","","","key","null","16.653351145037558","710.7407909492769","395.92595389514173","f","false","match","img/pentagon.png","五边","五边","ALT1_2","prac_ALT1_2","","","","","","","","","",""
"null","<span class='add_' style='color:yellow; font-size: 70px;'> 太慢! </span>","null","html-keyboard-response","18","593792","0.0-7.0-1.0-1.0-0.0-1.4","3","4","4","3","4","3","3","4","3","4","4","4","5","4","5","5","5","4","4","5","1","1","2","2","2","1","2","4","2","1","0","0","1","0","0","0","0","0","1","1","0","0","0","0","5","1","2","1","2","2","1","2","4","1","633791437602816000","王","394","","","","","","","","","","","","","","","","","","","","","","","","","","","","","","feedback_test","","","","","","","","","",""
"796","","j","psychophysics","19","595590","0.0-7.0-1.0-1.0-0.0-0.5","3","4","4","3","4","3","3","4","3","4","4","4","5","4","5","5","5","4","4","5","1","1","2","2","2","1","2","4","2","1","0","0","1","0","0","0","0","0","1","1","0","0","0","0","5","1","2","1","2","2","1","2","4","1","633791437602816000","王","394","","","","nonmatch","","","","","","","","","","","","","","key","j","16.653495327102796","710.7407909492769","395.92595389514173","f","false","match","img/circle.png","圆形","圆形","ALT1_2","prac_ALT1_2","","","","","","","","","",""
"null","<span style='color:red; font-size: 70px;'>错误! </span>","null","html-keyboard-response","20","596101","0.0-7.0-1.0-1.0-0.0-1.5","3","4","4","3","4","3","3","4","3","4","4","4","5","4","5","5","5","4","4","5","1","1","2","2","2","1","2","4","2","1","0","0","1","0","0","0","0","0","1","1","0","0","0","0","5","1","2","1","2","2","1","2","4","1","633791437602816000","王","394","","","","","","","","","","","","","","","","","","","","","","","","","","","","","","feedback_test","","","","","","","","","",""
"1074","","f","psychophysics","21","598178","0.0-7.0-1.0-1.0-0.0-0.6","3","4","4","3","4","3","3","4","3","4","4","4","5","4","5","5","5","4","4","5","1","1","2","2","2","1","2","4","2","1","0","0","1","0","0","0","0","0","1","1","0","0","0","0","5","1","2","1","2","2","1","2","4","1","633791437602816000","王","394","","","","match","","","","","","","","","","","","","","key","f","16.65439837398405","710.7407909492769","395.92595389514173","j","false","nonmatch","img/triangle.png","五边","三角","ALT1_2","prac_ALT1_2","","","","","","","","","",""
"null","<span style='color:red; font-size: 70px;'>错误! </span>","null","html-keyboard-response","22","598680","0.0-7.0-1.0-1.0-0.0-1.6","3","4","4","3","4","3","3","4","3","4","4","4","5","4","5","5","5","4","4","5","1","1","2","2","2","1","2","4","2","1","0","0","1","0","0","0","0","0","1","1","0","0","0","0","5","1","2","1","2","2","1","2","4","1","633791437602816000","王","394","","","","","","","","","","","","","","","","","","","","","","","","","","","","","","feedback_test","","","","","","","","","",""
"993","","f","psychophysics","23","600675","0.0-7.0-1.0-1.0-0.0-0.7","3","4","4","3","4","3","3","4","3","4","4","4","5","4","5","5","5","4","4","5","1","1","2","2","2","1","2","4","2","1","0","0","1","0","0","0","0","0","1","1","0","0","0","0","5","1","2","1","2","2","1","2","4","1","633791437602816000","王","394","","","","match","","","","","","","","","","","","","","key","f","16.653440677966348","710.7407909492769","395.92595389514173","j","false","nonmatch","img/diamond.png","圆形","菱形","ALT1_2","prac_ALT1_2","","","","","","","","","",""
"null","<span style='color:red; font-size: 70px;'>错误! </span>","null","html-keyboard-response","24","601177","0.0-7.0-1.0-1.0-0.0-1.7","3","4","4","3","4","3","3","4","3","4","4","4","5","4","5","5","5","4","4","5","1","1","2","2","2","1","2","4","2","1","0","0","1","0","0","0","0","0","1","1","0","0","0","0","5","1","2","1","2","2","1","2","4","1","633791437602816000","王","394","","","","","","","","","","","","","","","","","","","","","","","","","","","","","","feedback_test","","","","","","","","","",""
"938","","f","psychophysics","25","603118","0.0-7.0-1.0-1.0-0.0-0.8","3","4","4","3","4","3","3","4","3","4","4","4","5","4","5","5","5","4","4","5","1","1","2","2","2","1","2","4","2","1","0","0","1","0","0","0","0","0","1","1","0","0","0","0","5","1","2","1","2","2","1","2","4","1","633791437602816000","王","394","","","","match","","","","","","","","","","","","","","key","f","16.653269565217805","710.7407909492769","395.92595389514173","j","false","nonmatch","img/triangle.png","圆形","三角","ALT1_2","prac_ALT1_2","","","","","","","","","",""
"null","<span style='color:red; font-size: 70px;'>错误! </span>","null","html-keyboard-response","26","603619","0.0-7.0-1.0-1.0-0.0-1.8","3","4","4","3","4","3","3","4","3","4","4","4","5","4","5","5","5","4","4","5","1","1","2","2","2","1","2","4","2","1","0","0","1","0","0","0","0","0","1","1","0","0","0","0","5","1","2","1","2","2","1","2","4","1","633791437602816000","王","394","","","","","","","","","","","","","","","","","","","","","","","","","","","","","","feedback_test","","","","","","","","","",""
"778","","j","psychophysics","27","605399","0.0-7.0-1.0-1.0-0.0-0.9","3","4","4","3","4","3","3","4","3","4","4","4","5","4","5","5","5","4","4","5","1","1","2","2","2","1","2","4","2","1","0","0","1","0","0","0","0","0","1","1","0","0","0","0","5","1","2","1","2","2","1","2","4","1","633791437602816000","王","394","","","","nonmatch","","","","","","","","","","","","","","key","j","16.6532641509438","710.7407909492769","395.92595389514173","f","false","match","img/triangle.png","三角","三角","ALT1_2","prac_ALT1_2","","","","","","","","","",""
"null","<span style='color:red; font-size: 70px;'>错误! </span>","null","html-keyboard-response","28","605899","0.0-7.0-1.0-1.0-0.0-1.9","3","4","4","3","4","3","3","4","3","4","4","4","5","4","5","5","5","4","4","5","1","1","2","2","2","1","2","4","2","1","0","0","1","0","0","0","0","0","1","1","0","0","0","0","5","1","2","1","2","2","1","2","4","1","633791437602816000","王","394","","","","","","","","","","","","","","","","","","","","","","","","","","","","","","feedback_test","","","","","","","","","",""
"null","","null","psychophysics","29","608102","0.0-7.0-1.0-1.0-0.0-0.10","3","4","4","3","4","3","3","4","3","4","4","4","5","4","5","5","5","4","4","5","1","1","2","2","2","1","2","4","2","1","0","0","1","0","0","0","0","0","1","1","0","0","0","0","5","1","2","1","2","2","1","2","4","1","633791437602816000","王","394","","","","null","","","","","","","","","","","","","","key","null","16.654488549618414","710.7407909492769","395.92595389514173","f","false","match","img/diamond.png","菱形","菱形","ALT1_2","prac_ALT1_2","","","","","","","","","",""
"null","<span class='add_' style='color:yellow; font-size: 70px;'> 太慢! </span>","null","html-keyboard-response","30","608612","0.0-7.0-1.0-1.0-0.0-1.10","3","4","4","3","4","3","3","4","3","4","4","4","5","4","5","5","5","4","4","5","1","1","2","2","2","1","2","4","2","1","0","0","1","0","0","0","0","0","1","1","0","0","0","0","5","1","2","1","2","2","1","2","4","1","633791437602816000","王","394","","","","","","","","","","","","","","","","","","","","","","","","","","","","","","feedback_test","","","","","","","","","",""
"937","","j","psychophysics","31","610551","0.0-7.0-1.0-1.0-0.0-0.11","3","4","4","3","4","3","3","4","3","4","4","4","5","4","5","5","5","4","4","5","1","1","2","2","2","1","2","4","2","1","0","0","1","0","0","0","0","0","1","1","0","0","0","0","5","1","2","1","2","2","1","2","4","1","633791437602816000","王","394","","","","nonmatch","","","","","","","","","","","","","","key","j","16.652643478260902","710.7407909492769","395.92595389514173","j","true","nonmatch","img/circle.png","菱形","圆形","ALT1_2","prac_ALT1_2","","","","","","","","","",""
"null","<span style='color:GreenYellow; font-size: 70px;'>正确! </span>","null","html-keyboard-response","32","611056","0.0-7.0-1.0-1.0-0.0-1.11","3","4","4","3","4","3","3","4","3","4","4","4","5","4","5","5","5","4","4","5","1","1","2","2","2","1","2","4","2","1","0","0","1","0","0","0","0","0","1","1","0","0","0","0","5","1","2","1","2","2","1","2","4","1","633791437602816000","王","394","","","","","","","","","","","","","","","","","","","","","","","","","","","","","","feedback_test","","","","","","","","","",""
"1056","","j","psychophysics","33","613114","0.0-7.0-1.0-1.0-0.0-0.12","3","4","4","3","4","3","3","4","3","4","4","4","5","4","5","5","5","4","4","5","1","1","2","2","2","1","2","4","2","1","0","0","1","0","0","0","0","0","1","1","0","0","0","0","5","1","2","1","2","2","1","2","4","1","633791437602816000","王","394","","","","nonmatch","","","","","","","","","","","","","","key","j","16.653278688525162","710.7407909492769","395.92595389514173","j","true","nonmatch","img/triangle.png","菱形","三角","ALT1_2","prac_ALT1_2","","","","","","","","","",""
"null","<span style='color:GreenYellow; font-size: 70px;'>正确! </span>","null","html-keyboard-response","34","613615","0.0-7.0-1.0-1.0-0.0-1.12","3","4","4","3","4","3","3","4","3","4","4","4","5","4","5","5","5","4","4","5","1","1","2","2","2","1","2","4","2","1","0","0","1","0","0","0","0","0","1","1","0","0","0","0","5","1","2","1","2","2","1","2","4","1","633791437602816000","王","394","","","","","","","","","","","","","","","","","","","","","","","","","","","","","","feedback_test","","","","","","","","","",""
"822","","j","psychophysics","35","615438","0.0-7.0-1.0-1.0-0.0-0.13","3","4","4","3","4","3","3","4","3","4","4","4","5","4","5","5","5","4","4","5","1","1","2","2","2","1","2","4","2","1","0","0","1","0","0","0","0","0","1","1","0","0","0","0","5","1","2","1","2","2","1","2","4","1","633791437602816000","王","394","","","","nonmatch","","","","","","","","","","","","","","key","j","16.65375925925845","710.7407909492769","395.92595389514173","j","true","nonmatch","img/diamond.png","三角","菱形","ALT1_2","prac_ALT1_2","","","","","","","","","",""
"null","<span style='color:GreenYellow; font-size: 70px;'>正确! </span>","null","html-keyboard-response","36","615940","0.0-7.0-1.0-1.0-0.0-1.13","3","4","4","3","4","3","3","4","3","4","4","4","5","4","5","5","5","4","4","5","1","1","2","2","2","1","2","4","2","1","0","0","1","0","0","0","0","0","1","1","0","0","0","0","5","1","2","1","2","2","1","2","4","1","633791437602816000","王","394","","","","","","","","","","","","","","","","","","","","","","","","","","","","","","feedback_test","","","","","","","","","",""
"637","","f","psychophysics","37","617580","0.0-7.0-1.0-1.0-0.0-0.14","3","4","4","3","4","3","3","4","3","4","4","4","5","4","5","5","5","4","4","5","1","1","2","2","2","1","2","4","2","1","0","0","1","0","0","0","0","0","1","1","0","0","0","0","5","1","2","1","2","2","1","2","4","1","633791437602816000","王","394","","","","match","","","","","","","","","","","","","","key","f","16.654804123711973","710.7407909492769","395.92595389514173","f","true","match","img/triangle.png","三角","三角","ALT1_2","prac_ALT1_2","","","","","","","","","",""
"null","<span style='color:GreenYellow; font-size: 70px;'>正确! </span>","null","html-keyboard-response","38","618083","0.0-7.0-1.0-1.0-0.0-1.14","3","4","4","3","4","3","3","4","3","4","4","4","5","4","5","5","5","4","4","5","1","1","2","2","2","1","2","4","2","1","0","0","1","0","0","0","0","0","1","1","0","0","0","0","5","1","2","1","2","2","1","2","4","1","633791437602816000","王","394","","","","","","","","","","","","","","","","","","","","","","","","","","","","","","feedback_test","","","","","","","","","",""
"995","","f","psychophysics","39","620081","0.0-7.0-1.0-1.0-0.0-0.15","3","4","4","3","4","3","3","4","3","4","4","4","5","4","5","5","5","4","4","5","1","1","2","2","2","1","2","4","2","1","0","0","1","0","0","0","0","0","1","1","0","0","0","0","5","1","2","1","2","2","1","2","4","1","633791437602816000","王","394","","","","match","","","","","","","","","","","","","","key","f","16.652764705882383","710.7407909492769","395.92595389514173","f","true","match","img/pentagon.png","五边","五边","ALT1_2","prac_ALT1_2","","","","","","","","","",""
"null","<span style='color:GreenYellow; font-size: 70px;'>正确! </span>","null","html-keyboard-response","40","620584","0.0-7.0-1.0-1.0-0.0-1.15","3","4","4","3","4","3","3","4","3","4","4","4","5","4","5","5","5","4","4","5","1","1","2","2","2","1","2","4","2","1","0","0","1","0","0","0","0","0","1","1","0","0","0","0","5","1","2","1","2","2","1","2","4","1","633791437602816000","王","394","","","","","","","","","","","","","","","","","","","","","","","","","","","","","","feedback_test","","","","","","","","","",""
"994","","j","psychophysics","41","622579","0.0-7.0-1.0-1.0-0.0-0.16","3","4","4","3","4","3","3","4","3","4","4","4","5","4","5","5","5","4","4","5","1","1","2","2","2","1","2","4","2","1","0","0","1","0","0","0","0","0","1","1","0","0","0","0","5","1","2","1","2","2","1","2","4","1","633791437602816000","王","394","","","","nonmatch","","","","","","","","","","","","","","key","j","16.65315966386575","710.7407909492769","395.92595389514173","j","true","nonmatch","img/pentagon.png","圆形","五边","ALT1_2","prac_ALT1_2","","","","","","","","","",""
"null","<span style='color:GreenYellow; font-size: 70px;'>正确! </span>","null","html-keyboard-response","42","623082","0.0-7.0-1.0-1.0-0.0-1.16","3","4","4","3","4","3","3","4","3","4","4","4","5","4","5","5","5","4","4","5","1","1","2","2","2","1","2","4","2","1","0","0","1","0","0","0","0","0","1","1","0","0","0","0","5","1","2","1","2","2","1","2","4","1","633791437602816000","王","394","","","","","","","","","","","","","","","","","","","","","","","","","","","","","","feedback_test","","","","","","","","","",""
"959","","f","psychophysics","43","625042","0.0-7.0-1.0-1.0-0.0-0.17","3","4","4","3","4","3","3","4","3","4","4","4","5","4","5","5","5","4","4","5","1","1","2","2","2","1","2","4","2","1","0","0","1","0","0","0","0","0","1","1","0","0","0","0","5","1","2","1","2","2","1","2","4","1","633791437602816000","王","394","","","","match","","","","","","","","","","","","","","key","f","16.647504273504538","710.7407909492769","395.92595389514173","f","true","match","img/triangle.png","三角","三角","ALT1_2","prac_ALT1_2","","","","","","","","","",""
"null","<span style='color:GreenYellow; font-size: 70px;'>正确! </span>","null","html-keyboard-response","44","625544","0.0-7.0-1.0-1.0-0.0-1.17","3","4","4","3","4","3","3","4","3","4","4","4","5","4","5","5","5","4","4","5","1","1","2","2","2","1","2","4","2","1","0","0","1","0","0","0","0","0","1","1","0","0","0","0","5","1","2","1","2","2","1","2","4","1","633791437602816000","王","394","","","","","","","","","","","","","","","","","","","","","","","","","","","","","","feedback_test","","","","","","","","","",""
"784","","j","psychophysics","45","627330","0.0-7.0-1.0-1.0-0.0-0.18","3","4","4","3","4","3","3","4","3","4","4","4","5","4","5","5","5","4","4","5","1","1","2","2","2","1","2","4","2","1","0","0","1","0","0","0","0","0","1","1","0","0","0","0","5","1","2","1","2","2","1","2","4","1","633791437602816000","王","394","","","","nonmatch","","","","","","","","","","","","","","key","j","16.65405660377319","710.7407909492769","395.92595389514173","f","false","match","img/diamond.png","菱形","菱形","ALT1_2","prac_ALT1_2","","","","","","","","","",""
"null","<span style='color:red; font-size: 70px;'>错误! </span>","null","html-keyboard-response","46","627832","0.0-7.0-1.0-1.0-0.0-1.18","3","4","4","3","4","3","3","4","3","4","4","4","5","4","5","5","5","4","4","5","1","1","2","2","2","1","2","4","2","1","0","0","1","0","0","0","0","0","1","1","0","0","0","0","5","1","2","1","2","2","1","2","4","1","633791437602816000","王","394","","","","","","","","","","","","","","","","","","","","","","","","","","","","","","feedback_test","","","","","","","","","",""
"994","","j","psychophysics","47","629828","0.0-7.0-1.0-1.0-0.0-0.19","3","4","4","3","4","3","3","4","3","4","4","4","5","4","5","5","5","4","4","5","1","1","2","2","2","1","2","4","2","1","0","0","1","0","0","0","0","0","1","1","0","0","0","0","5","1","2","1","2","2","1","2","4","1","633791437602816000","王","394","","","","nonmatch","","","","","","","","","","","","","","key","j","16.653756302520204","710.7407909492769","395.92595389514173","j","true","nonmatch","img/diamond.png","五边","菱形","ALT1_2","prac_ALT1_2","","","","","","","","","",""
"null","<span style='color:GreenYellow; font-size: 70px;'>正确! </span>","null","html-keyboard-response","48","630330","0.0-7.0-1.0-1.0-0.0-1.19","3","4","4","3","4","3","3","4","3","4","4","4","5","4","5","5","5","4","4","5","1","1","2","2","2","1","2","4","2","1","0","0","1","0","0","0","0","0","1","1","0","0","0","0","5","1","2","1","2","2","1","2","4","1","633791437602816000","王","394","","","","","","","","","","","","","","","","","","","","","","","","","","","","","","feedback_test","","","","","","","","","",""
"892","","f","psychophysics","49","632224","0.0-7.0-1.0-1.0-0.0-0.20","3","4","4","3","4","3","3","4","3","4","4","4","5","4","5","5","5","4","4","5","1","1","2","2","2","1","2","4","2","1","0","0","1","0","0","0","0","0","1","1","0","0","0","0","5","1","2","1","2","2","1","2","4","1","633791437602816000","王","394","","","","match","","","","","","","","","","","","","","key","f","16.654150442477828","710.7407909492769","395.92595389514173","f","true","match","img/circle.png","圆形","圆形","ALT1_2","prac_ALT1_2","","","","","","","","","",""
"null","<span style='color:GreenYellow; font-size: 70px;'>正确! </span>","null","html-keyboard-response","50","632725","0.0-7.0-1.0-1.0-0.0-1.20","3","4","4","3","4","3","3","4","3","4","4","4","5","4","5","5","5","4","4","5","1","1","2","2","2","1","2","4","2","1","0","0","1","0","0","0","0","0","1","1","0","0","0","0","5","1","2","1","2","2","1","2","4","1","633791437602816000","王","394","","","","","","","","","","","","","","","","","","","","","","","","","","","","","","feedback_test","","","","","","","","","",""
"877","","f","psychophysics","51","634604","0.0-7.0-1.0-1.0-0.0-0.21","3","4","4","3","4","3","3","4","3","4","4","4","5","4","5","5","5","4","4","5","1","1","2","2","2","1","2","4","2","1","0","0","1","0","0","0","0","0","1","1","0","0","0","0","5","1","2","1","2","2","1","2","4","1","633791437602816000","王","394","","","","match","","","","","","","","","","","","","","key","f","16.653303571428946","710.7407909492769","395.92595389514173","f","true","match","img/pentagon.png","五边","五边","ALT1_2","prac_ALT1_2","","","","","","","","","",""
"null","<span style='color:GreenYellow; font-size: 70px;'>正确! </span>","null","html-keyboard-response","52","635106","0.0-7.0-1.0-1.0-0.0-1.21","3","4","4","3","4","3","3","4","3","4","4","4","5","4","5","5","5","4","4","5","1","1","2","2","2","1","2","4","2","1","0","0","1","0","0","0","0","0","1","1","0","0","0","0","5","1","2","1","2","2","1","2","4","1","633791437602816000","王","394","","","","","","","","","","","","","","","","","","","","","","","","","","","","","","feedback_test","","","","","","","","","",""
"768","","f","psychophysics","53","636875","0.0-7.0-1.0-1.0-0.0-0.22","3","4","4","3","4","3","3","4","3","4","4","4","5","4","5","5","5","4","4","5","1","1","2","2","2","1","2","4","2","1","0","0","1","0","0","0","0","0","1","1","0","0","0","0","5","1","2","1","2","2","1","2","4","1","633791437602816000","王","394","","","","match","","","","","","","","","","","","","","key","f","16.653266666666603","710.7407909492769","395.92595389514173","f","true","match","img/circle.png","圆形","圆形","ALT1_2","prac_ALT1_2","","","","","","","","","",""
"null","<span style='color:GreenYellow; font-size: 70px;'>正确! </span>","null","html-keyboard-response","54","637376","0.0-7.0-1.0-1.0-0.0-1.22","3","4","4","3","4","3","3","4","3","4","4","4","5","4","5","5","5","4","4","5","1","1","2","2","2","1","2","4","2","1","0","0","1","0","0","0","0","0","1","1","0","0","0","0","5","1","2","1","2","2","1","2","4","1","633791437602816000","王","394","","","","","","","","","","","","","","","","","","","","","","","","","","","","","","feedback_test","","","","","","","","","",""
"785","","f","psychophysics","55","639163","0.0-7.0-1.0-1.0-0.0-0.23","3","4","4","3","4","3","3","4","3","4","4","4","5","4","5","5","5","4","4","5","1","1","2","2","2","1","2","4","2","1","0","0","1","0","0","0","0","0","1","1","0","0","0","0","5","1","2","1","2","2","1","2","4","1","633791437602816000","王","394","","","","match","","","","","","","","","","","","","","key","f","16.653504672897633","710.7407909492769","395.92595389514173","f","true","match","img/diamond.png","菱形","菱形","ALT1_2","prac_ALT1_2","","","","","","","","","",""
"null","<span style='color:GreenYellow; font-size: 70px;'>正确! </span>","null","html-keyboard-response","56","639666","0.0-7.0-1.0-1.0-0.0-1.23","3","4","4","3","4","3","3","4","3","4","4","4","5","4","5","5","5","4","4","5","1","1","2","2","2","1","2","4","2","1","0","0","1","0","0","0","0","0","1","1","0","0","0","0","5","1","2","1","2","2","1","2","4","1","633791437602816000","王","394","","","","","","","","","","","","","","","","","","","","","","","","","","","","","","feedback_test","","","","","","","","","",""
"794","","f","psychophysics","57","641464","0.0-7.0-1.0-1.0-0.0-0.24","3","4","4","3","4","3","3","4","3","4","4","4","5","4","5","5","5","4","4","5","1","1","2","2","2","1","2","4","2","1","0","0","1","0","0","0","0","0","1","1","0","0","0","0","5","1","2","1","2","2","1","2","4","1","633791437602816000","王","394","","","","match","","","","","","","","","","","","","","key","f","16.65035514018681","710.7407909492769","395.92595389514173","j","false","nonmatch","img/diamond.png","三角","菱形","ALT1_2","prac_ALT1_2","","","","","","","","","",""
"null","<span style='color:red; font-size: 70px;'>错误! </span>","null","html-keyboard-response","58","641966","0.0-7.0-1.0-1.0-0.0-1.24","3","4","4","3","4","3","3","4","3","4","4","4","5","4","5","5","5","4","4","5","1","1","2","2","2","1","2","4","2","1","0","0","1","0","0","0","0","0","1","1","0","0","0","0","5","1","2","1","2","2","1","2","4","1","633791437602816000","王","394","","","","","","","","","","","","","","","","","","","","","","","","","","","","","","feedback_test","","","","","","","","","",""
"732","","f","psychophysics","59","643700","0.0-7.0-1.0-1.0-0.0-0.25","3","4","4","3","4","3","3","4","3","4","4","4","5","4","5","5","5","4","4","5","1","1","2","2","2","1","2","4","2","1","0","0","1","0","0","0","0","0","1","1","0","0","0","0","5","1","2","1","2","2","1","2","4","1","633791437602816000","王","394","","","","match","","","","","","","","","","","","","","key","f","16.652650485436876","710.7407909492769","395.92595389514173","j","false","nonmatch","img/pentagon.png","菱形","五边","ALT1_2","prac_ALT1_2","","","","","","","","","",""
"null","<span style='color:red; font-size: 70px;'>错误! </span>","null","html-keyboard-response","60","644201","0.0-7.0-1.0-1.0-0.0-1.25","3","4","4","3","4","3","3","4","3","4","4","4","5","4","5","5","5","4","4","5","1","1","2","2","2","1","2","4","2","1","0","0","1","0","0","0","0","0","1","1","0","0","0","0","5","1","2","1","2","2","1","2","4","1","633791437602816000","王","394","","","","","","","","","","","","","","","","","","","","","","","","","","","","","","feedback_test","","","","","","","","","",""
"875","","j","psychophysics","61","646079","0.0-7.0-1.0-1.0-0.0-0.26","3","4","4","3","4","3","3","4","3","4","4","4","5","4","5","5","5","4","4","5","1","1","2","2","2","1","2","4","2","1","0","0","1","0","0","0","0","0","1","1","0","0","0","0","5","1","2","1","2","2","1","2","4","1","633791437602816000","王","394","","","","nonmatch","","","","","","","","","","","","","","key","j","16.65341071428598","710.7407909492769","395.92595389514173","j","true","nonmatch","img/triangle.png","圆形","三角","ALT1_2","prac_ALT1_2","","","","","","","","","",""
"null","<span style='color:GreenYellow; font-size: 70px;'>正确! </span>","null","html-keyboard-response","62","646580","0.0-7.0-1.0-1.0-0.0-1.26","3","4","4","3","4","3","3","4","3","4","4","4","5","4","5","5","5","4","4","5","1","1","2","2","2","1","2","4","2","1","0","0","1","0","0","0","0","0","1","1","0","0","0","0","5","1","2","1","2","2","1","2","4","1","633791437602816000","王","394","","","","","","","","","","","","","","","","","","","","","","","","","","","","","","feedback_test","","","","","","","","","",""
"865","","f","psychophysics","63","648447","0.0-7.0-1.0-1.0-0.0-0.27","3","4","4","3","4","3","3","4","3","4","4","4","5","4","5","5","5","4","4","5","1","1","2","2","2","1","2","4","2","1","0","0","1","0","0","0","0","0","1","1","0","0","0","0","5","1","2","1","2","2","1","2","4","1","633791437602816000","王","394","","","","match","","","","","","","","","","","","","","key","f","16.649675675676214","710.7407909492769","395.92595389514173","f","true","match","img/diamond.png","菱形","菱形","ALT1_2","prac_ALT1_2","","","","","","","","","",""
"null","<span style='color:GreenYellow; font-size: 70px;'>正确! </span>","null","html-keyboard-response","64","648949","0.0-7.0-1.0-1.0-0.0-1.27","3","4","4","3","4","3","3","4","3","4","4","4","5","4","5","5","5","4","4","5","1","1","2","2","2","1","2","4","2","1","0","0","1","0","0","0","0","0","1","1","0","0","0","0","5","1","2","1","2","2","1","2","4","1","633791437602816000","王","394","","","","","","","","","","","","","","","","","","","","","","","","","","","","","","feedback_test","","","","","","","","","",""
"749","","j","psychophysics","65","650699","0.0-7.0-1.0-1.0-0.0-0.28","3","4","4","3","4","3","3","4","3","4","4","4","5","4","5","5","5","4","4","5","1","1","2","2","2","1","2","4","2","1","0","0","1","0","0","0","0","0","1","1","0","0","0","0","5","1","2","1","2","2","1","2","4","1","633791437602816000","王","394","","","","nonmatch","","","","","","","","","","","","","","key","j","16.653519230769373","710.7407909492769","395.92595389514173","j","true","nonmatch","img/triangle.png","菱形","三角","ALT1_2","prac_ALT1_2","","","","","","","","","",""
"null","<span style='color:GreenYellow; font-size: 70px;'>正确! </span>","null","html-keyboard-response","66","651200","0.0-7.0-1.0-1.0-0.0-1.28","3","4","4","3","4","3","3","4","3","4","4","4","5","4","5","5","5","4","4","5","1","1","2","2","2","1","2","4","2","1","0","0","1","0","0","0","0","0","1","1","0","0","0","0","5","1","2","1","2","2","1","2","4","1","633791437602816000","王","394","","","","","","","","","","","","","","","","","","","","","","","","","","","","","","feedback_test","","","","","","","","","",""
"695","","j","psychophysics","67","652897","0.0-7.0-1.0-1.0-0.0-0.29","3","4","4","3","4","3","3","4","3","4","4","4","5","4","5","5","5","4","4","5","1","1","2","2","2","1","2","4","2","1","0","0","1","0","0","0","0","0","1","1","0","0","0","0","5","1","2","1","2","2","1","2","4","1","633791437602816000","王","394","","","","nonmatch","","","","","","","","","","","","","","key","j","16.653809999999357","710.7407909492769","395.92595389514173","j","true","nonmatch","img/pentagon.png","圆形","五边","ALT1_2","prac_ALT1_2","","","","","","","","","",""
"null","<span style='color:GreenYellow; font-size: 70px;'>正确! </span>","null","html-keyboard-response","68","653398","0.0-7.0-1.0-1.0-0.0-1.29","3","4","4","3","4","3","3","4","3","4","4","4","5","4","5","5","5","4","4","5","1","1","2","2","2","1","2","4","2","1","0","0","1","0","0","0","0","0","1","1","0","0","0","0","5","1","2","1","2","2","1","2","4","1","633791437602816000","王","394","","","","","","","","","","","","","","","","","","","","","","","","","","","","","","feedback_test","","","","","","","","","",""
"785","","f","psychophysics","69","655187","0.0-7.0-1.0-1.0-0.0-0.30","3","4","4","3","4","3","3","4","3","4","4","4","5","4","5","5","5","4","4","5","1","1","2","2","2","1","2","4","2","1","0","0","1","0","0","0","0","0","1","1","0","0","0","0","5","1","2","1","2","2","1","2","4","1","633791437602816000","王","394","","","","match","","","","","","","","","","","","","","key","f","16.653226415095148","710.7407909492769","395.92595389514173","f","true","match","img/triangle.png","三角","三角","ALT1_2","prac_ALT1_2","","","","","","","","","",""
"null","<span style='color:GreenYellow; font-size: 70px;'>正确! </span>","null","html-keyboard-response","70","655688","0.0-7.0-1.0-1.0-0.0-1.30","3","4","4","3","4","3","3","4","3","4","4","4","5","4","5","5","5","4","4","5","1","1","2","2","2","1","2","4","2","1","0","0","1","0","0","0","0","0","1","1","0","0","0","0","5","1","2","1","2","2","1","2","4","1","633791437602816000","王","394","","","","","","","","","","","","","","","","","","","","","","","","","","","","","","feedback_test","","","","","","","","","",""
"914","","f","psychophysics","71","657603","0.0-7.0-1.0-1.0-0.0-0.31","3","4","4","3","4","3","3","4","3","4","4","4","5","4","5","5","5","4","4","5","1","1","2","2","2","1","2","4","2","1","0","0","1","0","0","0","0","0","1","1","0","0","0","0","5","1","2","1","2","2","1","2","4","1","633791437602816000","王","394","","","","match","","","","","","","","","","","","","","key","f","16.65375221238896","710.7407909492769","395.92595389514173","f","true","match","img/triangle.png","三角","三角","ALT1_2","prac_ALT1_2","","","","","","","","","",""
"null","<span style='color:GreenYellow; font-size: 70px;'>正确! </span>","null","html-keyboard-response","72","658104","0.0-7.0-1.0-1.0-0.0-1.31","3","4","4","3","4","3","3","4","3","4","4","4","5","4","5","5","5","4","4","5","1","1","2","2","2","1","2","4","2","1","0","0","1","0","0","0","0","0","1","1","0","0","0","0","5","1","2","1","2","2","1","2","4","1","633791437602816000","王","394","","","","","","","","","","","","","","","","","","","","","","","","","","","","","","feedback_test","","","","","","","","","",""
"677","","j","psychophysics","73","659783","0.0-7.0-1.0-1.0-0.0-0.32","3","4","4","3","4","3","3","4","3","4","4","4","5","4","5","5","5","4","4","5","1","1","2","2","2","1","2","4","2","1","0","0","1","0","0","0","0","0","1","1","0","0","0","0","5","1","2","1","2","2","1","2","4","1","633791437602816000","王","394","","","","nonmatch","","","","","","","","","","","","","","key","j","16.653140000000132","710.7407909492769","395.92595389514173","j","true","nonmatch","img/circle.png","三角","圆形","ALT1_2","prac_ALT1_2","","","","","","","","","",""
"null","<span style='color:GreenYellow; font-size: 70px;'>正确! </span>","null","html-keyboard-response","74","660285","0.0-7.0-1.0-1.0-0.0-1.32","3","4","4","3","4","3","3","4","3","4","4","4","5","4","5","5","5","4","4","5","1","1","2","2","2","1","2","4","2","1","0","0","1","0","0","0","0","0","1","1","0","0","0","0","5","1","2","1","2","2","1","2","4","1","633791437602816000","王","394","","","","","","","","","","","","","","","","","","","","","","","","","","","","","","feedback_test","","","","","","","","","",""
"874","","f","psychophysics","75","662163","0.0-7.0-1.0-1.0-0.0-0.33","3","4","4","3","4","3","3","4","3","4","4","4","5","4","5","5","5","4","4","5","1","1","2","2","2","1","2","4","2","1","0","0","1","0","0","0","0","0","1","1","0","0","0","0","5","1","2","1","2","2","1","2","4","1","633791437602816000","王","394","","","","match","","","","","","","","","","","","","","key","f","16.64951785714324","710.7407909492769","395.92595389514173","f","true","match","img/triangle.png","三角","三角","ALT1_2","prac_ALT1_2","","","","","","","","","",""
"null","<span style='color:GreenYellow; font-size: 70px;'>正确! </span>","null","html-keyboard-response","76","662665","0.0-7.0-1.0-1.0-0.0-1.33","3","4","4","3","4","3","3","4","3","4","4","4","5","4","5","5","5","4","4","5","1","1","2","2","2","1","2","4","2","1","0","0","1","0","0","0","0","0","1","1","0","0","0","0","5","1","2","1","2","2","1","2","4","1","633791437602816000","王","394","","","","","","","","","","","","","","","","","","","","","","","","","","","","","","feedback_test","","","","","","","","","",""
"861","","j","psychophysics","77","664528","0.0-7.0-1.0-1.0-0.0-0.34","3","4","4","3","4","3","3","4","3","4","4","4","5","4","5","5","5","4","4","5","1","1","2","2","2","1","2","4","2","1","0","0","1","0","0","0","0","0","1","1","0","0","0","0","5","1","2","1","2","2","1","2","4","1","633791437602816000","王","394","","","","nonmatch","","","","","","","","","","","","","","key","j","16.652279279279725","710.7407909492769","395.92595389514173","f","false","match","img/pentagon.png","五边","五边","ALT1_2","prac_ALT1_2","","","","","","","","","",""
"null","<span style='color:red; font-size: 70px;'>错误! </span>","null","html-keyboard-response","78","665029","0.0-7.0-1.0-1.0-0.0-1.34","3","4","4","3","4","3","3","4","3","4","4","4","5","4","5","5","5","4","4","5","1","1","2","2","2","1","2","4","2","1","0","0","1","0","0","0","0","0","1","1","0","0","0","0","5","1","2","1","2","2","1","2","4","1","633791437602816000","王","394","","","","","","","","","","","","","","","","","","","","","","","","","","","","","","feedback_test","","","","","","","","","",""
"775","","j","psychophysics","79","666806","0.0-7.0-1.0-1.0-0.0-0.35","3","4","4","3","4","3","3","4","3","4","4","4","5","4","5","5","5","4","4","5","1","1","2","2","2","1","2","4","2","1","0","0","1","0","0","0","0","0","1","1","0","0","0","0","5","1","2","1","2","2","1","2","4","1","633791437602816000","王","394","","","","nonmatch","","","","","","","","","","","","","","key","j","16.64740952380955","710.7407909492769","395.92595389514173","j","true","nonmatch","img/circle.png","五边","圆形","ALT1_2","prac_ALT1_2","","","","","","","","","",""
"null","<span style='color:GreenYellow; font-size: 70px;'>正确! </span>","null","html-keyboard-response","80","667307","0.0-7.0-1.0-1.0-0.0-1.35","3","4","4","3","4","3","3","4","3","4","4","4","5","4","5","5","5","4","4","5","1","1","2","2","2","1","2","4","2","1","0","0","1","0","0","0","0","0","1","1","0","0","0","0","5","1","2","1","2","2","1","2","4","1","633791437602816000","王","394","","","","","","","","","","","","","","","","","","","","","","","","","","","","","","feedback_test","","","","","","","","","",""
"775","","j","psychophysics","81","669085","0.0-7.0-1.0-1.0-0.0-0.36","3","4","4","3","4","3","3","4","3","4","4","4","5","4","5","5","5","4","4","5","1","1","2","2","2","1","2","4","2","1","0","0","1","0","0","0","0","0","1","1","0","0","0","0","5","1","2","1","2","2","1","2","4","1","633791437602816000","王","394","","","","nonmatch","","","","","","","","","","","","","","key","j","16.65345714285726","710.7407909492769","395.92595389514173","j","true","nonmatch","img/triangle.png","五边","三角","ALT1_2","prac_ALT1_2","","","","","","","","","",""
"null","<span style='color:GreenYellow; font-size: 70px;'>正确! </span>","null","html-keyboard-response","82","669588","0.0-7.0-1.0-1.0-0.0-1.36","3","4","4","3","4","3","3","4","3","4","4","4","5","4","5","5","5","4","4","5","1","1","2","2","2","1","2","4","2","1","0","0","1","0","0","0","0","0","1","1","0","0","0","0","5","1","2","1","2","2","1","2","4","1","633791437602816000","王","394","","","","","","","","","","","","","","","","","","","","","","","","","","","","","","feedback_test","","","","","","","","","",""
"874","","j","psychophysics","83","671463","0.0-7.0-1.0-1.0-0.0-0.37","3","4","4","3","4","3","3","4","3","4","4","4","5","4","5","5","5","4","4","5","1","1","2","2","2","1","2","4","2","1","0","0","1","0","0","0","0","0","1","1","0","0","0","0","5","1","2","1","2","2","1","2","4","1","633791437602816000","王","394","","","","nonmatch","","","","","","","","","","","","","","key","j","16.653747747747673","710.7407909492769","395.92595389514173","j","true","nonmatch","img/pentagon.png","三角","五边","ALT1_2","prac_ALT1_2","","","","","","","","","",""
"null","<span style='color:GreenYellow; font-size: 70px;'>正确! </span>","null","html-keyboard-response","84","671965","0.0-7.0-1.0-1.0-0.0-1.37","3","4","4","3","4","3","3","4","3","4","4","4","5","4","5","5","5","4","4","5","1","1","2","2","2","1","2","4","2","1","0","0","1","0","0","0","0","0","1","1","0","0","0","0","5","1","2","1","2","2","1","2","4","1","633791437602816000","王","394","","","","","","","","","","","","","","","","","","","","","","","","","","","","","","feedback_test","","","","","","","","","",""
"761","","f","psychophysics","85","673729","0.0-7.0-1.0-1.0-0.0-0.38","3","4","4","3","4","3","3","4","3","4","4","4","5","4","5","5","5","4","4","5","1","1","2","2","2","1","2","4","2","1","0","0","1","0","0","0","0","0","1","1","0","0","0","0","5","1","2","1","2","2","1","2","4","1","633791437602816000","王","394","","","","match","","","","","","","","","","","","","","key","f","16.648355769230804","710.7407909492769","395.92595389514173","f","true","match","img/diamond.png","菱形","菱形","ALT1_2","prac_ALT1_2","","","","","","","","","",""
"null","<span style='color:GreenYellow; font-size: 70px;'>正确! </span>","null","html-keyboard-response","86","674230","0.0-7.0-1.0-1.0-0.0-1.38","3","4","4","3","4","3","3","4","3","4","4","4","5","4","5","5","5","4","4","5","1","1","2","2","2","1","2","4","2","1","0","0","1","0","0","0","0","0","1","1","0","0","0","0","5","1","2","1","2","2","1","2","4","1","633791437602816000","王","394","","","","","","","","","","","","","","","","","","","","","","","","","","","","","","feedback_test","","","","","","","","","",""
"793","","f","psychophysics","87","676037","0.0-7.0-1.0-1.0-0.0-0.39","3","4","4","3","4","3","3","4","3","4","4","4","5","4","5","5","5","4","4","5","1","1","2","2","2","1","2","4","2","1","0","0","1","0","0","0","0","0","1","1","0","0","0","0","5","1","2","1","2","2","1","2","4","1","633791437602816000","王","394","","","","match","","","","","","","","","","","","","","key","f","16.646785046729025","710.7407909492769","395.92595389514173","f","true","match","img/pentagon.png","五边","五边","ALT1_2","prac_ALT1_2","","","","","","","","","",""
"null","<span style='color:GreenYellow; font-size: 70px;'>正确! </span>","null","html-keyboard-response","88","676538","0.0-7.0-1.0-1.0-0.0-1.39","3","4","4","3","4","3","3","4","3","4","4","4","5","4","5","5","5","4","4","5","1","1","2","2","2","1","2","4","2","1","0","0","1","0","0","0","0","0","1","1","0","0","0","0","5","1","2","1","2","2","1","2","4","1","633791437602816000","王","394","","","","","","","","","","","","","","","","","","","","","","","","","","","","","","feedback_test","","","","","","","","","",""
"877","","f","psychophysics","89","678417","0.0-7.0-1.0-1.0-0.0-0.40","3","4","4","3","4","3","3","4","3","4","4","4","5","4","5","5","5","4","4","5","1","1","2","2","2","1","2","4","2","1","0","0","1","0","0","0","0","0","1","1","0","0","0","0","5","1","2","1","2","2","1","2","4","1","633791437602816000","王","394","","","","match","","","","","","","","","","","","","","key","f","16.649625000000274","710.7407909492769","395.92595389514173","f","true","match","img/circle.png","圆形","圆形","ALT1_2","prac_ALT1_2","","","","","","","","","",""
"null","<span style='color:GreenYellow; font-size: 70px;'>正确! </span>","null","html-keyboard-response","90","678918","0.0-7.0-1.0-1.0-0.0-1.40","3","4","4","3","4","3","3","4","3","4","4","4","5","4","5","5","5","4","4","5","1","1","2","2","2","1","2","4","2","1","0","0","1","0","0","0","0","0","1","1","0","0","0","0","5","1","2","1","2","2","1","2","4","1","633791437602816000","王","394","","","","","","","","","","","","","","","","","","","","","","","","","","","","","","feedback_test","","","","","","","","","",""
"760","","f","psychophysics","91","680680","0.0-7.0-1.0-1.0-0.0-0.41","3","4","4","3","4","3","3","4","3","4","4","4","5","4","5","5","5","4","4","5","1","1","2","2","2","1","2","4","2","1","0","0","1","0","0","0","0","0","1","1","0","0","0","0","5","1","2","1","2","2","1","2","4","1","633791437602816000","王","394","","","","match","","","","","","","","","","","","","","key","f","16.649384615385387","710.7407909492769","395.92595389514173","f","true","match","img/diamond.png","菱形","菱形","ALT1_2","prac_ALT1_2","","","","","","","","","",""
"null","<span style='color:GreenYellow; font-size: 70px;'>正确! </span>","null","html-keyboard-response","92","681181","0.0-7.0-1.0-1.0-0.0-1.41","3","4","4","3","4","3","3","4","3","4","4","4","5","4","5","5","5","4","4","5","1","1","2","2","2","1","2","4","2","1","0","0","1","0","0","0","0","0","1","1","0","0","0","0","5","1","2","1","2","2","1","2","4","1","633791437602816000","王","394","","","","","","","","","","","","","","","","","","","","","","","","","","","","","","feedback_test","","","","","","","","","",""
"623","","f","psychophysics","93","682806","0.0-7.0-1.0-1.0-0.0-0.42","3","4","4","3","4","3","3","4","3","4","4","4","5","4","5","5","5","4","4","5","1","1","2","2","2","1","2","4","2","1","0","0","1","0","0","0","0","0","1","1","0","0","0","0","5","1","2","1","2","2","1","2","4","1","633791437602816000","王","394","","","","match","","","","","","","","","","","","","","key","f","16.653927083333354","710.7407909492769","395.92595389514173","f","true","match","img/circle.png","圆形","圆形","ALT1_2","prac_ALT1_2","","","","","","","","","",""
"null","<span style='color:GreenYellow; font-size: 70px;'>正确! </span>","null","html-keyboard-response","94","683307","0.0-7.0-1.0-1.0-0.0-1.42","3","4","4","3","4","3","3","4","3","4","4","4","5","4","5","5","5","4","4","5","1","1","2","2","2","1","2","4","2","1","0","0","1","0","0","0","0","0","1","1","0","0","0","0","5","1","2","1","2","2","1","2","4","1","633791437602816000","王","394","","","","","","","","","","","","","","","","","","","","","","","","","","","","","","feedback_test","","","","","","","","","",""
"739","","f","psychophysics","95","685048","0.0-7.0-1.0-1.0-0.0-0.43","3","4","4","3","4","3","3","4","3","4","4","4","5","4","5","5","5","4","4","5","1","1","2","2","2","1","2","4","2","1","0","0","1","0","0","0","0","0","1","1","0","0","0","0","5","1","2","1","2","2","1","2","4","1","633791437602816000","王","394","","","","match","","","","","","","","","","","","","","key","f","16.65383495145604","710.7407909492769","395.92595389514173","f","true","match","img/pentagon.png","五边","五边","ALT1_2","prac_ALT1_2","","","","","","","","","",""
"null","<span style='color:GreenYellow; font-size: 70px;'>正确! </span>","null","html-keyboard-response","96","685549","0.0-7.0-1.0-1.0-0.0-1.43","3","4","4","3","4","3","3","4","3","4","4","4","5","4","5","5","5","4","4","5","1","1","2","2","2","1","2","4","2","1","0","0","1","0","0","0","0","0","1","1","0","0","0","0","5","1","2","1","2","2","1","2","4","1","633791437602816000","王","394","","","","","","","","","","","","","","","","","","","","","","","","","","","","","","feedback_test","","","","","","","","","",""
"690","","f","psychophysics","97","687242","0.0-7.0-1.0-1.0-0.0-0.44","3","4","4","3","4","3","3","4","3","4","4","4","5","4","5","5","5","4","4","5","1","1","2","2","2","1","2","4","2","1","0","0","1","0","0","0","0","0","1","1","0","0","0","0","5","1","2","1","2","2","1","2","4","1","633791437602816000","王","394","","","","match","","","","","","","","","","","","","","key","f","16.653792079208454","710.7407909492769","395.92595389514173","f","true","match","img/circle.png","圆形","圆形","ALT1_2","prac_ALT1_2","","","","","","","","","",""
"null","<span style='color:GreenYellow; font-size: 70px;'>正确! </span>","null","html-keyboard-response","98","687745","0.0-7.0-1.0-1.0-0.0-1.44","3","4","4","3","4","3","3","4","3","4","4","4","5","4","5","5","5","4","4","5","1","1","2","2","2","1","2","4","2","1","0","0","1","0","0","0","0","0","1","1","0","0","0","0","5","1","2","1","2","2","1","2","4","1","633791437602816000","王","394","","","","","","","","","","","","","","","","","","","","","","","","","","","","","","feedback_test","","","","","","","","","",""
"827","","j","psychophysics","99","689581","0.0-7.0-1.0-1.0-0.0-0.45","3","4","4","3","4","3","3","4","3","4","4","4","5","4","5","5","5","4","4","5","1","1","2","2","2","1","2","4","2","1","0","0","1","0","0","0","0","0","1","1","0","0","0","0","5","1","2","1","2","2","1","2","4","1","633791437602816000","王","394","","","","nonmatch","","","","","","","","","","","","","","key","j","16.648284403670264","710.7407909492769","395.92595389514173","j","true","nonmatch","img/circle.png","菱形","圆形","ALT1_2","prac_ALT1_2","","","","","","","","","",""
"null","<span style='color:GreenYellow; font-size: 70px;'>正确! </span>","null","html-keyboard-response","100","690082","0.0-7.0-1.0-1.0-0.0-1.45","3","4","4","3","4","3","3","4","3","4","4","4","5","4","5","5","5","4","4","5","1","1","2","2","2","1","2","4","2","1","0","0","1","0","0","0","0","0","1","1","0","0","0","0","5","1","2","1","2","2","1","2","4","1","633791437602816000","王","394","","","","","","","","","","","","","","","","","","","","","","","","","","","","","","feedback_test","","","","","","","","","",""
"1079","","f","psychophysics","101","692164","0.0-7.0-1.0-1.0-0.0-0.46","3","4","4","3","4","3","3","4","3","4","4","4","5","4","5","5","5","4","4","5","1","1","2","2","2","1","2","4","2","1","0","0","1","0","0","0","0","0","1","1","0","0","0","0","5","1","2","1","2","2","1","2","4","1","633791437602816000","王","394","","","","match","","","","","","","","","","","","","","key","f","16.653193548387442","710.7407909492769","395.92595389514173","j","false","nonmatch","img/diamond.png","五边","菱形","ALT1_2","prac_ALT1_2","","","","","","","","","",""
"null","<span style='color:red; font-size: 70px;'>错误! </span>","null","html-keyboard-response","102","692666","0.0-7.0-1.0-1.0-0.0-1.46","3","4","4","3","4","3","3","4","3","4","4","4","5","4","5","5","5","4","4","5","1","1","2","2","2","1","2","4","2","1","0","0","1","0","0","0","0","0","1","1","0","0","0","0","5","1","2","1","2","2","1","2","4","1","633791437602816000","王","394","","","","","","","","","","","","","","","","","","","","","","","","","","","","","","feedback_test","","","","","","","","","",""
"878","","j","psychophysics","103","694548","0.0-7.0-1.0-1.0-0.0-0.47","3","4","4","3","4","3","3","4","3","4","4","4","5","4","5","5","5","4","4","5","1","1","2","2","2","1","2","4","2","1","0","0","1","0","0","0","0","0","1","1","0","0","0","0","5","1","2","1","2","2","1","2","4","1","633791437602816000","王","394","","","","nonmatch","","","","","","","","","","","","","","key","j","16.652864864864807","710.7407909492769","395.92595389514173","j","true","nonmatch","img/diamond.png","圆形","菱形","ALT1_2","prac_ALT1_2","","","","","","","","","",""
"null","<span style='color:GreenYellow; font-size: 70px;'>正确! </span>","null","html-keyboard-response","104","695054","0.0-7.0-1.0-1.0-0.0-1.47","3","4","4","3","4","3","3","4","3","4","4","4","5","4","5","5","5","4","4","5","1","1","2","2","2","1","2","4","2","1","0","0","1","0","0","0","0","0","1","1","0","0","0","0","5","1","2","1","2","2","1","2","4","1","633791437602816000","王","394","","","","","","","","","","","","","","","","","","","","","","","","","","","","","","feedback_test","","","","","","","","","",""
"6352","<style>.context{color:white; font-size: 35px; line-height:40px}</style>                          <div><p class='context'>您正确回答了71% 的试次。</p><p class='context'>您的平均反应时为833毫秒。</p><p class='context'>恭喜您完成练习。按空格键进入正式实验。</p><p class='footer' style='font-size: 35px; line-height:40px;'>请在进入正式实验实验之前将您的<span style='color: lightgreen;'>食指</span>放在电脑键盘的相应键位上进行按键。</p>"," ","html-keyboard-response","105","701408","0.0-7.0-1.0-2.0","3","4","4","3","4","3","3","4","3","4","4","4","5","4","5","5","5","4","4","5","1","1","2","2","2","1","2","4","2","1","0","0","1","0","0","0","0","0","1","1","0","0","0","0","5","1","2","1","2","2","1","2","4","1","633791437602816000","王","394","","","","","","","","","","","","","","","","","","","","","","","","","","","","","","","","","","","","","","","",""
"1042","
  <p style='color: white; font-size: 22px'>请您将手指放在按键上，准备进入正式的匹配任务。</p>
  <p> <div style = ""color: green""><按空格键进入下一阶段的匹配任务></div></p>
  "," ","html-keyboard-response","106","702455","0.0-7.0-1.0-3.0","3","4","4","3","4","3","3","4","3","4","4","4","5","4","5","5","5","4","4","5","1","1","2","2","2","1","2","4","2","1","0","0","1","0","0","0","0","0","1","1","0","0","0","0","5","1","2","1","2","2","1","2","4","1","633791437602816000","王","394","","","","","","","","","","","","","","","","","","","","","","","","","","","","","","","","","","","","","","","",""
"1109","","j","psychophysics","107","704566","0.0-7.0-1.0-4.0-0.0-0.0","3","4","4","3","4","3","3","4","3","4","4","4","5","4","5","5","5","4","4","5","1","1","2","2","2","1","2","4","2","1","0","0","1","0","0","0","0","0","1","1","0","0","0","0","5","1","2","1","2","2","1","2","4","1","633791437602816000","王","394","","","","nonmatch","","","","","","","","","","","","","","key","j","16.654031746032175","710.7407909492769","395.92595389514173","j","true","nonmatch","img/diamond.png","圆形","菱形","ALT1","formal_ALT1_2","","","","","","","","","",""
"null","<span style='color:GreenYellow; font-size: 70px;'>正确! </span>","null","html-keyboard-response","108","705067","0.0-7.0-1.0-4.0-0.0-1.0","3","4","4","3","4","3","3","4","3","4","4","4","5","4","5","5","5","4","4","5","1","1","2","2","2","1","2","4","2","1","0","0","1","0","0","0","0","0","1","1","0","0","0","0","5","1","2","1","2","2","1","2","4","1","633791437602816000","王","394","","","","","","","","","","","","","","","","","","","","","","","","","","","","","","feedback_test","","","","","","","","","",""
"1149","","j","psychophysics","109","707218","0.0-7.0-1.0-4.0-0.0-0.1","3","4","4","3","4","3","3","4","3","4","4","4","5","4","5","5","5","4","4","5","1","1","2","2","2","1","2","4","2","1","0","0","1","0","0","0","0","0","1","1","0","0","0","0","5","1","2","1","2","2","1","2","4","1","633791437602816000","王","394","","","","nonmatch","","","","","","","","","","","","","","key","j","16.654015625000284","710.7407909492769","395.92595389514173","j","true","nonmatch","img/pentagon.png","菱形","五边","ALT1","formal_ALT1_2","","","","","","","","","",""
"null","<span style='color:GreenYellow; font-size: 70px;'>正确! </span>","null","html-keyboard-response","110","707719","0.0-7.0-1.0-4.0-0.0-1.1","3","4","4","3","4","3","3","4","3","4","4","4","5","4","5","5","5","4","4","5","1","1","2","2","2","1","2","4","2","1","0","0","1","0","0","0","0","0","1","1","0","0","0","0","5","1","2","1","2","2","1","2","4","1","633791437602816000","王","394","","","","","","","","","","","","","","","","","","","","","","","","","","","","","","feedback_test","","","","","","","","","",""
"814","","j","psychophysics","111","709535","0.0-7.0-1.0-4.0-0.0-0.2","3","4","4","3","4","3","3","4","3","4","4","4","5","4","5","5","5","4","4","5","1","1","2","2","2","1","2","4","2","1","0","0","1","0","0","0","0","0","1","1","0","0","0","0","5","1","2","1","2","2","1","2","4","1","633791437602816000","王","394","","","","nonmatch","","","","","","","","","","","","","","key","j","16.64839252336473","710.7407909492769","395.92595389514173","j","true","nonmatch","img/triangle.png","圆形","三角","ALT1","formal_ALT1_2","","","","","","","","","",""
"null","<span style='color:GreenYellow; font-size: 70px;'>正确! </span>","null","html-keyboard-response","112","710037","0.0-7.0-1.0-4.0-0.0-1.2","3","4","4","3","4","3","3","4","3","4","4","4","5","4","5","5","5","4","4","5","1","1","2","2","2","1","2","4","2","1","0","0","1","0","0","0","0","0","1","1","0","0","0","0","5","1","2","1","2","2","1","2","4","1","633791437602816000","王","394","","","","","","","","","","","","","","","","","","","","","","","","","","","","","","feedback_test","","","","","","","","","",""
"672","","f","psychophysics","113","711711","0.0-7.0-1.0-4.0-0.0-0.3","3","4","4","3","4","3","3","4","3","4","4","4","5","4","5","5","5","4","4","5","1","1","2","2","2","1","2","4","2","1","0","0","1","0","0","0","0","0","1","1","0","0","0","0","5","1","2","1","2","2","1","2","4","1","633791437602816000","王","394","","","","match","","","","","","","","","","","","","","key","f","16.65401010100984","710.7407909492769","395.92595389514173","f","true","match","img/triangle.png","三角","三角","ALT1","formal_ALT1_2","","","","","","","","","",""
"null","<span style='color:GreenYellow; font-size: 70px;'>正确! </span>","null","html-keyboard-response","114","712213","0.0-7.0-1.0-4.0-0.0-1.3","3","4","4","3","4","3","3","4","3","4","4","4","5","4","5","5","5","4","4","5","1","1","2","2","2","1","2","4","2","1","0","0","1","0","0","0","0","0","1","1","0","0","0","0","5","1","2","1","2","2","1","2","4","1","633791437602816000","王","394","","","","","","","","","","","","","","","","","","","","","","","","","","","","","","feedback_test","","","","","","","","","",""
"1100","","f","psychophysics","115","714315","0.0-7.0-1.0-4.0-0.0-0.4","3","4","4","3","4","3","3","4","3","4","4","4","5","4","5","5","5","4","4","5","1","1","2","2","2","1","2","4","2","1","0","0","1","0","0","0","0","0","1","1","0","0","0","0","5","1","2","1","2","2","1","2","4","1","633791437602816000","王","394","","","","match","","","","","","","","","","","","","","key","f","16.653303999999537","710.7407909492769","395.92595389514173","f","true","match","img/diamond.png","菱形","菱形","ALT1","formal_ALT1_2","","","","","","","","","",""
"null","<span style='color:GreenYellow; font-size: 70px;'>正确! </span>","null","html-keyboard-response","116","714817","0.0-7.0-1.0-4.0-0.0-1.4","3","4","4","3","4","3","3","4","3","4","4","4","5","4","5","5","5","4","4","5","1","1","2","2","2","1","2","4","2","1","0","0","1","0","0","0","0","0","1","1","0","0","0","0","5","1","2","1","2","2","1","2","4","1","633791437602816000","王","394","","","","","","","","","","","","","","","","","","","","","","","","","","","","","","feedback_test","","","","","","","","","",""
"654","","j","psychophysics","117","716474","0.0-7.0-1.0-4.0-0.0-0.5","3","4","4","3","4","3","3","4","3","4","4","4","5","4","5","5","5","4","4","5","1","1","2","2","2","1","2","4","2","1","0","0","1","0","0","0","0","0","1","1","0","0","0","0","5","1","2","1","2","2","1","2","4","1","633791437602816000","王","394","","","","nonmatch","","","","","","","","","","","","","","key","j","16.653224489796546","710.7407909492769","395.92595389514173","j","true","nonmatch","img/circle.png","三角","圆形","ALT1","formal_ALT1_2","","","","","","","","","",""
"null","<span style='color:GreenYellow; font-size: 70px;'>正确! </span>","null","html-keyboard-response","118","716975","0.0-7.0-1.0-4.0-0.0-1.5","3","4","4","3","4","3","3","4","3","4","4","4","5","4","5","5","5","4","4","5","1","1","2","2","2","1","2","4","2","1","0","0","1","0","0","0","0","0","1","1","0","0","0","0","5","1","2","1","2","2","1","2","4","1","633791437602816000","王","394","","","","","","","","","","","","","","","","","","","","","","","","","","","","","","feedback_test","","","","","","","","","",""
"767","","f","psychophysics","119","718744","0.0-7.0-1.0-4.0-0.0-0.6","3","4","4","3","4","3","3","4","3","4","4","4","5","4","5","5","5","4","4","5","1","1","2","2","2","1","2","4","2","1","0","0","1","0","0","0","0","0","1","1","0","0","0","0","5","1","2","1","2","2","1","2","4","1","633791437602816000","王","394","","","","match","","","","","","","","","","","","","","key","f","16.654247619047585","710.7407909492769","395.92595389514173","f","true","match","img/circle.png","圆形","圆形","ALT1","formal_ALT1_2","","","","","","","","","",""
"null","<span style='color:GreenYellow; font-size: 70px;'>正确! </span>","null","html-keyboard-response","120","719245","0.0-7.0-1.0-4.0-0.0-1.6","3","4","4","3","4","3","3","4","3","4","4","4","5","4","5","5","5","4","4","5","1","1","2","2","2","1","2","4","2","1","0","0","1","0","0","0","0","0","1","1","0","0","0","0","5","1","2","1","2","2","1","2","4","1","633791437602816000","王","394","","","","","","","","","","","","","","","","","","","","","","","","","","","","","","feedback_test","","","","","","","","","",""
"653","","f","psychophysics","121","720900","0.0-7.0-1.0-4.0-0.0-0.7","3","4","4","3","4","3","3","4","3","4","4","4","5","4","5","5","5","4","4","5","1","1","2","2","2","1","2","4","2","1","0","0","1","0","0","0","0","0","1","1","0","0","0","0","5","1","2","1","2","2","1","2","4","1","633791437602816000","王","394","","","","match","","","","","","","","","","","","","","key","f","16.653336734693898","710.7407909492769","395.92595389514173","f","true","match","img/circle.png","圆形","圆形","ALT1","formal_ALT1_2","","","","","","","","","",""
"null","<span style='color:GreenYellow; font-size: 70px;'>正确! </span>","null","html-keyboard-response","122","721402","0.0-7.0-1.0-4.0-0.0-1.7","3","4","4","3","4","3","3","4","3","4","4","4","5","4","5","5","5","4","4","5","1","1","2","2","2","1","2","4","2","1","0","0","1","0","0","0","0","0","1","1","0","0","0","0","5","1","2","1","2","2","1","2","4","1","633791437602816000","王","394","","","","","","","","","","","","","","","","","","","","","","","","","","","","","","feedback_test","","","","","","","","","",""
"830","","f","psychophysics","123","723233","0.0-7.0-1.0-4.0-0.0-0.8","3","4","4","3","4","3","3","4","3","4","4","4","5","4","5","5","5","4","4","5","1","1","2","2","2","1","2","4","2","1","0","0","1","0","0","0","0","0","1","1","0","0","0","0","5","1","2","1","2","2","1","2","4","1","633791437602816000","王","394","","","","match","","","","","","","","","","","","","","key","f","16.648733944954657","710.7407909492769","395.92595389514173","f","true","match","img/diamond.png","菱形","菱形","ALT1","formal_ALT1_2","","","","","","","","","",""
"null","<span style='color:GreenYellow; font-size: 70px;'>正确! </span>","null","html-keyboard-response","124","723737","0.0-7.0-1.0-4.0-0.0-1.8","3","4","4","3","4","3","3","4","3","4","4","4","5","4","5","5","5","4","4","5","1","1","2","2","2","1","2","4","2","1","0","0","1","0","0","0","0","0","1","1","0","0","0","0","5","1","2","1","2","2","1","2","4","1","633791437602816000","王","394","","","","","","","","","","","","","","","","","","","","","","","","","","","","","","feedback_test","","","","","","","","","",""
"749","","j","psychophysics","125","725487","0.0-7.0-1.0-4.0-0.0-0.9","3","4","4","3","4","3","3","4","3","4","4","4","5","4","5","5","5","4","4","5","1","1","2","2","2","1","2","4","2","1","0","0","1","0","0","0","0","0","1","1","0","0","0","0","5","1","2","1","2","2","1","2","4","1","633791437602816000","王","394","","","","nonmatch","","","","","","","","","","","","","","key","j","16.65357692307757","710.7407909492769","395.92595389514173","j","true","nonmatch","img/circle.png","菱形","圆形","ALT1","formal_ALT1_2","","","","","","","","","",""
"null","<span style='color:GreenYellow; font-size: 70px;'>正确! </span>","null","html-keyboard-response","126","725988","0.0-7.0-1.0-4.0-0.0-1.9","3","4","4","3","4","3","3","4","3","4","4","4","5","4","5","5","5","4","4","5","1","1","2","2","2","1","2","4","2","1","0","0","1","0","0","0","0","0","1","1","0","0","0","0","5","1","2","1","2","2","1","2","4","1","633791437602816000","王","394","","","","","","","","","","","","","","","","","","","","","","","","","","","","","","feedback_test","","","","","","","","","",""
"841","","j","psychophysics","127","727830","0.0-7.0-1.0-4.0-0.0-0.10","3","4","4","3","4","3","3","4","3","4","4","4","5","4","5","5","5","4","4","5","1","1","2","2","2","1","2","4","2","1","0","0","1","0","0","0","0","0","1","1","0","0","0","0","5","1","2","1","2","2","1","2","4","1","633791437602816000","王","394","","","","nonmatch","","","","","","","","","","","","","","key","j","16.65224770642176","710.7407909492769","395.92595389514173","j","true","nonmatch","img/diamond.png","三角","菱形","ALT1","formal_ALT1_2","","","","","","","","","",""
"null","<span style='color:GreenYellow; font-size: 70px;'>正确! </span>","null","html-keyboard-response","128","728331","0.0-7.0-1.0-4.0-0.0-1.10","3","4","4","3","4","3","3","4","3","4","4","4","5","4","5","5","5","4","4","5","1","1","2","2","2","1","2","4","2","1","0","0","1","0","0","0","0","0","1","1","0","0","0","0","5","1","2","1","2","2","1","2","4","1","633791437602816000","王","394","","","","","","","","","","","","","","","","","","","","","","","","","","","","","","feedback_test","","","","","","","","","",""
"755","","j","psychophysics","129","730088","0.0-7.0-1.0-4.0-0.0-0.11","3","4","4","3","4","3","3","4","3","4","4","4","5","4","5","5","5","4","4","5","1","1","2","2","2","1","2","4","2","1","0","0","1","0","0","0","0","0","1","1","0","0","0","0","5","1","2","1","2","2","1","2","4","1","633791437602816000","王","394","","","","nonmatch","","","","","","","","","","","","","","key","j","16.653485714286077","710.7407909492769","395.92595389514173","j","true","nonmatch","img/triangle.png","五边","三角","ALT1","formal_ALT1_2","","","","","","","","","",""
"null","<span style='color:GreenYellow; font-size: 70px;'>正确! </span>","null","html-keyboard-response","130","730591","0.0-7.0-1.0-4.0-0.0-1.11","3","4","4","3","4","3","3","4","3","4","4","4","5","4","5","5","5","4","4","5","1","1","2","2","2","1","2","4","2","1","0","0","1","0","0","0","0","0","1","1","0","0","0","0","5","1","2","1","2","2","1","2","4","1","633791437602816000","王","394","","","","","","","","","","","","","","","","","","","","","","","","","","","","","","feedback_test","","","","","","","","","",""
"632","","j","psychophysics","131","732225","0.0-7.0-1.0-4.0-0.0-0.12","3","4","4","3","4","3","3","4","3","4","4","4","5","4","5","5","5","4","4","5","1","1","2","2","2","1","2","4","2","1","0","0","1","0","0","0","0","0","1","1","0","0","0","0","5","1","2","1","2","2","1","2","4","1","633791437602816000","王","394","","","","nonmatch","","","","","","","","","","","","","","key","j","16.652360824742065","710.7407909492769","395.92595389514173","j","true","nonmatch","img/circle.png","五边","圆形","ALT1","formal_ALT1_2","","","","","","","","","",""
"null","<span style='color:GreenYellow; font-size: 70px;'>正确! </span>","null","html-keyboard-response","132","732726","0.0-7.0-1.0-4.0-0.0-1.12","3","4","4","3","4","3","3","4","3","4","4","4","5","4","5","5","5","4","4","5","1","1","2","2","2","1","2","4","2","1","0","0","1","0","0","0","0","0","1","1","0","0","0","0","5","1","2","1","2","2","1","2","4","1","633791437602816000","王","394","","","","","","","","","","","","","","","","","","","","","","","","","","","","","","feedback_test","","","","","","","","","",""
"906","","j","psychophysics","133","734634","0.0-7.0-1.0-4.0-0.0-0.13","3","4","4","3","4","3","3","4","3","4","4","4","5","4","5","5","5","4","4","5","1","1","2","2","2","1","2","4","2","1","0","0","1","0","0","0","0","0","1","1","0","0","0","0","5","1","2","1","2","2","1","2","4","1","633791437602816000","王","394","","","","nonmatch","","","","","","","","","","","","","","key","j","16.654265486724896","710.7407909492769","395.92595389514173","j","true","nonmatch","img/pentagon.png","三角","五边","ALT1","formal_ALT1_2","","","","","","","","","",""
"null","<span style='color:GreenYellow; font-size: 70px;'>正确! </span>","null","html-keyboard-response","134","735135","0.0-7.0-1.0-4.0-0.0-1.13","3","4","4","3","4","3","3","4","3","4","4","4","5","4","5","5","5","4","4","5","1","1","2","2","2","1","2","4","2","1","0","0","1","0","0","0","0","0","1","1","0","0","0","0","5","1","2","1","2","2","1","2","4","1","633791437602816000","王","394","","","","","","","","","","","","","","","","","","","","","","","","","","","","","","feedback_test","","","","","","","","","",""
"801","","j","psychophysics","135","736938","0.0-7.0-1.0-4.0-0.0-0.14","3","4","4","3","4","3","3","4","3","4","4","4","5","4","5","5","5","4","4","5","1","1","2","2","2","1","2","4","2","1","0","0","1","0","0","0","0","0","1","1","0","0","0","0","5","1","2","1","2","2","1","2","4","1","633791437602816000","王","394","","","","nonmatch","","","","","","","","","","","","","","key","j","16.653738317756574","710.7407909492769","395.92595389514173","j","true","nonmatch","img/triangle.png","菱形","三角","ALT1","formal_ALT1_2","","","","","","","","","",""
"null","<span style='color:GreenYellow; font-size: 70px;'>正确! </span>","null","html-keyboard-response","136","737438","0.0-7.0-1.0-4.0-0.0-1.14","3","4","4","3","4","3","3","4","3","4","4","4","5","4","5","5","5","4","4","5","1","1","2","2","2","1","2","4","2","1","0","0","1","0","0","0","0","0","1","1","0","0","0","0","5","1","2","1","2","2","1","2","4","1","633791437602816000","王","394","","","","","","","","","","","","","","","","","","","","","","","","","","","","","","feedback_test","","","","","","","","","",""
"677","","j","psychophysics","137","739117","0.0-7.0-1.0-4.0-0.0-0.15","3","4","4","3","4","3","3","4","3","4","4","4","5","4","5","5","5","4","4","5","1","1","2","2","2","1","2","4","2","1","0","0","1","0","0","0","0","0","1","1","0","0","0","0","5","1","2","1","2","2","1","2","4","1","633791437602816000","王","394","","","","nonmatch","","","","","","","","","","","","","","key","j","16.653240000000224","710.7407909492769","395.92595389514173","j","true","nonmatch","img/diamond.png","五边","菱形","ALT1","formal_ALT1_2","","","","","","","","","",""
"null","<span style='color:GreenYellow; font-size: 70px;'>正确! </span>","null","html-keyboard-response","138","739619","0.0-7.0-1.0-4.0-0.0-1.15","3","4","4","3","4","3","3","4","3","4","4","4","5","4","5","5","5","4","4","5","1","1","2","2","2","1","2","4","2","1","0","0","1","0","0","0","0","0","1","1","0","0","0","0","5","1","2","1","2","2","1","2","4","1","633791437602816000","王","394","","","","","","","","","","","","","","","","","","","","","","","","","","","","","","feedback_test","","","","","","","","","",""
"646","","f","psychophysics","139","741267","0.0-7.0-1.0-4.0-0.0-0.16","3","4","4","3","4","3","3","4","3","4","4","4","5","4","5","5","5","4","4","5","1","1","2","2","2","1","2","4","2","1","0","0","1","0","0","0","0","0","1","1","0","0","0","0","5","1","2","1","2","2","1","2","4","1","633791437602816000","王","394","","","","match","","","","","","","","","","","","","","key","f","16.649602040815957","710.7407909492769","395.92595389514173","f","true","match","img/circle.png","圆形","圆形","ALT1","formal_ALT1_2","","","","","","","","","",""
"null","<span style='color:GreenYellow; font-size: 70px;'>正确! </span>","null","html-keyboard-response","140","741768","0.0-7.0-1.0-4.0-0.0-1.16","3","4","4","3","4","3","3","4","3","4","4","4","5","4","5","5","5","4","4","5","1","1","2","2","2","1","2","4","2","1","0","0","1","0","0","0","0","0","1","1","0","0","0","0","5","1","2","1","2","2","1","2","4","1","633791437602816000","王","394","","","","","","","","","","","","","","","","","","","","","","","","","","","","","","feedback_test","","","","","","","","","",""
"698","","j","psychophysics","141","743468","0.0-7.0-1.0-4.0-0.0-0.17","3","4","4","3","4","3","3","4","3","4","4","4","5","4","5","5","5","4","4","5","1","1","2","2","2","1","2","4","2","1","0","0","1","0","0","0","0","0","1","1","0","0","0","0","5","1","2","1","2","2","1","2","4","1","633791437602816000","王","394","","","","nonmatch","","","","","","","","","","","","","","key","j","16.650415841584547","710.7407909492769","395.92595389514173","j","true","nonmatch","img/pentagon.png","圆形","五边","ALT1","formal_ALT1_2","","","","","","","","","",""
"null","<span style='color:GreenYellow; font-size: 70px;'>正确! </span>","null","html-keyboard-response","142","743969","0.0-7.0-1.0-4.0-0.0-1.17","3","4","4","3","4","3","3","4","3","4","4","4","5","4","5","5","5","4","4","5","1","1","2","2","2","1","2","4","2","1","0","0","1","0","0","0","0","0","1","1","0","0","0","0","5","1","2","1","2","2","1","2","4","1","633791437602816000","王","394","","","","","","","","","","","","","","","","","","","","","","","","","","","","","","feedback_test","","","","","","","","","",""
"766","","f","psychophysics","143","745736","0.0-7.0-1.0-4.0-0.0-0.18","3","4","4","3","4","3","3","4","3","4","4","4","5","4","5","5","5","4","4","5","1","1","2","2","2","1","2","4","2","1","0","0","1","0","0","0","0","0","1","1","0","0","0","0","5","1","2","1","2","2","1","2","4","1","633791437602816000","王","394","","","","match","","","","","","","","","","","","","","key","f","16.65342857142844","710.7407909492769","395.92595389514173","f","true","match","img/pentagon.png","五边","五边","ALT1","formal_ALT1_2","","","","","","","","","",""
"null","<span style='color:GreenYellow; font-size: 70px;'>正确! </span>","null","html-keyboard-response","144","746238","0.0-7.0-1.0-4.0-0.0-1.18","3","4","4","3","4","3","3","4","3","4","4","4","5","4","5","5","5","4","4","5","1","1","2","2","2","1","2","4","2","1","0","0","1","0","0","0","0","0","1","1","0","0","0","0","5","1","2","1","2","2","1","2","4","1","633791437602816000","王","394","","","","","","","","","","","","","","","","","","","","","","","","","","","","","","feedback_test","","","","","","","","","",""
"720","","f","psychophysics","145","747961","0.0-7.0-1.0-4.0-0.0-0.19","3","4","4","3","4","3","3","4","3","4","4","4","5","4","5","5","5","4","4","5","1","1","2","2","2","1","2","4","2","1","0","0","1","0","0","0","0","0","1","1","0","0","0","0","5","1","2","1","2","2","1","2","4","1","633791437602816000","王","394","","","","match","","","","","","","","","","","","","","key","f","16.65303921568614","710.7407909492769","395.92595389514173","f","true","match","img/triangle.png","三角","三角","ALT1","formal_ALT1_2","","","","","","","","","",""
"null","<span style='color:GreenYellow; font-size: 70px;'>正确! </span>","null","html-keyboard-response","146","748463","0.0-7.0-1.0-4.0-0.0-1.19","3","4","4","3","4","3","3","4","3","4","4","4","5","4","5","5","5","4","4","5","1","1","2","2","2","1","2","4","2","1","0","0","1","0","0","0","0","0","1","1","0","0","0","0","5","1","2","1","2","2","1","2","4","1","633791437602816000","王","394","","","","","","","","","","","","","","","","","","","","","","","","","","","","","","feedback_test","","","","","","","","","",""
"765","","f","psychophysics","147","750229","0.0-7.0-1.0-4.0-0.0-0.20","3","4","4","3","4","3","3","4","3","4","4","4","5","4","5","5","5","4","4","5","1","1","2","2","2","1","2","4","2","1","0","0","1","0","0","0","0","0","1","1","0","0","0","0","5","1","2","1","2","2","1","2","4","1","633791437602816000","王","394","","","","match","","","","","","","","","","","","","","key","f","16.649038095238975","710.7407909492769","395.92595389514173","f","true","match","img/pentagon.png","五边","五边","ALT1","formal_ALT1_2","","","","","","","","","",""
"null","<span style='color:GreenYellow; font-size: 70px;'>正确! </span>","null","html-keyboard-response","148","750730","0.0-7.0-1.0-4.0-0.0-1.20","3","4","4","3","4","3","3","4","3","4","4","4","5","4","5","5","5","4","4","5","1","1","2","2","2","1","2","4","2","1","0","0","1","0","0","0","0","0","1","1","0","0","0","0","5","1","2","1","2","2","1","2","4","1","633791437602816000","王","394","","","","","","","","","","","","","","","","","","","","","","","","","","","","","","feedback_test","","","","","","","","","",""
"743","","f","psychophysics","149","752475","0.0-7.0-1.0-4.0-0.0-0.21","3","4","4","3","4","3","3","4","3","4","4","4","5","4","5","5","5","4","4","5","1","1","2","2","2","1","2","4","2","1","0","0","1","0","0","0","0","0","1","1","0","0","0","0","5","1","2","1","2","2","1","2","4","1","633791437602816000","王","394","","","","match","","","","","","","","","","","","","","key","f","16.653490384615278","710.7407909492769","395.92595389514173","f","true","match","img/pentagon.png","五边","五边","ALT1","formal_ALT1_2","","","","","","","","","",""
"null","<span style='color:GreenYellow; font-size: 70px;'>正确! </span>","null","html-keyboard-response","150","752977","0.0-7.0-1.0-4.0-0.0-1.21","3","4","4","3","4","3","3","4","3","4","4","4","5","4","5","5","5","4","4","5","1","1","2","2","2","1","2","4","2","1","0","0","1","0","0","0","0","0","1","1","0","0","0","0","5","1","2","1","2","2","1","2","4","1","633791437602816000","王","394","","","","","","","","","","","","","","","","","","","","","","","","","","","","","","feedback_test","","","","","","","","","",""
"699","","f","psychophysics","151","754677","0.0-7.0-1.0-4.0-0.0-0.22","3","4","4","3","4","3","3","4","3","4","4","4","5","4","5","5","5","4","4","5","1","1","2","2","2","1","2","4","2","1","0","0","1","0","0","0","0","0","1","1","0","0","0","0","5","1","2","1","2","2","1","2","4","1","633791437602816000","王","394","","","","match","","","","","","","","","","","","","","key","f","16.654326732673837","710.7407909492769","395.92595389514173","f","true","match","img/diamond.png","菱形","菱形","ALT1","formal_ALT1_2","","","","","","","","","",""
"null","<span style='color:GreenYellow; font-size: 70px;'>正确! </span>","null","html-keyboard-response","152","755179","0.0-7.0-1.0-4.0-0.0-1.22","3","4","4","3","4","3","3","4","3","4","4","4","5","4","5","5","5","4","4","5","1","1","2","2","2","1","2","4","2","1","0","0","1","0","0","0","0","0","1","1","0","0","0","0","5","1","2","1","2","2","1","2","4","1","633791437602816000","王","394","","","","","","","","","","","","","","","","","","","","","","","","","","","","","","feedback_test","","","","","","","","","",""
"673","","f","psychophysics","153","756854","0.0-7.0-1.0-4.0-0.0-0.23","3","4","4","3","4","3","3","4","3","4","4","4","5","4","5","5","5","4","4","5","1","1","2","2","2","1","2","4","2","1","0","0","1","0","0","0","0","0","1","1","0","0","0","0","5","1","2","1","2","2","1","2","4","1","633791437602816000","王","394","","","","match","","","","","","","","","","","","","","key","f","16.654269999999087","710.7407909492769","395.92595389514173","f","true","match","img/triangle.png","三角","三角","ALT1","formal_ALT1_2","","","","","","","","","",""
"null","<span style='color:GreenYellow; font-size: 70px;'>正确! </span>","null","html-keyboard-response","154","757355","0.0-7.0-1.0-4.0-0.0-1.23","3","4","4","3","4","3","3","4","3","4","4","4","5","4","5","5","5","4","4","5","1","1","2","2","2","1","2","4","2","1","0","0","1","0","0","0","0","0","1","1","0","0","0","0","5","1","2","1","2","2","1","2","4","1","633791437602816000","王","394","","","","","","","","","","","","","","","","","","","","","","","","","","","","","","feedback_test","","","","","","","","","",""
"660","","f","psychophysics","155","759018","0.0-7.0-1.0-4.0-0.0-0.24","3","4","4","3","4","3","3","4","3","4","4","4","5","4","5","5","5","4","4","5","1","1","2","2","2","1","2","4","2","1","0","0","1","0","0","0","0","0","1","1","0","0","0","0","5","1","2","1","2","2","1","2","4","1","633791437602816000","王","394","","","","match","","","","","","","","","","","","","","key","f","16.647222222221753","710.7407909492769","395.92595389514173","f","true","match","img/triangle.png","三角","三角","ALT1","formal_ALT1_2","","","","","","","","","",""
"null","<span style='color:GreenYellow; font-size: 70px;'>正确! </span>","null","html-keyboard-response","156","759519","0.0-7.0-1.0-4.0-0.0-1.24","3","4","4","3","4","3","3","4","3","4","4","4","5","4","5","5","5","4","4","5","1","1","2","2","2","1","2","4","2","1","0","0","1","0","0","0","0","0","1","1","0","0","0","0","5","1","2","1","2","2","1","2","4","1","633791437602816000","王","394","","","","","","","","","","","","","","","","","","","","","","","","","","","","","","feedback_test","","","","","","","","","",""
"832","","f","psychophysics","157","761352","0.0-7.0-1.0-4.0-0.0-0.25","3","4","4","3","4","3","3","4","3","4","4","4","5","4","5","5","5","4","4","5","1","1","2","2","2","1","2","4","2","1","0","0","1","0","0","0","0","0","1","1","0","0","0","0","5","1","2","1","2","2","1","2","4","1","633791437602816000","王","394","","","","match","","","","","","","","","","","","","","key","f","16.65369724770666","710.7407909492769","395.92595389514173","f","true","match","img/diamond.png","菱形","菱形","ALT1","formal_ALT1_2","","","","","","","","","",""
"null","<span style='color:GreenYellow; font-size: 70px;'>正确! </span>","null","html-keyboard-response","158","761854","0.0-7.0-1.0-4.0-0.0-1.25","3","4","4","3","4","3","3","4","3","4","4","4","5","4","5","5","5","4","4","5","1","1","2","2","2","1","2","4","2","1","0","0","1","0","0","0","0","0","1","1","0","0","0","0","5","1","2","1","2","2","1","2","4","1","633791437602816000","王","394","","","","","","","","","","","","","","","","","","","","","","","","","","","","","","feedback_test","","","","","","","","","",""
"635","","f","psychophysics","159","763491","0.0-7.0-1.0-4.0-0.0-0.26","3","4","4","3","4","3","3","4","3","4","4","4","5","4","5","5","5","4","4","5","1","1","2","2","2","1","2","4","2","1","0","0","1","0","0","0","0","0","1","1","0","0","0","0","5","1","2","1","2","2","1","2","4","1","633791437602816000","王","394","","","","match","","","","","","","","","","","","","","key","f","16.654185567010366","710.7407909492769","395.92595389514173","f","true","match","img/circle.png","圆形","圆形","ALT1","formal_ALT1_2","","","","","","","","","",""
"null","<span style='color:GreenYellow; font-size: 70px;'>正确! </span>","null","html-keyboard-response","160","763992","0.0-7.0-1.0-4.0-0.0-1.26","3","4","4","3","4","3","3","4","3","4","4","4","5","4","5","5","5","4","4","5","1","1","2","2","2","1","2","4","2","1","0","0","1","0","0","0","0","0","1","1","0","0","0","0","5","1","2","1","2","2","1","2","4","1","633791437602816000","王","394","","","","","","","","","","","","","","","","","","","","","","","","","","","","","","feedback_test","","","","","","","","","",""
"686","","j","psychophysics","161","765680","0.0-7.0-1.0-4.0-0.0-0.27","3","4","4","3","4","3","3","4","3","4","4","4","5","4","5","5","5","4","4","5","1","1","2","2","2","1","2","4","2","1","0","0","1","0","0","0","0","0","1","1","0","0","0","0","5","1","2","1","2","2","1","2","4","1","633791437602816000","王","394","","","","nonmatch","","","","","","","","","","","","","","key","j","16.652989999999992","710.7407909492769","395.92595389514173","j","true","nonmatch","img/pentagon.png","圆形","五边","ALT1","formal_ALT1_2","","","","","","","","","",""
"null","<span style='color:GreenYellow; font-size: 70px;'>正确! </span>","null","html-keyboard-response","162","766181","0.0-7.0-1.0-4.0-0.0-1.27","3","4","4","3","4","3","3","4","3","4","4","4","5","4","5","5","5","4","4","5","1","1","2","2","2","1","2","4","2","1","0","0","1","0","0","0","0","0","1","1","0","0","0","0","5","1","2","1","2","2","1","2","4","1","633791437602816000","王","394","","","","","","","","","","","","","","","","","","","","","","","","","","","","","","feedback_test","","","","","","","","","",""
"635","","f","psychophysics","163","767819","0.0-7.0-1.0-4.0-0.0-0.28","3","4","4","3","4","3","3","4","3","4","4","4","5","4","5","5","5","4","4","5","1","1","2","2","2","1","2","4","2","1","0","0","1","0","0","0","0","0","1","1","0","0","0","0","5","1","2","1","2","2","1","2","4","1","633791437602816000","王","394","","","","match","","","","","","","","","","","","","","key","f","16.647670103093013","710.7407909492769","395.92595389514173","f","true","match","img/circle.png","圆形","圆形","ALT1","formal_ALT1_2","","","","","","","","","",""
"null","<span style='color:GreenYellow; font-size: 70px;'>正确! </span>","null","html-keyboard-response","164","768320","0.0-7.0-1.0-4.0-0.0-1.28","3","4","4","3","4","3","3","4","3","4","4","4","5","4","5","5","5","4","4","5","1","1","2","2","2","1","2","4","2","1","0","0","1","0","0","0","0","0","1","1","0","0","0","0","5","1","2","1","2","2","1","2","4","1","633791437602816000","王","394","","","","","","","","","","","","","","","","","","","","","","","","","","","","","","feedback_test","","","","","","","","","",""
"868","","j","psychophysics","165","770190","0.0-7.0-1.0-4.0-0.0-0.29","3","4","4","3","4","3","3","4","3","4","4","4","5","4","5","5","5","4","4","5","1","1","2","2","2","1","2","4","2","1","0","0","1","0","0","0","0","0","1","1","0","0","0","0","5","1","2","1","2","2","1","2","4","1","633791437602816000","王","394","","","","nonmatch","","","","","","","","","","","","","","key","j","16.65378378378437","710.7407909492769","395.92595389514173","j","true","nonmatch","img/circle.png","五边","圆形","ALT1","formal_ALT1_2","","","","","","","","","",""
"null","<span style='color:GreenYellow; font-size: 70px;'>正确! </span>","null","html-keyboard-response","166","770694","0.0-7.0-1.0-4.0-0.0-1.29","3","4","4","3","4","3","3","4","3","4","4","4","5","4","5","5","5","4","4","5","1","1","2","2","2","1","2","4","2","1","0","0","1","0","0","0","0","0","1","1","0","0","0","0","5","1","2","1","2","2","1","2","4","1","633791437602816000","王","394","","","","","","","","","","","","","","","","","","","","","","","","","","","","","","feedback_test","","","","","","","","","",""
"843","","j","psychophysics","167","772539","0.0-7.0-1.0-4.0-0.0-0.30","3","4","4","3","4","3","3","4","3","4","4","4","5","4","5","5","5","4","4","5","1","1","2","2","2","1","2","4","2","1","0","0","1","0","0","0","0","0","1","1","0","0","0","0","5","1","2","1","2","2","1","2","4","1","633791437602816000","王","394","","","","nonmatch","","","","","","","","","","","","","","key","j","16.6489181818176","710.7407909492769","395.92595389514173","j","true","nonmatch","img/pentagon.png","菱形","五边","ALT1","formal_ALT1_2","","","","","","","","","",""
"null","<span style='color:GreenYellow; font-size: 70px;'>正确! </span>","null","html-keyboard-response","168","773042","0.0-7.0-1.0-4.0-0.0-1.30","3","4","4","3","4","3","3","4","3","4","4","4","5","4","5","5","5","4","4","5","1","1","2","2","2","1","2","4","2","1","0","0","1","0","0","0","0","0","1","1","0","0","0","0","5","1","2","1","2","2","1","2","4","1","633791437602816000","王","394","","","","","","","","","","","","","","","","","","","","","","","","","","","","","","feedback_test","","","","","","","","","",""
"929","","j","psychophysics","169","774973","0.0-7.0-1.0-4.0-0.0-0.31","3","4","4","3","4","3","3","4","3","4","4","4","5","4","5","5","5","4","4","5","1","1","2","2","2","1","2","4","2","1","0","0","1","0","0","0","0","0","1","1","0","0","0","0","5","1","2","1","2","2","1","2","4","1","633791437602816000","王","394","","","","nonmatch","","","","","","","","","","","","","","key","j","16.65416666666728","710.7407909492769","395.92595389514173","j","true","nonmatch","img/diamond.png","五边","菱形","ALT1","formal_ALT1_2","","","","","","","","","",""
"null","<span style='color:GreenYellow; font-size: 70px;'>正确! </span>","null","html-keyboard-response","170","775473","0.0-7.0-1.0-4.0-0.0-1.31","3","4","4","3","4","3","3","4","3","4","4","4","5","4","5","5","5","4","4","5","1","1","2","2","2","1","2","4","2","1","0","0","1","0","0","0","0","0","1","1","0","0","0","0","5","1","2","1","2","2","1","2","4","1","633791437602816000","王","394","","","","","","","","","","","","","","","","","","","","","","","","","","","","","","feedback_test","","","","","","","","","",""
"729","","j","psychophysics","171","777205","0.0-7.0-1.0-4.0-0.0-0.32","3","4","4","3","4","3","3","4","3","4","4","4","5","4","5","5","5","4","4","5","1","1","2","2","2","1","2","4","2","1","0","0","1","0","0","0","0","0","1","1","0","0","0","0","5","1","2","1","2","2","1","2","4","1","633791437602816000","王","394","","","","nonmatch","","","","","","","","","","","","","","key","j","16.64838834951442","710.7407909492769","395.92595389514173","j","true","nonmatch","img/diamond.png","圆形","菱形","ALT1","formal_ALT1_2","","","","","","","","","",""
"null","<span style='color:GreenYellow; font-size: 70px;'>正确! </span>","null","html-keyboard-response","172","777720","0.0-7.0-1.0-4.0-0.0-1.32","3","4","4","3","4","3","3","4","3","4","4","4","5","4","5","5","5","4","4","5","1","1","2","2","2","1","2","4","2","1","0","0","1","0","0","0","0","0","1","1","0","0","0","0","5","1","2","1","2","2","1","2","4","1","633791437602816000","王","394","","","","","","","","","","","","","","","","","","","","","","","","","","","","","","feedback_test","","","","","","","","","",""
"679","","j","psychophysics","173","779400","0.0-7.0-1.0-4.0-0.0-0.33","3","4","4","3","4","3","3","4","3","4","4","4","5","4","5","5","5","4","4","5","1","1","2","2","2","1","2","4","2","1","0","0","1","0","0","0","0","0","1","1","0","0","0","0","5","1","2","1","2","2","1","2","4","1","633791437602816000","王","394","","","","nonmatch","","","","","","","","","","","","","","key","j","16.653220000000438","710.7407909492769","395.92595389514173","j","true","nonmatch","img/pentagon.png","三角","五边","ALT1","formal_ALT1_2","","","","","","","","","",""
"null","<span style='color:GreenYellow; font-size: 70px;'>正确! </span>","null","html-keyboard-response","174","779903","0.0-7.0-1.0-4.0-0.0-1.33","3","4","4","3","4","3","3","4","3","4","4","4","5","4","5","5","5","4","4","5","1","1","2","2","2","1","2","4","2","1","0","0","1","0","0","0","0","0","1","1","0","0","0","0","5","1","2","1","2","2","1","2","4","1","633791437602816000","王","394","","","","","","","","","","","","","","","","","","","","","","","","","","","","","","feedback_test","","","","","","","","","",""
"649","","j","psychophysics","175","781554","0.0-7.0-1.0-4.0-0.0-0.34","3","4","4","3","4","3","3","4","3","4","4","4","5","4","5","5","5","4","4","5","1","1","2","2","2","1","2","4","2","1","0","0","1","0","0","0","0","0","1","1","0","0","0","0","5","1","2","1","2","2","1","2","4","1","633791437602816000","王","394","","","","nonmatch","","","","","","","","","","","","","","key","j","16.653319587628598","710.7407909492769","395.92595389514173","j","true","nonmatch","img/circle.png","三角","圆形","ALT1","formal_ALT1_2","","","","","","","","","",""
"null","<span style='color:GreenYellow; font-size: 70px;'>正确! </span>","null","html-keyboard-response","176","782055","0.0-7.0-1.0-4.0-0.0-1.34","3","4","4","3","4","3","3","4","3","4","4","4","5","4","5","5","5","4","4","5","1","1","2","2","2","1","2","4","2","1","0","0","1","0","0","0","0","0","1","1","0","0","0","0","5","1","2","1","2","2","1","2","4","1","633791437602816000","王","394","","","","","","","","","","","","","","","","","","","","","","","","","","","","","","feedback_test","","","","","","","","","",""
"737","","j","psychophysics","177","783795","0.0-7.0-1.0-4.0-0.0-0.35","3","4","4","3","4","3","3","4","3","4","4","4","5","4","5","5","5","4","4","5","1","1","2","2","2","1","2","4","2","1","0","0","1","0","0","0","0","0","1","1","0","0","0","0","5","1","2","1","2","2","1","2","4","1","633791437602816000","王","394","","","","nonmatch","","","","","","","","","","","","","","key","j","16.652576923077085","710.7407909492769","395.92595389514173","j","true","nonmatch","img/circle.png","菱形","圆形","ALT1","formal_ALT1_2","","","","","","","","","",""
"null","<span style='color:GreenYellow; font-size: 70px;'>正确! </span>","null","html-keyboard-response","178","784297","0.0-7.0-1.0-4.0-0.0-1.35","3","4","4","3","4","3","3","4","3","4","4","4","5","4","5","5","5","4","4","5","1","1","2","2","2","1","2","4","2","1","0","0","1","0","0","0","0","0","1","1","0","0","0","0","5","1","2","1","2","2","1","2","4","1","633791437602816000","王","394","","","","","","","","","","","","","","","","","","","","","","","","","","","","","","feedback_test","","","","","","","","","",""
"667","","f","psychophysics","179","785966","0.0-7.0-1.0-4.0-0.0-0.36","3","4","4","3","4","3","3","4","3","4","4","4","5","4","5","5","5","4","4","5","1","1","2","2","2","1","2","4","2","1","0","0","1","0","0","0","0","0","1","1","0","0","0","0","5","1","2","1","2","2","1","2","4","1","633791437602816000","王","394","","","","match","","","","","","","","","","","","","","key","f","16.65340404040439","710.7407909492769","395.92595389514173","f","true","match","img/circle.png","圆形","圆形","ALT1","formal_ALT1_2","","","","","","","","","",""
