"rt","stimulus","response","trial_type","trial_index","time_elapsed","internal_node_id","ses_1","ses_2","ses_3","ses_4","ses_5","ses_6","ses_7","ses_8","ses_9","ses_10","coreself_1","coreself_2","coreself_3","coreself_4","coreself_5","coreself_6","coreself_7","coreself_8","coreself_9","coreself_10","SGPS_1","SGPS_2","SGPS_3","SGPS_4","SGPS_5","SGPS_6","SGPS_7","SGPS_8","SGPS_9","NPI1","NPI2","NPI3","NPI4","NPI5","NPI6","NPI7","NPI8","NPI9","NPI10","NPI11","NPI12","NPI13","NPI14","NPI15","hsns_1","hsns_2","hsns_3","hsns_4","hsns_5","hsns_6","hsns_7","hsns_8","hsns_9","hsns_10","subj_idx","friend_name","ParticipantID","value","success","user_agent","responses","item_order","radio_event_ids","radio_event_times","key_event_times","mouse_event_times","straightlining","zigzagging","honeypot","timeout","failed_images","failed_audio","failed_video","version_attrib","version_target","correct","IAT","screen_id","task_id","RT","condition","word","varname","summary","version_attrib2","version_target2","time_stamp","view_history","response_type","key_press","avg_frame_time","center_x","center_y","correct_response","identity","Image","question_order"
"1675","
   <p><div style = ""color: white;font-size:25px;"">您好，欢迎参加本次实验。</div> </p>
   <p><div style = ""color: white;font-size:25px;"">为充分保障您的权利，请确保您已经知晓并同意《参与实验同意书》以及《数据公开知情同意书》。</div></p>
   <p><div style = ""color: white;font-size:25px;"">如果您未见过上述内容，请咨询实验员。</div></p>
   <p><div style = ""color: white;font-size:25px;"">如果您选择继续实验，则表示您已经清楚两份知情同意书的内容并同意。</div></p>
   <p> <div style = ""color: green;font-size:25px;""><按空格键至下页></div> </p>
   "," ","html-keyboard-response","0","1680","0.0-0.0","4","3","4","3","3","3","3","3","4","4","5","4","2","4","3","4","4","3","4","4","2","2","3","4","2","2","2","2","2","1","0","1","0","1","1","0","0","0","0","0","0","0","0","1","4","2","3","1","2","2","4","2","1","2","729263916630413313","王","693","","","","","","","","","","","","","","","","","","","","","","","","","","","","","","","","","","","","","","","",""
"","","","call-function","1","1680","0.0-1.0-0.0","4","3","4","3","3","3","3","3","4","4","5","4","2","4","3","4","4","3","4","4","2","2","3","4","2","2","2","2","2","1","0","1","0","1","1","0","0","0","0","0","0","0","0","1","4","2","3","1","2","2","4","2","1","2","729263916630413313","王","693","","","","","","","","","","","","","","","","","","","","","","","","","","","","","","","","","","","","","","","",""
"31244","","{""friend_name"":""王"",""ParticipantID"":""693""}","survey-html-form","2","32924","0.0-1.0-1.0","4","3","4","3","3","3","3","3","4","4","5","4","2","4","3","4","4","3","4","4","2","2","3","4","2","2","2","2","2","1","0","1","0","1","1","0","0","0","0","0","0","0","0","1","4","2","3","1","2","2","4","2","1","2","729263916630413313","王","693","","","","","","","","","","","","","","","","","","","","","","","","","","","","","","","","","","","","","","","",""
"","","","fullscreen","3","35162","0.0-2.0","4","3","4","3","3","3","3","3","4","4","5","4","2","4","3","4","4","3","4","4","2","2","3","4","2","2","2","2","2","1","0","1","0","1","1","0","0","0","0","0","0","0","0","1","4","2","3","1","2","2","4","2","1","2","729263916630413313","王","693","","true","{}","","","","","","","","","","","","","","","","","","","","","","","","","","","","","","","","","","","","",""
"28485.600000023842","","{""Q01"":""4"",""Q02"":""3"",""Q03"":""4"",""Q04"":""3"",""Q05"":""3"",""Q06"":""3"",""Q07"":""3"",""Q08"":""3"",""Q09"":""4"",""Q10"":""4""}","survey-template","4","63650","0.0-3.0","4","3","4","3","3","3","3","3","4","4","5","4","2","4","3","4","4","3","4","4","2","2","3","4","2","2","2","2","2","1","0","1","0","1","1","0","0","0","0","0","0","0","0","1","4","2","3","1","2","2","4","2","1","2","729263916630413313","王","693","","","","{""Q01"":""4"",""Q02"":""3"",""Q03"":""4"",""Q04"":""3"",""Q05"":""3"",""Q06"":""3"",""Q07"":""3"",""Q08"":""3"",""Q09"":""4"",""Q10"":""4""}","[0,1,2,3,4,5,6,7,8,9]","[""Q01"",""Q02"",""Q03"",""Q04"",""Q05"",""Q06"",""Q07"",""Q08"",""Q09"",""Q10""]","[5018.199999988079,5898,9234.100000023842,10631.600000023842,14876.100000023842,16376.300000011921,19922.100000023842,21394.400000035763,23678.100000023842,27599.80000001192]","[]","[4090.100000023842,5018.199999988079,5898,7338.400000035763,9234.100000023842,10631.600000023842,13652.100000023842,14431.600000023842,14876.100000023842,16376.300000011921,18006.100000023842,18909.900000035763,19922.100000023842,21394.400000035763,23130.100000023842,23678.100000023842,27599.80000001192,28484.30000001192]","0.4","0.5555555555555556","0","","","","","","","","","","","","","","","","","","","","","","","","","","","",""
"22171.700000047684","","{""Q01"":""5"",""Q02"":""4"",""Q03"":""2"",""Q04"":""4"",""Q05"":""3"",""Q06"":""4"",""Q07"":""4"",""Q08"":""3"",""Q09"":""4"",""Q10"":""4""}","survey-template","5","85828","0.0-4.0","4","3","4","3","3","3","3","3","4","4","5","4","2","4","3","4","4","3","4","4","2","2","3","4","2","2","2","2","2","1","0","1","0","1","1","0","0","0","0","0","0","0","0","1","4","2","3","1","2","2","4","2","1","2","729263916630413313","王","693","","","","{""Q01"":""5"",""Q02"":""4"",""Q03"":""2"",""Q04"":""4"",""Q05"":""3"",""Q06"":""4"",""Q07"":""4"",""Q08"":""3"",""Q09"":""4"",""Q10"":""4""}","[0,1,2,3,4,5,6,7,8,9]","[""Q01"",""Q02"",""Q03"",""Q04"",""Q05"",""Q06"",""Q07"",""Q08"",""Q09"",""Q10""]","[2964.400000035763,4686.5,6410.400000035763,8438.400000035763,10338.700000047684,11516.400000035763,13208.300000011921,15460.5,16816.400000035763,19970.30000001192]","[]","[2964.400000035763,4686.5,6410.400000035763,8438.400000035763,10338.700000047684,11516.400000035763,13208.300000011921,15460.5,16816.400000035763,18526.30000001192,19970.30000001192,22170.200000047684]","0.4","0.4444444444444444","0","","","","","","","","","","","","","","","","","","","","","","","","","","","",""
"","","","preload","6","86050","0.0-5.0","4","3","4","3","3","3","3","3","4","4","5","4","2","4","3","4","4","3","4","4","2","2","3","4","2","2","2","2","2","1","0","1","0","1","1","0","0","0","0","0","0","0","0","1","4","2","3","1","2","2","4","2","1","2","729263916630413313","王","693","","true","","","","","","","","","","","false","[]","[]","[]","","","","","","","","","","","","","","","","","","","","","","","",""
"11066","
    <h3>词语分类任务</h3>
    <p>在接下来的任务中，你需要对一系列词语进行分类。</p>
    <p>请先熟悉这些词语，这有利于你完成接下来的任务。</p>
    <table align=""center"" border=1 cellpadding=3 cellspacing=0>
    <tr> <th>类别</th> <th>词语</th> </tr>
    <tr> <td>&emsp;积极&emsp;</td> <td>&emsp;能干、全能、全才、高效、精干、天才&emsp;</td> </tr>
    <tr> <td>&emsp;消极&emsp;</td> <td>&emsp;无能、低能、废物、拙笨、愚钝、蠢笨&emsp;</td> </tr>
    <tr> <td>&emsp;自我&emsp;</td> <td>&emsp;我、我的、自己、自己的、本人、本人的&emsp;</td> </tr>
    <tr> <td>&emsp;他人&emsp;</td> <td>&emsp;他、他的、别人、别人的、他人、他人的&emsp;</td> </tr>
    </table><br/>","0","html-button-response","7","97119","0.0-6.0-0.0-0.0","4","3","4","3","3","3","3","3","4","4","5","4","2","4","3","4","4","3","4","4","2","2","3","4","2","2","2","2","2","1","0","1","0","1","1","0","0","0","0","0","0","0","0","1","4","2","3","1","2","2","4","2","1","2","729263916630413313","王","693","","","","","","","","","","","","","","","","","2","1","","","","","","","","","","","","","","","","","","","","","",""
"14228","
    <div class=""tag-bottom"">
    <p> —— 任务1：对“自我”词和“他人”词分类 ——<p/>
    不同词语会出现在屏幕中央，类别标签将始终显示在屏幕上方<p/>   
    <span style=""color:#FFD866""><b>请根据上方标签的提示，尽可能正确并且快速地做出按键反应</b></span><p/>
    当按键错误时屏幕中会出现<span style=""color:red""> X </span>，需要按另一个键纠正才能继续<br/><p/>
    请把双手食指分别放在键盘的“E”键和“I”键上<p/>
    按<空格键>开始
    </p></div>"," ","html-keyboard-response","8","111351","0.0-6.0-0.0-1.0","4","3","4","3","3","3","3","3","4","4","5","4","2","4","3","4","4","3","4","4","2","2","3","4","2","2","2","2","2","1","0","1","0","1","1","0","0","0","0","0","0","0","0","1","4","2","3","1","2","2","4","2","1","2","729263916630413313","王","693","","","","","","","","","","","","","","","","","","","","","","","","","","","","","","","","","","","","","","","",""
"null","","null","html-keyboard-response","9","111611","0.0-6.0-0.0-2.0-0.0","4","3","4","3","3","3","3","3","4","4","5","4","2","4","3","4","4","3","4","4","2","2","3","4","2","2","2","2","2","1","0","1","0","1","1","0","0","0","0","0","0","0","0","1","4","2","3","1","2","2","4","2","1","2","729263916630413313","王","693","","","","","","","","","","","","","","","","","","","","","","","","","","","","","","","","","","","","","","","",""
"574","<p style=""color:rgb(150, 250, 100); font-size: 35px;"">他人</p>","i","categorize-html","10","112188","0.0-6.0-0.0-2.0-1.0","4","3","4","3","3","3","3","3","4","4","5","4","2","4","3","4","4","3","4","4","2","2","3","4","2","2","2","2","2","1","0","1","0","1","1","0","0","0","0","0","0","0","0","1","4","2","3","1","2","2","4","2","1","2","729263916630413313","王","693","","","","","","","","","","","","","","","","","","","true","1","1","ability","574","other","他人","","","","","","","","","","","","","","",""
"null","","null","html-keyboard-response","11","112457","0.0-6.0-0.0-2.0-0.1","4","3","4","3","3","3","3","3","4","4","5","4","2","4","3","4","4","3","4","4","2","2","3","4","2","2","2","2","2","1","0","1","0","1","1","0","0","0","0","0","0","0","0","1","4","2","3","1","2","2","4","2","1","2","729263916630413313","王","693","","","","","","","","","","","","","","","","","","","","","","","","","","","","","","","","","","","","","","","",""
"661","<p style=""color:rgb(150, 250, 100); font-size: 35px;"">自己</p>","e","categorize-html","12","113120","0.0-6.0-0.0-2.0-1.1","4","3","4","3","3","3","3","3","4","4","5","4","2","4","3","4","4","3","4","4","2","2","3","4","2","2","2","2","2","1","0","1","0","1","1","0","0","0","0","0","0","0","0","1","4","2","3","1","2","2","4","2","1","2","729263916630413313","王","693","","","","","","","","","","","","","","","","","","","true","1","1","ability","661","self","自己","","","","","","","","","","","","","","",""
"null","","null","html-keyboard-response","13","113379","0.0-6.0-0.0-2.0-0.2","4","3","4","3","3","3","3","3","4","4","5","4","2","4","3","4","4","3","4","4","2","2","3","4","2","2","2","2","2","1","0","1","0","1","1","0","0","0","0","0","0","0","0","1","4","2","3","1","2","2","4","2","1","2","729263916630413313","王","693","","","","","","","","","","","","","","","","","","","","","","","","","","","","","","","","","","","","","","","",""
"460","<p style=""color:rgb(150, 250, 100); font-size: 35px;"">我</p>","e","categorize-html","14","113842","0.0-6.0-0.0-2.0-1.2","4","3","4","3","3","3","3","3","4","4","5","4","2","4","3","4","4","3","4","4","2","2","3","4","2","2","2","2","2","1","0","1","0","1","1","0","0","0","0","0","0","0","0","1","4","2","3","1","2","2","4","2","1","2","729263916630413313","王","693","","","","","","","","","","","","","","","","","","","true","1","1","ability","460","self","我","","","","","","","","","","","","","","",""
"null","","null","html-keyboard-response","15","114099","0.0-6.0-0.0-2.0-0.3","4","3","4","3","3","3","3","3","4","4","5","4","2","4","3","4","4","3","4","4","2","2","3","4","2","2","2","2","2","1","0","1","0","1","1","0","0","0","0","0","0","0","0","1","4","2","3","1","2","2","4","2","1","2","729263916630413313","王","693","","","","","","","","","","","","","","","","","","","","","","","","","","","","","","","","","","","","","","","",""
"392","<p style=""color:rgb(150, 250, 100); font-size: 35px;"">本人的</p>","e","categorize-html","16","114492","0.0-6.0-0.0-2.0-1.3","4","3","4","3","3","3","3","3","4","4","5","4","2","4","3","4","4","3","4","4","2","2","3","4","2","2","2","2","2","1","0","1","0","1","1","0","0","0","0","0","0","0","0","1","4","2","3","1","2","2","4","2","1","2","729263916630413313","王","693","","","","","","","","","","","","","","","","","","","true","1","1","ability","392","self","本人的","","","","","","","","","","","","","","",""
"null","","null","html-keyboard-response","17","114747","0.0-6.0-0.0-2.0-0.4","4","3","4","3","3","3","3","3","4","4","5","4","2","4","3","4","4","3","4","4","2","2","3","4","2","2","2","2","2","1","0","1","0","1","1","0","0","0","0","0","0","0","0","1","4","2","3","1","2","2","4","2","1","2","729263916630413313","王","693","","","","","","","","","","","","","","","","","","","","","","","","","","","","","","","","","","","","","","","",""
"363","<p style=""color:rgb(150, 250, 100); font-size: 35px;"">自己的</p>","e","categorize-html","18","115112","0.0-6.0-0.0-2.0-1.4","4","3","4","3","3","3","3","3","4","4","5","4","2","4","3","4","4","3","4","4","2","2","3","4","2","2","2","2","2","1","0","1","0","1","1","0","0","0","0","0","0","0","0","1","4","2","3","1","2","2","4","2","1","2","729263916630413313","王","693","","","","","","","","","","","","","","","","","","","true","1","1","ability","363","self","自己的","","","","","","","","","","","","","","",""
"null","","null","html-keyboard-response","19","115363","0.0-6.0-0.0-2.0-0.5","4","3","4","3","3","3","3","3","4","4","5","4","2","4","3","4","4","3","4","4","2","2","3","4","2","2","2","2","2","1","0","1","0","1","1","0","0","0","0","0","0","0","0","1","4","2","3","1","2","2","4","2","1","2","729263916630413313","王","693","","","","","","","","","","","","","","","","","","","","","","","","","","","","","","","","","","","","","","","",""
"435","<p style=""color:rgb(150, 250, 100); font-size: 35px;"">他人的</p>","i","categorize-html","20","115801","0.0-6.0-0.0-2.0-1.5","4","3","4","3","3","3","3","3","4","4","5","4","2","4","3","4","4","3","4","4","2","2","3","4","2","2","2","2","2","1","0","1","0","1","1","0","0","0","0","0","0","0","0","1","4","2","3","1","2","2","4","2","1","2","729263916630413313","王","693","","","","","","","","","","","","","","","","","","","true","1","1","ability","435","other","他人的","","","","","","","","","","","","","","",""
"null","","null","html-keyboard-response","21","116058","0.0-6.0-0.0-2.0-0.6","4","3","4","3","3","3","3","3","4","4","5","4","2","4","3","4","4","3","4","4","2","2","3","4","2","2","2","2","2","1","0","1","0","1","1","0","0","0","0","0","0","0","0","1","4","2","3","1","2","2","4","2","1","2","729263916630413313","王","693","","","","","","","","","","","","","","","","","","","","","","","","","","","","","","","","","","","","","","","",""
"468","<p style=""color:rgb(150, 250, 100); font-size: 35px;"">我的</p>","e","categorize-html","22","116527","0.0-6.0-0.0-2.0-1.6","4","3","4","3","3","3","3","3","4","4","5","4","2","4","3","4","4","3","4","4","2","2","3","4","2","2","2","2","2","1","0","1","0","1","1","0","0","0","0","0","0","0","0","1","4","2","3","1","2","2","4","2","1","2","729263916630413313","王","693","","","","","","","","","","","","","","","","","","","true","1","1","ability","468","self","我的","","","","","","","","","","","","","","",""
"null","","null","html-keyboard-response","23","116779","0.0-6.0-0.0-2.0-0.7","4","3","4","3","3","3","3","3","4","4","5","4","2","4","3","4","4","3","4","4","2","2","3","4","2","2","2","2","2","1","0","1","0","1","1","0","0","0","0","0","0","0","0","1","4","2","3","1","2","2","4","2","1","2","729263916630413313","王","693","","","","","","","","","","","","","","","","","","","","","","","","","","","","","","","","","","","","","","","",""
"460","<p style=""color:rgb(150, 250, 100); font-size: 35px;"">本人</p>","e","categorize-html","24","117240","0.0-6.0-0.0-2.0-1.7","4","3","4","3","3","3","3","3","4","4","5","4","2","4","3","4","4","3","4","4","2","2","3","4","2","2","2","2","2","1","0","1","0","1","1","0","0","0","0","0","0","0","0","1","4","2","3","1","2","2","4","2","1","2","729263916630413313","王","693","","","","","","","","","","","","","","","","","","","true","1","1","ability","460","self","本人","","","","","","","","","","","","","","",""
"null","","null","html-keyboard-response","25","117499","0.0-6.0-0.0-2.0-0.8","4","3","4","3","3","3","3","3","4","4","5","4","2","4","3","4","4","3","4","4","2","2","3","4","2","2","2","2","2","1","0","1","0","1","1","0","0","0","0","0","0","0","0","1","4","2","3","1","2","2","4","2","1","2","729263916630413313","王","693","","","","","","","","","","","","","","","","","","","","","","","","","","","","","","","","","","","","","","","",""
"404","<p style=""color:rgb(150, 250, 100); font-size: 35px;"">别人的</p>","i","categorize-html","26","117905","0.0-6.0-0.0-2.0-1.8","4","3","4","3","3","3","3","3","4","4","5","4","2","4","3","4","4","3","4","4","2","2","3","4","2","2","2","2","2","1","0","1","0","1","1","0","0","0","0","0","0","0","0","1","4","2","3","1","2","2","4","2","1","2","729263916630413313","王","693","","","","","","","","","","","","","","","","","","","true","1","1","ability","404","other","别人的","","","","","","","","","","","","","","",""
"null","","null","html-keyboard-response","27","118163","0.0-6.0-0.0-2.0-0.9","4","3","4","3","3","3","3","3","4","4","5","4","2","4","3","4","4","3","4","4","2","2","3","4","2","2","2","2","2","1","0","1","0","1","1","0","0","0","0","0","0","0","0","1","4","2","3","1","2","2","4","2","1","2","729263916630413313","王","693","","","","","","","","","","","","","","","","","","","","","","","","","","","","","","","","","","","","","","","",""
"487","<p style=""color:rgb(150, 250, 100); font-size: 35px;"">他的</p>","e","categorize-html","28","119431","0.0-6.0-0.0-2.0-1.9","4","3","4","3","3","3","3","3","4","4","5","4","2","4","3","4","4","3","4","4","2","2","3","4","2","2","2","2","2","1","0","1","0","1","1","0","0","0","0","0","0","0","0","1","4","2","3","1","2","2","4","2","1","2","729263916630413313","王","693","","","","","","","","","","","","","","","","","","","false","1","1","ability","487","other","他的","","","","","","","","","","","","","","",""
"null","","null","html-keyboard-response","29","119683","0.0-6.0-0.0-2.0-0.10","4","3","4","3","3","3","3","3","4","4","5","4","2","4","3","4","4","3","4","4","2","2","3","4","2","2","2","2","2","1","0","1","0","1","1","0","0","0","0","0","0","0","0","1","4","2","3","1","2","2","4","2","1","2","729263916630413313","王","693","","","","","","","","","","","","","","","","","","","","","","","","","","","","","","","","","","","","","","","",""
"492","<p style=""color:rgb(150, 250, 100); font-size: 35px;"">别人</p>","i","categorize-html","30","120177","0.0-6.0-0.0-2.0-1.10","4","3","4","3","3","3","3","3","4","4","5","4","2","4","3","4","4","3","4","4","2","2","3","4","2","2","2","2","2","1","0","1","0","1","1","0","0","0","0","0","0","0","0","1","4","2","3","1","2","2","4","2","1","2","729263916630413313","王","693","","","","","","","","","","","","","","","","","","","true","1","1","ability","492","other","别人","","","","","","","","","","","","","","",""
"null","","null","html-keyboard-response","31","120434","0.0-6.0-0.0-2.0-0.11","4","3","4","3","3","3","3","3","4","4","5","4","2","4","3","4","4","3","4","4","2","2","3","4","2","2","2","2","2","1","0","1","0","1","1","0","0","0","0","0","0","0","0","1","4","2","3","1","2","2","4","2","1","2","729263916630413313","王","693","","","","","","","","","","","","","","","","","","","","","","","","","","","","","","","","","","","","","","","",""
"492","<p style=""color:rgb(150, 250, 100); font-size: 35px;"">他</p>","i","categorize-html","32","120929","0.0-6.0-0.0-2.0-1.11","4","3","4","3","3","3","3","3","4","4","5","4","2","4","3","4","4","3","4","4","2","2","3","4","2","2","2","2","2","1","0","1","0","1","1","0","0","0","0","0","0","0","0","1","4","2","3","1","2","2","4","2","1","2","729263916630413313","王","693","","","","","","","","","","","","","","","","","","","true","1","1","ability","492","other","他","","","","","","","","","","","","","","",""
"2861","
    <div class=""tag-bottom""><p>
    —— 任务2：对“消极”词和“积极”词分类 ——<p/>   
    <span style=""color:#78DCE8""><b>注意上方，类别标签和需要分类的词语都已经改变</b></span><p/>
    <span style=""color:#FFD866""><b>请根据上方标签的提示，尽可能正确并且快速地做出按键反应</b></span><p/>
    当按键错误时屏幕中会出现<span style=""color:red""> X </span>，需要按另一个键纠正才能继续<br/><p/>
    请把双手食指分别放在键盘的“E”键和“I”键上<p/>
    按<空格键>开始
    </p></div>"," ","html-keyboard-response","33","123791","0.0-6.0-0.0-3.0","4","3","4","3","3","3","3","3","4","4","5","4","2","4","3","4","4","3","4","4","2","2","3","4","2","2","2","2","2","1","0","1","0","1","1","0","0","0","0","0","0","0","0","1","4","2","3","1","2","2","4","2","1","2","729263916630413313","王","693","","","","","","","","","","","","","","","","","","","","","","","","","","","","","","","","","","","","","","","",""
"null","","null","html-keyboard-response","34","124043","0.0-6.0-0.0-4.0-0.0","4","3","4","3","3","3","3","3","4","4","5","4","2","4","3","4","4","3","4","4","2","2","3","4","2","2","2","2","2","1","0","1","0","1","1","0","0","0","0","0","0","0","0","1","4","2","3","1","2","2","4","2","1","2","729263916630413313","王","693","","","","","","","","","","","","","","","","","","","","","","","","","","","","","","","","","","","","","","","",""
"442","<p style=""color:white; font-size: 35px;"">蠢笨</p>","e","categorize-html","35","124488","0.0-6.0-0.0-4.0-1.0","4","3","4","3","3","3","3","3","4","4","5","4","2","4","3","4","4","3","4","4","2","2","3","4","2","2","2","2","2","1","0","1","0","1","1","0","0","0","0","0","0","0","0","1","4","2","3","1","2","2","4","2","1","2","729263916630413313","王","693","","","","","","","","","","","","","","","","","","","true","2","2","ability","442","negative","蠢笨","","","","","","","","","","","","","","",""
"null","","null","html-keyboard-response","36","124746","0.0-6.0-0.0-4.0-0.1","4","3","4","3","3","3","3","3","4","4","5","4","2","4","3","4","4","3","4","4","2","2","3","4","2","2","2","2","2","1","0","1","0","1","1","0","0","0","0","0","0","0","0","1","4","2","3","1","2","2","4","2","1","2","729263916630413313","王","693","","","","","","","","","","","","","","","","","","","","","","","","","","","","","","","","","","","","","","","",""
"412","<p style=""color:white; font-size: 35px;"">低能</p>","e","categorize-html","37","125159","0.0-6.0-0.0-4.0-1.1","4","3","4","3","3","3","3","3","4","4","5","4","2","4","3","4","4","3","4","4","2","2","3","4","2","2","2","2","2","1","0","1","0","1","1","0","0","0","0","0","0","0","0","1","4","2","3","1","2","2","4","2","1","2","729263916630413313","王","693","","","","","","","","","","","","","","","","","","","true","2","2","ability","412","negative","低能","","","","","","","","","","","","","","",""
"null","","null","html-keyboard-response","38","125429","0.0-6.0-0.0-4.0-0.2","4","3","4","3","3","3","3","3","4","4","5","4","2","4","3","4","4","3","4","4","2","2","3","4","2","2","2","2","2","1","0","1","0","1","1","0","0","0","0","0","0","0","0","1","4","2","3","1","2","2","4","2","1","2","729263916630413313","王","693","","","","","","","","","","","","","","","","","","","","","","","","","","","","","","","","","","","","","","","",""
"441","<p style=""color:white; font-size: 35px;"">能干</p>","i","categorize-html","39","125871","0.0-6.0-0.0-4.0-1.2","4","3","4","3","3","3","3","3","4","4","5","4","2","4","3","4","4","3","4","4","2","2","3","4","2","2","2","2","2","1","0","1","0","1","1","0","0","0","0","0","0","0","0","1","4","2","3","1","2","2","4","2","1","2","729263916630413313","王","693","","","","","","","","","","","","","","","","","","","true","2","2","ability","441","positive","能干","","","","","","","","","","","","","","",""
"null","","null","html-keyboard-response","40","126131","0.0-6.0-0.0-4.0-0.3","4","3","4","3","3","3","3","3","4","4","5","4","2","4","3","4","4","3","4","4","2","2","3","4","2","2","2","2","2","1","0","1","0","1","1","0","0","0","0","0","0","0","0","1","4","2","3","1","2","2","4","2","1","2","729263916630413313","王","693","","","","","","","","","","","","","","","","","","","","","","","","","","","","","","","","","","","","","","","",""
"496","<p style=""color:white; font-size: 35px;"">废物</p>","e","categorize-html","41","126628","0.0-6.0-0.0-4.0-1.3","4","3","4","3","3","3","3","3","4","4","5","4","2","4","3","4","4","3","4","4","2","2","3","4","2","2","2","2","2","1","0","1","0","1","1","0","0","0","0","0","0","0","0","1","4","2","3","1","2","2","4","2","1","2","729263916630413313","王","693","","","","","","","","","","","","","","","","","","","true","2","2","ability","496","negative","废物","","","","","","","","","","","","","","",""
"null","","null","html-keyboard-response","42","126883","0.0-6.0-0.0-4.0-0.4","4","3","4","3","3","3","3","3","4","4","5","4","2","4","3","4","4","3","4","4","2","2","3","4","2","2","2","2","2","1","0","1","0","1","1","0","0","0","0","0","0","0","0","1","4","2","3","1","2","2","4","2","1","2","729263916630413313","王","693","","","","","","","","","","","","","","","","","","","","","","","","","","","","","","","","","","","","","","","",""
"477","<p style=""color:white; font-size: 35px;"">高效</p>","i","categorize-html","43","127361","0.0-6.0-0.0-4.0-1.4","4","3","4","3","3","3","3","3","4","4","5","4","2","4","3","4","4","3","4","4","2","2","3","4","2","2","2","2","2","1","0","1","0","1","1","0","0","0","0","0","0","0","0","1","4","2","3","1","2","2","4","2","1","2","729263916630413313","王","693","","","","","","","","","","","","","","","","","","","true","2","2","ability","477","positive","高效","","","","","","","","","","","","","","",""
"null","","null","html-keyboard-response","44","127618","0.0-6.0-0.0-4.0-0.5","4","3","4","3","3","3","3","3","4","4","5","4","2","4","3","4","4","3","4","4","2","2","3","4","2","2","2","2","2","1","0","1","0","1","1","0","0","0","0","0","0","0","0","1","4","2","3","1","2","2","4","2","1","2","729263916630413313","王","693","","","","","","","","","","","","","","","","","","","","","","","","","","","","","","","","","","","","","","","",""
"387","<p style=""color:white; font-size: 35px;"">全才</p>","i","categorize-html","45","128008","0.0-6.0-0.0-4.0-1.5","4","3","4","3","3","3","3","3","4","4","5","4","2","4","3","4","4","3","4","4","2","2","3","4","2","2","2","2","2","1","0","1","0","1","1","0","0","0","0","0","0","0","0","1","4","2","3","1","2","2","4","2","1","2","729263916630413313","王","693","","","","","","","","","","","","","","","","","","","true","2","2","ability","387","positive","全才","","","","","","","","","","","","","","",""
"null","","null","html-keyboard-response","46","128267","0.0-6.0-0.0-4.0-0.6","4","3","4","3","3","3","3","3","4","4","5","4","2","4","3","4","4","3","4","4","2","2","3","4","2","2","2","2","2","1","0","1","0","1","1","0","0","0","0","0","0","0","0","1","4","2","3","1","2","2","4","2","1","2","729263916630413313","王","693","","","","","","","","","","","","","","","","","","","","","","","","","","","","","","","","","","","","","","","",""
"460","<p style=""color:white; font-size: 35px;"">拙笨</p>","e","categorize-html","47","128730","0.0-6.0-0.0-4.0-1.6","4","3","4","3","3","3","3","3","4","4","5","4","2","4","3","4","4","3","4","4","2","2","3","4","2","2","2","2","2","1","0","1","0","1","1","0","0","0","0","0","0","0","0","1","4","2","3","1","2","2","4","2","1","2","729263916630413313","王","693","","","","","","","","","","","","","","","","","","","true","2","2","ability","460","negative","拙笨","","","","","","","","","","","","","","",""
"null","","null","html-keyboard-response","48","128986","0.0-6.0-0.0-4.0-0.7","4","3","4","3","3","3","3","3","4","4","5","4","2","4","3","4","4","3","4","4","2","2","3","4","2","2","2","2","2","1","0","1","0","1","1","0","0","0","0","0","0","0","0","1","4","2","3","1","2","2","4","2","1","2","729263916630413313","王","693","","","","","","","","","","","","","","","","","","","","","","","","","","","","","","","","","","","","","","","",""
"453","<p style=""color:white; font-size: 35px;"">天才</p>","i","categorize-html","49","129440","0.0-6.0-0.0-4.0-1.7","4","3","4","3","3","3","3","3","4","4","5","4","2","4","3","4","4","3","4","4","2","2","3","4","2","2","2","2","2","1","0","1","0","1","1","0","0","0","0","0","0","0","0","1","4","2","3","1","2","2","4","2","1","2","729263916630413313","王","693","","","","","","","","","","","","","","","","","","","true","2","2","ability","453","positive","天才","","","","","","","","","","","","","","",""
"null","","null","html-keyboard-response","50","129698","0.0-6.0-0.0-4.0-0.8","4","3","4","3","3","3","3","3","4","4","5","4","2","4","3","4","4","3","4","4","2","2","3","4","2","2","2","2","2","1","0","1","0","1","1","0","0","0","0","0","0","0","0","1","4","2","3","1","2","2","4","2","1","2","729263916630413313","王","693","","","","","","","","","","","","","","","","","","","","","","","","","","","","","","","","","","","","","","","",""
"440","<p style=""color:white; font-size: 35px;"">精干</p>","i","categorize-html","51","130141","0.0-6.0-0.0-4.0-1.8","4","3","4","3","3","3","3","3","4","4","5","4","2","4","3","4","4","3","4","4","2","2","3","4","2","2","2","2","2","1","0","1","0","1","1","0","0","0","0","0","0","0","0","1","4","2","3","1","2","2","4","2","1","2","729263916630413313","王","693","","","","","","","","","","","","","","","","","","","true","2","2","ability","440","positive","精干","","","","","","","","","","","","","","",""
"null","","null","html-keyboard-response","52","130395","0.0-6.0-0.0-4.0-0.9","4","3","4","3","3","3","3","3","4","4","5","4","2","4","3","4","4","3","4","4","2","2","3","4","2","2","2","2","2","1","0","1","0","1","1","0","0","0","0","0","0","0","0","1","4","2","3","1","2","2","4","2","1","2","729263916630413313","王","693","","","","","","","","","","","","","","","","","","","","","","","","","","","","","","","","","","","","","","","",""
"540","<p style=""color:white; font-size: 35px;"">无能</p>","e","categorize-html","53","130937","0.0-6.0-0.0-4.0-1.9","4","3","4","3","3","3","3","3","4","4","5","4","2","4","3","4","4","3","4","4","2","2","3","4","2","2","2","2","2","1","0","1","0","1","1","0","0","0","0","0","0","0","0","1","4","2","3","1","2","2","4","2","1","2","729263916630413313","王","693","","","","","","","","","","","","","","","","","","","true","2","2","ability","540","negative","无能","","","","","","","","","","","","","","",""
"null","","null","html-keyboard-response","54","131195","0.0-6.0-0.0-4.0-0.10","4","3","4","3","3","3","3","3","4","4","5","4","2","4","3","4","4","3","4","4","2","2","3","4","2","2","2","2","2","1","0","1","0","1","1","0","0","0","0","0","0","0","0","1","4","2","3","1","2","2","4","2","1","2","729263916630413313","王","693","","","","","","","","","","","","","","","","","","","","","","","","","","","","","","","","","","","","","","","",""
"540","<p style=""color:white; font-size: 35px;"">愚钝</p>","e","categorize-html","55","131737","0.0-6.0-0.0-4.0-1.10","4","3","4","3","3","3","3","3","4","4","5","4","2","4","3","4","4","3","4","4","2","2","3","4","2","2","2","2","2","1","0","1","0","1","1","0","0","0","0","0","0","0","0","1","4","2","3","1","2","2","4","2","1","2","729263916630413313","王","693","","","","","","","","","","","","","","","","","","","true","2","2","ability","540","negative","愚钝","","","","","","","","","","","","","","",""
"null","","null","html-keyboard-response","56","131995","0.0-6.0-0.0-4.0-0.11","4","3","4","3","3","3","3","3","4","4","5","4","2","4","3","4","4","3","4","4","2","2","3","4","2","2","2","2","2","1","0","1","0","1","1","0","0","0","0","0","0","0","0","1","4","2","3","1","2","2","4","2","1","2","729263916630413313","王","693","","","","","","","","","","","","","","","","","","","","","","","","","","","","","","","","","","","","","","","",""
"492","<p style=""color:white; font-size: 35px;"">全能</p>","i","categorize-html","57","132489","0.0-6.0-0.0-4.0-1.11","4","3","4","3","3","3","3","3","4","4","5","4","2","4","3","4","4","3","4","4","2","2","3","4","2","2","2","2","2","1","0","1","0","1","1","0","0","0","0","0","0","0","0","1","4","2","3","1","2","2","4","2","1","2","729263916630413313","王","693","","","","","","","","","","","","","","","","","","","true","2","2","ability","492","positive","全能","","","","","","","","","","","","","","",""
"3149","
    <div class=""tag-bottom""><p>
    —— 任务3：对“自我/消极”词和“他人/积极”词分类 ——<p/>
    <span style=""color:#78DCE8""><b>注意上方，之前的四类词语将混合在一起交替呈现</b></span><p/>
    <span style=""color:#FFD866""><b>请根据上方标签的提示，尽可能正确并且快速地做出按键反应</b></span><p/>
    当按键错误时屏幕中会出现<span style=""color:red""> X </span>，需要按另一个键纠正才能继续<br/><p/>
    请把双手食指分别放在键盘的“E”键和“I”键上<p/>
    按<空格键>开始
    </p></div>"," ","html-keyboard-response","58","135640","0.0-6.0-0.0-5.0","4","3","4","3","3","3","3","3","4","4","5","4","2","4","3","4","4","3","4","4","2","2","3","4","2","2","2","2","2","1","0","1","0","1","1","0","0","0","0","0","0","0","0","1","4","2","3","1","2","2","4","2","1","2","729263916630413313","王","693","","","","","","","","","","","","","","","","","","","","","","","","","","","","","","","","","","","","","","","",""
"null","","null","html-keyboard-response","59","135898","0.0-6.0-0.0-6.0-0.0","4","3","4","3","3","3","3","3","4","4","5","4","2","4","3","4","4","3","4","4","2","2","3","4","2","2","2","2","2","1","0","1","0","1","1","0","0","0","0","0","0","0","0","1","4","2","3","1","2","2","4","2","1","2","729263916630413313","王","693","","","","","","","","","","","","","","","","","","","","","","","","","","","","","","","","","","","","","","","",""
"892","<p style=""color:rgb(150, 250, 100); font-size: 35px;"">本人的</p>","e","categorize-html","60","136793","0.0-6.0-0.0-6.0-1.0","4","3","4","3","3","3","3","3","4","4","5","4","2","4","3","4","4","3","4","4","2","2","3","4","2","2","2","2","2","1","0","1","0","1","1","0","0","0","0","0","0","0","0","1","4","2","3","1","2","2","4","2","1","2","729263916630413313","王","693","","","","","","","","","","","","","","","","","","","true","3","3","ability","892","self","本人的","","","","","","","","","","","","","","",""
"null","","null","html-keyboard-response","61","137050","0.0-6.0-0.0-6.0-0.1","4","3","4","3","3","3","3","3","4","4","5","4","2","4","3","4","4","3","4","4","2","2","3","4","2","2","2","2","2","1","0","1","0","1","1","0","0","0","0","0","0","0","0","1","4","2","3","1","2","2","4","2","1","2","729263916630413313","王","693","","","","","","","","","","","","","","","","","","","","","","","","","","","","","","","","","","","","","","","",""
"661","<p style=""color:white; font-size: 35px;"">全能</p>","i","categorize-html","62","137712","0.0-6.0-0.0-6.0-1.1","4","3","4","3","3","3","3","3","4","4","5","4","2","4","3","4","4","3","4","4","2","2","3","4","2","2","2","2","2","1","0","1","0","1","1","0","0","0","0","0","0","0","0","1","4","2","3","1","2","2","4","2","1","2","729263916630413313","王","693","","","","","","","","","","","","","","","","","","","true","3","3","ability","661","positive","全能","","","","","","","","","","","","","","",""
"null","","null","html-keyboard-response","63","137971","0.0-6.0-0.0-6.0-0.2","4","3","4","3","3","3","3","3","4","4","5","4","2","4","3","4","4","3","4","4","2","2","3","4","2","2","2","2","2","1","0","1","0","1","1","0","0","0","0","0","0","0","0","1","4","2","3","1","2","2","4","2","1","2","729263916630413313","王","693","","","","","","","","","","","","","","","","","","","","","","","","","","","","","","","","","","","","","","","",""
"556","<p style=""color:rgb(150, 250, 100); font-size: 35px;"">他人</p>","i","categorize-html","64","138528","0.0-6.0-0.0-6.0-1.2","4","3","4","3","3","3","3","3","4","4","5","4","2","4","3","4","4","3","4","4","2","2","3","4","2","2","2","2","2","1","0","1","0","1","1","0","0","0","0","0","0","0","0","1","4","2","3","1","2","2","4","2","1","2","729263916630413313","王","693","","","","","","","","","","","","","","","","","","","true","3","3","ability","556","other","他人","","","","","","","","","","","","","","",""
"null","","null","html-keyboard-response","65","138786","0.0-6.0-0.0-6.0-0.3","4","3","4","3","3","3","3","3","4","4","5","4","2","4","3","4","4","3","4","4","2","2","3","4","2","2","2","2","2","1","0","1","0","1","1","0","0","0","0","0","0","0","0","1","4","2","3","1","2","2","4","2","1","2","729263916630413313","王","693","","","","","","","","","","","","","","","","","","","","","","","","","","","","","","","","","","","","","","","",""
"1685","<p style=""color:white; font-size: 35px;"">愚钝</p>","e","categorize-html","66","140473","0.0-6.0-0.0-6.0-1.3","4","3","4","3","3","3","3","3","4","4","5","4","2","4","3","4","4","3","4","4","2","2","3","4","2","2","2","2","2","1","0","1","0","1","1","0","0","0","0","0","0","0","0","1","4","2","3","1","2","2","4","2","1","2","729263916630413313","王","693","","","","","","","","","","","","","","","","","","","true","3","3","ability","1685","negative","愚钝","","","","","","","","","","","","","","",""
"null","","null","html-keyboard-response","67","140730","0.0-6.0-0.0-6.0-0.4","4","3","4","3","3","3","3","3","4","4","5","4","2","4","3","4","4","3","4","4","2","2","3","4","2","2","2","2","2","1","0","1","0","1","1","0","0","0","0","0","0","0","0","1","4","2","3","1","2","2","4","2","1","2","729263916630413313","王","693","","","","","","","","","","","","","","","","","","","","","","","","","","","","","","","","","","","","","","","",""
"900","<p style=""color:rgb(150, 250, 100); font-size: 35px;"">我</p>","e","categorize-html","68","141632","0.0-6.0-0.0-6.0-1.4","4","3","4","3","3","3","3","3","4","4","5","4","2","4","3","4","4","3","4","4","2","2","3","4","2","2","2","2","2","1","0","1","0","1","1","0","0","0","0","0","0","0","0","1","4","2","3","1","2","2","4","2","1","2","729263916630413313","王","693","","","","","","","","","","","","","","","","","","","true","3","3","ability","900","self","我","","","","","","","","","","","","","","",""
"null","","null","html-keyboard-response","69","141890","0.0-6.0-0.0-6.0-0.5","4","3","4","3","3","3","3","3","4","4","5","4","2","4","3","4","4","3","4","4","2","2","3","4","2","2","2","2","2","1","0","1","0","1","1","0","0","0","0","0","0","0","0","1","4","2","3","1","2","2","4","2","1","2","729263916630413313","王","693","","","","","","","","","","","","","","","","","","","","","","","","","","","","","","","","","","","","","","","",""
"560","<p style=""color:white; font-size: 35px;"">天才</p>","i","categorize-html","70","142452","0.0-6.0-0.0-6.0-1.5","4","3","4","3","3","3","3","3","4","4","5","4","2","4","3","4","4","3","4","4","2","2","3","4","2","2","2","2","2","1","0","1","0","1","1","0","0","0","0","0","0","0","0","1","4","2","3","1","2","2","4","2","1","2","729263916630413313","王","693","","","","","","","","","","","","","","","","","","","true","3","3","ability","560","positive","天才","","","","","","","","","","","","","","",""
"null","","null","html-keyboard-response","71","142706","0.0-6.0-0.0-6.0-0.6","4","3","4","3","3","3","3","3","4","4","5","4","2","4","3","4","4","3","4","4","2","2","3","4","2","2","2","2","2","1","0","1","0","1","1","0","0","0","0","0","0","0","0","1","4","2","3","1","2","2","4","2","1","2","729263916630413313","王","693","","","","","","","","","","","","","","","","","","","","","","","","","","","","","","","","","","","","","","","",""
"1044","<p style=""color:rgb(150, 250, 100); font-size: 35px;"">他</p>","i","categorize-html","72","143752","0.0-6.0-0.0-6.0-1.6","4","3","4","3","3","3","3","3","4","4","5","4","2","4","3","4","4","3","4","4","2","2","3","4","2","2","2","2","2","1","0","1","0","1","1","0","0","0","0","0","0","0","0","1","4","2","3","1","2","2","4","2","1","2","729263916630413313","王","693","","","","","","","","","","","","","","","","","","","true","3","3","ability","1044","other","他","","","","","","","","","","","","","","",""
"null","","null","html-keyboard-response","73","144011","0.0-6.0-0.0-6.0-0.7","4","3","4","3","3","3","3","3","4","4","5","4","2","4","3","4","4","3","4","4","2","2","3","4","2","2","2","2","2","1","0","1","0","1","1","0","0","0","0","0","0","0","0","1","4","2","3","1","2","2","4","2","1","2","729263916630413313","王","693","","","","","","","","","","","","","","","","","","","","","","","","","","","","","","","","","","","","","","","",""
"909","<p style=""color:white; font-size: 35px;"">低能</p>","e","categorize-html","74","144922","0.0-6.0-0.0-6.0-1.7","4","3","4","3","3","3","3","3","4","4","5","4","2","4","3","4","4","3","4","4","2","2","3","4","2","2","2","2","2","1","0","1","0","1","1","0","0","0","0","0","0","0","0","1","4","2","3","1","2","2","4","2","1","2","729263916630413313","王","693","","","","","","","","","","","","","","","","","","","true","3","3","ability","909","negative","低能","","","","","","","","","","","","","","",""
"null","","null","html-keyboard-response","75","145178","0.0-6.0-0.0-6.0-0.8","4","3","4","3","3","3","3","3","4","4","5","4","2","4","3","4","4","3","4","4","2","2","3","4","2","2","2","2","2","1","0","1","0","1","1","0","0","0","0","0","0","0","0","1","4","2","3","1","2","2","4","2","1","2","729263916630413313","王","693","","","","","","","","","","","","","","","","","","","","","","","","","","","","","","","","","","","","","","","",""
"488","<p style=""color:rgb(150, 250, 100); font-size: 35px;"">自己</p>","e","categorize-html","76","145669","0.0-6.0-0.0-6.0-1.8","4","3","4","3","3","3","3","3","4","4","5","4","2","4","3","4","4","3","4","4","2","2","3","4","2","2","2","2","2","1","0","1","0","1","1","0","0","0","0","0","0","0","0","1","4","2","3","1","2","2","4","2","1","2","729263916630413313","王","693","","","","","","","","","","","","","","","","","","","true","3","3","ability","488","self","自己","","","","","","","","","","","","","","",""
"null","","null","html-keyboard-response","77","145923","0.0-6.0-0.0-6.0-0.9","4","3","4","3","3","3","3","3","4","4","5","4","2","4","3","4","4","3","4","4","2","2","3","4","2","2","2","2","2","1","0","1","0","1","1","0","0","0","0","0","0","0","0","1","4","2","3","1","2","2","4","2","1","2","729263916630413313","王","693","","","","","","","","","","","","","","","","","","","","","","","","","","","","","","","","","","","","","","","",""
"496","<p style=""color:white; font-size: 35px;"">蠢笨</p>","e","categorize-html","78","146422","0.0-6.0-0.0-6.0-1.9","4","3","4","3","3","3","3","3","4","4","5","4","2","4","3","4","4","3","4","4","2","2","3","4","2","2","2","2","2","1","0","1","0","1","1","0","0","0","0","0","0","0","0","1","4","2","3","1","2","2","4","2","1","2","729263916630413313","王","693","","","","","","","","","","","","","","","","","","","true","3","3","ability","496","negative","蠢笨","","","","","","","","","","","","","","",""
"null","","null","html-keyboard-response","79","146674","0.0-6.0-0.0-6.0-0.10","4","3","4","3","3","3","3","3","4","4","5","4","2","4","3","4","4","3","4","4","2","2","3","4","2","2","2","2","2","1","0","1","0","1","1","0","0","0","0","0","0","0","0","1","4","2","3","1","2","2","4","2","1","2","729263916630413313","王","693","","","","","","","","","","","","","","","","","","","","","","","","","","","","","","","","","","","","","","","",""
"541","<p style=""color:rgb(150, 250, 100); font-size: 35px;"">他人的</p>","e","categorize-html","80","147920","0.0-6.0-0.0-6.0-1.10","4","3","4","3","3","3","3","3","4","4","5","4","2","4","3","4","4","3","4","4","2","2","3","4","2","2","2","2","2","1","0","1","0","1","1","0","0","0","0","0","0","0","0","1","4","2","3","1","2","2","4","2","1","2","729263916630413313","王","693","","","","","","","","","","","","","","","","","","","false","3","3","ability","1407","other","他人的","","","","","","","","","","","","","","",""
"null","","null","html-keyboard-response","81","148179","0.0-6.0-0.0-6.0-0.11","4","3","4","3","3","3","3","3","4","4","5","4","2","4","3","4","4","3","4","4","2","2","3","4","2","2","2","2","2","1","0","1","0","1","1","0","0","0","0","0","0","0","0","1","4","2","3","1","2","2","4","2","1","2","729263916630413313","王","693","","","","","","","","","","","","","","","","","","","","","","","","","","","","","","","","","","","","","","","",""
"1135","<p style=""color:white; font-size: 35px;"">精干</p>","i","categorize-html","82","149315","0.0-6.0-0.0-6.0-1.11","4","3","4","3","3","3","3","3","4","4","5","4","2","4","3","4","4","3","4","4","2","2","3","4","2","2","2","2","2","1","0","1","0","1","1","0","0","0","0","0","0","0","0","1","4","2","3","1","2","2","4","2","1","2","729263916630413313","王","693","","","","","","","","","","","","","","","","","","","true","3","3","ability","1135","positive","精干","","","","","","","","","","","","","","",""
"null","","null","html-keyboard-response","83","149571","0.0-6.0-0.0-6.0-0.12","4","3","4","3","3","3","3","3","4","4","5","4","2","4","3","4","4","3","4","4","2","2","3","4","2","2","2","2","2","1","0","1","0","1","1","0","0","0","0","0","0","0","0","1","4","2","3","1","2","2","4","2","1","2","729263916630413313","王","693","","","","","","","","","","","","","","","","","","","","","","","","","","","","","","","","","","","","","","","",""
"857","<p style=""color:rgb(150, 250, 100); font-size: 35px;"">本人</p>","e","categorize-html","84","150428","0.0-6.0-0.0-6.0-1.12","4","3","4","3","3","3","3","3","4","4","5","4","2","4","3","4","4","3","4","4","2","2","3","4","2","2","2","2","2","1","0","1","0","1","1","0","0","0","0","0","0","0","0","1","4","2","3","1","2","2","4","2","1","2","729263916630413313","王","693","","","","","","","","","","","","","","","","","","","true","3","3","ability","857","self","本人","","","","","","","","","","","","","","",""
"null","","null","html-keyboard-response","85","150683","0.0-6.0-0.0-6.0-0.13","4","3","4","3","3","3","3","3","4","4","5","4","2","4","3","4","4","3","4","4","2","2","3","4","2","2","2","2","2","1","0","1","0","1","1","0","0","0","0","0","0","0","0","1","4","2","3","1","2","2","4","2","1","2","729263916630413313","王","693","","","","","","","","","","","","","","","","","","","","","","","","","","","","","","","","","","","","","","","",""
"428","<p style=""color:white; font-size: 35px;"">拙笨</p>","e","categorize-html","86","151113","0.0-6.0-0.0-6.0-1.13","4","3","4","3","3","3","3","3","4","4","5","4","2","4","3","4","4","3","4","4","2","2","3","4","2","2","2","2","2","1","0","1","0","1","1","0","0","0","0","0","0","0","0","1","4","2","3","1","2","2","4","2","1","2","729263916630413313","王","693","","","","","","","","","","","","","","","","","","","true","3","3","ability","428","negative","拙笨","","","","","","","","","","","","","","",""
"null","","null","html-keyboard-response","87","151370","0.0-6.0-0.0-6.0-0.14","4","3","4","3","3","3","3","3","4","4","5","4","2","4","3","4","4","3","4","4","2","2","3","4","2","2","2","2","2","1","0","1","0","1","1","0","0","0","0","0","0","0","0","1","4","2","3","1","2","2","4","2","1","2","729263916630413313","王","693","","","","","","","","","","","","","","","","","","","","","","","","","","","","","","","","","","","","","","","",""
"649","<p style=""color:rgb(150, 250, 100); font-size: 35px;"">他的</p>","i","categorize-html","88","152021","0.0-6.0-0.0-6.0-1.14","4","3","4","3","3","3","3","3","4","4","5","4","2","4","3","4","4","3","4","4","2","2","3","4","2","2","2","2","2","1","0","1","0","1","1","0","0","0","0","0","0","0","0","1","4","2","3","1","2","2","4","2","1","2","729263916630413313","王","693","","","","","","","","","","","","","","","","","","","true","3","3","ability","649","other","他的","","","","","","","","","","","","","","",""
"null","","null","html-keyboard-response","89","152274","0.0-6.0-0.0-6.0-0.15","4","3","4","3","3","3","3","3","4","4","5","4","2","4","3","4","4","3","4","4","2","2","3","4","2","2","2","2","2","1","0","1","0","1","1","0","0","0","0","0","0","0","0","1","4","2","3","1","2","2","4","2","1","2","729263916630413313","王","693","","","","","","","","","","","","","","","","","","","","","","","","","","","","","","","","","","","","","","","",""
"568","<p style=""color:white; font-size: 35px;"">能干</p>","i","categorize-html","90","152844","0.0-6.0-0.0-6.0-1.15","4","3","4","3","3","3","3","3","4","4","5","4","2","4","3","4","4","3","4","4","2","2","3","4","2","2","2","2","2","1","0","1","0","1","1","0","0","0","0","0","0","0","0","1","4","2","3","1","2","2","4","2","1","2","729263916630413313","王","693","","","","","","","","","","","","","","","","","","","true","3","3","ability","568","positive","能干","","","","","","","","","","","","","","",""
"null","","null","html-keyboard-response","91","153098","0.0-6.0-0.0-6.0-0.16","4","3","4","3","3","3","3","3","4","4","5","4","2","4","3","4","4","3","4","4","2","2","3","4","2","2","2","2","2","1","0","1","0","1","1","0","0","0","0","0","0","0","0","1","4","2","3","1","2","2","4","2","1","2","729263916630413313","王","693","","","","","","","","","","","","","","","","","","","","","","","","","","","","","","","","","","","","","","","",""
"581","<p style=""color:rgb(150, 250, 100); font-size: 35px;"">我的</p>","e","categorize-html","92","153682","0.0-6.0-0.0-6.0-1.16","4","3","4","3","3","3","3","3","4","4","5","4","2","4","3","4","4","3","4","4","2","2","3","4","2","2","2","2","2","1","0","1","0","1","1","0","0","0","0","0","0","0","0","1","4","2","3","1","2","2","4","2","1","2","729263916630413313","王","693","","","","","","","","","","","","","","","","","","","true","3","3","ability","581","self","我的","","","","","","","","","","","","","","",""
"null","","null","html-keyboard-response","93","153938","0.0-6.0-0.0-6.0-0.17","4","3","4","3","3","3","3","3","4","4","5","4","2","4","3","4","4","3","4","4","2","2","3","4","2","2","2","2","2","1","0","1","0","1","1","0","0","0","0","0","0","0","0","1","4","2","3","1","2","2","4","2","1","2","729263916630413313","王","693","","","","","","","","","","","","","","","","","","","","","","","","","","","","","","","","","","","","","","","",""
"533","<p style=""color:white; font-size: 35px;"">高效</p>","i","categorize-html","94","154474","0.0-6.0-0.0-6.0-1.17","4","3","4","3","3","3","3","3","4","4","5","4","2","4","3","4","4","3","4","4","2","2","3","4","2","2","2","2","2","1","0","1","0","1","1","0","0","0","0","0","0","0","0","1","4","2","3","1","2","2","4","2","1","2","729263916630413313","王","693","","","","","","","","","","","","","","","","","","","true","3","3","ability","533","positive","高效","","","","","","","","","","","","","","",""
"null","","null","html-keyboard-response","95","154730","0.0-6.0-0.0-6.0-0.18","4","3","4","3","3","3","3","3","4","4","5","4","2","4","3","4","4","3","4","4","2","2","3","4","2","2","2","2","2","1","0","1","0","1","1","0","0","0","0","0","0","0","0","1","4","2","3","1","2","2","4","2","1","2","729263916630413313","王","693","","","","","","","","","","","","","","","","","","","","","","","","","","","","","","","","","","","","","","","",""
"533","<p style=""color:rgb(150, 250, 100); font-size: 35px;"">别人的</p>","i","categorize-html","96","155264","0.0-6.0-0.0-6.0-1.18","4","3","4","3","3","3","3","3","4","4","5","4","2","4","3","4","4","3","4","4","2","2","3","4","2","2","2","2","2","1","0","1","0","1","1","0","0","0","0","0","0","0","0","1","4","2","3","1","2","2","4","2","1","2","729263916630413313","王","693","","","","","","","","","","","","","","","","","","","true","3","3","ability","533","other","别人的","","","","","","","","","","","","","","",""
"null","","null","html-keyboard-response","97","155522","0.0-6.0-0.0-6.0-0.19","4","3","4","3","3","3","3","3","4","4","5","4","2","4","3","4","4","3","4","4","2","2","3","4","2","2","2","2","2","1","0","1","0","1","1","0","0","0","0","0","0","0","0","1","4","2","3","1","2","2","4","2","1","2","729263916630413313","王","693","","","","","","","","","","","","","","","","","","","","","","","","","","","","","","","","","","","","","","","",""
"1305","<p style=""color:white; font-size: 35px;"">无能</p>","e","categorize-html","98","156830","0.0-6.0-0.0-6.0-1.19","4","3","4","3","3","3","3","3","4","4","5","4","2","4","3","4","4","3","4","4","2","2","3","4","2","2","2","2","2","1","0","1","0","1","1","0","0","0","0","0","0","0","0","1","4","2","3","1","2","2","4","2","1","2","729263916630413313","王","693","","","","","","","","","","","","","","","","","","","true","3","3","ability","1305","negative","无能","","","","","","","","","","","","","","",""
"null","","null","html-keyboard-response","99","157082","0.0-6.0-0.0-6.0-0.20","4","3","4","3","3","3","3","3","4","4","5","4","2","4","3","4","4","3","4","4","2","2","3","4","2","2","2","2","2","1","0","1","0","1","1","0","0","0","0","0","0","0","0","1","4","2","3","1","2","2","4","2","1","2","729263916630413313","王","693","","","","","","","","","","","","","","","","","","","","","","","","","","","","","","","","","","","","","","","",""
"717","<p style=""color:rgb(150, 250, 100); font-size: 35px;"">自己的</p>","e","categorize-html","100","157802","0.0-6.0-0.0-6.0-1.20","4","3","4","3","3","3","3","3","4","4","5","4","2","4","3","4","4","3","4","4","2","2","3","4","2","2","2","2","2","1","0","1","0","1","1","0","0","0","0","0","0","0","0","1","4","2","3","1","2","2","4","2","1","2","729263916630413313","王","693","","","","","","","","","","","","","","","","","","","true","3","3","ability","717","self","自己的","","","","","","","","","","","","","","",""
"null","","null","html-keyboard-response","101","158058","0.0-6.0-0.0-6.0-0.21","4","3","4","3","3","3","3","3","4","4","5","4","2","4","3","4","4","3","4","4","2","2","3","4","2","2","2","2","2","1","0","1","0","1","1","0","0","0","0","0","0","0","0","1","4","2","3","1","2","2","4","2","1","2","729263916630413313","王","693","","","","","","","","","","","","","","","","","","","","","","","","","","","","","","","","","","","","","","","",""
"601","<p style=""color:white; font-size: 35px;"">全才</p>","i","categorize-html","102","158660","0.0-6.0-0.0-6.0-1.21","4","3","4","3","3","3","3","3","4","4","5","4","2","4","3","4","4","3","4","4","2","2","3","4","2","2","2","2","2","1","0","1","0","1","1","0","0","0","0","0","0","0","0","1","4","2","3","1","2","2","4","2","1","2","729263916630413313","王","693","","","","","","","","","","","","","","","","","","","true","3","3","ability","601","positive","全才","","","","","","","","","","","","","","",""
"null","","null","html-keyboard-response","103","158914","0.0-6.0-0.0-6.0-0.22","4","3","4","3","3","3","3","3","4","4","5","4","2","4","3","4","4","3","4","4","2","2","3","4","2","2","2","2","2","1","0","1","0","1","1","0","0","0","0","0","0","0","0","1","4","2","3","1","2","2","4","2","1","2","729263916630413313","王","693","","","","","","","","","","","","","","","","","","","","","","","","","","","","","","","","","","","","","","","",""
"1393","<p style=""color:rgb(150, 250, 100); font-size: 35px;"">别人</p>","i","categorize-html","104","160309","0.0-6.0-0.0-6.0-1.22","4","3","4","3","3","3","3","3","4","4","5","4","2","4","3","4","4","3","4","4","2","2","3","4","2","2","2","2","2","1","0","1","0","1","1","0","0","0","0","0","0","0","0","1","4","2","3","1","2","2","4","2","1","2","729263916630413313","王","693","","","","","","","","","","","","","","","","","","","true","3","3","ability","1393","other","别人","","","","","","","","","","","","","","",""
"null","","null","html-keyboard-response","105","160577","0.0-6.0-0.0-6.0-0.23","4","3","4","3","3","3","3","3","4","4","5","4","2","4","3","4","4","3","4","4","2","2","3","4","2","2","2","2","2","1","0","1","0","1","1","0","0","0","0","0","0","0","0","1","4","2","3","1","2","2","4","2","1","2","729263916630413313","王","693","","","","","","","","","","","","","","","","","","","","","","","","","","","","","","","","","","","","","","","",""
"1070","<p style=""color:white; font-size: 35px;"">废物</p>","e","categorize-html","106","161649","0.0-6.0-0.0-6.0-1.23","4","3","4","3","3","3","3","3","4","4","5","4","2","4","3","4","4","3","4","4","2","2","3","4","2","2","2","2","2","1","0","1","0","1","1","0","0","0","0","0","0","0","0","1","4","2","3","1","2","2","4","2","1","2","729263916630413313","王","693","","","","","","","","","","","","","","","","","","","true","3","3","ability","1070","negative","废物","","","","","","","","","","","","","","",""
"1942","
    <div class=""tag-bottom""><p>
    —— 任务4：对“自我/消极”词和“他人/积极”词分类 ——<p/>
    <span style=""color:#78DCE8""><b>与刚才的任务完全相同，请再次对这四类词语分类</b></span><p/>
    <span style=""color:#FFD866""><b>请根据上方标签的提示，尽可能正确并且快速地做出按键反应</b></span><p/>
    当按键错误时屏幕中会出现<span style=""color:red""> X </span>，需要按另一个键纠正才能继续<br/><p/>
    请把双手食指分别放在键盘的“E”键和“I”键上<p/>
    按<空格键>开始
    </p></div>"," ","html-keyboard-response","107","163592","0.0-6.0-0.0-7.0","4","3","4","3","3","3","3","3","4","4","5","4","2","4","3","4","4","3","4","4","2","2","3","4","2","2","2","2","2","1","0","1","0","1","1","0","0","0","0","0","0","0","0","1","4","2","3","1","2","2","4","2","1","2","729263916630413313","王","693","","","","","","","","","","","","","","","","","","","","","","","","","","","","","","","","","","","","","","","",""
"null","","null","html-keyboard-response","108","163851","0.0-6.0-0.0-8.0-0.0","4","3","4","3","3","3","3","3","4","4","5","4","2","4","3","4","4","3","4","4","2","2","3","4","2","2","2","2","2","1","0","1","0","1","1","0","0","0","0","0","0","0","0","1","4","2","3","1","2","2","4","2","1","2","729263916630413313","王","693","","","","","","","","","","","","","","","","","","","","","","","","","","","","","","","","","","","","","","","",""
"603","<p style=""color:rgb(150, 250, 100); font-size: 35px;"">别人</p>","i","categorize-html","109","164455","0.0-6.0-0.0-8.0-1.0","4","3","4","3","3","3","3","3","4","4","5","4","2","4","3","4","4","3","4","4","2","2","3","4","2","2","2","2","2","1","0","1","0","1","1","0","0","0","0","0","0","0","0","1","4","2","3","1","2","2","4","2","1","2","729263916630413313","王","693","","","","","","","","","","","","","","","","","","","true","4","4","ability","603","other","别人","","","","","","","","","","","","","","",""
"null","","null","html-keyboard-response","110","164714","0.0-6.0-0.0-8.0-0.1","4","3","4","3","3","3","3","3","4","4","5","4","2","4","3","4","4","3","4","4","2","2","3","4","2","2","2","2","2","1","0","1","0","1","1","0","0","0","0","0","0","0","0","1","4","2","3","1","2","2","4","2","1","2","729263916630413313","王","693","","","","","","","","","","","","","","","","","","","","","","","","","","","","","","","","","","","","","","","",""
"948","<p style=""color:white; font-size: 35px;"">精干</p>","i","categorize-html","111","165665","0.0-6.0-0.0-8.0-1.1","4","3","4","3","3","3","3","3","4","4","5","4","2","4","3","4","4","3","4","4","2","2","3","4","2","2","2","2","2","1","0","1","0","1","1","0","0","0","0","0","0","0","0","1","4","2","3","1","2","2","4","2","1","2","729263916630413313","王","693","","","","","","","","","","","","","","","","","","","true","4","4","ability","948","positive","精干","","","","","","","","","","","","","","",""
"null","","null","html-keyboard-response","112","165922","0.0-6.0-0.0-8.0-0.2","4","3","4","3","3","3","3","3","4","4","5","4","2","4","3","4","4","3","4","4","2","2","3","4","2","2","2","2","2","1","0","1","0","1","1","0","0","0","0","0","0","0","0","1","4","2","3","1","2","2","4","2","1","2","729263916630413313","王","693","","","","","","","","","","","","","","","","","","","","","","","","","","","","","","","","","","","","","","","",""
"609","<p style=""color:rgb(150, 250, 100); font-size: 35px;"">我</p>","e","categorize-html","113","166532","0.0-6.0-0.0-8.0-1.2","4","3","4","3","3","3","3","3","4","4","5","4","2","4","3","4","4","3","4","4","2","2","3","4","2","2","2","2","2","1","0","1","0","1","1","0","0","0","0","0","0","0","0","1","4","2","3","1","2","2","4","2","1","2","729263916630413313","王","693","","","","","","","","","","","","","","","","","","","true","4","4","ability","609","self","我","","","","","","","","","","","","","","",""
"null","","null","html-keyboard-response","114","166793","0.0-6.0-0.0-8.0-0.3","4","3","4","3","3","3","3","3","4","4","5","4","2","4","3","4","4","3","4","4","2","2","3","4","2","2","2","2","2","1","0","1","0","1","1","0","0","0","0","0","0","0","0","1","4","2","3","1","2","2","4","2","1","2","729263916630413313","王","693","","","","","","","","","","","","","","","","","","","","","","","","","","","","","","","","","","","","","","","",""
"462","<p style=""color:white; font-size: 35px;"">废物</p>","e","categorize-html","115","167256","0.0-6.0-0.0-8.0-1.3","4","3","4","3","3","3","3","3","4","4","5","4","2","4","3","4","4","3","4","4","2","2","3","4","2","2","2","2","2","1","0","1","0","1","1","0","0","0","0","0","0","0","0","1","4","2","3","1","2","2","4","2","1","2","729263916630413313","王","693","","","","","","","","","","","","","","","","","","","true","4","4","ability","462","negative","废物","","","","","","","","","","","","","","",""
"null","","null","html-keyboard-response","116","167514","0.0-6.0-0.0-8.0-0.4","4","3","4","3","3","3","3","3","4","4","5","4","2","4","3","4","4","3","4","4","2","2","3","4","2","2","2","2","2","1","0","1","0","1","1","0","0","0","0","0","0","0","0","1","4","2","3","1","2","2","4","2","1","2","729263916630413313","王","693","","","","","","","","","","","","","","","","","","","","","","","","","","","","","","","","","","","","","","","",""
"440","<p style=""color:rgb(150, 250, 100); font-size: 35px;"">我的</p>","e","categorize-html","117","167956","0.0-6.0-0.0-8.0-1.4","4","3","4","3","3","3","3","3","4","4","5","4","2","4","3","4","4","3","4","4","2","2","3","4","2","2","2","2","2","1","0","1","0","1","1","0","0","0","0","0","0","0","0","1","4","2","3","1","2","2","4","2","1","2","729263916630413313","王","693","","","","","","","","","","","","","","","","","","","true","4","4","ability","440","self","我的","","","","","","","","","","","","","","",""
"null","","null","html-keyboard-response","118","168210","0.0-6.0-0.0-8.0-0.5","4","3","4","3","3","3","3","3","4","4","5","4","2","4","3","4","4","3","4","4","2","2","3","4","2","2","2","2","2","1","0","1","0","1","1","0","0","0","0","0","0","0","0","1","4","2","3","1","2","2","4","2","1","2","729263916630413313","王","693","","","","","","","","","","","","","","","","","","","","","","","","","","","","","","","","","","","","","","","",""
"572","<p style=""color:white; font-size: 35px;"">低能</p>","e","categorize-html","119","168786","0.0-6.0-0.0-8.0-1.5","4","3","4","3","3","3","3","3","4","4","5","4","2","4","3","4","4","3","4","4","2","2","3","4","2","2","2","2","2","1","0","1","0","1","1","0","0","0","0","0","0","0","0","1","4","2","3","1","2","2","4","2","1","2","729263916630413313","王","693","","","","","","","","","","","","","","","","","","","true","4","4","ability","572","negative","低能","","","","","","","","","","","","","","",""
"null","","null","html-keyboard-response","120","169042","0.0-6.0-0.0-8.0-0.6","4","3","4","3","3","3","3","3","4","4","5","4","2","4","3","4","4","3","4","4","2","2","3","4","2","2","2","2","2","1","0","1","0","1","1","0","0","0","0","0","0","0","0","1","4","2","3","1","2","2","4","2","1","2","729263916630413313","王","693","","","","","","","","","","","","","","","","","","","","","","","","","","","","","","","","","","","","","","","",""
"649","<p style=""color:rgb(150, 250, 100); font-size: 35px;"">他的</p>","i","categorize-html","121","169692","0.0-6.0-0.0-8.0-1.6","4","3","4","3","3","3","3","3","4","4","5","4","2","4","3","4","4","3","4","4","2","2","3","4","2","2","2","2","2","1","0","1","0","1","1","0","0","0","0","0","0","0","0","1","4","2","3","1","2","2","4","2","1","2","729263916630413313","王","693","","","","","","","","","","","","","","","","","","","true","4","4","ability","649","other","他的","","","","","","","","","","","","","","",""
"null","","null","html-keyboard-response","122","169946","0.0-6.0-0.0-8.0-0.7","4","3","4","3","3","3","3","3","4","4","5","4","2","4","3","4","4","3","4","4","2","2","3","4","2","2","2","2","2","1","0","1","0","1","1","0","0","0","0","0","0","0","0","1","4","2","3","1","2","2","4","2","1","2","729263916630413313","王","693","","","","","","","","","","","","","","","","","","","","","","","","","","","","","","","","","","","","","","","",""
"609","<p style=""color:white; font-size: 35px;"">精干</p>","i","categorize-html","123","170556","0.0-6.0-0.0-8.0-1.7","4","3","4","3","3","3","3","3","4","4","5","4","2","4","3","4","4","3","4","4","2","2","3","4","2","2","2","2","2","1","0","1","0","1","1","0","0","0","0","0","0","0","0","1","4","2","3","1","2","2","4","2","1","2","729263916630413313","王","693","","","","","","","","","","","","","","","","","","","true","4","4","ability","609","positive","精干","","","","","","","","","","","","","","",""
"null","","null","html-keyboard-response","124","170810","0.0-6.0-0.0-8.0-0.8","4","3","4","3","3","3","3","3","4","4","5","4","2","4","3","4","4","3","4","4","2","2","3","4","2","2","2","2","2","1","0","1","0","1","1","0","0","0","0","0","0","0","0","1","4","2","3","1","2","2","4","2","1","2","729263916630413313","王","693","","","","","","","","","","","","","","","","","","","","","","","","","","","","","","","","","","","","","","","",""
"572","<p style=""color:rgb(150, 250, 100); font-size: 35px;"">他人的</p>","i","categorize-html","125","171384","0.0-6.0-0.0-8.0-1.8","4","3","4","3","3","3","3","3","4","4","5","4","2","4","3","4","4","3","4","4","2","2","3","4","2","2","2","2","2","1","0","1","0","1","1","0","0","0","0","0","0","0","0","1","4","2","3","1","2","2","4","2","1","2","729263916630413313","王","693","","","","","","","","","","","","","","","","","","","true","4","4","ability","572","other","他人的","","","","","","","","","","","","","","",""
"null","","null","html-keyboard-response","126","171643","0.0-6.0-0.0-8.0-0.9","4","3","4","3","3","3","3","3","4","4","5","4","2","4","3","4","4","3","4","4","2","2","3","4","2","2","2","2","2","1","0","1","0","1","1","0","0","0","0","0","0","0","0","1","4","2","3","1","2","2","4","2","1","2","729263916630413313","王","693","","","","","","","","","","","","","","","","","","","","","","","","","","","","","","","","","","","","","","","",""
"549","<p style=""color:white; font-size: 35px;"">全才</p>","i","categorize-html","127","172193","0.0-6.0-0.0-8.0-1.9","4","3","4","3","3","3","3","3","4","4","5","4","2","4","3","4","4","3","4","4","2","2","3","4","2","2","2","2","2","1","0","1","0","1","1","0","0","0","0","0","0","0","0","1","4","2","3","1","2","2","4","2","1","2","729263916630413313","王","693","","","","","","","","","","","","","","","","","","","true","4","4","ability","549","positive","全才","","","","","","","","","","","","","","",""
"null","","null","html-keyboard-response","128","172451","0.0-6.0-0.0-8.0-0.10","4","3","4","3","3","3","3","3","4","4","5","4","2","4","3","4","4","3","4","4","2","2","3","4","2","2","2","2","2","1","0","1","0","1","1","0","0","0","0","0","0","0","0","1","4","2","3","1","2","2","4","2","1","2","729263916630413313","王","693","","","","","","","","","","","","","","","","","","","","","","","","","","","","","","","","","","","","","","","",""
"527","<p style=""color:rgb(150, 250, 100); font-size: 35px;"">本人</p>","e","categorize-html","129","172981","0.0-6.0-0.0-8.0-1.10","4","3","4","3","3","3","3","3","4","4","5","4","2","4","3","4","4","3","4","4","2","2","3","4","2","2","2","2","2","1","0","1","0","1","1","0","0","0","0","0","0","0","0","1","4","2","3","1","2","2","4","2","1","2","729263916630413313","王","693","","","","","","","","","","","","","","","","","","","true","4","4","ability","527","self","本人","","","","","","","","","","","","","","",""
"null","","null","html-keyboard-response","130","173235","0.0-6.0-0.0-8.0-0.11","4","3","4","3","3","3","3","3","4","4","5","4","2","4","3","4","4","3","4","4","2","2","3","4","2","2","2","2","2","1","0","1","0","1","1","0","0","0","0","0","0","0","0","1","4","2","3","1","2","2","4","2","1","2","729263916630413313","王","693","","","","","","","","","","","","","","","","","","","","","","","","","","","","","","","","","","","","","","","",""
"840","<p style=""color:white; font-size: 35px;"">低能</p>","e","categorize-html","131","174077","0.0-6.0-0.0-8.0-1.11","4","3","4","3","3","3","3","3","4","4","5","4","2","4","3","4","4","3","4","4","2","2","3","4","2","2","2","2","2","1","0","1","0","1","1","0","0","0","0","0","0","0","0","1","4","2","3","1","2","2","4","2","1","2","729263916630413313","王","693","","","","","","","","","","","","","","","","","","","true","4","4","ability","840","negative","低能","","","","","","","","","","","","","","",""
"null","","null","html-keyboard-response","132","174330","0.0-6.0-0.0-8.0-0.12","4","3","4","3","3","3","3","3","4","4","5","4","2","4","3","4","4","3","4","4","2","2","3","4","2","2","2","2","2","1","0","1","0","1","1","0","0","0","0","0","0","0","0","1","4","2","3","1","2","2","4","2","1","2","729263916630413313","王","693","","","","","","","","","","","","","","","","","","","","","","","","","","","","","","","","","","","","","","","",""
"601","<p style=""color:rgb(150, 250, 100); font-size: 35px;"">我</p>","e","categorize-html","133","174932","0.0-6.0-0.0-8.0-1.12","4","3","4","3","3","3","3","3","4","4","5","4","2","4","3","4","4","3","4","4","2","2","3","4","2","2","2","2","2","1","0","1","0","1","1","0","0","0","0","0","0","0","0","1","4","2","3","1","2","2","4","2","1","2","729263916630413313","王","693","","","","","","","","","","","","","","","","","","","true","4","4","ability","601","self","我","","","","","","","","","","","","","","",""
"null","","null","html-keyboard-response","134","175186","0.0-6.0-0.0-8.0-0.13","4","3","4","3","3","3","3","3","4","4","5","4","2","4","3","4","4","3","4","4","2","2","3","4","2","2","2","2","2","1","0","1","0","1","1","0","0","0","0","0","0","0","0","1","4","2","3","1","2","2","4","2","1","2","729263916630413313","王","693","","","","","","","","","","","","","","","","","","","","","","","","","","","","","","","","","","","","","","","",""
"472","<p style=""color:white; font-size: 35px;"">废物</p>","e","categorize-html","135","175660","0.0-6.0-0.0-8.0-1.13","4","3","4","3","3","3","3","3","4","4","5","4","2","4","3","4","4","3","4","4","2","2","3","4","2","2","2","2","2","1","0","1","0","1","1","0","0","0","0","0","0","0","0","1","4","2","3","1","2","2","4","2","1","2","729263916630413313","王","693","","","","","","","","","","","","","","","","","","","true","4","4","ability","472","negative","废物","","","","","","","","","","","","","","",""
"null","","null","html-keyboard-response","136","175914","0.0-6.0-0.0-8.0-0.14","4","3","4","3","3","3","3","3","4","4","5","4","2","4","3","4","4","3","4","4","2","2","3","4","2","2","2","2","2","1","0","1","0","1","1","0","0","0","0","0","0","0","0","1","4","2","3","1","2","2","4","2","1","2","729263916630413313","王","693","","","","","","","","","","","","","","","","","","","","","","","","","","","","","","","","","","","","","","","",""
"645","<p style=""color:rgb(150, 250, 100); font-size: 35px;"">别人的</p>","i","categorize-html","137","176560","0.0-6.0-0.0-8.0-1.14","4","3","4","3","3","3","3","3","4","4","5","4","2","4","3","4","4","3","4","4","2","2","3","4","2","2","2","2","2","1","0","1","0","1","1","0","0","0","0","0","0","0","0","1","4","2","3","1","2","2","4","2","1","2","729263916630413313","王","693","","","","","","","","","","","","","","","","","","","true","4","4","ability","645","other","别人的","","","","","","","","","","","","","","",""
"null","","null","html-keyboard-response","138","176819","0.0-6.0-0.0-8.0-0.15","4","3","4","3","3","3","3","3","4","4","5","4","2","4","3","4","4","3","4","4","2","2","3","4","2","2","2","2","2","1","0","1","0","1","1","0","0","0","0","0","0","0","0","1","4","2","3","1","2","2","4","2","1","2","729263916630413313","王","693","","","","","","","","","","","","","","","","","","","","","","","","","","","","","","","","","","","","","","","",""
"391","<p style=""color:white; font-size: 35px;"">能干</p>","i","categorize-html","139","177212","0.0-6.0-0.0-8.0-1.15","4","3","4","3","3","3","3","3","4","4","5","4","2","4","3","4","4","3","4","4","2","2","3","4","2","2","2","2","2","1","0","1","0","1","1","0","0","0","0","0","0","0","0","1","4","2","3","1","2","2","4","2","1","2","729263916630413313","王","693","","","","","","","","","","","","","","","","","","","true","4","4","ability","391","positive","能干","","","","","","","","","","","","","","",""
"null","","null","html-keyboard-response","140","177466","0.0-6.0-0.0-8.0-0.16","4","3","4","3","3","3","3","3","4","4","5","4","2","4","3","4","4","3","4","4","2","2","3","4","2","2","2","2","2","1","0","1","0","1","1","0","0","0","0","0","0","0","0","1","4","2","3","1","2","2","4","2","1","2","729263916630413313","王","693","","","","","","","","","","","","","","","","","","","","","","","","","","","","","","","","","","","","","","","",""
"453","<p style=""color:rgb(150, 250, 100); font-size: 35px;"">别人</p>","i","categorize-html","141","177920","0.0-6.0-0.0-8.0-1.16","4","3","4","3","3","3","3","3","4","4","5","4","2","4","3","4","4","3","4","4","2","2","3","4","2","2","2","2","2","1","0","1","0","1","1","0","0","0","0","0","0","0","0","1","4","2","3","1","2","2","4","2","1","2","729263916630413313","王","693","","","","","","","","","","","","","","","","","","","true","4","4","ability","453","other","别人","","","","","","","","","","","","","","",""
"null","","null","html-keyboard-response","142","178178","0.0-6.0-0.0-8.0-0.17","4","3","4","3","3","3","3","3","4","4","5","4","2","4","3","4","4","3","4","4","2","2","3","4","2","2","2","2","2","1","0","1","0","1","1","0","0","0","0","0","0","0","0","1","4","2","3","1","2","2","4","2","1","2","729263916630413313","王","693","","","","","","","","","","","","","","","","","","","","","","","","","","","","","","","","","","","","","","","",""
"552","<p style=""color:white; font-size: 35px;"">全才</p>","i","categorize-html","143","178732","0.0-6.0-0.0-8.0-1.17","4","3","4","3","3","3","3","3","4","4","5","4","2","4","3","4","4","3","4","4","2","2","3","4","2","2","2","2","2","1","0","1","0","1","1","0","0","0","0","0","0","0","0","1","4","2","3","1","2","2","4","2","1","2","729263916630413313","王","693","","","","","","","","","","","","","","","","","","","true","4","4","ability","552","positive","全才","","","","","","","","","","","","","","",""
"null","","null","html-keyboard-response","144","178986","0.0-6.0-0.0-8.0-0.18","4","3","4","3","3","3","3","3","4","4","5","4","2","4","3","4","4","3","4","4","2","2","3","4","2","2","2","2","2","1","0","1","0","1","1","0","0","0","0","0","0","0","0","1","4","2","3","1","2","2","4","2","1","2","729263916630413313","王","693","","","","","","","","","","","","","","","","","","","","","","","","","","","","","","","","","","","","","","","",""
"525","<p style=""color:rgb(150, 250, 100); font-size: 35px;"">自己的</p>","e","categorize-html","145","179512","0.0-6.0-0.0-8.0-1.18","4","3","4","3","3","3","3","3","4","4","5","4","2","4","3","4","4","3","4","4","2","2","3","4","2","2","2","2","2","1","0","1","0","1","1","0","0","0","0","0","0","0","0","1","4","2","3","1","2","2","4","2","1","2","729263916630413313","王","693","","","","","","","","","","","","","","","","","","","true","4","4","ability","525","self","自己的","","","","","","","","","","","","","","",""
"null","","null","html-keyboard-response","146","179770","0.0-6.0-0.0-8.0-0.19","4","3","4","3","3","3","3","3","4","4","5","4","2","4","3","4","4","3","4","4","2","2","3","4","2","2","2","2","2","1","0","1","0","1","1","0","0","0","0","0","0","0","0","1","4","2","3","1","2","2","4","2","1","2","729263916630413313","王","693","","","","","","","","","","","","","","","","","","","","","","","","","","","","","","","","","","","","","","","",""
"465","<p style=""color:white; font-size: 35px;"">无能</p>","e","categorize-html","147","180236","0.0-6.0-0.0-8.0-1.19","4","3","4","3","3","3","3","3","4","4","5","4","2","4","3","4","4","3","4","4","2","2","3","4","2","2","2","2","2","1","0","1","0","1","1","0","0","0","0","0","0","0","0","1","4","2","3","1","2","2","4","2","1","2","729263916630413313","王","693","","","","","","","","","","","","","","","","","","","true","4","4","ability","465","negative","无能","","","","","","","","","","","","","","",""
"null","","null","html-keyboard-response","148","180490","0.0-6.0-0.0-8.0-0.20","4","3","4","3","3","3","3","3","4","4","5","4","2","4","3","4","4","3","4","4","2","2","3","4","2","2","2","2","2","1","0","1","0","1","1","0","0","0","0","0","0","0","0","1","4","2","3","1","2","2","4","2","1","2","729263916630413313","王","693","","","","","","","","","","","","","","","","","","","","","","","","","","","","","","","","","","","","","","","",""
"480","<p style=""color:rgb(150, 250, 100); font-size: 35px;"">自己</p>","e","categorize-html","149","180972","0.0-6.0-0.0-8.0-1.20","4","3","4","3","3","3","3","3","4","4","5","4","2","4","3","4","4","3","4","4","2","2","3","4","2","2","2","2","2","1","0","1","0","1","1","0","0","0","0","0","0","0","0","1","4","2","3","1","2","2","4","2","1","2","729263916630413313","王","693","","","","","","","","","","","","","","","","","","","true","4","4","ability","480","self","自己","","","","","","","","","","","","","","",""
"null","","null","html-keyboard-response","150","181226","0.0-6.0-0.0-8.0-0.21","4","3","4","3","3","3","3","3","4","4","5","4","2","4","3","4","4","3","4","4","2","2","3","4","2","2","2","2","2","1","0","1","0","1","1","0","0","0","0","0","0","0","0","1","4","2","3","1","2","2","4","2","1","2","729263916630413313","王","693","","","","","","","","","","","","","","","","","","","","","","","","","","","","","","","","","","","","","","","",""
"536","<p style=""color:white; font-size: 35px;"">高效</p>","i","categorize-html","151","181764","0.0-6.0-0.0-8.0-1.21","4","3","4","3","3","3","3","3","4","4","5","4","2","4","3","4","4","3","4","4","2","2","3","4","2","2","2","2","2","1","0","1","0","1","1","0","0","0","0","0","0","0","0","1","4","2","3","1","2","2","4","2","1","2","729263916630413313","王","693","","","","","","","","","","","","","","","","","","","true","4","4","ability","536","positive","高效","","","","","","","","","","","","","","",""
"null","","null","html-keyboard-response","152","182019","0.0-6.0-0.0-8.0-0.22","4","3","4","3","3","3","3","3","4","4","5","4","2","4","3","4","4","3","4","4","2","2","3","4","2","2","2","2","2","1","0","1","0","1","1","0","0","0","0","0","0","0","0","1","4","2","3","1","2","2","4","2","1","2","729263916630413313","王","693","","","","","","","","","","","","","","","","","","","","","","","","","","","","","","","","","","","","","","","",""
"560","<p style=""color:rgb(150, 250, 100); font-size: 35px;"">他人的</p>","i","categorize-html","153","182580","0.0-6.0-0.0-8.0-1.22","4","3","4","3","3","3","3","3","4","4","5","4","2","4","3","4","4","3","4","4","2","2","3","4","2","2","2","2","2","1","0","1","0","1","1","0","0","0","0","0","0","0","0","1","4","2","3","1","2","2","4","2","1","2","729263916630413313","王","693","","","","","","","","","","","","","","","","","","","true","4","4","ability","560","other","他人的","","","","","","","","","","","","","","",""
"null","","null","html-keyboard-response","154","182834","0.0-6.0-0.0-8.0-0.23","4","3","4","3","3","3","3","3","4","4","5","4","2","4","3","4","4","3","4","4","2","2","3","4","2","2","2","2","2","1","0","1","0","1","1","0","0","0","0","0","0","0","0","1","4","2","3","1","2","2","4","2","1","2","729263916630413313","王","693","","","","","","","","","","","","","","","","","","","","","","","","","","","","","","","","","","","","","","","",""
"593","<p style=""color:white; font-size: 35px;"">愚钝</p>","e","categorize-html","155","183428","0.0-6.0-0.0-8.0-1.23","4","3","4","3","3","3","3","3","4","4","5","4","2","4","3","4","4","3","4","4","2","2","3","4","2","2","2","2","2","1","0","1","0","1","1","0","0","0","0","0","0","0","0","1","4","2","3","1","2","2","4","2","1","2","729263916630413313","王","693","","","","","","","","","","","","","","","","","","","true","4","4","ability","593","negative","愚钝","","","","","","","","","","","","","","",""
"null","","null","html-keyboard-response","156","183682","0.0-6.0-0.0-8.0-0.24","4","3","4","3","3","3","3","3","4","4","5","4","2","4","3","4","4","3","4","4","2","2","3","4","2","2","2","2","2","1","0","1","0","1","1","0","0","0","0","0","0","0","0","1","4","2","3","1","2","2","4","2","1","2","729263916630413313","王","693","","","","","","","","","","","","","","","","","","","","","","","","","","","","","","","","","","","","","","","",""
"520","<p style=""color:rgb(150, 250, 100); font-size: 35px;"">本人的</p>","i","categorize-html","157","184984","0.0-6.0-0.0-8.0-1.24","4","3","4","3","3","3","3","3","4","4","5","4","2","4","3","4","4","3","4","4","2","2","3","4","2","2","2","2","2","1","0","1","0","1","1","0","0","0","0","0","0","0","0","1","4","2","3","1","2","2","4","2","1","2","729263916630413313","王","693","","","","","","","","","","","","","","","","","","","false","4","4","ability","1228.7391304347825","self","本人的","","","","","","","","","","","","","","",""
"null","","null","html-keyboard-response","158","185243","0.0-6.0-0.0-8.0-0.25","4","3","4","3","3","3","3","3","4","4","5","4","2","4","3","4","4","3","4","4","2","2","3","4","2","2","2","2","2","1","0","1","0","1","1","0","0","0","0","0","0","0","0","1","4","2","3","1","2","2","4","2","1","2","729263916630413313","王","693","","","","","","","","","","","","","","","","","","","","","","","","","","","","","","","","","","","","","","","",""
"664","<p style=""color:white; font-size: 35px;"">天才</p>","i","categorize-html","159","185909","0.0-6.0-0.0-8.0-1.25","4","3","4","3","3","3","3","3","4","4","5","4","2","4","3","4","4","3","4","4","2","2","3","4","2","2","2","2","2","1","0","1","0","1","1","0","0","0","0","0","0","0","0","1","4","2","3","1","2","2","4","2","1","2","729263916630413313","王","693","","","","","","","","","","","","","","","","","","","true","4","4","ability","664","positive","天才","","","","","","","","","","","","","","",""
"null","","null","html-keyboard-response","160","186163","0.0-6.0-0.0-8.0-0.26","4","3","4","3","3","3","3","3","4","4","5","4","2","4","3","4","4","3","4","4","2","2","3","4","2","2","2","2","2","1","0","1","0","1","1","0","0","0","0","0","0","0","0","1","4","2","3","1","2","2","4","2","1","2","729263916630413313","王","693","","","","","","","","","","","","","","","","","","","","","","","","","","","","","","","","","","","","","","","",""
"668","<p style=""color:rgb(150, 250, 100); font-size: 35px;"">他的</p>","i","categorize-html","161","186832","0.0-6.0-0.0-8.0-1.26","4","3","4","3","3","3","3","3","4","4","5","4","2","4","3","4","4","3","4","4","2","2","3","4","2","2","2","2","2","1","0","1","0","1","1","0","0","0","0","0","0","0","0","1","4","2","3","1","2","2","4","2","1","2","729263916630413313","王","693","","","","","","","","","","","","","","","","","","","true","4","4","ability","668","other","他的","","","","","","","","","","","","","","",""
"null","","null","html-keyboard-response","162","187090","0.0-6.0-0.0-8.0-0.27","4","3","4","3","3","3","3","3","4","4","5","4","2","4","3","4","4","3","4","4","2","2","3","4","2","2","2","2","2","1","0","1","0","1","1","0","0","0","0","0","0","0","0","1","4","2","3","1","2","2","4","2","1","2","729263916630413313","王","693","","","","","","","","","","","","","","","","","","","","","","","","","","","","","","","","","","","","","","","",""
"488","<p style=""color:white; font-size: 35px;"">蠢笨</p>","e","categorize-html","163","187580","0.0-6.0-0.0-8.0-1.27","4","3","4","3","3","3","3","3","4","4","5","4","2","4","3","4","4","3","4","4","2","2","3","4","2","2","2","2","2","1","0","1","0","1","1","0","0","0","0","0","0","0","0","1","4","2","3","1","2","2","4","2","1","2","729263916630413313","王","693","","","","","","","","","","","","","","","","","","","true","4","4","ability","488","negative","蠢笨","","","","","","","","","","","","","","",""
"null","","null","html-keyboard-response","164","187834","0.0-6.0-0.0-8.0-0.28","4","3","4","3","3","3","3","3","4","4","5","4","2","4","3","4","4","3","4","4","2","2","3","4","2","2","2","2","2","1","0","1","0","1","1","0","0","0","0","0","0","0","0","1","4","2","3","1","2","2","4","2","1","2","729263916630413313","王","693","","","","","","","","","","","","","","","","","","","","","","","","","","","","","","","","","","","","","","","",""
"617","<p style=""color:rgb(150, 250, 100); font-size: 35px;"">他</p>","i","categorize-html","165","188452","0.0-6.0-0.0-8.0-1.28","4","3","4","3","3","3","3","3","4","4","5","4","2","4","3","4","4","3","4","4","2","2","3","4","2","2","2","2","2","1","0","1","0","1","1","0","0","0","0","0","0","0","0","1","4","2","3","1","2","2","4","2","1","2","729263916630413313","王","693","","","","","","","","","","","","","","","","","","","true","4","4","ability","617","other","他","","","","","","","","","","","","","","",""
"null","","null","html-keyboard-response","166","188706","0.0-6.0-0.0-8.0-0.29","4","3","4","3","3","3","3","3","4","4","5","4","2","4","3","4","4","3","4","4","2","2","3","4","2","2","2","2","2","1","0","1","0","1","1","0","0","0","0","0","0","0","0","1","4","2","3","1","2","2","4","2","1","2","729263916630413313","王","693","","","","","","","","","","","","","","","","","","","","","","","","","","","","","","","","","","","","","","","",""
"389","<p style=""color:white; font-size: 35px;"">全能</p>","e","categorize-html","167","189867","0.0-6.0-0.0-8.0-1.29","4","3","4","3","3","3","3","3","4","4","5","4","2","4","3","4","4","3","4","4","2","2","3","4","2","2","2","2","2","1","0","1","0","1","1","0","0","0","0","0","0","0","0","1","4","2","3","1","2","2","4","2","1","2","729263916630413313","王","693","","","","","","","","","","","","","","","","","","","false","4","4","ability","1228.7391304347825","positive","全能","","","","","","","","","","","","","","",""
"null","","null","html-keyboard-response","168","190123","0.0-6.0-0.0-8.0-0.30","4","3","4","3","3","3","3","3","4","4","5","4","2","4","3","4","4","3","4","4","2","2","3","4","2","2","2","2","2","1","0","1","0","1","1","0","0","0","0","0","0","0","0","1","4","2","3","1","2","2","4","2","1","2","729263916630413313","王","693","","","","","","","","","","","","","","","","","","","","","","","","","","","","","","","","","","","","","","","",""
"1023","<p style=""color:rgb(150, 250, 100); font-size: 35px;"">我的</p>","e","categorize-html","169","191149","0.0-6.0-0.0-8.0-1.30","4","3","4","3","3","3","3","3","4","4","5","4","2","4","3","4","4","3","4","4","2","2","3","4","2","2","2","2","2","1","0","1","0","1","1","0","0","0","0","0","0","0","0","1","4","2","3","1","2","2","4","2","1","2","729263916630413313","王","693","","","","","","","","","","","","","","","","","","","true","4","4","ability","1023","self","我的","","","","","","","","","","","","","","",""
"null","","null","html-keyboard-response","170","191402","0.0-6.0-0.0-8.0-0.31","4","3","4","3","3","3","3","3","4","4","5","4","2","4","3","4","4","3","4","4","2","2","3","4","2","2","2","2","2","1","0","1","0","1","1","0","0","0","0","0","0","0","0","1","4","2","3","1","2","2","4","2","1","2","729263916630413313","王","693","","","","","","","","","","","","","","","","","","","","","","","","","","","","","","","","","","","","","","","",""
"520","<p style=""color:white; font-size: 35px;"">愚钝</p>","e","categorize-html","171","191925","0.0-6.0-0.0-8.0-1.31","4","3","4","3","3","3","3","3","4","4","5","4","2","4","3","4","4","3","4","4","2","2","3","4","2","2","2","2","2","1","0","1","0","1","1","0","0","0","0","0","0","0","0","1","4","2","3","1","2","2","4","2","1","2","729263916630413313","王","693","","","","","","","","","","","","","","","","","","","true","4","4","ability","520","negative","愚钝","","","","","","","","","","","","","","",""
"null","","null","html-keyboard-response","172","192178","0.0-6.0-0.0-8.0-0.32","4","3","4","3","3","3","3","3","4","4","5","4","2","4","3","4","4","3","4","4","2","2","3","4","2","2","2","2","2","1","0","1","0","1","1","0","0","0","0","0","0","0","0","1","4","2","3","1","2","2","4","2","1","2","729263916630413313","王","693","","","","","","","","","","","","","","","","","","","","","","","","","","","","","","","","","","","","","","","",""
"604","<p style=""color:rgb(150, 250, 100); font-size: 35px;"">他人</p>","i","categorize-html","173","192785","0.0-6.0-0.0-8.0-1.32","4","3","4","3","3","3","3","3","4","4","5","4","2","4","3","4","4","3","4","4","2","2","3","4","2","2","2","2","2","1","0","1","0","1","1","0","0","0","0","0","0","0","0","1","4","2","3","1","2","2","4","2","1","2","729263916630413313","王","693","","","","","","","","","","","","","","","","","","","true","4","4","ability","604","other","他人","","","","","","","","","","","","","","",""
"null","","null","html-keyboard-response","174","193042","0.0-6.0-0.0-8.0-0.33","4","3","4","3","3","3","3","3","4","4","5","4","2","4","3","4","4","3","4","4","2","2","3","4","2","2","2","2","2","1","0","1","0","1","1","0","0","0","0","0","0","0","0","1","4","2","3","1","2","2","4","2","1","2","729263916630413313","王","693","","","","","","","","","","","","","","","","","","","","","","","","","","","","","","","","","","","","","","","",""
"525","<p style=""color:white; font-size: 35px;"">能干</p>","i","categorize-html","175","193569","0.0-6.0-0.0-8.0-1.33","4","3","4","3","3","3","3","3","4","4","5","4","2","4","3","4","4","3","4","4","2","2","3","4","2","2","2","2","2","1","0","1","0","1","1","0","0","0","0","0","0","0","0","1","4","2","3","1","2","2","4","2","1","2","729263916630413313","王","693","","","","","","","","","","","","","","","","","","","true","4","4","ability","525","positive","能干","","","","","","","","","","","","","","",""
"null","","null","html-keyboard-response","176","193826","0.0-6.0-0.0-8.0-0.34","4","3","4","3","3","3","3","3","4","4","5","4","2","4","3","4","4","3","4","4","2","2","3","4","2","2","2","2","2","1","0","1","0","1","1","0","0","0","0","0","0","0","0","1","4","2","3","1","2","2","4","2","1","2","729263916630413313","王","693","","","","","","","","","","","","","","","","","","","","","","","","","","","","","","","","","","","","","","","",""
"513","<p style=""color:rgb(150, 250, 100); font-size: 35px;"">本人的</p>","e","categorize-html","177","194342","0.0-6.0-0.0-8.0-1.34","4","3","4","3","3","3","3","3","4","4","5","4","2","4","3","4","4","3","4","4","2","2","3","4","2","2","2","2","2","1","0","1","0","1","1","0","0","0","0","0","0","0","0","1","4","2","3","1","2","2","4","2","1","2","729263916630413313","王","693","","","","","","","","","","","","","","","","","","","true","4","4","ability","513","self","本人的","","","","","","","","","","","","","","",""
"null","","null","html-keyboard-response","178","194595","0.0-6.0-0.0-8.0-0.35","4","3","4","3","3","3","3","3","4","4","5","4","2","4","3","4","4","3","4","4","2","2","3","4","2","2","2","2","2","1","0","1","0","1","1","0","0","0","0","0","0","0","0","1","4","2","3","1","2","2","4","2","1","2","729263916630413313","王","693","","","","","","","","","","","","","","","","","","","","","","","","","","","","","","","","","","","","","","","",""
"819","<p style=""color:white; font-size: 35px;"">无能</p>","e","categorize-html","179","195416","0.0-6.0-0.0-8.0-1.35","4","3","4","3","3","3","3","3","4","4","5","4","2","4","3","4","4","3","4","4","2","2","3","4","2","2","2","2","2","1","0","1","0","1","1","0","0","0","0","0","0","0","0","1","4","2","3","1","2","2","4","2","1","2","729263916630413313","王","693","","","","","","","","","","","","","","","","","","","true","4","4","ability","819","negative","无能","","","","","","","","","","","","","","",""
"null","","null","html-keyboard-response","180","195674","0.0-6.0-0.0-8.0-0.36","4","3","4","3","3","3","3","3","4","4","5","4","2","4","3","4","4","3","4","4","2","2","3","4","2","2","2","2","2","1","0","1","0","1","1","0","0","0","0","0","0","0","0","1","4","2","3","1","2","2","4","2","1","2","729263916630413313","王","693","","","","","","","","","","","","","","","","","","","","","","","","","","","","","","","","","","","","","","","",""
"521","<p style=""color:rgb(150, 250, 100); font-size: 35px;"">自己的</p>","e","categorize-html","181","196197","0.0-6.0-0.0-8.0-1.36","4","3","4","3","3","3","3","3","4","4","5","4","2","4","3","4","4","3","4","4","2","2","3","4","2","2","2","2","2","1","0","1","0","1","1","0","0","0","0","0","0","0","0","1","4","2","3","1","2","2","4","2","1","2","729263916630413313","王","693","","","","","","","","","","","","","","","","","","","true","4","4","ability","521","self","自己的","","","","","","","","","","","","","","",""
"null","","null","html-keyboard-response","182","196450","0.0-6.0-0.0-8.0-0.37","4","3","4","3","3","3","3","3","4","4","5","4","2","4","3","4","4","3","4","4","2","2","3","4","2","2","2","2","2","1","0","1","0","1","1","0","0","0","0","0","0","0","0","1","4","2","3","1","2","2","4","2","1","2","729263916630413313","王","693","","","","","","","","","","","","","","","","","","","","","","","","","","","","","","","","","","","","","","","",""
"585","<p style=""color:white; font-size: 35px;"">天才</p>","i","categorize-html","183","197037","0.0-6.0-0.0-8.0-1.37","4","3","4","3","3","3","3","3","4","4","5","4","2","4","3","4","4","3","4","4","2","2","3","4","2","2","2","2","2","1","0","1","0","1","1","0","0","0","0","0","0","0","0","1","4","2","3","1","2","2","4","2","1","2","729263916630413313","王","693","","","","","","","","","","","","","","","","","","","true","4","4","ability","585","positive","天才","","","","","","","","","","","","","","",""
"null","","null","html-keyboard-response","184","197290","0.0-6.0-0.0-8.0-0.38","4","3","4","3","3","3","3","3","4","4","5","4","2","4","3","4","4","3","4","4","2","2","3","4","2","2","2","2","2","1","0","1","0","1","1","0","0","0","0","0","0","0","0","1","4","2","3","1","2","2","4","2","1","2","729263916630413313","王","693","","","","","","","","","","","","","","","","","","","","","","","","","","","","","","","","","","","","","","","",""
"481","<p style=""color:rgb(150, 250, 100); font-size: 35px;"">他</p>","i","categorize-html","185","197772","0.0-6.0-0.0-8.0-1.38","4","3","4","3","3","3","3","3","4","4","5","4","2","4","3","4","4","3","4","4","2","2","3","4","2","2","2","2","2","1","0","1","0","1","1","0","0","0","0","0","0","0","0","1","4","2","3","1","2","2","4","2","1","2","729263916630413313","王","693","","","","","","","","","","","","","","","","","","","true","4","4","ability","481","other","他","","","","","","","","","","","","","","",""
"null","","null","html-keyboard-response","186","198027","0.0-6.0-0.0-8.0-0.39","4","3","4","3","3","3","3","3","4","4","5","4","2","4","3","4","4","3","4","4","2","2","3","4","2","2","2","2","2","1","0","1","0","1","1","0","0","0","0","0","0","0","0","1","4","2","3","1","2","2","4","2","1","2","729263916630413313","王","693","","","","","","","","","","","","","","","","","","","","","","","","","","","","","","","","","","","","","","","",""
"824","<p style=""color:white; font-size: 35px;"">蠢笨</p>","e","categorize-html","187","198854","0.0-6.0-0.0-8.0-1.39","4","3","4","3","3","3","3","3","4","4","5","4","2","4","3","4","4","3","4","4","2","2","3","4","2","2","2","2","2","1","0","1","0","1","1","0","0","0","0","0","0","0","0","1","4","2","3","1","2","2","4","2","1","2","729263916630413313","王","693","","","","","","","","","","","","","","","","","","","true","4","4","ability","824","negative","蠢笨","","","","","","","","","","","","","","",""
"null","","null","html-keyboard-response","188","199106","0.0-6.0-0.0-8.0-0.40","4","3","4","3","3","3","3","3","4","4","5","4","2","4","3","4","4","3","4","4","2","2","3","4","2","2","2","2","2","1","0","1","0","1","1","0","0","0","0","0","0","0","0","1","4","2","3","1","2","2","4","2","1","2","729263916630413313","王","693","","","","","","","","","","","","","","","","","","","","","","","","","","","","","","","","","","","","","","","",""
"1737","<p style=""color:rgb(150, 250, 100); font-size: 35px;"">别人的</p>","i","categorize-html","189","200846","0.0-6.0-0.0-8.0-1.40","4","3","4","3","3","3","3","3","4","4","5","4","2","4","3","4","4","3","4","4","2","2","3","4","2","2","2","2","2","1","0","1","0","1","1","0","0","0","0","0","0","0","0","1","4","2","3","1","2","2","4","2","1","2","729263916630413313","王","693","","","","","","","","","","","","","","","","","","","true","4","4","ability","1737","other","别人的","","","","","","","","","","","","","","",""
"null","","null","html-keyboard-response","190","201098","0.0-6.0-0.0-8.0-0.41","4","3","4","3","3","3","3","3","4","4","5","4","2","4","3","4","4","3","4","4","2","2","3","4","2","2","2","2","2","1","0","1","0","1","1","0","0","0","0","0","0","0","0","1","4","2","3","1","2","2","4","2","1","2","729263916630413313","王","693","","","","","","","","","","","","","","","","","","","","","","","","","","","","","","","","","","","","","","","",""
"621","<p style=""color:white; font-size: 35px;"">拙笨</p>","e","categorize-html","191","201722","0.0-6.0-0.0-8.0-1.41","4","3","4","3","3","3","3","3","4","4","5","4","2","4","3","4","4","3","4","4","2","2","3","4","2","2","2","2","2","1","0","1","0","1","1","0","0","0","0","0","0","0","0","1","4","2","3","1","2","2","4","2","1","2","729263916630413313","王","693","","","","","","","","","","","","","","","","","","","true","4","4","ability","621","negative","拙笨","","","","","","","","","","","","","","",""
"null","","null","html-keyboard-response","192","201978","0.0-6.0-0.0-8.0-0.42","4","3","4","3","3","3","3","3","4","4","5","4","2","4","3","4","4","3","4","4","2","2","3","4","2","2","2","2","2","1","0","1","0","1","1","0","0","0","0","0","0","0","0","1","4","2","3","1","2","2","4","2","1","2","729263916630413313","王","693","","","","","","","","","","","","","","","","","","","","","","","","","","","","","","","","","","","","","","","",""
"525","<p style=""color:rgb(150, 250, 100); font-size: 35px;"">自己</p>","e","categorize-html","193","202505","0.0-6.0-0.0-8.0-1.42","4","3","4","3","3","3","3","3","4","4","5","4","2","4","3","4","4","3","4","4","2","2","3","4","2","2","2","2","2","1","0","1","0","1","1","0","0","0","0","0","0","0","0","1","4","2","3","1","2","2","4","2","1","2","729263916630413313","王","693","","","","","","","","","","","","","","","","","","","true","4","4","ability","525","self","自己","","","","","","","","","","","","","","",""
"null","","null","html-keyboard-response","194","202762","0.0-6.0-0.0-8.0-0.43","4","3","4","3","3","3","3","3","4","4","5","4","2","4","3","4","4","3","4","4","2","2","3","4","2","2","2","2","2","1","0","1","0","1","1","0","0","0","0","0","0","0","0","1","4","2","3","1","2","2","4","2","1","2","729263916630413313","王","693","","","","","","","","","","","","","","","","","","","","","","","","","","","","","","","","","","","","","","","",""
"473","<p style=""color:white; font-size: 35px;"">高效</p>","i","categorize-html","195","203235","0.0-6.0-0.0-8.0-1.43","4","3","4","3","3","3","3","3","4","4","5","4","2","4","3","4","4","3","4","4","2","2","3","4","2","2","2","2","2","1","0","1","0","1","1","0","0","0","0","0","0","0","0","1","4","2","3","1","2","2","4","2","1","2","729263916630413313","王","693","","","","","","","","","","","","","","","","","","","true","4","4","ability","473","positive","高效","","","","","","","","","","","","","","",""
"null","","null","html-keyboard-response","196","203490","0.0-6.0-0.0-8.0-0.44","4","3","4","3","3","3","3","3","4","4","5","4","2","4","3","4","4","3","4","4","2","2","3","4","2","2","2","2","2","1","0","1","0","1","1","0","0","0","0","0","0","0","0","1","4","2","3","1","2","2","4","2","1","2","729263916630413313","王","693","","","","","","","","","","","","","","","","","","","","","","","","","","","","","","","","","","","","","","","",""
"552","<p style=""color:rgb(150, 250, 100); font-size: 35px;"">本人</p>","e","categorize-html","197","204044","0.0-6.0-0.0-8.0-1.44","4","3","4","3","3","3","3","3","4","4","5","4","2","4","3","4","4","3","4","4","2","2","3","4","2","2","2","2","2","1","0","1","0","1","1","0","0","0","0","0","0","0","0","1","4","2","3","1","2","2","4","2","1","2","729263916630413313","王","693","","","","","","","","","","","","","","","","","","","true","4","4","ability","552","self","本人","","","","","","","","","","","","","","",""
