"rt","stimulus","response","trial_type","trial_index","time_elapsed","internal_node_id","ses_1","ses_2","ses_3","ses_4","ses_5","ses_6","ses_7","ses_8","ses_9","ses_10","coreself_1","coreself_2","coreself_3","coreself_4","coreself_5","coreself_6","coreself_7","coreself_8","coreself_9","coreself_10","SGPS_1","SGPS_2","SGPS_3","SGPS_4","SGPS_5","SGPS_6","SGPS_7","SGPS_8","SGPS_9","NPI1","NPI2","NPI3","NPI4","NPI5","NPI6","NPI7","NPI8","NPI9","NPI10","NPI11","NPI12","NPI13","NPI14","NPI15","hsns_1","hsns_2","hsns_3","hsns_4","hsns_5","hsns_6","hsns_7","hsns_8","hsns_9","hsns_10","subj_idx","friend_name","ParticipantID","value","success","user_agent","responses","item_order","radio_event_ids","radio_event_times","key_event_times","mouse_event_times","straightlining","zigzagging","honeypot","timeout","failed_images","failed_audio","failed_video","view_history","response_type","key_press","avg_frame_time","center_x","center_y","correct_response","correct","identity","Image","word","condition","task_id","screen_id","time_stamp","version_attrib2","version_target2","IAT","RT","varname","summary","version_attrib","version_target","question_order"
"5422","
   <p><div style = ""color: white;font-size:25px;"">您好，欢迎参加本次实验。</div> </p>
   <p><div style = ""color: white;font-size:25px;"">为充分保障您的权利，请确保您已经知晓并同意《参与实验同意书》以及《数据公开知情同意书》。</div></p>
   <p><div style = ""color: white;font-size:25px;"">如果您未见过上述内容，请咨询实验员。</div></p>
   <p><div style = ""color: white;font-size:25px;"">如果您选择继续实验，则表示您已经清楚两份知情同意书的内容并同意。</div></p>
   <p> <div style = ""color: green;font-size:25px;""><按空格键至下页></div> </p>
   "," ","html-keyboard-response","0","5424","0.0-0.0","3","3","3","3","3","3","3","3","4","4","3","2","3","3","2","3","1","2","4","3","4","5","3","4","4","4","3","4","3","1","0","1","1","0","1","1","1","1","1","1","0","1","0","1","5","5","4","2","4","2","3","1","4","4","644508738497019904","韦","001","","","","","","","","","","","","","","","","","","","","","","","","","","","","","","","","","","","","","","","",""
"","","","call-function","1","5424","0.0-1.0-0.0","3","3","3","3","3","3","3","3","4","4","3","2","3","3","2","3","1","2","4","3","4","5","3","4","4","4","3","4","3","1","0","1","1","0","1","1","1","1","1","1","0","1","0","1","5","5","4","2","4","2","3","1","4","4","644508738497019904","韦","001","","","","","","","","","","","","","","","","","","","","","","","","","","","","","","","","","","","","","","","",""
"40695","","{""friend_name"":""韦"",""ParticipantID"":""001""}","survey-html-form","2","46120","0.0-1.0-1.0","3","3","3","3","3","3","3","3","4","4","3","2","3","3","2","3","1","2","4","3","4","5","3","4","4","4","3","4","3","1","0","1","1","0","1","1","1","1","1","1","0","1","0","1","5","5","4","2","4","2","3","1","4","4","644508738497019904","韦","001","","","","","","","","","","","","","","","","","","","","","","","","","","","","","","","","","","","","","","","",""
"","","","fullscreen","3","84590","0.0-2.0","3","3","3","3","3","3","3","3","4","4","3","2","3","3","2","3","1","2","4","3","4","5","3","4","4","4","3","4","3","1","0","1","1","0","1","1","1","1","1","1","0","1","0","1","5","5","4","2","4","2","3","1","4","4","644508738497019904","韦","001","","true","{}","","","","","","","","","","","","","","","","","","","","","","","","","","","","","","","","","","","","",""
"26305.100000023842","","{""Q01"":""3"",""Q02"":""3"",""Q03"":""3"",""Q04"":""3"",""Q05"":""3"",""Q06"":""3"",""Q07"":""3"",""Q08"":""3"",""Q09"":""4"",""Q10"":""4""}","survey-template","4","110898","0.0-3.0","3","3","3","3","3","3","3","3","4","4","3","2","3","3","2","3","1","2","4","3","4","5","3","4","4","4","3","4","3","1","0","1","1","0","1","1","1","1","1","1","0","1","0","1","5","5","4","2","4","2","3","1","4","4","644508738497019904","韦","001","","","","{""Q01"":""3"",""Q02"":""3"",""Q03"":""3"",""Q04"":""3"",""Q05"":""3"",""Q06"":""3"",""Q07"":""3"",""Q08"":""3"",""Q09"":""4"",""Q10"":""4""}","[0,1,2,3,4,5,6,7,8,9]","[""Q01"",""Q02"",""Q03"",""Q04"",""Q05"",""Q06"",""Q07"",""Q08"",""Q09"",""Q10""]","[5464,8648,10168,12927.900000035763,15080.100000023842,16696.100000023842,17919.900000035763,20039.900000035763,21695.900000035763,22607.900000035763]","[]","[5464,8648,10168,12927.900000035763,15080.100000023842,16696.100000023842,17919.900000035763,20039.900000035763,21695.900000035763,22607.900000035763,26304.30000001192]","0.5","0.6666666666666666","0","","","","","","","","","","","","","","","","","","","","","","","","","","","",""
"34802.60000002384","","{""Q01"":""3"",""Q02"":""2"",""Q03"":""3"",""Q04"":""3"",""Q05"":""2"",""Q06"":""3"",""Q07"":""1"",""Q08"":""2"",""Q09"":""4"",""Q10"":""3""}","survey-template","5","145705","0.0-4.0","3","3","3","3","3","3","3","3","4","4","3","2","3","3","2","3","1","2","4","3","4","5","3","4","4","4","3","4","3","1","0","1","1","0","1","1","1","1","1","1","0","1","0","1","5","5","4","2","4","2","3","1","4","4","644508738497019904","韦","001","","","","{""Q01"":""3"",""Q02"":""2"",""Q03"":""3"",""Q04"":""3"",""Q05"":""2"",""Q06"":""3"",""Q07"":""1"",""Q08"":""2"",""Q09"":""4"",""Q10"":""3""}","[0,1,2,3,4,5,6,7,8,9]","[""Q02"",""Q01"",""Q03"",""Q03"",""Q04"",""Q05"",""Q06"",""Q07"",""Q08"",""Q09"",""Q10""]","[5553.300000011921,6322.300000011921,8945.5,11793.699999988079,13985.800000011921,16114.100000023842,20097.69999998808,22105.69999998808,24025.80000001192,30265.69999998808,31177.69999998808]","[]","[4529.5,5553.300000011921,6322.300000011921,8945.5,11290.600000023842,11793.699999988079,13985.800000011921,16114.100000023842,20097.69999998808,22105.69999998808,24025.80000001192,29113.600000023842,30265.69999998808,31177.69999998808,34801.60000002384]","0.5","0.6666666666666666","0","","","","","","","","","","","","","","","","","","","","","","","","","","","",""
"","","","preload","6","146482","0.0-5.0","3","3","3","3","3","3","3","3","4","4","3","2","3","3","2","3","1","2","4","3","4","5","3","4","4","4","3","4","3","1","0","1","1","0","1","1","1","1","1","1","0","1","0","1","5","5","4","2","4","2","3","1","4","4","644508738497019904","韦","001","","true","","","","","","","","","","","false","[]","[]","[]","","","","","","","","","","","","","","","","","","","","","","","",""
"23342","","","instructions","7","169824","0.0-6.0","3","3","3","3","3","3","3","3","4","4","3","2","3","3","2","3","1","2","4","3","4","5","3","4","4","4","3","4","3","1","0","1","1","0","1","1","1","1","1","1","0","1","0","1","5","5","4","2","4","2","3","1","4","4","644508738497019904","韦","001","","","","","","","","","","","","","","","","","[{""page_index"":0,""viewing_time"":23341}]","","","","","","","","","","","","","","","","","","","","","","",""
"40547","","","instructions","8","210372","0.0-7.0-1.0-0.0","3","3","3","3","3","3","3","3","4","4","3","2","3","3","2","3","1","2","4","3","4","5","3","4","4","4","3","4","3","1","0","1","1","0","1","1","1","1","1","1","0","1","0","1","5","5","4","2","4","2","3","1","4","4","644508738497019904","韦","001","","","","","","","","","","","","","","","","","[{""page_index"":0,""viewing_time"":25086},{""page_index"":1,""viewing_time"":12525},{""page_index"":2,""viewing_time"":2935}]","","","","","","","","","","","","","","","","","","","","","","",""
"1187","","f","psychophysics","9","212562","0.0-7.0-1.0-1.0-0.0-0.0","3","3","3","3","3","3","3","3","4","4","3","2","3","3","2","3","1","2","4","3","4","5","3","4","4","4","3","4","3","1","0","1","1","0","1","1","1","1","1","1","0","1","0","1","5","5","4","2","4","2","3","1","4","4","644508738497019904","韦","001","","","","nonmatch","","","","","","","","","","","","","","key","f","16.65820000000016","697.8181818181819","388.3636363636364","f","true","nonmatch","img/triangle.png","椭圆","三角","ALT1_2","prac_ALT1_2","","","","","","","","","",""
"null","<span style='color:GreenYellow; font-size: 70px;'>正确! </span>","null","html-keyboard-response","10","213064","0.0-7.0-1.0-1.0-0.0-1.0","3","3","3","3","3","3","3","3","4","4","3","2","3","3","2","3","1","2","4","3","4","5","3","4","4","4","3","4","3","1","0","1","1","0","1","1","1","1","1","1","0","1","0","1","5","5","4","2","4","2","3","1","4","4","644508738497019904","韦","001","","","","","","","","","","","","","","","","","","","","","","","","","","","","","","feedback_test","","","","","","","","","",""
"661","","j","psychophysics","11","214726","0.0-7.0-1.0-1.0-0.0-0.1","3","3","3","3","3","3","3","3","4","4","3","2","3","3","2","3","1","2","4","3","4","5","3","4","4","4","3","4","3","1","0","1","1","0","1","1","1","1","1","1","0","1","0","1","5","5","4","2","4","2","3","1","4","4","644508738497019904","韦","001","","","","match","","","","","","","","","","","","","","key","j","16.65845918367327","697.8181818181819","388.3636363636364","j","true","match","img/square.png","方形","方形","ALT1_2","prac_ALT1_2","","","","","","","","","",""
"null","<span style='color:GreenYellow; font-size: 70px;'>正确! </span>","null","html-keyboard-response","12","215227","0.0-7.0-1.0-1.0-0.0-1.1","3","3","3","3","3","3","3","3","4","4","3","2","3","3","2","3","1","2","4","3","4","5","3","4","4","4","3","4","3","1","0","1","1","0","1","1","1","1","1","1","0","1","0","1","5","5","4","2","4","2","3","1","4","4","644508738497019904","韦","001","","","","","","","","","","","","","","","","","","","","","","","","","","","","","","feedback_test","","","","","","","","","",""
"607","","j","psychophysics","13","216836","0.0-7.0-1.0-1.0-0.0-0.2","3","3","3","3","3","3","3","3","4","4","3","2","3","3","2","3","1","2","4","3","4","5","3","4","4","4","3","4","3","1","0","1","1","0","1","1","1","1","1","1","0","1","0","1","5","5","4","2","4","2","3","1","4","4","644508738497019904","韦","001","","","","match","","","","","","","","","","","","","","key","j","16.650673684210357","697.8181818181819","388.3636363636364","j","true","match","img/ellipse.png","椭圆","椭圆","ALT1_2","prac_ALT1_2","","","","","","","","","",""
"null","<span style='color:GreenYellow; font-size: 70px;'>正确! </span>","null","html-keyboard-response","14","217337","0.0-7.0-1.0-1.0-0.0-1.2","3","3","3","3","3","3","3","3","4","4","3","2","3","3","2","3","1","2","4","3","4","5","3","4","4","4","3","4","3","1","0","1","1","0","1","1","1","1","1","1","0","1","0","1","5","5","4","2","4","2","3","1","4","4","644508738497019904","韦","001","","","","","","","","","","","","","","","","","","","","","","","","","","","","","","feedback_test","","","","","","","","","",""
"736","","j","psychophysics","15","219074","0.0-7.0-1.0-1.0-0.0-0.3","3","3","3","3","3","3","3","3","4","4","3","2","3","3","2","3","1","2","4","3","4","5","3","4","4","4","3","4","3","1","0","1","1","0","1","1","1","1","1","1","0","1","0","1","5","5","4","2","4","2","3","1","4","4","644508738497019904","韦","001","","","","match","","","","","","","","","","","","","","key","j","16.658825242718414","697.8181818181819","388.3636363636364","f","false","nonmatch","img/pentagon.png","椭圆","五边","ALT1_2","prac_ALT1_2","","","","","","","","","",""
"null","<span style='color:red; font-size: 70px;'>错误! </span>","null","html-keyboard-response","16","219575","0.0-7.0-1.0-1.0-0.0-1.3","3","3","3","3","3","3","3","3","4","4","3","2","3","3","2","3","1","2","4","3","4","5","3","4","4","4","3","4","3","1","0","1","1","0","1","1","1","1","1","1","0","1","0","1","5","5","4","2","4","2","3","1","4","4","644508738497019904","韦","001","","","","","","","","","","","","","","","","","","","","","","","","","","","","","","feedback_test","","","","","","","","","",""
"829","","j","psychophysics","17","221405","0.0-7.0-1.0-1.0-0.0-0.4","3","3","3","3","3","3","3","3","4","4","3","2","3","3","2","3","1","2","4","3","4","5","3","4","4","4","3","4","3","1","0","1","1","0","1","1","1","1","1","1","0","1","0","1","5","5","4","2","4","2","3","1","4","4","644508738497019904","韦","001","","","","match","","","","","","","","","","","","","","key","j","16.65900917431188","697.8181818181819","388.3636363636364","j","true","match","img/pentagon.png","五边","五边","ALT1_2","prac_ALT1_2","","","","","","","","","",""
"null","<span style='color:GreenYellow; font-size: 70px;'>正确! </span>","null","html-keyboard-response","18","221906","0.0-7.0-1.0-1.0-0.0-1.4","3","3","3","3","3","3","3","3","4","4","3","2","3","3","2","3","1","2","4","3","4","5","3","4","4","4","3","4","3","1","0","1","1","0","1","1","1","1","1","1","0","1","0","1","5","5","4","2","4","2","3","1","4","4","644508738497019904","韦","001","","","","","","","","","","","","","","","","","","","","","","","","","","","","","","feedback_test","","","","","","","","","",""
"714","","f","psychophysics","19","223621","0.0-7.0-1.0-1.0-0.0-0.5","3","3","3","3","3","3","3","3","4","4","3","2","3","3","2","3","1","2","4","3","4","5","3","4","4","4","3","4","3","1","0","1","1","0","1","1","1","1","1","1","0","1","0","1","5","5","4","2","4","2","3","1","4","4","644508738497019904","韦","001","","","","nonmatch","","","","","","","","","","","","","","key","f","16.658441176470802","697.8181818181819","388.3636363636364","f","true","nonmatch","img/triangle.png","方形","三角","ALT1_2","prac_ALT1_2","","","","","","","","","",""
"null","<span style='color:GreenYellow; font-size: 70px;'>正确! </span>","null","html-keyboard-response","20","224122","0.0-7.0-1.0-1.0-0.0-1.5","3","3","3","3","3","3","3","3","4","4","3","2","3","3","2","3","1","2","4","3","4","5","3","4","4","4","3","4","3","1","0","1","1","0","1","1","1","1","1","1","0","1","0","1","5","5","4","2","4","2","3","1","4","4","644508738497019904","韦","001","","","","","","","","","","","","","","","","","","","","","","","","","","","","","","feedback_test","","","","","","","","","",""
"731","","j","psychophysics","21","225855","0.0-7.0-1.0-1.0-0.0-0.6","3","3","3","3","3","3","3","3","4","4","3","2","3","3","2","3","1","2","4","3","4","5","3","4","4","4","3","4","3","1","0","1","1","0","1","1","1","1","1","1","0","1","0","1","5","5","4","2","4","2","3","1","4","4","644508738497019904","韦","001","","","","match","","","","","","","","","","","","","","key","j","16.65841747572797","697.8181818181819","388.3636363636364","j","true","match","img/triangle.png","三角","三角","ALT1_2","prac_ALT1_2","","","","","","","","","",""
"null","<span style='color:GreenYellow; font-size: 70px;'>正确! </span>","null","html-keyboard-response","22","226356","0.0-7.0-1.0-1.0-0.0-1.6","3","3","3","3","3","3","3","3","4","4","3","2","3","3","2","3","1","2","4","3","4","5","3","4","4","4","3","4","3","1","0","1","1","0","1","1","1","1","1","1","0","1","0","1","5","5","4","2","4","2","3","1","4","4","644508738497019904","韦","001","","","","","","","","","","","","","","","","","","","","","","","","","","","","","","feedback_test","","","","","","","","","",""
"559","","j","psychophysics","23","227916","0.0-7.0-1.0-1.0-0.0-0.7","3","3","3","3","3","3","3","3","4","4","3","2","3","3","2","3","1","2","4","3","4","5","3","4","4","4","3","4","3","1","0","1","1","0","1","1","1","1","1","1","0","1","0","1","5","5","4","2","4","2","3","1","4","4","644508738497019904","韦","001","","","","match","","","","","","","","","","","","","","key","j","16.657706521739033","697.8181818181819","388.3636363636364","j","true","match","img/ellipse.png","椭圆","椭圆","ALT1_2","prac_ALT1_2","","","","","","","","","",""
"null","<span style='color:GreenYellow; font-size: 70px;'>正确! </span>","null","html-keyboard-response","24","228419","0.0-7.0-1.0-1.0-0.0-1.7","3","3","3","3","3","3","3","3","4","4","3","2","3","3","2","3","1","2","4","3","4","5","3","4","4","4","3","4","3","1","0","1","1","0","1","1","1","1","1","1","0","1","0","1","5","5","4","2","4","2","3","1","4","4","644508738497019904","韦","001","","","","","","","","","","","","","","","","","","","","","","","","","","","","","","feedback_test","","","","","","","","","",""
"620","","f","psychophysics","25","230040","0.0-7.0-1.0-1.0-0.0-0.8","3","3","3","3","3","3","3","3","4","4","3","2","3","3","2","3","1","2","4","3","4","5","3","4","4","4","3","4","3","1","0","1","1","0","1","1","1","1","1","1","0","1","0","1","5","5","4","2","4","2","3","1","4","4","644508738497019904","韦","001","","","","nonmatch","","","","","","","","","","","","","","key","f","16.658546391752736","697.8181818181819","388.3636363636364","f","true","nonmatch","img/ellipse.png","三角","椭圆","ALT1_2","prac_ALT1_2","","","","","","","","","",""
"null","<span style='color:GreenYellow; font-size: 70px;'>正确! </span>","null","html-keyboard-response","26","230542","0.0-7.0-1.0-1.0-0.0-1.8","3","3","3","3","3","3","3","3","4","4","3","2","3","3","2","3","1","2","4","3","4","5","3","4","4","4","3","4","3","1","0","1","1","0","1","1","1","1","1","1","0","1","0","1","5","5","4","2","4","2","3","1","4","4","644508738497019904","韦","001","","","","","","","","","","","","","","","","","","","","","","","","","","","","","","feedback_test","","","","","","","","","",""
"542","","j","psychophysics","27","232087","0.0-7.0-1.0-1.0-0.0-0.9","3","3","3","3","3","3","3","3","4","4","3","2","3","3","2","3","1","2","4","3","4","5","3","4","4","4","3","4","3","1","0","1","1","0","1","1","1","1","1","1","0","1","0","1","5","5","4","2","4","2","3","1","4","4","644508738497019904","韦","001","","","","match","","","","","","","","","","","","","","key","j","16.656956043955997","697.8181818181819","388.3636363636364","j","true","match","img/triangle.png","三角","三角","ALT1_2","prac_ALT1_2","","","","","","","","","",""
"null","<span style='color:GreenYellow; font-size: 70px;'>正确! </span>","null","html-keyboard-response","28","232588","0.0-7.0-1.0-1.0-0.0-1.9","3","3","3","3","3","3","3","3","4","4","3","2","3","3","2","3","1","2","4","3","4","5","3","4","4","4","3","4","3","1","0","1","1","0","1","1","1","1","1","1","0","1","0","1","5","5","4","2","4","2","3","1","4","4","644508738497019904","韦","001","","","","","","","","","","","","","","","","","","","","","","","","","","","","","","feedback_test","","","","","","","","","",""
"837","","f","psychophysics","29","234427","0.0-7.0-1.0-1.0-0.0-0.10","3","3","3","3","3","3","3","3","4","4","3","2","3","3","2","3","1","2","4","3","4","5","3","4","4","4","3","4","3","1","0","1","1","0","1","1","1","1","1","1","0","1","0","1","5","5","4","2","4","2","3","1","4","4","644508738497019904","韦","001","","","","nonmatch","","","","","","","","","","","","","","key","f","16.657990825687985","697.8181818181819","388.3636363636364","f","true","nonmatch","img/pentagon.png","三角","五边","ALT1_2","prac_ALT1_2","","","","","","","","","",""
"null","<span style='color:GreenYellow; font-size: 70px;'>正确! </span>","null","html-keyboard-response","30","234929","0.0-7.0-1.0-1.0-0.0-1.10","3","3","3","3","3","3","3","3","4","4","3","2","3","3","2","3","1","2","4","3","4","5","3","4","4","4","3","4","3","1","0","1","1","0","1","1","1","1","1","1","0","1","0","1","5","5","4","2","4","2","3","1","4","4","644508738497019904","韦","001","","","","","","","","","","","","","","","","","","","","","","","","","","","","","","feedback_test","","","","","","","","","",""
"663","","j","psychophysics","31","236593","0.0-7.0-1.0-1.0-0.0-0.11","3","3","3","3","3","3","3","3","4","4","3","2","3","3","2","3","1","2","4","3","4","5","3","4","4","4","3","4","3","1","0","1","1","0","1","1","1","1","1","1","0","1","0","1","5","5","4","2","4","2","3","1","4","4","644508738497019904","韦","001","","","","match","","","","","","","","","","","","","","key","j","16.659151515151454","697.8181818181819","388.3636363636364","j","true","match","img/square.png","方形","方形","ALT1_2","prac_ALT1_2","","","","","","","","","",""
"null","<span style='color:GreenYellow; font-size: 70px;'>正确! </span>","null","html-keyboard-response","32","237094","0.0-7.0-1.0-1.0-0.0-1.11","3","3","3","3","3","3","3","3","4","4","3","2","3","3","2","3","1","2","4","3","4","5","3","4","4","4","3","4","3","1","0","1","1","0","1","1","1","1","1","1","0","1","0","1","5","5","4","2","4","2","3","1","4","4","644508738497019904","韦","001","","","","","","","","","","","","","","","","","","","","","","","","","","","","","","feedback_test","","","","","","","","","",""
"937","","f","psychophysics","33","239033","0.0-7.0-1.0-1.0-0.0-0.12","3","3","3","3","3","3","3","3","4","4","3","2","3","3","2","3","1","2","4","3","4","5","3","4","4","4","3","4","3","1","0","1","1","0","1","1","1","1","1","1","0","1","0","1","5","5","4","2","4","2","3","1","4","4","644508738497019904","韦","001","","","","nonmatch","","","","","","","","","","","","","","key","f","16.658930434782626","697.8181818181819","388.3636363636364","f","true","nonmatch","img/ellipse.png","方形","椭圆","ALT1_2","prac_ALT1_2","","","","","","","","","",""
"null","<span style='color:GreenYellow; font-size: 70px;'>正确! </span>","null","html-keyboard-response","34","239534","0.0-7.0-1.0-1.0-0.0-1.12","3","3","3","3","3","3","3","3","4","4","3","2","3","3","2","3","1","2","4","3","4","5","3","4","4","4","3","4","3","1","0","1","1","0","1","1","1","1","1","1","0","1","0","1","5","5","4","2","4","2","3","1","4","4","644508738497019904","韦","001","","","","","","","","","","","","","","","","","","","","","","","","","","","","","","feedback_test","","","","","","","","","",""
"665","","j","psychophysics","35","241201","0.0-7.0-1.0-1.0-0.0-0.13","3","3","3","3","3","3","3","3","4","4","3","2","3","3","2","3","1","2","4","3","4","5","3","4","4","4","3","4","3","1","0","1","1","0","1","1","1","1","1","1","0","1","0","1","5","5","4","2","4","2","3","1","4","4","644508738497019904","韦","001","","","","match","","","","","","","","","","","","","","key","j","16.658606060606257","697.8181818181819","388.3636363636364","j","true","match","img/square.png","方形","方形","ALT1_2","prac_ALT1_2","","","","","","","","","",""
"null","<span style='color:GreenYellow; font-size: 70px;'>正确! </span>","null","html-keyboard-response","36","241703","0.0-7.0-1.0-1.0-0.0-1.13","3","3","3","3","3","3","3","3","4","4","3","2","3","3","2","3","1","2","4","3","4","5","3","4","4","4","3","4","3","1","0","1","1","0","1","1","1","1","1","1","0","1","0","1","5","5","4","2","4","2","3","1","4","4","644508738497019904","韦","001","","","","","","","","","","","","","","","","","","","","","","","","","","","","","","feedback_test","","","","","","","","","",""
"695","","j","psychophysics","37","243400","0.0-7.0-1.0-1.0-0.0-0.14","3","3","3","3","3","3","3","3","4","4","3","2","3","3","2","3","1","2","4","3","4","5","3","4","4","4","3","4","3","1","0","1","1","0","1","1","1","1","1","1","0","1","0","1","5","5","4","2","4","2","3","1","4","4","644508738497019904","韦","001","","","","match","","","","","","","","","","","","","","key","j","16.658495049504968","697.8181818181819","388.3636363636364","j","true","match","img/triangle.png","三角","三角","ALT1_2","prac_ALT1_2","","","","","","","","","",""
"null","<span style='color:GreenYellow; font-size: 70px;'>正确! </span>","null","html-keyboard-response","38","243901","0.0-7.0-1.0-1.0-0.0-1.14","3","3","3","3","3","3","3","3","4","4","3","2","3","3","2","3","1","2","4","3","4","5","3","4","4","4","3","4","3","1","0","1","1","0","1","1","1","1","1","1","0","1","0","1","5","5","4","2","4","2","3","1","4","4","644508738497019904","韦","001","","","","","","","","","","","","","","","","","","","","","","","","","","","","","","feedback_test","","","","","","","","","",""
"615","","f","psychophysics","39","245517","0.0-7.0-1.0-1.0-0.0-0.15","3","3","3","3","3","3","3","3","4","4","3","2","3","3","2","3","1","2","4","3","4","5","3","4","4","4","3","4","3","1","0","1","1","0","1","1","1","1","1","1","0","1","0","1","5","5","4","2","4","2","3","1","4","4","644508738497019904","韦","001","","","","nonmatch","","","","","","","","","","","","","","key","f","16.658406249999945","697.8181818181819","388.3636363636364","f","true","nonmatch","img/square.png","三角","方形","ALT1_2","prac_ALT1_2","","","","","","","","","",""
"null","<span style='color:GreenYellow; font-size: 70px;'>正确! </span>","null","html-keyboard-response","40","246018","0.0-7.0-1.0-1.0-0.0-1.15","3","3","3","3","3","3","3","3","4","4","3","2","3","3","2","3","1","2","4","3","4","5","3","4","4","4","3","4","3","1","0","1","1","0","1","1","1","1","1","1","0","1","0","1","5","5","4","2","4","2","3","1","4","4","644508738497019904","韦","001","","","","","","","","","","","","","","","","","","","","","","","","","","","","","","feedback_test","","","","","","","","","",""
"874","","j","psychophysics","41","247894","0.0-7.0-1.0-1.0-0.0-0.16","3","3","3","3","3","3","3","3","4","4","3","2","3","3","2","3","1","2","4","3","4","5","3","4","4","4","3","4","3","1","0","1","1","0","1","1","1","1","1","1","0","1","0","1","5","5","4","2","4","2","3","1","4","4","644508738497019904","韦","001","","","","match","","","","","","","","","","","","","","key","j","16.65882882882887","697.8181818181819","388.3636363636364","f","false","nonmatch","img/square.png","五边","方形","ALT1_2","prac_ALT1_2","","","","","","","","","",""
"null","<span style='color:red; font-size: 70px;'>错误! </span>","null","html-keyboard-response","42","248395","0.0-7.0-1.0-1.0-0.0-1.16","3","3","3","3","3","3","3","3","4","4","3","2","3","3","2","3","1","2","4","3","4","5","3","4","4","4","3","4","3","1","0","1","1","0","1","1","1","1","1","1","0","1","0","1","5","5","4","2","4","2","3","1","4","4","644508738497019904","韦","001","","","","","","","","","","","","","","","","","","","","","","","","","","","","","","feedback_test","","","","","","","","","",""
"628","","f","psychophysics","43","250024","0.0-7.0-1.0-1.0-0.0-0.17","3","3","3","3","3","3","3","3","4","4","3","2","3","3","2","3","1","2","4","3","4","5","3","4","4","4","3","4","3","1","0","1","1","0","1","1","1","1","1","1","0","1","0","1","5","5","4","2","4","2","3","1","4","4","644508738497019904","韦","001","","","","nonmatch","","","","","","","","","","","","","","key","f","16.65834375000001","697.8181818181819","388.3636363636364","f","true","nonmatch","img/ellipse.png","五边","椭圆","ALT1_2","prac_ALT1_2","","","","","","","","","",""
"null","<span style='color:GreenYellow; font-size: 70px;'>正确! </span>","null","html-keyboard-response","44","250525","0.0-7.0-1.0-1.0-0.0-1.17","3","3","3","3","3","3","3","3","4","4","3","2","3","3","2","3","1","2","4","3","4","5","3","4","4","4","3","4","3","1","0","1","1","0","1","1","1","1","1","1","0","1","0","1","5","5","4","2","4","2","3","1","4","4","644508738497019904","韦","001","","","","","","","","","","","","","","","","","","","","","","","","","","","","","","feedback_test","","","","","","","","","",""
"810","","j","psychophysics","45","252336","0.0-7.0-1.0-1.0-0.0-0.18","3","3","3","3","3","3","3","3","4","4","3","2","3","3","2","3","1","2","4","3","4","5","3","4","4","4","3","4","3","1","0","1","1","0","1","1","1","1","1","1","0","1","0","1","5","5","4","2","4","2","3","1","4","4","644508738497019904","韦","001","","","","match","","","","","","","","","","","","","","key","j","16.65891666666667","697.8181818181819","388.3636363636364","j","true","match","img/pentagon.png","五边","五边","ALT1_2","prac_ALT1_2","","","","","","","","","",""
"null","<span style='color:GreenYellow; font-size: 70px;'>正确! </span>","null","html-keyboard-response","46","252837","0.0-7.0-1.0-1.0-0.0-1.18","3","3","3","3","3","3","3","3","4","4","3","2","3","3","2","3","1","2","4","3","4","5","3","4","4","4","3","4","3","1","0","1","1","0","1","1","1","1","1","1","0","1","0","1","5","5","4","2","4","2","3","1","4","4","644508738497019904","韦","001","","","","","","","","","","","","","","","","","","","","","","","","","","","","","","feedback_test","","","","","","","","","",""
"590","","f","psychophysics","47","254430","0.0-7.0-1.0-1.0-0.0-0.19","3","3","3","3","3","3","3","3","4","4","3","2","3","3","2","3","1","2","4","3","4","5","3","4","4","4","3","4","3","1","0","1","1","0","1","1","1","1","1","1","0","1","0","1","5","5","4","2","4","2","3","1","4","4","644508738497019904","韦","001","","","","nonmatch","","","","","","","","","","","","","","key","f","16.661231578947472","697.8181818181819","388.3636363636364","f","true","nonmatch","img/triangle.png","五边","三角","ALT1_2","prac_ALT1_2","","","","","","","","","",""
"null","<span style='color:GreenYellow; font-size: 70px;'>正确! </span>","null","html-keyboard-response","48","254931","0.0-7.0-1.0-1.0-0.0-1.19","3","3","3","3","3","3","3","3","4","4","3","2","3","3","2","3","1","2","4","3","4","5","3","4","4","4","3","4","3","1","0","1","1","0","1","1","1","1","1","1","0","1","0","1","5","5","4","2","4","2","3","1","4","4","644508738497019904","韦","001","","","","","","","","","","","","","","","","","","","","","","","","","","","","","","feedback_test","","","","","","","","","",""
"883","","f","psychophysics","49","256820","0.0-7.0-1.0-1.0-0.0-0.20","3","3","3","3","3","3","3","3","4","4","3","2","3","3","2","3","1","2","4","3","4","5","3","4","4","4","3","4","3","1","0","1","1","0","1","1","1","1","1","1","0","1","0","1","5","5","4","2","4","2","3","1","4","4","644508738497019904","韦","001","","","","nonmatch","","","","","","","","","","","","","","key","f","16.660142857143","697.8181818181819","388.3636363636364","f","true","nonmatch","img/pentagon.png","方形","五边","ALT1_2","prac_ALT1_2","","","","","","","","","",""
"null","<span style='color:GreenYellow; font-size: 70px;'>正确! </span>","null","html-keyboard-response","50","257322","0.0-7.0-1.0-1.0-0.0-1.20","3","3","3","3","3","3","3","3","4","4","3","2","3","3","2","3","1","2","4","3","4","5","3","4","4","4","3","4","3","1","0","1","1","0","1","1","1","1","1","1","0","1","0","1","5","5","4","2","4","2","3","1","4","4","644508738497019904","韦","001","","","","","","","","","","","","","","","","","","","","","","","","","","","","","","feedback_test","","","","","","","","","",""
"856","","j","psychophysics","51","259179","0.0-7.0-1.0-1.0-0.0-0.21","3","3","3","3","3","3","3","3","4","4","3","2","3","3","2","3","1","2","4","3","4","5","3","4","4","4","3","4","3","1","0","1","1","0","1","1","1","1","1","1","0","1","0","1","5","5","4","2","4","2","3","1","4","4","644508738497019904","韦","001","","","","match","","","","","","","","","","","","","","key","j","16.661531531531732","697.8181818181819","388.3636363636364","j","true","match","img/pentagon.png","五边","五边","ALT1_2","prac_ALT1_2","","","","","","","","","",""
"null","<span style='color:GreenYellow; font-size: 70px;'>正确! </span>","null","html-keyboard-response","52","259680","0.0-7.0-1.0-1.0-0.0-1.21","3","3","3","3","3","3","3","3","4","4","3","2","3","3","2","3","1","2","4","3","4","5","3","4","4","4","3","4","3","1","0","1","1","0","1","1","1","1","1","1","0","1","0","1","5","5","4","2","4","2","3","1","4","4","644508738497019904","韦","001","","","","","","","","","","","","","","","","","","","","","","","","","","","","","","feedback_test","","","","","","","","","",""
"660","","f","psychophysics","53","261342","0.0-7.0-1.0-1.0-0.0-0.22","3","3","3","3","3","3","3","3","4","4","3","2","3","3","2","3","1","2","4","3","4","5","3","4","4","4","3","4","3","1","0","1","1","0","1","1","1","1","1","1","0","1","0","1","5","5","4","2","4","2","3","1","4","4","644508738497019904","韦","001","","","","nonmatch","","","","","","","","","","","","","","key","f","16.657676767676627","697.8181818181819","388.3636363636364","f","true","nonmatch","img/square.png","椭圆","方形","ALT1_2","prac_ALT1_2","","","","","","","","","",""
"null","<span style='color:GreenYellow; font-size: 70px;'>正确! </span>","null","html-keyboard-response","54","261843","0.0-7.0-1.0-1.0-0.0-1.22","3","3","3","3","3","3","3","3","4","4","3","2","3","3","2","3","1","2","4","3","4","5","3","4","4","4","3","4","3","1","0","1","1","0","1","1","1","1","1","1","0","1","0","1","5","5","4","2","4","2","3","1","4","4","644508738497019904","韦","001","","","","","","","","","","","","","","","","","","","","","","","","","","","","","","feedback_test","","","","","","","","","",""
"553","","j","psychophysics","55","263399","0.0-7.0-1.0-1.0-0.0-0.23","3","3","3","3","3","3","3","3","4","4","3","2","3","3","2","3","1","2","4","3","4","5","3","4","4","4","3","4","3","1","0","1","1","0","1","1","1","1","1","1","0","1","0","1","5","5","4","2","4","2","3","1","4","4","644508738497019904","韦","001","","","","match","","","","","","","","","","","","","","key","j","16.658347826087265","697.8181818181819","388.3636363636364","j","true","match","img/ellipse.png","椭圆","椭圆","ALT1_2","prac_ALT1_2","","","","","","","","","",""
"null","<span style='color:GreenYellow; font-size: 70px;'>正确! </span>","null","html-keyboard-response","56","263900","0.0-7.0-1.0-1.0-0.0-1.23","3","3","3","3","3","3","3","3","4","4","3","2","3","3","2","3","1","2","4","3","4","5","3","4","4","4","3","4","3","1","0","1","1","0","1","1","1","1","1","1","0","1","0","1","5","5","4","2","4","2","3","1","4","4","644508738497019904","韦","001","","","","","","","","","","","","","","","","","","","","","","","","","","","","","","feedback_test","","","","","","","","","",""
"571","","f","psychophysics","57","265475","0.0-7.0-1.0-1.0-0.0-0.24","3","3","3","3","3","3","3","3","4","4","3","2","3","3","2","3","1","2","4","3","4","5","3","4","4","4","3","4","3","1","0","1","1","0","1","1","1","1","1","1","0","1","0","1","5","5","4","2","4","2","3","1","4","4","644508738497019904","韦","001","","","","nonmatch","","","","","","","","","","","","","","key","f","16.658468085106467","697.8181818181819","388.3636363636364","f","true","nonmatch","img/ellipse.png","五边","椭圆","ALT1_2","prac_ALT1_2","","","","","","","","","",""
"null","<span style='color:GreenYellow; font-size: 70px;'>正确! </span>","null","html-keyboard-response","58","265977","0.0-7.0-1.0-1.0-0.0-1.24","3","3","3","3","3","3","3","3","4","4","3","2","3","3","2","3","1","2","4","3","4","5","3","4","4","4","3","4","3","1","0","1","1","0","1","1","1","1","1","1","0","1","0","1","5","5","4","2","4","2","3","1","4","4","644508738497019904","韦","001","","","","","","","","","","","","","","","","","","","","","","","","","","","","","","feedback_test","","","","","","","","","",""
"581","","f","psychophysics","59","267559","0.0-7.0-1.0-1.0-0.0-0.25","3","3","3","3","3","3","3","3","4","4","3","2","3","3","2","3","1","2","4","3","4","5","3","4","4","4","3","4","3","1","0","1","1","0","1","1","1","1","1","1","0","1","0","1","5","5","4","2","4","2","3","1","4","4","644508738497019904","韦","001","","","","nonmatch","","","","","","","","","","","","","","key","f","16.65968085106393","697.8181818181819","388.3636363636364","f","true","nonmatch","img/ellipse.png","三角","椭圆","ALT1_2","prac_ALT1_2","","","","","","","","","",""
"null","<span style='color:GreenYellow; font-size: 70px;'>正确! </span>","null","html-keyboard-response","60","268070","0.0-7.0-1.0-1.0-0.0-1.25","3","3","3","3","3","3","3","3","4","4","3","2","3","3","2","3","1","2","4","3","4","5","3","4","4","4","3","4","3","1","0","1","1","0","1","1","1","1","1","1","0","1","0","1","5","5","4","2","4","2","3","1","4","4","644508738497019904","韦","001","","","","","","","","","","","","","","","","","","","","","","","","","","","","","","feedback_test","","","","","","","","","",""
"691","","f","psychophysics","61","269763","0.0-7.0-1.0-1.0-0.0-0.26","3","3","3","3","3","3","3","3","4","4","3","2","3","3","2","3","1","2","4","3","4","5","3","4","4","4","3","4","3","1","0","1","1","0","1","1","1","1","1","1","0","1","0","1","5","5","4","2","4","2","3","1","4","4","644508738497019904","韦","001","","","","nonmatch","","","","","","","","","","","","","","key","f","16.655590000000085","697.8181818181819","388.3636363636364","f","true","nonmatch","img/ellipse.png","方形","椭圆","ALT1_2","prac_ALT1_2","","","","","","","","","",""
"null","<span style='color:GreenYellow; font-size: 70px;'>正确! </span>","null","html-keyboard-response","62","270264","0.0-7.0-1.0-1.0-0.0-1.26","3","3","3","3","3","3","3","3","4","4","3","2","3","3","2","3","1","2","4","3","4","5","3","4","4","4","3","4","3","1","0","1","1","0","1","1","1","1","1","1","0","1","0","1","5","5","4","2","4","2","3","1","4","4","644508738497019904","韦","001","","","","","","","","","","","","","","","","","","","","","","","","","","","","","","feedback_test","","","","","","","","","",""
"599","","f","psychophysics","63","271866","0.0-7.0-1.0-1.0-0.0-0.27","3","3","3","3","3","3","3","3","4","4","3","2","3","3","2","3","1","2","4","3","4","5","3","4","4","4","3","4","3","1","0","1","1","0","1","1","1","1","1","1","0","1","0","1","5","5","4","2","4","2","3","1","4","4","644508738497019904","韦","001","","","","nonmatch","","","","","","","","","","","","","","key","f","16.65810526315809","697.8181818181819","388.3636363636364","f","true","nonmatch","img/triangle.png","椭圆","三角","ALT1_2","prac_ALT1_2","","","","","","","","","",""
"null","<span style='color:GreenYellow; font-size: 70px;'>正确! </span>","null","html-keyboard-response","64","272368","0.0-7.0-1.0-1.0-0.0-1.27","3","3","3","3","3","3","3","3","4","4","3","2","3","3","2","3","1","2","4","3","4","5","3","4","4","4","3","4","3","1","0","1","1","0","1","1","1","1","1","1","0","1","0","1","5","5","4","2","4","2","3","1","4","4","644508738497019904","韦","001","","","","","","","","","","","","","","","","","","","","","","","","","","","","","","feedback_test","","","","","","","","","",""
"575","","j","psychophysics","65","273945","0.0-7.0-1.0-1.0-0.0-0.28","3","3","3","3","3","3","3","3","4","4","3","2","3","3","2","3","1","2","4","3","4","5","3","4","4","4","3","4","3","1","0","1","1","0","1","1","1","1","1","1","0","1","0","1","5","5","4","2","4","2","3","1","4","4","644508738497019904","韦","001","","","","match","","","","","","","","","","","","","","key","j","16.65704301075249","697.8181818181819","388.3636363636364","j","true","match","img/square.png","方形","方形","ALT1_2","prac_ALT1_2","","","","","","","","","",""
"null","<span style='color:GreenYellow; font-size: 70px;'>正确! </span>","null","html-keyboard-response","66","274448","0.0-7.0-1.0-1.0-0.0-1.28","3","3","3","3","3","3","3","3","4","4","3","2","3","3","2","3","1","2","4","3","4","5","3","4","4","4","3","4","3","1","0","1","1","0","1","1","1","1","1","1","0","1","0","1","5","5","4","2","4","2","3","1","4","4","644508738497019904","韦","001","","","","","","","","","","","","","","","","","","","","","","","","","","","","","","feedback_test","","","","","","","","","",""
"608","","j","psychophysics","67","276057","0.0-7.0-1.0-1.0-0.0-0.29","3","3","3","3","3","3","3","3","4","4","3","2","3","3","2","3","1","2","4","3","4","5","3","4","4","4","3","4","3","1","0","1","1","0","1","1","1","1","1","1","0","1","0","1","5","5","4","2","4","2","3","1","4","4","644508738497019904","韦","001","","","","match","","","","","","","","","","","","","","key","j","16.652652631579336","697.8181818181819","388.3636363636364","j","true","match","img/pentagon.png","五边","五边","ALT1_2","prac_ALT1_2","","","","","","","","","",""
"null","<span style='color:GreenYellow; font-size: 70px;'>正确! </span>","null","html-keyboard-response","68","276558","0.0-7.0-1.0-1.0-0.0-1.29","3","3","3","3","3","3","3","3","4","4","3","2","3","3","2","3","1","2","4","3","4","5","3","4","4","4","3","4","3","1","0","1","1","0","1","1","1","1","1","1","0","1","0","1","5","5","4","2","4","2","3","1","4","4","644508738497019904","韦","001","","","","","","","","","","","","","","","","","","","","","","","","","","","","","","feedback_test","","","","","","","","","",""
"634","","f","psychophysics","69","278195","0.0-7.0-1.0-1.0-0.0-0.30","3","3","3","3","3","3","3","3","4","4","3","2","3","3","2","3","1","2","4","3","4","5","3","4","4","4","3","4","3","1","0","1","1","0","1","1","1","1","1","1","0","1","0","1","5","5","4","2","4","2","3","1","4","4","644508738497019904","韦","001","","","","nonmatch","","","","","","","","","","","","","","key","f","16.657701030927445","697.8181818181819","388.3636363636364","f","true","nonmatch","img/square.png","椭圆","方形","ALT1_2","prac_ALT1_2","","","","","","","","","",""
"null","<span style='color:GreenYellow; font-size: 70px;'>正确! </span>","null","html-keyboard-response","70","278697","0.0-7.0-1.0-1.0-0.0-1.30","3","3","3","3","3","3","3","3","4","4","3","2","3","3","2","3","1","2","4","3","4","5","3","4","4","4","3","4","3","1","0","1","1","0","1","1","1","1","1","1","0","1","0","1","5","5","4","2","4","2","3","1","4","4","644508738497019904","韦","001","","","","","","","","","","","","","","","","","","","","","","","","","","","","","","feedback_test","","","","","","","","","",""
"650","","j","psychophysics","71","280347","0.0-7.0-1.0-1.0-0.0-0.31","3","3","3","3","3","3","3","3","4","4","3","2","3","3","2","3","1","2","4","3","4","5","3","4","4","4","3","4","3","1","0","1","1","0","1","1","1","1","1","1","0","1","0","1","5","5","4","2","4","2","3","1","4","4","644508738497019904","韦","001","","","","match","","","","","","","","","","","","","","key","j","16.655234693877436","697.8181818181819","388.3636363636364","j","true","match","img/ellipse.png","椭圆","椭圆","ALT1_2","prac_ALT1_2","","","","","","","","","",""
"null","<span style='color:GreenYellow; font-size: 70px;'>正确! </span>","null","html-keyboard-response","72","280849","0.0-7.0-1.0-1.0-0.0-1.31","3","3","3","3","3","3","3","3","4","4","3","2","3","3","2","3","1","2","4","3","4","5","3","4","4","4","3","4","3","1","0","1","1","0","1","1","1","1","1","1","0","1","0","1","5","5","4","2","4","2","3","1","4","4","644508738497019904","韦","001","","","","","","","","","","","","","","","","","","","","","","","","","","","","","","feedback_test","","","","","","","","","",""
"569","","j","psychophysics","73","282420","0.0-7.0-1.0-1.0-0.0-0.32","3","3","3","3","3","3","3","3","4","4","3","2","3","3","2","3","1","2","4","3","4","5","3","4","4","4","3","4","3","1","0","1","1","0","1","1","1","1","1","1","0","1","0","1","5","5","4","2","4","2","3","1","4","4","644508738497019904","韦","001","","","","match","","","","","","","","","","","","","","key","j","16.659043010752974","697.8181818181819","388.3636363636364","j","true","match","img/triangle.png","三角","三角","ALT1_2","prac_ALT1_2","","","","","","","","","",""
"null","<span style='color:GreenYellow; font-size: 70px;'>正确! </span>","null","html-keyboard-response","74","282923","0.0-7.0-1.0-1.0-0.0-1.32","3","3","3","3","3","3","3","3","4","4","3","2","3","3","2","3","1","2","4","3","4","5","3","4","4","4","3","4","3","1","0","1","1","0","1","1","1","1","1","1","0","1","0","1","5","5","4","2","4","2","3","1","4","4","644508738497019904","韦","001","","","","","","","","","","","","","","","","","","","","","","","","","","","","","","feedback_test","","","","","","","","","",""
"683","","f","psychophysics","75","284607","0.0-7.0-1.0-1.0-0.0-0.33","3","3","3","3","3","3","3","3","4","4","3","2","3","3","2","3","1","2","4","3","4","5","3","4","4","4","3","4","3","1","0","1","1","0","1","1","1","1","1","1","0","1","0","1","5","5","4","2","4","2","3","1","4","4","644508738497019904","韦","001","","","","nonmatch","","","","","","","","","","","","","","key","f","16.658910000000034","697.8181818181819","388.3636363636364","f","true","nonmatch","img/pentagon.png","椭圆","五边","ALT1_2","prac_ALT1_2","","","","","","","","","",""
"null","<span style='color:GreenYellow; font-size: 70px;'>正确! </span>","null","html-keyboard-response","76","285108","0.0-7.0-1.0-1.0-0.0-1.33","3","3","3","3","3","3","3","3","4","4","3","2","3","3","2","3","1","2","4","3","4","5","3","4","4","4","3","4","3","1","0","1","1","0","1","1","1","1","1","1","0","1","0","1","5","5","4","2","4","2","3","1","4","4","644508738497019904","韦","001","","","","","","","","","","","","","","","","","","","","","","","","","","","","","","feedback_test","","","","","","","","","",""
"523","","j","psychophysics","77","286633","0.0-7.0-1.0-1.0-0.0-0.34","3","3","3","3","3","3","3","3","4","4","3","2","3","3","2","3","1","2","4","3","4","5","3","4","4","4","3","4","3","1","0","1","1","0","1","1","1","1","1","1","0","1","0","1","5","5","4","2","4","2","3","1","4","4","644508738497019904","韦","001","","","","match","","","","","","","","","","","","","","key","j","16.65924175824154","697.8181818181819","388.3636363636364","j","true","match","img/ellipse.png","椭圆","椭圆","ALT1_2","prac_ALT1_2","","","","","","","","","",""
"null","<span style='color:GreenYellow; font-size: 70px;'>正确! </span>","null","html-keyboard-response","78","287134","0.0-7.0-1.0-1.0-0.0-1.34","3","3","3","3","3","3","3","3","4","4","3","2","3","3","2","3","1","2","4","3","4","5","3","4","4","4","3","4","3","1","0","1","1","0","1","1","1","1","1","1","0","1","0","1","5","5","4","2","4","2","3","1","4","4","644508738497019904","韦","001","","","","","","","","","","","","","","","","","","","","","","","","","","","","","","feedback_test","","","","","","","","","",""
"569","","f","psychophysics","79","288705","0.0-7.0-1.0-1.0-0.0-0.35","3","3","3","3","3","3","3","3","4","4","3","2","3","3","2","3","1","2","4","3","4","5","3","4","4","4","3","4","3","1","0","1","1","0","1","1","1","1","1","1","0","1","0","1","5","5","4","2","4","2","3","1","4","4","644508738497019904","韦","001","","","","nonmatch","","","","","","","","","","","","","","key","f","16.65768817204341","697.8181818181819","388.3636363636364","j","false","match","img/pentagon.png","五边","五边","ALT1_2","prac_ALT1_2","","","","","","","","","",""
"null","<span style='color:red; font-size: 70px;'>错误! </span>","null","html-keyboard-response","80","289206","0.0-7.0-1.0-1.0-0.0-1.35","3","3","3","3","3","3","3","3","4","4","3","2","3","3","2","3","1","2","4","3","4","5","3","4","4","4","3","4","3","1","0","1","1","0","1","1","1","1","1","1","0","1","0","1","5","5","4","2","4","2","3","1","4","4","644508738497019904","韦","001","","","","","","","","","","","","","","","","","","","","","","","","","","","","","","feedback_test","","","","","","","","","",""
"529","","j","psychophysics","81","290737","0.0-7.0-1.0-1.0-0.0-0.36","3","3","3","3","3","3","3","3","4","4","3","2","3","3","2","3","1","2","4","3","4","5","3","4","4","4","3","4","3","1","0","1","1","0","1","1","1","1","1","1","0","1","0","1","5","5","4","2","4","2","3","1","4","4","644508738497019904","韦","001","","","","match","","","","","","","","","","","","","","key","j","16.658516483516355","697.8181818181819","388.3636363636364","j","true","match","img/square.png","方形","方形","ALT1_2","prac_ALT1_2","","","","","","","","","",""
"null","<span style='color:GreenYellow; font-size: 70px;'>正确! </span>","null","html-keyboard-response","82","291237","0.0-7.0-1.0-1.0-0.0-1.36","3","3","3","3","3","3","3","3","4","4","3","2","3","3","2","3","1","2","4","3","4","5","3","4","4","4","3","4","3","1","0","1","1","0","1","1","1","1","1","1","0","1","0","1","5","5","4","2","4","2","3","1","4","4","644508738497019904","韦","001","","","","","","","","","","","","","","","","","","","","","","","","","","","","","","feedback_test","","","","","","","","","",""
"412","","j","psychophysics","83","292652","0.0-7.0-1.0-1.0-0.0-0.37","3","3","3","3","3","3","3","3","4","4","3","2","3","3","2","3","1","2","4","3","4","5","3","4","4","4","3","4","3","1","0","1","1","0","1","1","1","1","1","1","0","1","0","1","5","5","4","2","4","2","3","1","4","4","644508738497019904","韦","001","","","","match","","","","","","","","","","","","","","key","j","16.657857142857253","697.8181818181819","388.3636363636364","j","true","match","img/ellipse.png","椭圆","椭圆","ALT1_2","prac_ALT1_2","","","","","","","","","",""
"null","<span style='color:GreenYellow; font-size: 70px;'>正确! </span>","null","html-keyboard-response","84","293152","0.0-7.0-1.0-1.0-0.0-1.37","3","3","3","3","3","3","3","3","4","4","3","2","3","3","2","3","1","2","4","3","4","5","3","4","4","4","3","4","3","1","0","1","1","0","1","1","1","1","1","1","0","1","0","1","5","5","4","2","4","2","3","1","4","4","644508738497019904","韦","001","","","","","","","","","","","","","","","","","","","","","","","","","","","","","","feedback_test","","","","","","","","","",""
"626","","f","psychophysics","85","294779","0.0-7.0-1.0-1.0-0.0-0.38","3","3","3","3","3","3","3","3","4","4","3","2","3","3","2","3","1","2","4","3","4","5","3","4","4","4","3","4","3","1","0","1","1","0","1","1","1","1","1","1","0","1","0","1","5","5","4","2","4","2","3","1","4","4","644508738497019904","韦","001","","","","nonmatch","","","","","","","","","","","","","","key","f","16.6591546391755","697.8181818181819","388.3636363636364","f","true","nonmatch","img/square.png","三角","方形","ALT1_2","prac_ALT1_2","","","","","","","","","",""
"null","<span style='color:GreenYellow; font-size: 70px;'>正确! </span>","null","html-keyboard-response","86","295281","0.0-7.0-1.0-1.0-0.0-1.38","3","3","3","3","3","3","3","3","4","4","3","2","3","3","2","3","1","2","4","3","4","5","3","4","4","4","3","4","3","1","0","1","1","0","1","1","1","1","1","1","0","1","0","1","5","5","4","2","4","2","3","1","4","4","644508738497019904","韦","001","","","","","","","","","","","","","","","","","","","","","","","","","","","","","","feedback_test","","","","","","","","","",""
"524","","j","psychophysics","87","296807","0.0-7.0-1.0-1.0-0.0-0.39","3","3","3","3","3","3","3","3","4","4","3","2","3","3","2","3","1","2","4","3","4","5","3","4","4","4","3","4","3","1","0","1","1","0","1","1","1","1","1","1","0","1","0","1","5","5","4","2","4","2","3","1","4","4","644508738497019904","韦","001","","","","match","","","","","","","","","","","","","","key","j","16.658065934066155","697.8181818181819","388.3636363636364","j","true","match","img/triangle.png","三角","三角","ALT1_2","prac_ALT1_2","","","","","","","","","",""
"null","<span style='color:GreenYellow; font-size: 70px;'>正确! </span>","null","html-keyboard-response","88","297308","0.0-7.0-1.0-1.0-0.0-1.39","3","3","3","3","3","3","3","3","4","4","3","2","3","3","2","3","1","2","4","3","4","5","3","4","4","4","3","4","3","1","0","1","1","0","1","1","1","1","1","1","0","1","0","1","5","5","4","2","4","2","3","1","4","4","644508738497019904","韦","001","","","","","","","","","","","","","","","","","","","","","","","","","","","","","","feedback_test","","","","","","","","","",""
"861","","f","psychophysics","89","299170","0.0-7.0-1.0-1.0-0.0-0.40","3","3","3","3","3","3","3","3","4","4","3","2","3","3","2","3","1","2","4","3","4","5","3","4","4","4","3","4","3","1","0","1","1","0","1","1","1","1","1","1","0","1","0","1","5","5","4","2","4","2","3","1","4","4","644508738497019904","韦","001","","","","nonmatch","","","","","","","","","","","","","","key","f","16.656549549549357","697.8181818181819","388.3636363636364","f","true","nonmatch","img/square.png","五边","方形","ALT1_2","prac_ALT1_2","","","","","","","","","",""
"null","<span style='color:GreenYellow; font-size: 70px;'>正确! </span>","null","html-keyboard-response","90","299673","0.0-7.0-1.0-1.0-0.0-1.40","3","3","3","3","3","3","3","3","4","4","3","2","3","3","2","3","1","2","4","3","4","5","3","4","4","4","3","4","3","1","0","1","1","0","1","1","1","1","1","1","0","1","0","1","5","5","4","2","4","2","3","1","4","4","644508738497019904","韦","001","","","","","","","","","","","","","","","","","","","","","","","","","","","","","","feedback_test","","","","","","","","","",""
"593","","f","psychophysics","91","301267","0.0-7.0-1.0-1.0-0.0-0.41","3","3","3","3","3","3","3","3","4","4","3","2","3","3","2","3","1","2","4","3","4","5","3","4","4","4","3","4","3","1","0","1","1","0","1","1","1","1","1","1","0","1","0","1","5","5","4","2","4","2","3","1","4","4","644508738497019904","韦","001","","","","nonmatch","","","","","","","","","","","","","","key","f","16.658414893617056","697.8181818181819","388.3636363636364","f","true","nonmatch","img/triangle.png","方形","三角","ALT1_2","prac_ALT1_2","","","","","","","","","",""
"null","<span style='color:GreenYellow; font-size: 70px;'>正确! </span>","null","html-keyboard-response","92","301768","0.0-7.0-1.0-1.0-0.0-1.41","3","3","3","3","3","3","3","3","4","4","3","2","3","3","2","3","1","2","4","3","4","5","3","4","4","4","3","4","3","1","0","1","1","0","1","1","1","1","1","1","0","1","0","1","5","5","4","2","4","2","3","1","4","4","644508738497019904","韦","001","","","","","","","","","","","","","","","","","","","","","","","","","","","","","","feedback_test","","","","","","","","","",""
"540","","j","psychophysics","93","303308","0.0-7.0-1.0-1.0-0.0-0.42","3","3","3","3","3","3","3","3","4","4","3","2","3","3","2","3","1","2","4","3","4","5","3","4","4","4","3","4","3","1","0","1","1","0","1","1","1","1","1","1","0","1","0","1","5","5","4","2","4","2","3","1","4","4","644508738497019904","韦","001","","","","match","","","","","","","","","","","","","","key","j","16.660450549450815","697.8181818181819","388.3636363636364","j","true","match","img/triangle.png","三角","三角","ALT1_2","prac_ALT1_2","","","","","","","","","",""
"null","<span style='color:GreenYellow; font-size: 70px;'>正确! </span>","null","html-keyboard-response","94","303810","0.0-7.0-1.0-1.0-0.0-1.42","3","3","3","3","3","3","3","3","4","4","3","2","3","3","2","3","1","2","4","3","4","5","3","4","4","4","3","4","3","1","0","1","1","0","1","1","1","1","1","1","0","1","0","1","5","5","4","2","4","2","3","1","4","4","644508738497019904","韦","001","","","","","","","","","","","","","","","","","","","","","","","","","","","","","","feedback_test","","","","","","","","","",""
"597","","f","psychophysics","95","305408","0.0-7.0-1.0-1.0-0.0-0.43","3","3","3","3","3","3","3","3","4","4","3","2","3","3","2","3","1","2","4","3","4","5","3","4","4","4","3","4","3","1","0","1","1","0","1","1","1","1","1","1","0","1","0","1","5","5","4","2","4","2","3","1","4","4","644508738497019904","韦","001","","","","nonmatch","","","","","","","","","","","","","","key","f","16.66183157894748","697.8181818181819","388.3636363636364","f","true","nonmatch","img/pentagon.png","三角","五边","ALT1_2","prac_ALT1_2","","","","","","","","","",""
"null","<span style='color:GreenYellow; font-size: 70px;'>正确! </span>","null","html-keyboard-response","96","305909","0.0-7.0-1.0-1.0-0.0-1.43","3","3","3","3","3","3","3","3","4","4","3","2","3","3","2","3","1","2","4","3","4","5","3","4","4","4","3","4","3","1","0","1","1","0","1","1","1","1","1","1","0","1","0","1","5","5","4","2","4","2","3","1","4","4","644508738497019904","韦","001","","","","","","","","","","","","","","","","","","","","","","","","","","","","","","feedback_test","","","","","","","","","",""
"565","","j","psychophysics","97","307477","0.0-7.0-1.0-1.0-0.0-0.44","3","3","3","3","3","3","3","3","4","4","3","2","3","3","2","3","1","2","4","3","4","5","3","4","4","4","3","4","3","1","0","1","1","0","1","1","1","1","1","1","0","1","0","1","5","5","4","2","4","2","3","1","4","4","644508738497019904","韦","001","","","","match","","","","","","","","","","","","","","key","j","16.656666666666116","697.8181818181819","388.3636363636364","j","true","match","img/square.png","方形","方形","ALT1_2","prac_ALT1_2","","","","","","","","","",""
"null","<span style='color:GreenYellow; font-size: 70px;'>正确! </span>","null","html-keyboard-response","98","307978","0.0-7.0-1.0-1.0-0.0-1.44","3","3","3","3","3","3","3","3","4","4","3","2","3","3","2","3","1","2","4","3","4","5","3","4","4","4","3","4","3","1","0","1","1","0","1","1","1","1","1","1","0","1","0","1","5","5","4","2","4","2","3","1","4","4","644508738497019904","韦","001","","","","","","","","","","","","","","","","","","","","","","","","","","","","","","feedback_test","","","","","","","","","",""
"536","","f","psychophysics","99","309516","0.0-7.0-1.0-1.0-0.0-0.45","3","3","3","3","3","3","3","3","4","4","3","2","3","3","2","3","1","2","4","3","4","5","3","4","4","4","3","4","3","1","0","1","1","0","1","1","1","1","1","1","0","1","0","1","5","5","4","2","4","2","3","1","4","4","644508738497019904","韦","001","","","","nonmatch","","","","","","","","","","","","","","key","f","16.657912087912038","697.8181818181819","388.3636363636364","j","false","match","img/pentagon.png","五边","五边","ALT1_2","prac_ALT1_2","","","","","","","","","",""
"null","<span style='color:red; font-size: 70px;'>错误! </span>","null","html-keyboard-response","100","310018","0.0-7.0-1.0-1.0-0.0-1.45","3","3","3","3","3","3","3","3","4","4","3","2","3","3","2","3","1","2","4","3","4","5","3","4","4","4","3","4","3","1","0","1","1","0","1","1","1","1","1","1","0","1","0","1","5","5","4","2","4","2","3","1","4","4","644508738497019904","韦","001","","","","","","","","","","","","","","","","","","","","","","","","","","","","","","feedback_test","","","","","","","","","",""
"692","","j","psychophysics","101","311713","0.0-7.0-1.0-1.0-0.0-0.46","3","3","3","3","3","3","3","3","4","4","3","2","3","3","2","3","1","2","4","3","4","5","3","4","4","4","3","4","3","1","0","1","1","0","1","1","1","1","1","1","0","1","0","1","5","5","4","2","4","2","3","1","4","4","644508738497019904","韦","001","","","","match","","","","","","","","","","","","","","key","j","16.66191999999981","697.8181818181819","388.3636363636364","f","false","nonmatch","img/pentagon.png","方形","五边","ALT1_2","prac_ALT1_2","","","","","","","","","",""
"null","<span style='color:red; font-size: 70px;'>错误! </span>","null","html-keyboard-response","102","312214","0.0-7.0-1.0-1.0-0.0-1.46","3","3","3","3","3","3","3","3","4","4","3","2","3","3","2","3","1","2","4","3","4","5","3","4","4","4","3","4","3","1","0","1","1","0","1","1","1","1","1","1","0","1","0","1","5","5","4","2","4","2","3","1","4","4","644508738497019904","韦","001","","","","","","","","","","","","","","","","","","","","","","","","","","","","","","feedback_test","","","","","","","","","",""
"659","","f","psychophysics","103","313875","0.0-7.0-1.0-1.0-0.0-0.47","3","3","3","3","3","3","3","3","4","4","3","2","3","3","2","3","1","2","4","3","4","5","3","4","4","4","3","4","3","1","0","1","1","0","1","1","1","1","1","1","0","1","0","1","5","5","4","2","4","2","3","1","4","4","644508738497019904","韦","001","","","","nonmatch","","","","","","","","","","","","","","key","f","16.659275510204047","697.8181818181819","388.3636363636364","f","true","nonmatch","img/triangle.png","五边","三角","ALT1_2","prac_ALT1_2","","","","","","","","","",""
"null","<span style='color:GreenYellow; font-size: 70px;'>正确! </span>","null","html-keyboard-response","104","314376","0.0-7.0-1.0-1.0-0.0-1.47","3","3","3","3","3","3","3","3","4","4","3","2","3","3","2","3","1","2","4","3","4","5","3","4","4","4","3","4","3","1","0","1","1","0","1","1","1","1","1","1","0","1","0","1","5","5","4","2","4","2","3","1","4","4","644508738497019904","韦","001","","","","","","","","","","","","","","","","","","","","","","","","","","","","","","feedback_test","","","","","","","","","",""
"9558","<style>.context{color:white; font-size: 35px; line-height:40px}</style>                          <div><p class='context'>您正确回答了90% 的试次。</p><p class='context'>您的平均反应时为661毫秒。</p><p class='context'>恭喜您完成练习。按空格键进入正式实验。</p><p class='footer' style='font-size: 35px; line-height:40px;'>请在进入正式实验实验之前将您的<span style='color: lightgreen;'>食指</span>放在电脑键盘的相应键位上进行按键。</p>"," ","html-keyboard-response","105","323936","0.0-7.0-1.0-2.0","3","3","3","3","3","3","3","3","4","4","3","2","3","3","2","3","1","2","4","3","4","5","3","4","4","4","3","4","3","1","0","1","1","0","1","1","1","1","1","1","0","1","0","1","5","5","4","2","4","2","3","1","4","4","644508738497019904","韦","001","","","","","","","","","","","","","","","","","","","","","","","","","","","","","","","","","","","","","","","",""
"2485","
  <p style='color: white; font-size: 22px'>请您将手指放在按键上，准备进入正式的匹配任务。</p>
  <p> <div style = ""color: green""><按空格键进入下一阶段的匹配任务></div></p>
  "," ","html-keyboard-response","106","326425","0.0-7.0-1.0-3.0","3","3","3","3","3","3","3","3","4","4","3","2","3","3","2","3","1","2","4","3","4","5","3","4","4","4","3","4","3","1","0","1","1","0","1","1","1","1","1","1","0","1","0","1","5","5","4","2","4","2","3","1","4","4","644508738497019904","韦","001","","","","","","","","","","","","","","","","","","","","","","","","","","","","","","","","","","","","","","","",""
"635","","f","psychophysics","107","328062","0.0-7.0-1.0-4.0-0.0-0.0","3","3","3","3","3","3","3","3","4","4","3","2","3","3","2","3","1","2","4","3","4","5","3","4","4","4","3","4","3","1","0","1","1","0","1","1","1","1","1","1","0","1","0","1","5","5","4","2","4","2","3","1","4","4","644508738497019904","韦","001","","","","nonmatch","","","","","","","","","","","","","","key","f","16.65870103092814","697.8181818181819","388.3636363636364","f","true","nonmatch","img/ellipse.png","五边","椭圆","ALT1","formal_ALT1_2","","","","","","","","","",""
"null","<span style='color:GreenYellow; font-size: 70px;'>正确! </span>","null","html-keyboard-response","108","328563","0.0-7.0-1.0-4.0-0.0-1.0","3","3","3","3","3","3","3","3","4","4","3","2","3","3","2","3","1","2","4","3","4","5","3","4","4","4","3","4","3","1","0","1","1","0","1","1","1","1","1","1","0","1","0","1","5","5","4","2","4","2","3","1","4","4","644508738497019904","韦","001","","","","","","","","","","","","","","","","","","","","","","","","","","","","","","feedback_test","","","","","","","","","",""
"495","","j","psychophysics","109","330060","0.0-7.0-1.0-4.0-0.0-0.1","3","3","3","3","3","3","3","3","4","4","3","2","3","3","2","3","1","2","4","3","4","5","3","4","4","4","3","4","3","1","0","1","1","0","1","1","1","1","1","1","0","1","0","1","5","5","4","2","4","2","3","1","4","4","644508738497019904","韦","001","","","","match","","","","","","","","","","","","","","key","j","16.661213483146046","697.8181818181819","388.3636363636364","j","true","match","img/ellipse.png","椭圆","椭圆","ALT1","formal_ALT1_2","","","","","","","","","",""
"null","<span style='color:GreenYellow; font-size: 70px;'>正确! </span>","null","html-keyboard-response","110","330562","0.0-7.0-1.0-4.0-0.0-1.1","3","3","3","3","3","3","3","3","4","4","3","2","3","3","2","3","1","2","4","3","4","5","3","4","4","4","3","4","3","1","0","1","1","0","1","1","1","1","1","1","0","1","0","1","5","5","4","2","4","2","3","1","4","4","644508738497019904","韦","001","","","","","","","","","","","","","","","","","","","","","","","","","","","","","","feedback_test","","","","","","","","","",""
"493","","j","psychophysics","111","332056","0.0-7.0-1.0-4.0-0.0-0.2","3","3","3","3","3","3","3","3","4","4","3","2","3","3","2","3","1","2","4","3","4","5","3","4","4","4","3","4","3","1","0","1","1","0","1","1","1","1","1","1","0","1","0","1","5","5","4","2","4","2","3","1","4","4","644508738497019904","韦","001","","","","match","","","","","","","","","","","","","","key","j","16.658325842696797","697.8181818181819","388.3636363636364","j","true","match","img/ellipse.png","椭圆","椭圆","ALT1","formal_ALT1_2","","","","","","","","","",""
"null","<span style='color:GreenYellow; font-size: 70px;'>正确! </span>","null","html-keyboard-response","112","332557","0.0-7.0-1.0-4.0-0.0-1.2","3","3","3","3","3","3","3","3","4","4","3","2","3","3","2","3","1","2","4","3","4","5","3","4","4","4","3","4","3","1","0","1","1","0","1","1","1","1","1","1","0","1","0","1","5","5","4","2","4","2","3","1","4","4","644508738497019904","韦","001","","","","","","","","","","","","","","","","","","","","","","","","","","","","","","feedback_test","","","","","","","","","",""
"569","","j","psychophysics","113","334128","0.0-7.0-1.0-4.0-0.0-0.3","3","3","3","3","3","3","3","3","4","4","3","2","3","3","2","3","1","2","4","3","4","5","3","4","4","4","3","4","3","1","0","1","1","0","1","1","1","1","1","1","0","1","0","1","5","5","4","2","4","2","3","1","4","4","644508738497019904","韦","001","","","","match","","","","","","","","","","","","","","key","j","16.656709677419595","697.8181818181819","388.3636363636364","j","true","match","img/square.png","方形","方形","ALT1","formal_ALT1_2","","","","","","","","","",""
"null","<span style='color:GreenYellow; font-size: 70px;'>正确! </span>","null","html-keyboard-response","114","334630","0.0-7.0-1.0-4.0-0.0-1.3","3","3","3","3","3","3","3","3","4","4","3","2","3","3","2","3","1","2","4","3","4","5","3","4","4","4","3","4","3","1","0","1","1","0","1","1","1","1","1","1","0","1","0","1","5","5","4","2","4","2","3","1","4","4","644508738497019904","韦","001","","","","","","","","","","","","","","","","","","","","","","","","","","","","","","feedback_test","","","","","","","","","",""
"692","","f","psychophysics","115","336323","0.0-7.0-1.0-4.0-0.0-0.4","3","3","3","3","3","3","3","3","4","4","3","2","3","3","2","3","1","2","4","3","4","5","3","4","4","4","3","4","3","1","0","1","1","0","1","1","1","1","1","1","0","1","0","1","5","5","4","2","4","2","3","1","4","4","644508738497019904","韦","001","","","","nonmatch","","","","","","","","","","","","","","key","f","16.658702970297412","697.8181818181819","388.3636363636364","j","false","match","img/pentagon.png","五边","五边","ALT1","formal_ALT1_2","","","","","","","","","",""
"null","<span style='color:red; font-size: 70px;'>错误! </span>","null","html-keyboard-response","116","336826","0.0-7.0-1.0-4.0-0.0-1.4","3","3","3","3","3","3","3","3","4","4","3","2","3","3","2","3","1","2","4","3","4","5","3","4","4","4","3","4","3","1","0","1","1","0","1","1","1","1","1","1","0","1","0","1","5","5","4","2","4","2","3","1","4","4","644508738497019904","韦","001","","","","","","","","","","","","","","","","","","","","","","","","","","","","","","feedback_test","","","","","","","","","",""
"532","","j","psychophysics","117","338359","0.0-7.0-1.0-4.0-0.0-0.5","3","3","3","3","3","3","3","3","4","4","3","2","3","3","2","3","1","2","4","3","4","5","3","4","4","4","3","4","3","1","0","1","1","0","1","1","1","1","1","1","0","1","0","1","5","5","4","2","4","2","3","1","4","4","644508738497019904","韦","001","","","","match","","","","","","","","","","","","","","key","j","16.65628571428581","697.8181818181819","388.3636363636364","j","true","match","img/ellipse.png","椭圆","椭圆","ALT1","formal_ALT1_2","","","","","","","","","",""
"null","<span style='color:GreenYellow; font-size: 70px;'>正确! </span>","null","html-keyboard-response","118","338861","0.0-7.0-1.0-4.0-0.0-1.5","3","3","3","3","3","3","3","3","4","4","3","2","3","3","2","3","1","2","4","3","4","5","3","4","4","4","3","4","3","1","0","1","1","0","1","1","1","1","1","1","0","1","0","1","5","5","4","2","4","2","3","1","4","4","644508738497019904","韦","001","","","","","","","","","","","","","","","","","","","","","","","","","","","","","","feedback_test","","","","","","","","","",""
"587","","j","psychophysics","119","340449","0.0-7.0-1.0-4.0-0.0-0.6","3","3","3","3","3","3","3","3","4","4","3","2","3","3","2","3","1","2","4","3","4","5","3","4","4","4","3","4","3","1","0","1","1","0","1","1","1","1","1","1","0","1","0","1","5","5","4","2","4","2","3","1","4","4","644508738497019904","韦","001","","","","match","","","","","","","","","","","","","","key","j","16.657872340425186","697.8181818181819","388.3636363636364","j","true","match","img/triangle.png","三角","三角","ALT1","formal_ALT1_2","","","","","","","","","",""
"null","<span style='color:GreenYellow; font-size: 70px;'>正确! </span>","null","html-keyboard-response","120","340950","0.0-7.0-1.0-4.0-0.0-1.6","3","3","3","3","3","3","3","3","4","4","3","2","3","3","2","3","1","2","4","3","4","5","3","4","4","4","3","4","3","1","0","1","1","0","1","1","1","1","1","1","0","1","0","1","5","5","4","2","4","2","3","1","4","4","644508738497019904","韦","001","","","","","","","","","","","","","","","","","","","","","","","","","","","","","","feedback_test","","","","","","","","","",""
"524","","j","psychophysics","121","342475","0.0-7.0-1.0-4.0-0.0-0.7","3","3","3","3","3","3","3","3","4","4","3","2","3","3","2","3","1","2","4","3","4","5","3","4","4","4","3","4","3","1","0","1","1","0","1","1","1","1","1","1","0","1","0","1","5","5","4","2","4","2","3","1","4","4","644508738497019904","韦","001","","","","match","","","","","","","","","","","","","","key","j","16.65786666666649","697.8181818181819","388.3636363636364","j","true","match","img/pentagon.png","五边","五边","ALT1","formal_ALT1_2","","","","","","","","","",""
"null","<span style='color:GreenYellow; font-size: 70px;'>正确! </span>","null","html-keyboard-response","122","342977","0.0-7.0-1.0-4.0-0.0-1.7","3","3","3","3","3","3","3","3","4","4","3","2","3","3","2","3","1","2","4","3","4","5","3","4","4","4","3","4","3","1","0","1","1","0","1","1","1","1","1","1","0","1","0","1","5","5","4","2","4","2","3","1","4","4","644508738497019904","韦","001","","","","","","","","","","","","","","","","","","","","","","","","","","","","","","feedback_test","","","","","","","","","",""
"651","","f","psychophysics","123","344631","0.0-7.0-1.0-4.0-0.0-0.8","3","3","3","3","3","3","3","3","4","4","3","2","3","3","2","3","1","2","4","3","4","5","3","4","4","4","3","4","3","1","0","1","1","0","1","1","1","1","1","1","0","1","0","1","5","5","4","2","4","2","3","1","4","4","644508738497019904","韦","001","","","","nonmatch","","","","","","","","","","","","","","key","f","16.658275510204067","697.8181818181819","388.3636363636364","f","true","nonmatch","img/ellipse.png","三角","椭圆","ALT1","formal_ALT1_2","","","","","","","","","",""
"null","<span style='color:GreenYellow; font-size: 70px;'>正确! </span>","null","html-keyboard-response","124","345133","0.0-7.0-1.0-4.0-0.0-1.8","3","3","3","3","3","3","3","3","4","4","3","2","3","3","2","3","1","2","4","3","4","5","3","4","4","4","3","4","3","1","0","1","1","0","1","1","1","1","1","1","0","1","0","1","5","5","4","2","4","2","3","1","4","4","644508738497019904","韦","001","","","","","","","","","","","","","","","","","","","","","","","","","","","","","","feedback_test","","","","","","","","","",""
"572","","j","psychophysics","125","346706","0.0-7.0-1.0-4.0-0.0-0.9","3","3","3","3","3","3","3","3","4","4","3","2","3","3","2","3","1","2","4","3","4","5","3","4","4","4","3","4","3","1","0","1","1","0","1","1","1","1","1","1","0","1","0","1","5","5","4","2","4","2","3","1","4","4","644508738497019904","韦","001","","","","match","","","","","","","","","","","","","","key","j","16.655795698924745","697.8181818181819","388.3636363636364","j","true","match","img/triangle.png","三角","三角","ALT1","formal_ALT1_2","","","","","","","","","",""
"null","<span style='color:GreenYellow; font-size: 70px;'>正确! </span>","null","html-keyboard-response","126","347209","0.0-7.0-1.0-4.0-0.0-1.9","3","3","3","3","3","3","3","3","4","4","3","2","3","3","2","3","1","2","4","3","4","5","3","4","4","4","3","4","3","1","0","1","1","0","1","1","1","1","1","1","0","1","0","1","5","5","4","2","4","2","3","1","4","4","644508738497019904","韦","001","","","","","","","","","","","","","","","","","","","","","","","","","","","","","","feedback_test","","","","","","","","","",""
"653","","f","psychophysics","127","348864","0.0-7.0-1.0-4.0-0.0-0.10","3","3","3","3","3","3","3","3","4","4","3","2","3","3","2","3","1","2","4","3","4","5","3","4","4","4","3","4","3","1","0","1","1","0","1","1","1","1","1","1","0","1","0","1","5","5","4","2","4","2","3","1","4","4","644508738497019904","韦","001","","","","nonmatch","","","","","","","","","","","","","","key","f","16.65732323232335","697.8181818181819","388.3636363636364","f","true","nonmatch","img/square.png","三角","方形","ALT1","formal_ALT1_2","","","","","","","","","",""
"null","<span style='color:GreenYellow; font-size: 70px;'>正确! </span>","null","html-keyboard-response","128","349366","0.0-7.0-1.0-4.0-0.0-1.10","3","3","3","3","3","3","3","3","4","4","3","2","3","3","2","3","1","2","4","3","4","5","3","4","4","4","3","4","3","1","0","1","1","0","1","1","1","1","1","1","0","1","0","1","5","5","4","2","4","2","3","1","4","4","644508738497019904","韦","001","","","","","","","","","","","","","","","","","","","","","","","","","","","","","","feedback_test","","","","","","","","","",""
"683","","f","psychophysics","129","351050","0.0-7.0-1.0-4.0-0.0-0.11","3","3","3","3","3","3","3","3","4","4","3","2","3","3","2","3","1","2","4","3","4","5","3","4","4","4","3","4","3","1","0","1","1","0","1","1","1","1","1","1","0","1","0","1","5","5","4","2","4","2","3","1","4","4","644508738497019904","韦","001","","","","nonmatch","","","","","","","","","","","","","","key","f","16.658099999999976","697.8181818181819","388.3636363636364","f","true","nonmatch","img/square.png","椭圆","方形","ALT1","formal_ALT1_2","","","","","","","","","",""
"null","<span style='color:GreenYellow; font-size: 70px;'>正确! </span>","null","html-keyboard-response","130","351551","0.0-7.0-1.0-4.0-0.0-1.11","3","3","3","3","3","3","3","3","4","4","3","2","3","3","2","3","1","2","4","3","4","5","3","4","4","4","3","4","3","1","0","1","1","0","1","1","1","1","1","1","0","1","0","1","5","5","4","2","4","2","3","1","4","4","644508738497019904","韦","001","","","","","","","","","","","","","","","","","","","","","","","","","","","","","","feedback_test","","","","","","","","","",""
"569","","f","psychophysics","131","353122","0.0-7.0-1.0-4.0-0.0-0.12","3","3","3","3","3","3","3","3","4","4","3","2","3","3","2","3","1","2","4","3","4","5","3","4","4","4","3","4","3","1","0","1","1","0","1","1","1","1","1","1","0","1","0","1","5","5","4","2","4","2","3","1","4","4","644508738497019904","韦","001","","","","nonmatch","","","","","","","","","","","","","","key","f","16.658870967742185","697.8181818181819","388.3636363636364","f","true","nonmatch","img/triangle.png","椭圆","三角","ALT1","formal_ALT1_2","","","","","","","","","",""
"null","<span style='color:GreenYellow; font-size: 70px;'>正确! </span>","null","html-keyboard-response","132","353624","0.0-7.0-1.0-4.0-0.0-1.12","3","3","3","3","3","3","3","3","4","4","3","2","3","3","2","3","1","2","4","3","4","5","3","4","4","4","3","4","3","1","0","1","1","0","1","1","1","1","1","1","0","1","0","1","5","5","4","2","4","2","3","1","4","4","644508738497019904","韦","001","","","","","","","","","","","","","","","","","","","","","","","","","","","","","","feedback_test","","","","","","","","","",""
"479","","j","psychophysics","133","355104","0.0-7.0-1.0-4.0-0.0-0.13","3","3","3","3","3","3","3","3","4","4","3","2","3","3","2","3","1","2","4","3","4","5","3","4","4","4","3","4","3","1","0","1","1","0","1","1","1","1","1","1","0","1","0","1","5","5","4","2","4","2","3","1","4","4","644508738497019904","韦","001","","","","match","","","","","","","","","","","","","","key","j","16.65909090909091","697.8181818181819","388.3636363636364","j","true","match","img/triangle.png","三角","三角","ALT1","formal_ALT1_2","","","","","","","","","",""
"null","<span style='color:GreenYellow; font-size: 70px;'>正确! </span>","null","html-keyboard-response","134","355605","0.0-7.0-1.0-4.0-0.0-1.13","3","3","3","3","3","3","3","3","4","4","3","2","3","3","2","3","1","2","4","3","4","5","3","4","4","4","3","4","3","1","0","1","1","0","1","1","1","1","1","1","0","1","0","1","5","5","4","2","4","2","3","1","4","4","644508738497019904","韦","001","","","","","","","","","","","","","","","","","","","","","","","","","","","","","","feedback_test","","","","","","","","","",""
"609","","f","psychophysics","135","357215","0.0-7.0-1.0-4.0-0.0-0.14","3","3","3","3","3","3","3","3","4","4","3","2","3","3","2","3","1","2","4","3","4","5","3","4","4","4","3","4","3","1","0","1","1","0","1","1","1","1","1","1","0","1","0","1","5","5","4","2","4","2","3","1","4","4","644508738497019904","韦","001","","","","nonmatch","","","","","","","","","","","","","","key","f","16.657520833333063","697.8181818181819","388.3636363636364","f","true","nonmatch","img/ellipse.png","方形","椭圆","ALT1","formal_ALT1_2","","","","","","","","","",""
"null","<span style='color:GreenYellow; font-size: 70px;'>正确! </span>","null","html-keyboard-response","136","357719","0.0-7.0-1.0-4.0-0.0-1.14","3","3","3","3","3","3","3","3","4","4","3","2","3","3","2","3","1","2","4","3","4","5","3","4","4","4","3","4","3","1","0","1","1","0","1","1","1","1","1","1","0","1","0","1","5","5","4","2","4","2","3","1","4","4","644508738497019904","韦","001","","","","","","","","","","","","","","","","","","","","","","","","","","","","","","feedback_test","","","","","","","","","",""
"663","","f","psychophysics","137","359384","0.0-7.0-1.0-4.0-0.0-0.15","3","3","3","3","3","3","3","3","4","4","3","2","3","3","2","3","1","2","4","3","4","5","3","4","4","4","3","4","3","1","0","1","1","0","1","1","1","1","1","1","0","1","0","1","5","5","4","2","4","2","3","1","4","4","644508738497019904","韦","001","","","","nonmatch","","","","","","","","","","","","","","key","f","16.660515151515185","697.8181818181819","388.3636363636364","f","true","nonmatch","img/triangle.png","五边","三角","ALT1","formal_ALT1_2","","","","","","","","","",""
"null","<span style='color:GreenYellow; font-size: 70px;'>正确! </span>","null","html-keyboard-response","138","359887","0.0-7.0-1.0-4.0-0.0-1.15","3","3","3","3","3","3","3","3","4","4","3","2","3","3","2","3","1","2","4","3","4","5","3","4","4","4","3","4","3","1","0","1","1","0","1","1","1","1","1","1","0","1","0","1","5","5","4","2","4","2","3","1","4","4","644508738497019904","韦","001","","","","","","","","","","","","","","","","","","","","","","","","","","","","","","feedback_test","","","","","","","","","",""
"562","","j","psychophysics","139","361450","0.0-7.0-1.0-4.0-0.0-0.16","3","3","3","3","3","3","3","3","4","4","3","2","3","3","2","3","1","2","4","3","4","5","3","4","4","4","3","4","3","1","0","1","1","0","1","1","1","1","1","1","0","1","0","1","5","5","4","2","4","2","3","1","4","4","644508738497019904","韦","001","","","","match","","","","","","","","","","","","","","key","j","16.66108602150506","697.8181818181819","388.3636363636364","f","false","nonmatch","img/pentagon.png","方形","五边","ALT1","formal_ALT1_2","","","","","","","","","",""
"null","<span style='color:red; font-size: 70px;'>错误! </span>","null","html-keyboard-response","140","361951","0.0-7.0-1.0-4.0-0.0-1.16","3","3","3","3","3","3","3","3","4","4","3","2","3","3","2","3","1","2","4","3","4","5","3","4","4","4","3","4","3","1","0","1","1","0","1","1","1","1","1","1","0","1","0","1","5","5","4","2","4","2","3","1","4","4","644508738497019904","韦","001","","","","","","","","","","","","","","","","","","","","","","","","","","","","","","feedback_test","","","","","","","","","",""
"503","","j","psychophysics","141","363456","0.0-7.0-1.0-4.0-0.0-0.17","3","3","3","3","3","3","3","3","4","4","3","2","3","3","2","3","1","2","4","3","4","5","3","4","4","4","3","4","3","1","0","1","1","0","1","1","1","1","1","1","0","1","0","1","5","5","4","2","4","2","3","1","4","4","644508738497019904","韦","001","","","","match","","","","","","","","","","","","","","key","j","16.65861111111137","697.8181818181819","388.3636363636364","j","true","match","img/square.png","方形","方形","ALT1","formal_ALT1_2","","","","","","","","","",""
"null","<span style='color:GreenYellow; font-size: 70px;'>正确! </span>","null","html-keyboard-response","142","363958","0.0-7.0-1.0-4.0-0.0-1.17","3","3","3","3","3","3","3","3","4","4","3","2","3","3","2","3","1","2","4","3","4","5","3","4","4","4","3","4","3","1","0","1","1","0","1","1","1","1","1","1","0","1","0","1","5","5","4","2","4","2","3","1","4","4","644508738497019904","韦","001","","","","","","","","","","","","","","","","","","","","","","","","","","","","","","feedback_test","","","","","","","","","",""
"598","","f","psychophysics","143","365558","0.0-7.0-1.0-4.0-0.0-0.18","3","3","3","3","3","3","3","3","4","4","3","2","3","3","2","3","1","2","4","3","4","5","3","4","4","4","3","4","3","1","0","1","1","0","1","1","1","1","1","1","0","1","0","1","5","5","4","2","4","2","3","1","4","4","644508738497019904","韦","001","","","","nonmatch","","","","","","","","","","","","","","key","f","16.658168421052764","697.8181818181819","388.3636363636364","f","true","nonmatch","img/square.png","五边","方形","ALT1","formal_ALT1_2","","","","","","","","","",""
"null","<span style='color:GreenYellow; font-size: 70px;'>正确! </span>","null","html-keyboard-response","144","366070","0.0-7.0-1.0-4.0-0.0-1.18","3","3","3","3","3","3","3","3","4","4","3","2","3","3","2","3","1","2","4","3","4","5","3","4","4","4","3","4","3","1","0","1","1","0","1","1","1","1","1","1","0","1","0","1","5","5","4","2","4","2","3","1","4","4","644508738497019904","韦","001","","","","","","","","","","","","","","","","","","","","","","","","","","","","","","feedback_test","","","","","","","","","",""
"585","","f","psychophysics","145","367658","0.0-7.0-1.0-4.0-0.0-0.19","3","3","3","3","3","3","3","3","4","4","3","2","3","3","2","3","1","2","4","3","4","5","3","4","4","4","3","4","3","1","0","1","1","0","1","1","1","1","1","1","0","1","0","1","5","5","4","2","4","2","3","1","4","4","644508738497019904","韦","001","","","","nonmatch","","","","","","","","","","","","","","key","f","16.657797872340876","697.8181818181819","388.3636363636364","f","true","nonmatch","img/pentagon.png","三角","五边","ALT1","formal_ALT1_2","","","","","","","","","",""
"null","<span style='color:GreenYellow; font-size: 70px;'>正确! </span>","null","html-keyboard-response","146","368159","0.0-7.0-1.0-4.0-0.0-1.19","3","3","3","3","3","3","3","3","4","4","3","2","3","3","2","3","1","2","4","3","4","5","3","4","4","4","3","4","3","1","0","1","1","0","1","1","1","1","1","1","0","1","0","1","5","5","4","2","4","2","3","1","4","4","644508738497019904","韦","001","","","","","","","","","","","","","","","","","","","","","","","","","","","","","","feedback_test","","","","","","","","","",""
"649","","f","psychophysics","147","369810","0.0-7.0-1.0-4.0-0.0-0.20","3","3","3","3","3","3","3","3","4","4","3","2","3","3","2","3","1","2","4","3","4","5","3","4","4","4","3","4","3","1","0","1","1","0","1","1","1","1","1","1","0","1","0","1","5","5","4","2","4","2","3","1","4","4","644508738497019904","韦","001","","","","nonmatch","","","","","","","","","","","","","","key","f","16.658346938775324","697.8181818181819","388.3636363636364","f","true","nonmatch","img/pentagon.png","椭圆","五边","ALT1","formal_ALT1_2","","","","","","","","","",""
"null","<span style='color:GreenYellow; font-size: 70px;'>正确! </span>","null","html-keyboard-response","148","370311","0.0-7.0-1.0-4.0-0.0-1.20","3","3","3","3","3","3","3","3","4","4","3","2","3","3","2","3","1","2","4","3","4","5","3","4","4","4","3","4","3","1","0","1","1","0","1","1","1","1","1","1","0","1","0","1","5","5","4","2","4","2","3","1","4","4","644508738497019904","韦","001","","","","","","","","","","","","","","","","","","","","","","","","","","","","","","feedback_test","","","","","","","","","",""
"593","","j","psychophysics","149","371905","0.0-7.0-1.0-4.0-0.0-0.21","3","3","3","3","3","3","3","3","4","4","3","2","3","3","2","3","1","2","4","3","4","5","3","4","4","4","3","4","3","1","0","1","1","0","1","1","1","1","1","1","0","1","0","1","5","5","4","2","4","2","3","1","4","4","644508738497019904","韦","001","","","","match","","","","","","","","","","","","","","key","j","16.659768421052785","697.8181818181819","388.3636363636364","j","true","match","img/square.png","方形","方形","ALT1","formal_ALT1_2","","","","","","","","","",""
"null","<span style='color:GreenYellow; font-size: 70px;'>正确! </span>","null","html-keyboard-response","150","372407","0.0-7.0-1.0-4.0-0.0-1.21","3","3","3","3","3","3","3","3","4","4","3","2","3","3","2","3","1","2","4","3","4","5","3","4","4","4","3","4","3","1","0","1","1","0","1","1","1","1","1","1","0","1","0","1","5","5","4","2","4","2","3","1","4","4","644508738497019904","韦","001","","","","","","","","","","","","","","","","","","","","","","","","","","","","","","feedback_test","","","","","","","","","",""
"647","","j","psychophysics","151","374055","0.0-7.0-1.0-4.0-0.0-0.22","3","3","3","3","3","3","3","3","4","4","3","2","3","3","2","3","1","2","4","3","4","5","3","4","4","4","3","4","3","1","0","1","1","0","1","1","1","1","1","1","0","1","0","1","5","5","4","2","4","2","3","1","4","4","644508738497019904","韦","001","","","","match","","","","","","","","","","","","","","key","j","16.660520408162967","697.8181818181819","388.3636363636364","j","true","match","img/pentagon.png","五边","五边","ALT1","formal_ALT1_2","","","","","","","","","",""
"null","<span style='color:GreenYellow; font-size: 70px;'>正确! </span>","null","html-keyboard-response","152","374556","0.0-7.0-1.0-4.0-0.0-1.22","3","3","3","3","3","3","3","3","4","4","3","2","3","3","2","3","1","2","4","3","4","5","3","4","4","4","3","4","3","1","0","1","1","0","1","1","1","1","1","1","0","1","0","1","5","5","4","2","4","2","3","1","4","4","644508738497019904","韦","001","","","","","","","","","","","","","","","","","","","","","","","","","","","","","","feedback_test","","","","","","","","","",""
"639","","f","psychophysics","153","376196","0.0-7.0-1.0-4.0-0.0-0.23","3","3","3","3","3","3","3","3","4","4","3","2","3","3","2","3","1","2","4","3","4","5","3","4","4","4","3","4","3","1","0","1","1","0","1","1","1","1","1","1","0","1","0","1","5","5","4","2","4","2","3","1","4","4","644508738497019904","韦","001","","","","nonmatch","","","","","","","","","","","","","","key","f","16.660309278350397","697.8181818181819","388.3636363636364","f","true","nonmatch","img/triangle.png","方形","三角","ALT1","formal_ALT1_2","","","","","","","","","",""
"null","<span style='color:GreenYellow; font-size: 70px;'>正确! </span>","null","html-keyboard-response","154","376697","0.0-7.0-1.0-4.0-0.0-1.23","3","3","3","3","3","3","3","3","4","4","3","2","3","3","2","3","1","2","4","3","4","5","3","4","4","4","3","4","3","1","0","1","1","0","1","1","1","1","1","1","0","1","0","1","5","5","4","2","4","2","3","1","4","4","644508738497019904","韦","001","","","","","","","","","","","","","","","","","","","","","","","","","","","","","","feedback_test","","","","","","","","","",""
"620","","j","psychophysics","155","378320","0.0-7.0-1.0-4.0-0.0-0.24","3","3","3","3","3","3","3","3","4","4","3","2","3","3","2","3","1","2","4","3","4","5","3","4","4","4","3","4","3","1","0","1","1","0","1","1","1","1","1","1","0","1","0","1","5","5","4","2","4","2","3","1","4","4","644508738497019904","韦","001","","","","match","","","","","","","","","","","","","","key","j","16.65738541666663","697.8181818181819","388.3636363636364","j","true","match","img/square.png","方形","方形","ALT1","formal_ALT1_2","","","","","","","","","",""
"null","<span style='color:GreenYellow; font-size: 70px;'>正确! </span>","null","html-keyboard-response","156","378821","0.0-7.0-1.0-4.0-0.0-1.24","3","3","3","3","3","3","3","3","4","4","3","2","3","3","2","3","1","2","4","3","4","5","3","4","4","4","3","4","3","1","0","1","1","0","1","1","1","1","1","1","0","1","0","1","5","5","4","2","4","2","3","1","4","4","644508738497019904","韦","001","","","","","","","","","","","","","","","","","","","","","","","","","","","","","","feedback_test","","","","","","","","","",""
"494","","j","psychophysics","157","380317","0.0-7.0-1.0-4.0-0.0-0.25","3","3","3","3","3","3","3","3","4","4","3","2","3","3","2","3","1","2","4","3","4","5","3","4","4","4","3","4","3","1","0","1","1","0","1","1","1","1","1","1","0","1","0","1","5","5","4","2","4","2","3","1","4","4","644508738497019904","韦","001","","","","match","","","","","","","","","","","","","","key","j","16.658853932584012","697.8181818181819","388.3636363636364","j","true","match","img/triangle.png","三角","三角","ALT1","formal_ALT1_2","","","","","","","","","",""
"null","<span style='color:GreenYellow; font-size: 70px;'>正确! </span>","null","html-keyboard-response","158","380818","0.0-7.0-1.0-4.0-0.0-1.25","3","3","3","3","3","3","3","3","4","4","3","2","3","3","2","3","1","2","4","3","4","5","3","4","4","4","3","4","3","1","0","1","1","0","1","1","1","1","1","1","0","1","0","1","5","5","4","2","4","2","3","1","4","4","644508738497019904","韦","001","","","","","","","","","","","","","","","","","","","","","","","","","","","","","","feedback_test","","","","","","","","","",""
"497","","j","psychophysics","159","382316","0.0-7.0-1.0-4.0-0.0-0.26","3","3","3","3","3","3","3","3","4","4","3","2","3","3","2","3","1","2","4","3","4","5","3","4","4","4","3","4","3","1","0","1","1","0","1","1","1","1","1","1","0","1","0","1","5","5","4","2","4","2","3","1","4","4","644508738497019904","韦","001","","","","match","","","","","","","","","","","","","","key","j","16.660887640449637","697.8181818181819","388.3636363636364","j","true","match","img/pentagon.png","五边","五边","ALT1","formal_ALT1_2","","","","","","","","","",""
"null","<span style='color:GreenYellow; font-size: 70px;'>正确! </span>","null","html-keyboard-response","160","382818","0.0-7.0-1.0-4.0-0.0-1.26","3","3","3","3","3","3","3","3","4","4","3","2","3","3","2","3","1","2","4","3","4","5","3","4","4","4","3","4","3","1","0","1","1","0","1","1","1","1","1","1","0","1","0","1","5","5","4","2","4","2","3","1","4","4","644508738497019904","韦","001","","","","","","","","","","","","","","","","","","","","","","","","","","","","","","feedback_test","","","","","","","","","",""
"610","","f","psychophysics","161","384430","0.0-7.0-1.0-4.0-0.0-0.27","3","3","3","3","3","3","3","3","4","4","3","2","3","3","2","3","1","2","4","3","4","5","3","4","4","4","3","4","3","1","0","1","1","0","1","1","1","1","1","1","0","1","0","1","5","5","4","2","4","2","3","1","4","4","644508738497019904","韦","001","","","","nonmatch","","","","","","","","","","","","","","key","f","16.658281250000073","697.8181818181819","388.3636363636364","f","true","nonmatch","img/pentagon.png","三角","五边","ALT1","formal_ALT1_2","","","","","","","","","",""
"null","<span style='color:GreenYellow; font-size: 70px;'>正确! </span>","null","html-keyboard-response","162","384940","0.0-7.0-1.0-4.0-0.0-1.27","3","3","3","3","3","3","3","3","4","4","3","2","3","3","2","3","1","2","4","3","4","5","3","4","4","4","3","4","3","1","0","1","1","0","1","1","1","1","1","1","0","1","0","1","5","5","4","2","4","2","3","1","4","4","644508738497019904","韦","001","","","","","","","","","","","","","","","","","","","","","","","","","","","","","","feedback_test","","","","","","","","","",""
"479","","j","psychophysics","163","386421","0.0-7.0-1.0-4.0-0.0-0.28","3","3","3","3","3","3","3","3","4","4","3","2","3","3","2","3","1","2","4","3","4","5","3","4","4","4","3","4","3","1","0","1","1","0","1","1","1","1","1","1","0","1","0","1","5","5","4","2","4","2","3","1","4","4","644508738497019904","韦","001","","","","match","","","","","","","","","","","","","","key","j","16.658090909091037","697.8181818181819","388.3636363636364","f","false","nonmatch","img/square.png","五边","方形","ALT1","formal_ALT1_2","","","","","","","","","",""
"null","<span style='color:red; font-size: 70px;'>错误! </span>","null","html-keyboard-response","164","386922","0.0-7.0-1.0-4.0-0.0-1.28","3","3","3","3","3","3","3","3","4","4","3","2","3","3","2","3","1","2","4","3","4","5","3","4","4","4","3","4","3","1","0","1","1","0","1","1","1","1","1","1","0","1","0","1","5","5","4","2","4","2","3","1","4","4","644508738497019904","韦","001","","","","","","","","","","","","","","","","","","","","","","","","","","","","","","feedback_test","","","","","","","","","",""
"568","","j","psychophysics","165","388492","0.0-7.0-1.0-4.0-0.0-0.29","3","3","3","3","3","3","3","3","4","4","3","2","3","3","2","3","1","2","4","3","4","5","3","4","4","4","3","4","3","1","0","1","1","0","1","1","1","1","1","1","0","1","0","1","5","5","4","2","4","2","3","1","4","4","644508738497019904","韦","001","","","","match","","","","","","","","","","","","","","key","j","16.657365591397948","697.8181818181819","388.3636363636364","j","true","match","img/ellipse.png","椭圆","椭圆","ALT1","formal_ALT1_2","","","","","","","","","",""
"null","<span style='color:GreenYellow; font-size: 70px;'>正确! </span>","null","html-keyboard-response","166","388994","0.0-7.0-1.0-4.0-0.0-1.29","3","3","3","3","3","3","3","3","4","4","3","2","3","3","2","3","1","2","4","3","4","5","3","4","4","4","3","4","3","1","0","1","1","0","1","1","1","1","1","1","0","1","0","1","5","5","4","2","4","2","3","1","4","4","644508738497019904","韦","001","","","","","","","","","","","","","","","","","","","","","","","","","","","","","","feedback_test","","","","","","","","","",""
"584","","j","psychophysics","167","390579","0.0-7.0-1.0-4.0-0.0-0.30","3","3","3","3","3","3","3","3","4","4","3","2","3","3","2","3","1","2","4","3","4","5","3","4","4","4","3","4","3","1","0","1","1","0","1","1","1","1","1","1","0","1","0","1","5","5","4","2","4","2","3","1","4","4","644508738497019904","韦","001","","","","match","","","","","","","","","","","","","","key","j","16.65602127659603","697.8181818181819","388.3636363636364","j","true","match","img/ellipse.png","椭圆","椭圆","ALT1","formal_ALT1_2","","","","","","","","","",""
"null","<span style='color:GreenYellow; font-size: 70px;'>正确! </span>","null","html-keyboard-response","168","391081","0.0-7.0-1.0-4.0-0.0-1.30","3","3","3","3","3","3","3","3","4","4","3","2","3","3","2","3","1","2","4","3","4","5","3","4","4","4","3","4","3","1","0","1","1","0","1","1","1","1","1","1","0","1","0","1","5","5","4","2","4","2","3","1","4","4","644508738497019904","韦","001","","","","","","","","","","","","","","","","","","","","","","","","","","","","","","feedback_test","","","","","","","","","",""
"528","","j","psychophysics","169","392610","0.0-7.0-1.0-4.0-0.0-0.31","3","3","3","3","3","3","3","3","4","4","3","2","3","3","2","3","1","2","4","3","4","5","3","4","4","4","3","4","3","1","0","1","1","0","1","1","1","1","1","1","0","1","0","1","5","5","4","2","4","2","3","1","4","4","644508738497019904","韦","001","","","","match","","","","","","","","","","","","","","key","j","16.65900000000045","697.8181818181819","388.3636363636364","j","true","match","img/square.png","方形","方形","ALT1","formal_ALT1_2","","","","","","","","","",""
"null","<span style='color:GreenYellow; font-size: 70px;'>正确! </span>","null","html-keyboard-response","170","393111","0.0-7.0-1.0-4.0-0.0-1.31","3","3","3","3","3","3","3","3","4","4","3","2","3","3","2","3","1","2","4","3","4","5","3","4","4","4","3","4","3","1","0","1","1","0","1","1","1","1","1","1","0","1","0","1","5","5","4","2","4","2","3","1","4","4","644508738497019904","韦","001","","","","","","","","","","","","","","","","","","","","","","","","","","","","","","feedback_test","","","","","","","","","",""
"528","","j","psychophysics","171","394641","0.0-7.0-1.0-4.0-0.0-0.32","3","3","3","3","3","3","3","3","4","4","3","2","3","3","2","3","1","2","4","3","4","5","3","4","4","4","3","4","3","1","0","1","1","0","1","1","1","1","1","1","0","1","0","1","5","5","4","2","4","2","3","1","4","4","644508738497019904","韦","001","","","","match","","","","","","","","","","","","","","key","j","16.659813186813242","697.8181818181819","388.3636363636364","j","true","match","img/ellipse.png","椭圆","椭圆","ALT1","formal_ALT1_2","","","","","","","","","",""
"null","<span style='color:GreenYellow; font-size: 70px;'>正确! </span>","null","html-keyboard-response","172","395142","0.0-7.0-1.0-4.0-0.0-1.32","3","3","3","3","3","3","3","3","4","4","3","2","3","3","2","3","1","2","4","3","4","5","3","4","4","4","3","4","3","1","0","1","1","0","1","1","1","1","1","1","0","1","0","1","5","5","4","2","4","2","3","1","4","4","644508738497019904","韦","001","","","","","","","","","","","","","","","","","","","","","","","","","","","","","","feedback_test","","","","","","","","","",""
"702","","f","psychophysics","173","396845","0.0-7.0-1.0-4.0-0.0-0.33","3","3","3","3","3","3","3","3","4","4","3","2","3","3","2","3","1","2","4","3","4","5","3","4","4","4","3","4","3","1","0","1","1","0","1","1","1","1","1","1","0","1","0","1","5","5","4","2","4","2","3","1","4","4","644508738497019904","韦","001","","","","nonmatch","","","","","","","","","","","","","","key","f","16.66059405940624","697.8181818181819","388.3636363636364","f","true","nonmatch","img/triangle.png","五边","三角","ALT1","formal_ALT1_2","","","","","","","","","",""
"null","<span style='color:GreenYellow; font-size: 70px;'>正确! </span>","null","html-keyboard-response","174","397346","0.0-7.0-1.0-4.0-0.0-1.33","3","3","3","3","3","3","3","3","4","4","3","2","3","3","2","3","1","2","4","3","4","5","3","4","4","4","3","4","3","1","0","1","1","0","1","1","1","1","1","1","0","1","0","1","5","5","4","2","4","2","3","1","4","4","644508738497019904","韦","001","","","","","","","","","","","","","","","","","","","","","","","","","","","","","","feedback_test","","","","","","","","","",""
"733","","f","psychophysics","175","399081","0.0-7.0-1.0-4.0-0.0-0.34","3","3","3","3","3","3","3","3","4","4","3","2","3","3","2","3","1","2","4","3","4","5","3","4","4","4","3","4","3","1","0","1","1","0","1","1","1","1","1","1","0","1","0","1","5","5","4","2","4","2","3","1","4","4","644508738497019904","韦","001","","","","nonmatch","","","","","","","","","","","","","","key","f","16.660873786407834","697.8181818181819","388.3636363636364","f","true","nonmatch","img/ellipse.png","五边","椭圆","ALT1","formal_ALT1_2","","","","","","","","","",""
"null","<span style='color:GreenYellow; font-size: 70px;'>正确! </span>","null","html-keyboard-response","176","399582","0.0-7.0-1.0-4.0-0.0-1.34","3","3","3","3","3","3","3","3","4","4","3","2","3","3","2","3","1","2","4","3","4","5","3","4","4","4","3","4","3","1","0","1","1","0","1","1","1","1","1","1","0","1","0","1","5","5","4","2","4","2","3","1","4","4","644508738497019904","韦","001","","","","","","","","","","","","","","","","","","","","","","","","","","","","","","feedback_test","","","","","","","","","",""
"865","","f","psychophysics","177","401449","0.0-7.0-1.0-4.0-0.0-0.35","3","3","3","3","3","3","3","3","4","4","3","2","3","3","2","3","1","2","4","3","4","5","3","4","4","4","3","4","3","1","0","1","1","0","1","1","1","1","1","1","0","1","0","1","5","5","4","2","4","2","3","1","4","4","644508738497019904","韦","001","","","","nonmatch","","","","","","","","","","","","","","key","f","16.655747747747753","697.8181818181819","388.3636363636364","f","true","nonmatch","img/pentagon.png","椭圆","五边","ALT1","formal_ALT1_2","","","","","","","","","",""
"null","<span style='color:GreenYellow; font-size: 70px;'>正确! </span>","null","html-keyboard-response","178","401950","0.0-7.0-1.0-4.0-0.0-1.35","3","3","3","3","3","3","3","3","4","4","3","2","3","3","2","3","1","2","4","3","4","5","3","4","4","4","3","4","3","1","0","1","1","0","1","1","1","1","1","1","0","1","0","1","5","5","4","2","4","2","3","1","4","4","644508738497019904","韦","001","","","","","","","","","","","","","","","","","","","","","","","","","","","","","","feedback_test","","","","","","","","","",""
"718","","j","psychophysics","179","403670","0.0-7.0-1.0-4.0-0.0-0.36","3","3","3","3","3","3","3","3","4","4","3","2","3","3","2","3","1","2","4","3","4","5","3","4","4","4","3","4","3","1","0","1","1","0","1","1","1","1","1","1","0","1","0","1","5","5","4","2","4","2","3","1","4","4","644508738497019904","韦","001","","","","match","","","","","","","","","","","","","","key","j","16.658990291262597","697.8181818181819","388.3636363636364","j","true","match","img/pentagon.png","五边","五边","ALT1","formal_ALT1_2","","","","","","","","","",""
"null","<span style='color:GreenYellow; font-size: 70px;'>正确! </span>","null","html-keyboard-response","180","404171","0.0-7.0-1.0-4.0-0.0-1.36","3","3","3","3","3","3","3","3","4","4","3","2","3","3","2","3","1","2","4","3","4","5","3","4","4","4","3","4","3","1","0","1","1","0","1","1","1","1","1","1","0","1","0","1","5","5","4","2","4","2","3","1","4","4","644508738497019904","韦","001","","","","","","","","","","","","","","","","","","","","","","","","","","","","","","feedback_test","","","","","","","","","",""
