"rt","stimulus","response","trial_type","trial_index","time_elapsed","internal_node_id","ses_1","ses_2","ses_3","ses_4","ses_5","ses_6","ses_7","ses_8","ses_9","ses_10","coreself_1","coreself_2","coreself_3","coreself_4","coreself_5","coreself_6","coreself_7","coreself_8","coreself_9","coreself_10","SGPS_1","SGPS_2","SGPS_3","SGPS_4","SGPS_5","SGPS_6","SGPS_7","SGPS_8","SGPS_9","NPI1","NPI2","NPI3","NPI4","NPI5","NPI6","NPI7","NPI8","NPI9","NPI10","NPI11","NPI12","NPI13","NPI14","NPI15","hsns_1","hsns_2","hsns_3","hsns_4","hsns_5","hsns_6","hsns_7","hsns_8","hsns_9","hsns_10","subj_idx","friend_name","ParticipantID","value","success","user_agent","responses","item_order","radio_event_ids","radio_event_times","key_event_times","mouse_event_times","straightlining","zigzagging","honeypot","timeout","failed_images","failed_audio","failed_video","version_attrib","version_target","correct","IAT","screen_id","task_id","RT","condition","word","varname","summary","version_attrib2","version_target2","time_stamp","view_history","response_type","key_press","avg_frame_time","center_x","center_y","correct_response","identity","Image","question_order"
"4625","
   <p><div style = ""color: white;font-size:25px;"">您好，欢迎参加本次实验。</div> </p>
   <p><div style = ""color: white;font-size:25px;"">为充分保障您的权利，请确保您已经知晓并同意《参与实验同意书》以及《数据公开知情同意书》。</div></p>
   <p><div style = ""color: white;font-size:25px;"">如果您未见过上述内容，请咨询实验员。</div></p>
   <p><div style = ""color: white;font-size:25px;"">如果您选择继续实验，则表示您已经清楚两份知情同意书的内容并同意。</div></p>
   <p> <div style = ""color: green;font-size:25px;""><按空格键至下页></div> </p>
   "," ","html-keyboard-response","0","4628","0.0-0.0","3","3","3","3","3","3","3","2","3","3","4","4","2","4","4","4","4","3","4","4","4","2","4","2","2","2","2","4","2","1","1","1","0","1","1","1","0","1","1","1","0","0","0","1","2","2","2","2","4","4","4","4","2","2","686480127940362240","董","472","","","","","","","","","","","","","","","","","","","","","","","","","","","","","","","","","","","","","","","",""
"","","","call-function","1","4630","0.0-1.0-0.0","3","3","3","3","3","3","3","2","3","3","4","4","2","4","4","4","4","3","4","4","4","2","4","2","2","2","2","4","2","1","1","1","0","1","1","1","0","1","1","1","0","0","0","1","2","2","2","2","4","4","4","4","2","2","686480127940362240","董","472","","","","","","","","","","","","","","","","","","","","","","","","","","","","","","","","","","","","","","","",""
"29537","","{""friend_name"":""董"",""ParticipantID"":""472""}","survey-html-form","2","34168","0.0-1.0-1.0","3","3","3","3","3","3","3","2","3","3","4","4","2","4","4","4","4","3","4","4","4","2","4","2","2","2","2","4","2","1","1","1","0","1","1","1","0","1","1","1","0","0","0","1","2","2","2","2","4","4","4","4","2","2","686480127940362240","董","472","","","","","","","","","","","","","","","","","","","","","","","","","","","","","","","","","","","","","","","",""
"","","","fullscreen","3","43768","0.0-2.0","3","3","3","3","3","3","3","2","3","3","4","4","2","4","4","4","4","3","4","4","4","2","4","2","2","2","2","4","2","1","1","1","0","1","1","1","0","1","1","1","0","0","0","1","2","2","2","2","4","4","4","4","2","2","686480127940362240","董","472","","true","{}","","","","","","","","","","","","","","","","","","","","","","","","","","","","","","","","","","","","",""
"36829.90000009537","","{""Q01"":""3"",""Q02"":""3"",""Q03"":""3"",""Q04"":""3"",""Q05"":""3"",""Q06"":""3"",""Q07"":""3"",""Q08"":""2"",""Q09"":""3"",""Q10"":""3""}","survey-template","4","80604","0.0-3.0","3","3","3","3","3","3","3","2","3","3","4","4","2","4","4","4","4","3","4","4","4","2","4","2","2","2","2","4","2","1","1","1","0","1","1","1","0","1","1","1","0","0","0","1","2","2","2","2","4","4","4","4","2","2","686480127940362240","董","472","","","","{""Q01"":""3"",""Q02"":""3"",""Q03"":""3"",""Q04"":""3"",""Q05"":""3"",""Q06"":""3"",""Q07"":""3"",""Q08"":""2"",""Q09"":""3"",""Q10"":""3""}","[0,1,2,3,4,5,6,7,8,9]","[""Q01"",""Q02"",""Q03"",""Q04"",""Q06"",""Q05"",""Q07"",""Q08"",""Q08"",""Q09"",""Q10""]","[7523.700000047684,9545.100000023842,12292,13944,19173.900000095367,23425.600000023842,26553.100000023842,28352.400000095367,30690,32271.700000047684,35337.60000002384]","[]","[7523.700000047684,9545.100000023842,12292,13944,18052.100000023842,19173.900000095367,23425.600000023842,26553.100000023842,28352.400000095367,30690,32271.700000047684,35337.60000002384,36825.10000002384]","0.6","0.5555555555555556","0","","","","","","","","","","","","","","","","","","","","","","","","","","","",""
"28331.299999952316","","{""Q01"":""4"",""Q02"":""4"",""Q03"":""2"",""Q04"":""4"",""Q05"":""4"",""Q06"":""4"",""Q07"":""4"",""Q08"":""3"",""Q09"":""4"",""Q10"":""4""}","survey-template","5","108953","0.0-4.0","3","3","3","3","3","3","3","2","3","3","4","4","2","4","4","4","4","3","4","4","4","2","4","2","2","2","2","4","2","1","1","1","0","1","1","1","0","1","1","1","0","0","0","1","2","2","2","2","4","4","4","4","2","2","686480127940362240","董","472","","","","{""Q01"":""4"",""Q02"":""4"",""Q03"":""2"",""Q04"":""4"",""Q05"":""4"",""Q06"":""4"",""Q07"":""4"",""Q08"":""3"",""Q09"":""4"",""Q10"":""4""}","[0,1,2,3,4,5,6,7,8,9]","[""Q01"",""Q02"",""Q03"",""Q04"",""Q05"",""Q06"",""Q07"",""Q08"",""Q09"",""Q10""]","[5048.5,7421.199999928474,11726.899999976158,13484.299999952316,15880.399999976158,17455,19010.5,22334.299999952316,23856.799999952316,26345.699999928474]","[]","[5048.5,7421.199999928474,11726.899999976158,13484.299999952316,15880.399999976158,17455,19010.5,22334.299999952316,23856.799999952316,26345.699999928474,28328.599999904633]","0.5","0.2222222222222222","0","","","","","","","","","","","","","","","","","","","","","","","","","","","",""
"","","","preload","6","109538","0.0-5.0","3","3","3","3","3","3","3","2","3","3","4","4","2","4","4","4","4","3","4","4","4","2","4","2","2","2","2","4","2","1","1","1","0","1","1","1","0","1","1","1","0","0","0","1","2","2","2","2","4","4","4","4","2","2","686480127940362240","董","472","","true","","","","","","","","","","","false","[]","[]","[]","","","","","","","","","","","","","","","","","","","","","","","",""
"22710","
    <h3>词语分类任务</h3>
    <p>在接下来的任务中，你需要对一系列词语进行分类。</p>
    <p>请先熟悉这些词语，这有利于你完成接下来的任务。</p>
    <table align=""center"" border=1 cellpadding=3 cellspacing=0>
    <tr> <th>类别</th> <th>词语</th> </tr>
    <tr> <td>&emsp;积极&emsp;</td> <td>&emsp;能干、全能、全才、高效、精干、天才&emsp;</td> </tr>
    <tr> <td>&emsp;消极&emsp;</td> <td>&emsp;无能、低能、废物、拙笨、愚钝、蠢笨&emsp;</td> </tr>
    <tr> <td>&emsp;自我&emsp;</td> <td>&emsp;我、我的、自己、自己的、本人、本人的&emsp;</td> </tr>
    <tr> <td>&emsp;他人&emsp;</td> <td>&emsp;他、他的、别人、别人的、他人、他人的&emsp;</td> </tr>
    </table><br/>","0","html-button-response","7","132251","0.0-6.0-0.0-0.0","3","3","3","3","3","3","3","2","3","3","4","4","2","4","4","4","4","3","4","4","4","2","4","2","2","2","2","4","2","1","1","1","0","1","1","1","0","1","1","1","0","0","0","1","2","2","2","2","4","4","4","4","2","2","686480127940362240","董","472","","","","","","","","","","","","","","","","","2","1","","","","","","","","","","","","","","","","","","","","","",""
"43862","
    <div class=""tag-bottom"">
    <p> —— 任务1：对“自我”词和“他人”词分类 ——<p/>
    不同词语会出现在屏幕中央，类别标签将始终显示在屏幕上方<p/>   
    <span style=""color:#FFD866""><b>请根据上方标签的提示，尽可能正确并且快速地做出按键反应</b></span><p/>
    当按键错误时屏幕中会出现<span style=""color:red""> X </span>，需要按另一个键纠正才能继续<br/><p/>
    请把双手食指分别放在键盘的“E”键和“I”键上<p/>
    按<空格键>开始
    </p></div>"," ","html-keyboard-response","8","176121","0.0-6.0-0.0-1.0","3","3","3","3","3","3","3","2","3","3","4","4","2","4","4","4","4","3","4","4","4","2","4","2","2","2","2","4","2","1","1","1","0","1","1","1","0","1","1","1","0","0","0","1","2","2","2","2","4","4","4","4","2","2","686480127940362240","董","472","","","","","","","","","","","","","","","","","","","","","","","","","","","","","","","","","","","","","","","",""
"null","","null","html-keyboard-response","9","176374","0.0-6.0-0.0-2.0-0.0","3","3","3","3","3","3","3","2","3","3","4","4","2","4","4","4","4","3","4","4","4","2","4","2","2","2","2","4","2","1","1","1","0","1","1","1","0","1","1","1","0","0","0","1","2","2","2","2","4","4","4","4","2","2","686480127940362240","董","472","","","","","","","","","","","","","","","","","","","","","","","","","","","","","","","","","","","","","","","",""
"1594","<p style=""color:rgb(150, 250, 100); font-size: 35px;"">别人的</p>","i","categorize-html","10","177978","0.0-6.0-0.0-2.0-1.0","3","3","3","3","3","3","3","2","3","3","4","4","2","4","4","4","4","3","4","4","4","2","4","2","2","2","2","4","2","1","1","1","0","1","1","1","0","1","1","1","0","0","0","1","2","2","2","2","4","4","4","4","2","2","686480127940362240","董","472","","","","","","","","","","","","","","","","","","","true","1","1","ability","1594","other","别人的","","","","","","","","","","","","","","",""
"null","","null","html-keyboard-response","11","178231","0.0-6.0-0.0-2.0-0.1","3","3","3","3","3","3","3","2","3","3","4","4","2","4","4","4","4","3","4","4","4","2","4","2","2","2","2","4","2","1","1","1","0","1","1","1","0","1","1","1","0","0","0","1","2","2","2","2","4","4","4","4","2","2","686480127940362240","董","472","","","","","","","","","","","","","","","","","","","","","","","","","","","","","","","","","","","","","","","",""
"602","<p style=""color:rgb(150, 250, 100); font-size: 35px;"">他人</p>","i","categorize-html","12","178838","0.0-6.0-0.0-2.0-1.1","3","3","3","3","3","3","3","2","3","3","4","4","2","4","4","4","4","3","4","4","4","2","4","2","2","2","2","4","2","1","1","1","0","1","1","1","0","1","1","1","0","0","0","1","2","2","2","2","4","4","4","4","2","2","686480127940362240","董","472","","","","","","","","","","","","","","","","","","","true","1","1","ability","602","other","他人","","","","","","","","","","","","","","",""
"null","","null","html-keyboard-response","13","179090","0.0-6.0-0.0-2.0-0.2","3","3","3","3","3","3","3","2","3","3","4","4","2","4","4","4","4","3","4","4","4","2","4","2","2","2","2","4","2","1","1","1","0","1","1","1","0","1","1","1","0","0","0","1","2","2","2","2","4","4","4","4","2","2","686480127940362240","董","472","","","","","","","","","","","","","","","","","","","","","","","","","","","","","","","","","","","","","","","",""
"548","<p style=""color:rgb(150, 250, 100); font-size: 35px;"">别人</p>","i","categorize-html","14","179642","0.0-6.0-0.0-2.0-1.2","3","3","3","3","3","3","3","2","3","3","4","4","2","4","4","4","4","3","4","4","4","2","4","2","2","2","2","4","2","1","1","1","0","1","1","1","0","1","1","1","0","0","0","1","2","2","2","2","4","4","4","4","2","2","686480127940362240","董","472","","","","","","","","","","","","","","","","","","","true","1","1","ability","548","other","别人","","","","","","","","","","","","","","",""
"null","","null","html-keyboard-response","15","179895","0.0-6.0-0.0-2.0-0.3","3","3","3","3","3","3","3","2","3","3","4","4","2","4","4","4","4","3","4","4","4","2","4","2","2","2","2","4","2","1","1","1","0","1","1","1","0","1","1","1","0","0","0","1","2","2","2","2","4","4","4","4","2","2","686480127940362240","董","472","","","","","","","","","","","","","","","","","","","","","","","","","","","","","","","","","","","","","","","",""
"535","<p style=""color:rgb(150, 250, 100); font-size: 35px;"">他</p>","i","categorize-html","16","180435","0.0-6.0-0.0-2.0-1.3","3","3","3","3","3","3","3","2","3","3","4","4","2","4","4","4","4","3","4","4","4","2","4","2","2","2","2","4","2","1","1","1","0","1","1","1","0","1","1","1","0","0","0","1","2","2","2","2","4","4","4","4","2","2","686480127940362240","董","472","","","","","","","","","","","","","","","","","","","true","1","1","ability","535","other","他","","","","","","","","","","","","","","",""
"null","","null","html-keyboard-response","17","180688","0.0-6.0-0.0-2.0-0.4","3","3","3","3","3","3","3","2","3","3","4","4","2","4","4","4","4","3","4","4","4","2","4","2","2","2","2","4","2","1","1","1","0","1","1","1","0","1","1","1","0","0","0","1","2","2","2","2","4","4","4","4","2","2","686480127940362240","董","472","","","","","","","","","","","","","","","","","","","","","","","","","","","","","","","","","","","","","","","",""
"957","<p style=""color:rgb(150, 250, 100); font-size: 35px;"">我</p>","e","categorize-html","18","181650","0.0-6.0-0.0-2.0-1.4","3","3","3","3","3","3","3","2","3","3","4","4","2","4","4","4","4","3","4","4","4","2","4","2","2","2","2","4","2","1","1","1","0","1","1","1","0","1","1","1","0","0","0","1","2","2","2","2","4","4","4","4","2","2","686480127940362240","董","472","","","","","","","","","","","","","","","","","","","true","1","1","ability","957","self","我","","","","","","","","","","","","","","",""
"null","","null","html-keyboard-response","19","181904","0.0-6.0-0.0-2.0-0.5","3","3","3","3","3","3","3","2","3","3","4","4","2","4","4","4","4","3","4","4","4","2","4","2","2","2","2","4","2","1","1","1","0","1","1","1","0","1","1","1","0","0","0","1","2","2","2","2","4","4","4","4","2","2","686480127940362240","董","472","","","","","","","","","","","","","","","","","","","","","","","","","","","","","","","","","","","","","","","",""
"730","<p style=""color:rgb(150, 250, 100); font-size: 35px;"">本人的</p>","e","categorize-html","20","182639","0.0-6.0-0.0-2.0-1.5","3","3","3","3","3","3","3","2","3","3","4","4","2","4","4","4","4","3","4","4","4","2","4","2","2","2","2","4","2","1","1","1","0","1","1","1","0","1","1","1","0","0","0","1","2","2","2","2","4","4","4","4","2","2","686480127940362240","董","472","","","","","","","","","","","","","","","","","","","true","1","1","ability","730","self","本人的","","","","","","","","","","","","","","",""
"null","","null","html-keyboard-response","21","182892","0.0-6.0-0.0-2.0-0.6","3","3","3","3","3","3","3","2","3","3","4","4","2","4","4","4","4","3","4","4","4","2","4","2","2","2","2","4","2","1","1","1","0","1","1","1","0","1","1","1","0","0","0","1","2","2","2","2","4","4","4","4","2","2","686480127940362240","董","472","","","","","","","","","","","","","","","","","","","","","","","","","","","","","","","","","","","","","","","",""
"1122","<p style=""color:rgb(150, 250, 100); font-size: 35px;"">他人的</p>","i","categorize-html","22","184018","0.0-6.0-0.0-2.0-1.6","3","3","3","3","3","3","3","2","3","3","4","4","2","4","4","4","4","3","4","4","4","2","4","2","2","2","2","4","2","1","1","1","0","1","1","1","0","1","1","1","0","0","0","1","2","2","2","2","4","4","4","4","2","2","686480127940362240","董","472","","","","","","","","","","","","","","","","","","","true","1","1","ability","1122","other","他人的","","","","","","","","","","","","","","",""
"null","","null","html-keyboard-response","23","184270","0.0-6.0-0.0-2.0-0.7","3","3","3","3","3","3","3","2","3","3","4","4","2","4","4","4","4","3","4","4","4","2","4","2","2","2","2","4","2","1","1","1","0","1","1","1","0","1","1","1","0","0","0","1","2","2","2","2","4","4","4","4","2","2","686480127940362240","董","472","","","","","","","","","","","","","","","","","","","","","","","","","","","","","","","","","","","","","","","",""
"811","<p style=""color:rgb(150, 250, 100); font-size: 35px;"">自己</p>","e","categorize-html","24","185087","0.0-6.0-0.0-2.0-1.7","3","3","3","3","3","3","3","2","3","3","4","4","2","4","4","4","4","3","4","4","4","2","4","2","2","2","2","4","2","1","1","1","0","1","1","1","0","1","1","1","0","0","0","1","2","2","2","2","4","4","4","4","2","2","686480127940362240","董","472","","","","","","","","","","","","","","","","","","","true","1","1","ability","811","self","自己","","","","","","","","","","","","","","",""
"null","","null","html-keyboard-response","25","185339","0.0-6.0-0.0-2.0-0.8","3","3","3","3","3","3","3","2","3","3","4","4","2","4","4","4","4","3","4","4","4","2","4","2","2","2","2","4","2","1","1","1","0","1","1","1","0","1","1","1","0","0","0","1","2","2","2","2","4","4","4","4","2","2","686480127940362240","董","472","","","","","","","","","","","","","","","","","","","","","","","","","","","","","","","","","","","","","","","",""
"917","<p style=""color:rgb(150, 250, 100); font-size: 35px;"">他的</p>","i","categorize-html","26","186260","0.0-6.0-0.0-2.0-1.8","3","3","3","3","3","3","3","2","3","3","4","4","2","4","4","4","4","3","4","4","4","2","4","2","2","2","2","4","2","1","1","1","0","1","1","1","0","1","1","1","0","0","0","1","2","2","2","2","4","4","4","4","2","2","686480127940362240","董","472","","","","","","","","","","","","","","","","","","","true","1","1","ability","917","other","他的","","","","","","","","","","","","","","",""
"null","","null","html-keyboard-response","27","186513","0.0-6.0-0.0-2.0-0.9","3","3","3","3","3","3","3","2","3","3","4","4","2","4","4","4","4","3","4","4","4","2","4","2","2","2","2","4","2","1","1","1","0","1","1","1","0","1","1","1","0","0","0","1","2","2","2","2","4","4","4","4","2","2","686480127940362240","董","472","","","","","","","","","","","","","","","","","","","","","","","","","","","","","","","","","","","","","","","",""
"793","<p style=""color:rgb(150, 250, 100); font-size: 35px;"">本人</p>","e","categorize-html","28","187312","0.0-6.0-0.0-2.0-1.9","3","3","3","3","3","3","3","2","3","3","4","4","2","4","4","4","4","3","4","4","4","2","4","2","2","2","2","4","2","1","1","1","0","1","1","1","0","1","1","1","0","0","0","1","2","2","2","2","4","4","4","4","2","2","686480127940362240","董","472","","","","","","","","","","","","","","","","","","","true","1","1","ability","793","self","本人","","","","","","","","","","","","","","",""
"null","","null","html-keyboard-response","29","187565","0.0-6.0-0.0-2.0-0.10","3","3","3","3","3","3","3","2","3","3","4","4","2","4","4","4","4","3","4","4","4","2","4","2","2","2","2","4","2","1","1","1","0","1","1","1","0","1","1","1","0","0","0","1","2","2","2","2","4","4","4","4","2","2","686480127940362240","董","472","","","","","","","","","","","","","","","","","","","","","","","","","","","","","","","","","","","","","","","",""
"905","<p style=""color:rgb(150, 250, 100); font-size: 35px;"">我的</p>","e","categorize-html","30","188477","0.0-6.0-0.0-2.0-1.10","3","3","3","3","3","3","3","2","3","3","4","4","2","4","4","4","4","3","4","4","4","2","4","2","2","2","2","4","2","1","1","1","0","1","1","1","0","1","1","1","0","0","0","1","2","2","2","2","4","4","4","4","2","2","686480127940362240","董","472","","","","","","","","","","","","","","","","","","","true","1","1","ability","905","self","我的","","","","","","","","","","","","","","",""
"null","","null","html-keyboard-response","31","188729","0.0-6.0-0.0-2.0-0.11","3","3","3","3","3","3","3","2","3","3","4","4","2","4","4","4","4","3","4","4","4","2","4","2","2","2","2","4","2","1","1","1","0","1","1","1","0","1","1","1","0","0","0","1","2","2","2","2","4","4","4","4","2","2","686480127940362240","董","472","","","","","","","","","","","","","","","","","","","","","","","","","","","","","","","","","","","","","","","",""
"958","<p style=""color:rgb(150, 250, 100); font-size: 35px;"">自己的</p>","e","categorize-html","32","189692","0.0-6.0-0.0-2.0-1.11","3","3","3","3","3","3","3","2","3","3","4","4","2","4","4","4","4","3","4","4","4","2","4","2","2","2","2","4","2","1","1","1","0","1","1","1","0","1","1","1","0","0","0","1","2","2","2","2","4","4","4","4","2","2","686480127940362240","董","472","","","","","","","","","","","","","","","","","","","true","1","1","ability","958","self","自己的","","","","","","","","","","","","","","",""
"4986","
    <div class=""tag-bottom""><p>
    —— 任务2：对“消极”词和“积极”词分类 ——<p/>   
    <span style=""color:#78DCE8""><b>注意上方，类别标签和需要分类的词语都已经改变</b></span><p/>
    <span style=""color:#FFD866""><b>请根据上方标签的提示，尽可能正确并且快速地做出按键反应</b></span><p/>
    当按键错误时屏幕中会出现<span style=""color:red""> X </span>，需要按另一个键纠正才能继续<br/><p/>
    请把双手食指分别放在键盘的“E”键和“I”键上<p/>
    按<空格键>开始
    </p></div>"," ","html-keyboard-response","33","194679","0.0-6.0-0.0-3.0","3","3","3","3","3","3","3","2","3","3","4","4","2","4","4","4","4","3","4","4","4","2","4","2","2","2","2","4","2","1","1","1","0","1","1","1","0","1","1","1","0","0","0","1","2","2","2","2","4","4","4","4","2","2","686480127940362240","董","472","","","","","","","","","","","","","","","","","","","","","","","","","","","","","","","","","","","","","","","",""
"null","","null","html-keyboard-response","34","194931","0.0-6.0-0.0-4.0-0.0","3","3","3","3","3","3","3","2","3","3","4","4","2","4","4","4","4","3","4","4","4","2","4","2","2","2","2","4","2","1","1","1","0","1","1","1","0","1","1","1","0","0","0","1","2","2","2","2","4","4","4","4","2","2","686480127940362240","董","472","","","","","","","","","","","","","","","","","","","","","","","","","","","","","","","","","","","","","","","",""
"875","<p style=""color:white; font-size: 35px;"">拙笨</p>","e","categorize-html","35","195812","0.0-6.0-0.0-4.0-1.0","3","3","3","3","3","3","3","2","3","3","4","4","2","4","4","4","4","3","4","4","4","2","4","2","2","2","2","4","2","1","1","1","0","1","1","1","0","1","1","1","0","0","0","1","2","2","2","2","4","4","4","4","2","2","686480127940362240","董","472","","","","","","","","","","","","","","","","","","","true","2","2","ability","875","negative","拙笨","","","","","","","","","","","","","","",""
"null","","null","html-keyboard-response","36","196063","0.0-6.0-0.0-4.0-0.1","3","3","3","3","3","3","3","2","3","3","4","4","2","4","4","4","4","3","4","4","4","2","4","2","2","2","2","4","2","1","1","1","0","1","1","1","0","1","1","1","0","0","0","1","2","2","2","2","4","4","4","4","2","2","686480127940362240","董","472","","","","","","","","","","","","","","","","","","","","","","","","","","","","","","","","","","","","","","","",""
"439","<p style=""color:white; font-size: 35px;"">愚钝</p>","e","categorize-html","37","196507","0.0-6.0-0.0-4.0-1.1","3","3","3","3","3","3","3","2","3","3","4","4","2","4","4","4","4","3","4","4","4","2","4","2","2","2","2","4","2","1","1","1","0","1","1","1","0","1","1","1","0","0","0","1","2","2","2","2","4","4","4","4","2","2","686480127940362240","董","472","","","","","","","","","","","","","","","","","","","true","2","2","ability","439","negative","愚钝","","","","","","","","","","","","","","",""
"null","","null","html-keyboard-response","38","196759","0.0-6.0-0.0-4.0-0.2","3","3","3","3","3","3","3","2","3","3","4","4","2","4","4","4","4","3","4","4","4","2","4","2","2","2","2","4","2","1","1","1","0","1","1","1","0","1","1","1","0","0","0","1","2","2","2","2","4","4","4","4","2","2","686480127940362240","董","472","","","","","","","","","","","","","","","","","","","","","","","","","","","","","","","","","","","","","","","",""
"585","<p style=""color:white; font-size: 35px;"">全能</p>","i","categorize-html","39","197349","0.0-6.0-0.0-4.0-1.2","3","3","3","3","3","3","3","2","3","3","4","4","2","4","4","4","4","3","4","4","4","2","4","2","2","2","2","4","2","1","1","1","0","1","1","1","0","1","1","1","0","0","0","1","2","2","2","2","4","4","4","4","2","2","686480127940362240","董","472","","","","","","","","","","","","","","","","","","","true","2","2","ability","585","positive","全能","","","","","","","","","","","","","","",""
"null","","null","html-keyboard-response","40","197600","0.0-6.0-0.0-4.0-0.3","3","3","3","3","3","3","3","2","3","3","4","4","2","4","4","4","4","3","4","4","4","2","4","2","2","2","2","4","2","1","1","1","0","1","1","1","0","1","1","1","0","0","0","1","2","2","2","2","4","4","4","4","2","2","686480127940362240","董","472","","","","","","","","","","","","","","","","","","","","","","","","","","","","","","","","","","","","","","","",""
"466","<p style=""color:white; font-size: 35px;"">能干</p>","i","categorize-html","41","198073","0.0-6.0-0.0-4.0-1.3","3","3","3","3","3","3","3","2","3","3","4","4","2","4","4","4","4","3","4","4","4","2","4","2","2","2","2","4","2","1","1","1","0","1","1","1","0","1","1","1","0","0","0","1","2","2","2","2","4","4","4","4","2","2","686480127940362240","董","472","","","","","","","","","","","","","","","","","","","true","2","2","ability","466","positive","能干","","","","","","","","","","","","","","",""
"null","","null","html-keyboard-response","42","198324","0.0-6.0-0.0-4.0-0.4","3","3","3","3","3","3","3","2","3","3","4","4","2","4","4","4","4","3","4","4","4","2","4","2","2","2","2","4","2","1","1","1","0","1","1","1","0","1","1","1","0","0","0","1","2","2","2","2","4","4","4","4","2","2","686480127940362240","董","472","","","","","","","","","","","","","","","","","","","","","","","","","","","","","","","","","","","","","","","",""
"492","<p style=""color:white; font-size: 35px;"">高效</p>","i","categorize-html","43","198821","0.0-6.0-0.0-4.0-1.4","3","3","3","3","3","3","3","2","3","3","4","4","2","4","4","4","4","3","4","4","4","2","4","2","2","2","2","4","2","1","1","1","0","1","1","1","0","1","1","1","0","0","0","1","2","2","2","2","4","4","4","4","2","2","686480127940362240","董","472","","","","","","","","","","","","","","","","","","","true","2","2","ability","492","positive","高效","","","","","","","","","","","","","","",""
"null","","null","html-keyboard-response","44","199072","0.0-6.0-0.0-4.0-0.5","3","3","3","3","3","3","3","2","3","3","4","4","2","4","4","4","4","3","4","4","4","2","4","2","2","2","2","4","2","1","1","1","0","1","1","1","0","1","1","1","0","0","0","1","2","2","2","2","4","4","4","4","2","2","686480127940362240","董","472","","","","","","","","","","","","","","","","","","","","","","","","","","","","","","","","","","","","","","","",""
"550","<p style=""color:white; font-size: 35px;"">低能</p>","e","categorize-html","45","199626","0.0-6.0-0.0-4.0-1.5","3","3","3","3","3","3","3","2","3","3","4","4","2","4","4","4","4","3","4","4","4","2","4","2","2","2","2","4","2","1","1","1","0","1","1","1","0","1","1","1","0","0","0","1","2","2","2","2","4","4","4","4","2","2","686480127940362240","董","472","","","","","","","","","","","","","","","","","","","true","2","2","ability","550","negative","低能","","","","","","","","","","","","","","",""
"null","","null","html-keyboard-response","46","199878","0.0-6.0-0.0-4.0-0.6","3","3","3","3","3","3","3","2","3","3","4","4","2","4","4","4","4","3","4","4","4","2","4","2","2","2","2","4","2","1","1","1","0","1","1","1","0","1","1","1","0","0","0","1","2","2","2","2","4","4","4","4","2","2","686480127940362240","董","472","","","","","","","","","","","","","","","","","","","","","","","","","","","","","","","","","","","","","","","",""
"582","<p style=""color:white; font-size: 35px;"">废物</p>","e","categorize-html","47","200465","0.0-6.0-0.0-4.0-1.6","3","3","3","3","3","3","3","2","3","3","4","4","2","4","4","4","4","3","4","4","4","2","4","2","2","2","2","4","2","1","1","1","0","1","1","1","0","1","1","1","0","0","0","1","2","2","2","2","4","4","4","4","2","2","686480127940362240","董","472","","","","","","","","","","","","","","","","","","","true","2","2","ability","582","negative","废物","","","","","","","","","","","","","","",""
"null","","null","html-keyboard-response","48","200716","0.0-6.0-0.0-4.0-0.7","3","3","3","3","3","3","3","2","3","3","4","4","2","4","4","4","4","3","4","4","4","2","4","2","2","2","2","4","2","1","1","1","0","1","1","1","0","1","1","1","0","0","0","1","2","2","2","2","4","4","4","4","2","2","686480127940362240","董","472","","","","","","","","","","","","","","","","","","","","","","","","","","","","","","","","","","","","","","","",""
"821","<p style=""color:white; font-size: 35px;"">天才</p>","i","categorize-html","49","201542","0.0-6.0-0.0-4.0-1.7","3","3","3","3","3","3","3","2","3","3","4","4","2","4","4","4","4","3","4","4","4","2","4","2","2","2","2","4","2","1","1","1","0","1","1","1","0","1","1","1","0","0","0","1","2","2","2","2","4","4","4","4","2","2","686480127940362240","董","472","","","","","","","","","","","","","","","","","","","true","2","2","ability","821","positive","天才","","","","","","","","","","","","","","",""
"null","","null","html-keyboard-response","50","201801","0.0-6.0-0.0-4.0-0.8","3","3","3","3","3","3","3","2","3","3","4","4","2","4","4","4","4","3","4","4","4","2","4","2","2","2","2","4","2","1","1","1","0","1","1","1","0","1","1","1","0","0","0","1","2","2","2","2","4","4","4","4","2","2","686480127940362240","董","472","","","","","","","","","","","","","","","","","","","","","","","","","","","","","","","","","","","","","","","",""
"676","<p style=""color:white; font-size: 35px;"">精干</p>","i","categorize-html","51","202482","0.0-6.0-0.0-4.0-1.8","3","3","3","3","3","3","3","2","3","3","4","4","2","4","4","4","4","3","4","4","4","2","4","2","2","2","2","4","2","1","1","1","0","1","1","1","0","1","1","1","0","0","0","1","2","2","2","2","4","4","4","4","2","2","686480127940362240","董","472","","","","","","","","","","","","","","","","","","","true","2","2","ability","676","positive","精干","","","","","","","","","","","","","","",""
"null","","null","html-keyboard-response","52","202734","0.0-6.0-0.0-4.0-0.9","3","3","3","3","3","3","3","2","3","3","4","4","2","4","4","4","4","3","4","4","4","2","4","2","2","2","2","4","2","1","1","1","0","1","1","1","0","1","1","1","0","0","0","1","2","2","2","2","4","4","4","4","2","2","686480127940362240","董","472","","","","","","","","","","","","","","","","","","","","","","","","","","","","","","","","","","","","","","","",""
"540","<p style=""color:white; font-size: 35px;"">全才</p>","i","categorize-html","53","203278","0.0-6.0-0.0-4.0-1.9","3","3","3","3","3","3","3","2","3","3","4","4","2","4","4","4","4","3","4","4","4","2","4","2","2","2","2","4","2","1","1","1","0","1","1","1","0","1","1","1","0","0","0","1","2","2","2","2","4","4","4","4","2","2","686480127940362240","董","472","","","","","","","","","","","","","","","","","","","true","2","2","ability","540","positive","全才","","","","","","","","","","","","","","",""
"null","","null","html-keyboard-response","54","203530","0.0-6.0-0.0-4.0-0.10","3","3","3","3","3","3","3","2","3","3","4","4","2","4","4","4","4","3","4","4","4","2","4","2","2","2","2","4","2","1","1","1","0","1","1","1","0","1","1","1","0","0","0","1","2","2","2","2","4","4","4","4","2","2","686480127940362240","董","472","","","","","","","","","","","","","","","","","","","","","","","","","","","","","","","","","","","","","","","",""
"592","<p style=""color:white; font-size: 35px;"">蠢笨</p>","e","categorize-html","55","204125","0.0-6.0-0.0-4.0-1.10","3","3","3","3","3","3","3","2","3","3","4","4","2","4","4","4","4","3","4","4","4","2","4","2","2","2","2","4","2","1","1","1","0","1","1","1","0","1","1","1","0","0","0","1","2","2","2","2","4","4","4","4","2","2","686480127940362240","董","472","","","","","","","","","","","","","","","","","","","true","2","2","ability","592","negative","蠢笨","","","","","","","","","","","","","","",""
"null","","null","html-keyboard-response","56","204377","0.0-6.0-0.0-4.0-0.11","3","3","3","3","3","3","3","2","3","3","4","4","2","4","4","4","4","3","4","4","4","2","4","2","2","2","2","4","2","1","1","1","0","1","1","1","0","1","1","1","0","0","0","1","2","2","2","2","4","4","4","4","2","2","686480127940362240","董","472","","","","","","","","","","","","","","","","","","","","","","","","","","","","","","","","","","","","","","","",""
"846","<p style=""color:white; font-size: 35px;"">无能</p>","e","categorize-html","57","205227","0.0-6.0-0.0-4.0-1.11","3","3","3","3","3","3","3","2","3","3","4","4","2","4","4","4","4","3","4","4","4","2","4","2","2","2","2","4","2","1","1","1","0","1","1","1","0","1","1","1","0","0","0","1","2","2","2","2","4","4","4","4","2","2","686480127940362240","董","472","","","","","","","","","","","","","","","","","","","true","2","2","ability","846","negative","无能","","","","","","","","","","","","","","",""
"12827","
    <div class=""tag-bottom""><p>
    —— 任务3：对“自我/消极”词和“他人/积极”词分类 ——<p/>
    <span style=""color:#78DCE8""><b>注意上方，之前的四类词语将混合在一起交替呈现</b></span><p/>
    <span style=""color:#FFD866""><b>请根据上方标签的提示，尽可能正确并且快速地做出按键反应</b></span><p/>
    当按键错误时屏幕中会出现<span style=""color:red""> X </span>，需要按另一个键纠正才能继续<br/><p/>
    请把双手食指分别放在键盘的“E”键和“I”键上<p/>
    按<空格键>开始
    </p></div>"," ","html-keyboard-response","58","218055","0.0-6.0-0.0-5.0","3","3","3","3","3","3","3","2","3","3","4","4","2","4","4","4","4","3","4","4","4","2","4","2","2","2","2","4","2","1","1","1","0","1","1","1","0","1","1","1","0","0","0","1","2","2","2","2","4","4","4","4","2","2","686480127940362240","董","472","","","","","","","","","","","","","","","","","","","","","","","","","","","","","","","","","","","","","","","",""
"null","","null","html-keyboard-response","59","218307","0.0-6.0-0.0-6.0-0.0","3","3","3","3","3","3","3","2","3","3","4","4","2","4","4","4","4","3","4","4","4","2","4","2","2","2","2","4","2","1","1","1","0","1","1","1","0","1","1","1","0","0","0","1","2","2","2","2","4","4","4","4","2","2","686480127940362240","董","472","","","","","","","","","","","","","","","","","","","","","","","","","","","","","","","","","","","","","","","",""
"1020","<p style=""color:rgb(150, 250, 100); font-size: 35px;"">别人的</p>","i","categorize-html","60","219334","0.0-6.0-0.0-6.0-1.0","3","3","3","3","3","3","3","2","3","3","4","4","2","4","4","4","4","3","4","4","4","2","4","2","2","2","2","4","2","1","1","1","0","1","1","1","0","1","1","1","0","0","0","1","2","2","2","2","4","4","4","4","2","2","686480127940362240","董","472","","","","","","","","","","","","","","","","","","","true","3","3","ability","1020","other","别人的","","","","","","","","","","","","","","",""
"null","","null","html-keyboard-response","61","219586","0.0-6.0-0.0-6.0-0.1","3","3","3","3","3","3","3","2","3","3","4","4","2","4","4","4","4","3","4","4","4","2","4","2","2","2","2","4","2","1","1","1","0","1","1","1","0","1","1","1","0","0","0","1","2","2","2","2","4","4","4","4","2","2","686480127940362240","董","472","","","","","","","","","","","","","","","","","","","","","","","","","","","","","","","","","","","","","","","",""
"1214","<p style=""color:white; font-size: 35px;"">精干</p>","i","categorize-html","62","220805","0.0-6.0-0.0-6.0-1.1","3","3","3","3","3","3","3","2","3","3","4","4","2","4","4","4","4","3","4","4","4","2","4","2","2","2","2","4","2","1","1","1","0","1","1","1","0","1","1","1","0","0","0","1","2","2","2","2","4","4","4","4","2","2","686480127940362240","董","472","","","","","","","","","","","","","","","","","","","true","3","3","ability","1214","positive","精干","","","","","","","","","","","","","","",""
"null","","null","html-keyboard-response","63","221057","0.0-6.0-0.0-6.0-0.2","3","3","3","3","3","3","3","2","3","3","4","4","2","4","4","4","4","3","4","4","4","2","4","2","2","2","2","4","2","1","1","1","0","1","1","1","0","1","1","1","0","0","0","1","2","2","2","2","4","4","4","4","2","2","686480127940362240","董","472","","","","","","","","","","","","","","","","","","","","","","","","","","","","","","","","","","","","","","","",""
"621","<p style=""color:rgb(150, 250, 100); font-size: 35px;"">自己的</p>","e","categorize-html","64","221683","0.0-6.0-0.0-6.0-1.2","3","3","3","3","3","3","3","2","3","3","4","4","2","4","4","4","4","3","4","4","4","2","4","2","2","2","2","4","2","1","1","1","0","1","1","1","0","1","1","1","0","0","0","1","2","2","2","2","4","4","4","4","2","2","686480127940362240","董","472","","","","","","","","","","","","","","","","","","","true","3","3","ability","621","self","自己的","","","","","","","","","","","","","","",""
"null","","null","html-keyboard-response","65","221935","0.0-6.0-0.0-6.0-0.3","3","3","3","3","3","3","3","2","3","3","4","4","2","4","4","4","4","3","4","4","4","2","4","2","2","2","2","4","2","1","1","1","0","1","1","1","0","1","1","1","0","0","0","1","2","2","2","2","4","4","4","4","2","2","686480127940362240","董","472","","","","","","","","","","","","","","","","","","","","","","","","","","","","","","","","","","","","","","","",""
"466","<p style=""color:white; font-size: 35px;"">无能</p>","e","categorize-html","66","222405","0.0-6.0-0.0-6.0-1.3","3","3","3","3","3","3","3","2","3","3","4","4","2","4","4","4","4","3","4","4","4","2","4","2","2","2","2","4","2","1","1","1","0","1","1","1","0","1","1","1","0","0","0","1","2","2","2","2","4","4","4","4","2","2","686480127940362240","董","472","","","","","","","","","","","","","","","","","","","true","3","3","ability","466","negative","无能","","","","","","","","","","","","","","",""
"null","","null","html-keyboard-response","67","222657","0.0-6.0-0.0-6.0-0.4","3","3","3","3","3","3","3","2","3","3","4","4","2","4","4","4","4","3","4","4","4","2","4","2","2","2","2","4","2","1","1","1","0","1","1","1","0","1","1","1","0","0","0","1","2","2","2","2","4","4","4","4","2","2","686480127940362240","董","472","","","","","","","","","","","","","","","","","","","","","","","","","","","","","","","","","","","","","","","",""
"882","<p style=""color:rgb(150, 250, 100); font-size: 35px;"">他人</p>","i","categorize-html","68","223544","0.0-6.0-0.0-6.0-1.4","3","3","3","3","3","3","3","2","3","3","4","4","2","4","4","4","4","3","4","4","4","2","4","2","2","2","2","4","2","1","1","1","0","1","1","1","0","1","1","1","0","0","0","1","2","2","2","2","4","4","4","4","2","2","686480127940362240","董","472","","","","","","","","","","","","","","","","","","","true","3","3","ability","882","other","他人","","","","","","","","","","","","","","",""
"null","","null","html-keyboard-response","69","223796","0.0-6.0-0.0-6.0-0.5","3","3","3","3","3","3","3","2","3","3","4","4","2","4","4","4","4","3","4","4","4","2","4","2","2","2","2","4","2","1","1","1","0","1","1","1","0","1","1","1","0","0","0","1","2","2","2","2","4","4","4","4","2","2","686480127940362240","董","472","","","","","","","","","","","","","","","","","","","","","","","","","","","","","","","","","","","","","","","",""
"915","<p style=""color:white; font-size: 35px;"">拙笨</p>","e","categorize-html","70","224715","0.0-6.0-0.0-6.0-1.5","3","3","3","3","3","3","3","2","3","3","4","4","2","4","4","4","4","3","4","4","4","2","4","2","2","2","2","4","2","1","1","1","0","1","1","1","0","1","1","1","0","0","0","1","2","2","2","2","4","4","4","4","2","2","686480127940362240","董","472","","","","","","","","","","","","","","","","","","","true","3","3","ability","915","negative","拙笨","","","","","","","","","","","","","","",""
"null","","null","html-keyboard-response","71","224968","0.0-6.0-0.0-6.0-0.6","3","3","3","3","3","3","3","2","3","3","4","4","2","4","4","4","4","3","4","4","4","2","4","2","2","2","2","4","2","1","1","1","0","1","1","1","0","1","1","1","0","0","0","1","2","2","2","2","4","4","4","4","2","2","686480127940362240","董","472","","","","","","","","","","","","","","","","","","","","","","","","","","","","","","","","","","","","","","","",""
"586","<p style=""color:rgb(150, 250, 100); font-size: 35px;"">我</p>","e","categorize-html","72","225559","0.0-6.0-0.0-6.0-1.6","3","3","3","3","3","3","3","2","3","3","4","4","2","4","4","4","4","3","4","4","4","2","4","2","2","2","2","4","2","1","1","1","0","1","1","1","0","1","1","1","0","0","0","1","2","2","2","2","4","4","4","4","2","2","686480127940362240","董","472","","","","","","","","","","","","","","","","","","","true","3","3","ability","586","self","我","","","","","","","","","","","","","","",""
"null","","null","html-keyboard-response","73","225811","0.0-6.0-0.0-6.0-0.7","3","3","3","3","3","3","3","2","3","3","4","4","2","4","4","4","4","3","4","4","4","2","4","2","2","2","2","4","2","1","1","1","0","1","1","1","0","1","1","1","0","0","0","1","2","2","2","2","4","4","4","4","2","2","686480127940362240","董","472","","","","","","","","","","","","","","","","","","","","","","","","","","","","","","","","","","","","","","","",""
"680","<p style=""color:white; font-size: 35px;"">高效</p>","i","categorize-html","74","226495","0.0-6.0-0.0-6.0-1.7","3","3","3","3","3","3","3","2","3","3","4","4","2","4","4","4","4","3","4","4","4","2","4","2","2","2","2","4","2","1","1","1","0","1","1","1","0","1","1","1","0","0","0","1","2","2","2","2","4","4","4","4","2","2","686480127940362240","董","472","","","","","","","","","","","","","","","","","","","true","3","3","ability","680","positive","高效","","","","","","","","","","","","","","",""
"null","","null","html-keyboard-response","75","226747","0.0-6.0-0.0-6.0-0.8","3","3","3","3","3","3","3","2","3","3","4","4","2","4","4","4","4","3","4","4","4","2","4","2","2","2","2","4","2","1","1","1","0","1","1","1","0","1","1","1","0","0","0","1","2","2","2","2","4","4","4","4","2","2","686480127940362240","董","472","","","","","","","","","","","","","","","","","","","","","","","","","","","","","","","","","","","","","","","",""
"1079","<p style=""color:rgb(150, 250, 100); font-size: 35px;"">他的</p>","e","categorize-html","76","230598","0.0-6.0-0.0-6.0-1.8","3","3","3","3","3","3","3","2","3","3","4","4","2","4","4","4","4","3","4","4","4","2","4","2","2","2","2","4","2","1","1","1","0","1","1","1","0","1","1","1","0","0","0","1","2","2","2","2","4","4","4","4","2","2","686480127940362240","董","472","","","","","","","","","","","","","","","","","","","false","3","3","ability","1452.0434782608695","other","他的","","","","","","","","","","","","","","",""
"null","","null","html-keyboard-response","77","230850","0.0-6.0-0.0-6.0-0.9","3","3","3","3","3","3","3","2","3","3","4","4","2","4","4","4","4","3","4","4","4","2","4","2","2","2","2","4","2","1","1","1","0","1","1","1","0","1","1","1","0","0","0","1","2","2","2","2","4","4","4","4","2","2","686480127940362240","董","472","","","","","","","","","","","","","","","","","","","","","","","","","","","","","","","","","","","","","","","",""
"1378","<p style=""color:white; font-size: 35px;"">全能</p>","i","categorize-html","78","232233","0.0-6.0-0.0-6.0-1.9","3","3","3","3","3","3","3","2","3","3","4","4","2","4","4","4","4","3","4","4","4","2","4","2","2","2","2","4","2","1","1","1","0","1","1","1","0","1","1","1","0","0","0","1","2","2","2","2","4","4","4","4","2","2","686480127940362240","董","472","","","","","","","","","","","","","","","","","","","true","3","3","ability","1378","positive","全能","","","","","","","","","","","","","","",""
"null","","null","html-keyboard-response","79","232485","0.0-6.0-0.0-6.0-0.10","3","3","3","3","3","3","3","2","3","3","4","4","2","4","4","4","4","3","4","4","4","2","4","2","2","2","2","4","2","1","1","1","0","1","1","1","0","1","1","1","0","0","0","1","2","2","2","2","4","4","4","4","2","2","686480127940362240","董","472","","","","","","","","","","","","","","","","","","","","","","","","","","","","","","","","","","","","","","","",""
"723","<p style=""color:rgb(150, 250, 100); font-size: 35px;"">本人的</p>","e","categorize-html","80","233212","0.0-6.0-0.0-6.0-1.10","3","3","3","3","3","3","3","2","3","3","4","4","2","4","4","4","4","3","4","4","4","2","4","2","2","2","2","4","2","1","1","1","0","1","1","1","0","1","1","1","0","0","0","1","2","2","2","2","4","4","4","4","2","2","686480127940362240","董","472","","","","","","","","","","","","","","","","","","","true","3","3","ability","723","self","本人的","","","","","","","","","","","","","","",""
"null","","null","html-keyboard-response","81","233465","0.0-6.0-0.0-6.0-0.11","3","3","3","3","3","3","3","2","3","3","4","4","2","4","4","4","4","3","4","4","4","2","4","2","2","2","2","4","2","1","1","1","0","1","1","1","0","1","1","1","0","0","0","1","2","2","2","2","4","4","4","4","2","2","686480127940362240","董","472","","","","","","","","","","","","","","","","","","","","","","","","","","","","","","","","","","","","","","","",""
"554","<p style=""color:white; font-size: 35px;"">蠢笨</p>","e","categorize-html","82","234023","0.0-6.0-0.0-6.0-1.11","3","3","3","3","3","3","3","2","3","3","4","4","2","4","4","4","4","3","4","4","4","2","4","2","2","2","2","4","2","1","1","1","0","1","1","1","0","1","1","1","0","0","0","1","2","2","2","2","4","4","4","4","2","2","686480127940362240","董","472","","","","","","","","","","","","","","","","","","","true","3","3","ability","554","negative","蠢笨","","","","","","","","","","","","","","",""
"null","","null","html-keyboard-response","83","234275","0.0-6.0-0.0-6.0-0.12","3","3","3","3","3","3","3","2","3","3","4","4","2","4","4","4","4","3","4","4","4","2","4","2","2","2","2","4","2","1","1","1","0","1","1","1","0","1","1","1","0","0","0","1","2","2","2","2","4","4","4","4","2","2","686480127940362240","董","472","","","","","","","","","","","","","","","","","","","","","","","","","","","","","","","","","","","","","","","",""
"778","<p style=""color:rgb(150, 250, 100); font-size: 35px;"">我的</p>","e","categorize-html","84","235057","0.0-6.0-0.0-6.0-1.12","3","3","3","3","3","3","3","2","3","3","4","4","2","4","4","4","4","3","4","4","4","2","4","2","2","2","2","4","2","1","1","1","0","1","1","1","0","1","1","1","0","0","0","1","2","2","2","2","4","4","4","4","2","2","686480127940362240","董","472","","","","","","","","","","","","","","","","","","","true","3","3","ability","778","self","我的","","","","","","","","","","","","","","",""
"null","","null","html-keyboard-response","85","235309","0.0-6.0-0.0-6.0-0.13","3","3","3","3","3","3","3","2","3","3","4","4","2","4","4","4","4","3","4","4","4","2","4","2","2","2","2","4","2","1","1","1","0","1","1","1","0","1","1","1","0","0","0","1","2","2","2","2","4","4","4","4","2","2","686480127940362240","董","472","","","","","","","","","","","","","","","","","","","","","","","","","","","","","","","","","","","","","","","",""
"608","<p style=""color:white; font-size: 35px;"">低能</p>","e","categorize-html","86","235922","0.0-6.0-0.0-6.0-1.13","3","3","3","3","3","3","3","2","3","3","4","4","2","4","4","4","4","3","4","4","4","2","4","2","2","2","2","4","2","1","1","1","0","1","1","1","0","1","1","1","0","0","0","1","2","2","2","2","4","4","4","4","2","2","686480127940362240","董","472","","","","","","","","","","","","","","","","","","","true","3","3","ability","608","negative","低能","","","","","","","","","","","","","","",""
"null","","null","html-keyboard-response","87","236174","0.0-6.0-0.0-6.0-0.14","3","3","3","3","3","3","3","2","3","3","4","4","2","4","4","4","4","3","4","4","4","2","4","2","2","2","2","4","2","1","1","1","0","1","1","1","0","1","1","1","0","0","0","1","2","2","2","2","4","4","4","4","2","2","686480127940362240","董","472","","","","","","","","","","","","","","","","","","","","","","","","","","","","","","","","","","","","","","","",""
"902","<p style=""color:rgb(150, 250, 100); font-size: 35px;"">他人的</p>","i","categorize-html","88","237080","0.0-6.0-0.0-6.0-1.14","3","3","3","3","3","3","3","2","3","3","4","4","2","4","4","4","4","3","4","4","4","2","4","2","2","2","2","4","2","1","1","1","0","1","1","1","0","1","1","1","0","0","0","1","2","2","2","2","4","4","4","4","2","2","686480127940362240","董","472","","","","","","","","","","","","","","","","","","","true","3","3","ability","902","other","他人的","","","","","","","","","","","","","","",""
"null","","null","html-keyboard-response","89","237332","0.0-6.0-0.0-6.0-0.15","3","3","3","3","3","3","3","2","3","3","4","4","2","4","4","4","4","3","4","4","4","2","4","2","2","2","2","4","2","1","1","1","0","1","1","1","0","1","1","1","0","0","0","1","2","2","2","2","4","4","4","4","2","2","686480127940362240","董","472","","","","","","","","","","","","","","","","","","","","","","","","","","","","","","","","","","","","","","","",""
"999","<p style=""color:white; font-size: 35px;"">天才</p>","i","categorize-html","90","238335","0.0-6.0-0.0-6.0-1.15","3","3","3","3","3","3","3","2","3","3","4","4","2","4","4","4","4","3","4","4","4","2","4","2","2","2","2","4","2","1","1","1","0","1","1","1","0","1","1","1","0","0","0","1","2","2","2","2","4","4","4","4","2","2","686480127940362240","董","472","","","","","","","","","","","","","","","","","","","true","3","3","ability","999","positive","天才","","","","","","","","","","","","","","",""
"null","","null","html-keyboard-response","91","238588","0.0-6.0-0.0-6.0-0.16","3","3","3","3","3","3","3","2","3","3","4","4","2","4","4","4","4","3","4","4","4","2","4","2","2","2","2","4","2","1","1","1","0","1","1","1","0","1","1","1","0","0","0","1","2","2","2","2","4","4","4","4","2","2","686480127940362240","董","472","","","","","","","","","","","","","","","","","","","","","","","","","","","","","","","","","","","","","","","",""
"1098","<p style=""color:rgb(150, 250, 100); font-size: 35px;"">别人</p>","i","categorize-html","92","239692","0.0-6.0-0.0-6.0-1.16","3","3","3","3","3","3","3","2","3","3","4","4","2","4","4","4","4","3","4","4","4","2","4","2","2","2","2","4","2","1","1","1","0","1","1","1","0","1","1","1","0","0","0","1","2","2","2","2","4","4","4","4","2","2","686480127940362240","董","472","","","","","","","","","","","","","","","","","","","true","3","3","ability","1098","other","别人","","","","","","","","","","","","","","",""
"null","","null","html-keyboard-response","93","239947","0.0-6.0-0.0-6.0-0.17","3","3","3","3","3","3","3","2","3","3","4","4","2","4","4","4","4","3","4","4","4","2","4","2","2","2","2","4","2","1","1","1","0","1","1","1","0","1","1","1","0","0","0","1","2","2","2","2","4","4","4","4","2","2","686480127940362240","董","472","","","","","","","","","","","","","","","","","","","","","","","","","","","","","","","","","","","","","","","",""
"1635","<p style=""color:white; font-size: 35px;"">全才</p>","i","categorize-html","94","241587","0.0-6.0-0.0-6.0-1.17","3","3","3","3","3","3","3","2","3","3","4","4","2","4","4","4","4","3","4","4","4","2","4","2","2","2","2","4","2","1","1","1","0","1","1","1","0","1","1","1","0","0","0","1","2","2","2","2","4","4","4","4","2","2","686480127940362240","董","472","","","","","","","","","","","","","","","","","","","true","3","3","ability","1635","positive","全才","","","","","","","","","","","","","","",""
"null","","null","html-keyboard-response","95","241839","0.0-6.0-0.0-6.0-0.18","3","3","3","3","3","3","3","2","3","3","4","4","2","4","4","4","4","3","4","4","4","2","4","2","2","2","2","4","2","1","1","1","0","1","1","1","0","1","1","1","0","0","0","1","2","2","2","2","4","4","4","4","2","2","686480127940362240","董","472","","","","","","","","","","","","","","","","","","","","","","","","","","","","","","","","","","","","","","","",""
"682","<p style=""color:rgb(150, 250, 100); font-size: 35px;"">自己</p>","e","categorize-html","96","242525","0.0-6.0-0.0-6.0-1.18","3","3","3","3","3","3","3","2","3","3","4","4","2","4","4","4","4","3","4","4","4","2","4","2","2","2","2","4","2","1","1","1","0","1","1","1","0","1","1","1","0","0","0","1","2","2","2","2","4","4","4","4","2","2","686480127940362240","董","472","","","","","","","","","","","","","","","","","","","true","3","3","ability","682","self","自己","","","","","","","","","","","","","","",""
"null","","null","html-keyboard-response","97","242777","0.0-6.0-0.0-6.0-0.19","3","3","3","3","3","3","3","2","3","3","4","4","2","4","4","4","4","3","4","4","4","2","4","2","2","2","2","4","2","1","1","1","0","1","1","1","0","1","1","1","0","0","0","1","2","2","2","2","4","4","4","4","2","2","686480127940362240","董","472","","","","","","","","","","","","","","","","","","","","","","","","","","","","","","","","","","","","","","","",""
"464","<p style=""color:white; font-size: 35px;"">愚钝</p>","e","categorize-html","98","243246","0.0-6.0-0.0-6.0-1.19","3","3","3","3","3","3","3","2","3","3","4","4","2","4","4","4","4","3","4","4","4","2","4","2","2","2","2","4","2","1","1","1","0","1","1","1","0","1","1","1","0","0","0","1","2","2","2","2","4","4","4","4","2","2","686480127940362240","董","472","","","","","","","","","","","","","","","","","","","true","3","3","ability","464","negative","愚钝","","","","","","","","","","","","","","",""
"null","","null","html-keyboard-response","99","243498","0.0-6.0-0.0-6.0-0.20","3","3","3","3","3","3","3","2","3","3","4","4","2","4","4","4","4","3","4","4","4","2","4","2","2","2","2","4","2","1","1","1","0","1","1","1","0","1","1","1","0","0","0","1","2","2","2","2","4","4","4","4","2","2","686480127940362240","董","472","","","","","","","","","","","","","","","","","","","","","","","","","","","","","","","","","","","","","","","",""
"1360","<p style=""color:rgb(150, 250, 100); font-size: 35px;"">他</p>","i","categorize-html","100","244863","0.0-6.0-0.0-6.0-1.20","3","3","3","3","3","3","3","2","3","3","4","4","2","4","4","4","4","3","4","4","4","2","4","2","2","2","2","4","2","1","1","1","0","1","1","1","0","1","1","1","0","0","0","1","2","2","2","2","4","4","4","4","2","2","686480127940362240","董","472","","","","","","","","","","","","","","","","","","","true","3","3","ability","1360","other","他","","","","","","","","","","","","","","",""
"null","","null","html-keyboard-response","101","245115","0.0-6.0-0.0-6.0-0.21","3","3","3","3","3","3","3","2","3","3","4","4","2","4","4","4","4","3","4","4","4","2","4","2","2","2","2","4","2","1","1","1","0","1","1","1","0","1","1","1","0","0","0","1","2","2","2","2","4","4","4","4","2","2","686480127940362240","董","472","","","","","","","","","","","","","","","","","","","","","","","","","","","","","","","","","","","","","","","",""
"471","<p style=""color:white; font-size: 35px;"">能干</p>","i","categorize-html","102","245590","0.0-6.0-0.0-6.0-1.21","3","3","3","3","3","3","3","2","3","3","4","4","2","4","4","4","4","3","4","4","4","2","4","2","2","2","2","4","2","1","1","1","0","1","1","1","0","1","1","1","0","0","0","1","2","2","2","2","4","4","4","4","2","2","686480127940362240","董","472","","","","","","","","","","","","","","","","","","","true","3","3","ability","471","positive","能干","","","","","","","","","","","","","","",""
"null","","null","html-keyboard-response","103","245842","0.0-6.0-0.0-6.0-0.22","3","3","3","3","3","3","3","2","3","3","4","4","2","4","4","4","4","3","4","4","4","2","4","2","2","2","2","4","2","1","1","1","0","1","1","1","0","1","1","1","0","0","0","1","2","2","2","2","4","4","4","4","2","2","686480127940362240","董","472","","","","","","","","","","","","","","","","","","","","","","","","","","","","","","","","","","","","","","","",""
"787","<p style=""color:rgb(150, 250, 100); font-size: 35px;"">本人</p>","e","categorize-html","104","246633","0.0-6.0-0.0-6.0-1.22","3","3","3","3","3","3","3","2","3","3","4","4","2","4","4","4","4","3","4","4","4","2","4","2","2","2","2","4","2","1","1","1","0","1","1","1","0","1","1","1","0","0","0","1","2","2","2","2","4","4","4","4","2","2","686480127940362240","董","472","","","","","","","","","","","","","","","","","","","true","3","3","ability","787","self","本人","","","","","","","","","","","","","","",""
"null","","null","html-keyboard-response","105","246885","0.0-6.0-0.0-6.0-0.23","3","3","3","3","3","3","3","2","3","3","4","4","2","4","4","4","4","3","4","4","4","2","4","2","2","2","2","4","2","1","1","1","0","1","1","1","0","1","1","1","0","0","0","1","2","2","2","2","4","4","4","4","2","2","686480127940362240","董","472","","","","","","","","","","","","","","","","","","","","","","","","","","","","","","","","","","","","","","","",""
"774","<p style=""color:white; font-size: 35px;"">废物</p>","e","categorize-html","106","247665","0.0-6.0-0.0-6.0-1.23","3","3","3","3","3","3","3","2","3","3","4","4","2","4","4","4","4","3","4","4","4","2","4","2","2","2","2","4","2","1","1","1","0","1","1","1","0","1","1","1","0","0","0","1","2","2","2","2","4","4","4","4","2","2","686480127940362240","董","472","","","","","","","","","","","","","","","","","","","true","3","3","ability","774","negative","废物","","","","","","","","","","","","","","",""
"8956","
    <div class=""tag-bottom""><p>
    —— 任务4：对“自我/消极”词和“他人/积极”词分类 ——<p/>
    <span style=""color:#78DCE8""><b>与刚才的任务完全相同，请再次对这四类词语分类</b></span><p/>
    <span style=""color:#FFD866""><b>请根据上方标签的提示，尽可能正确并且快速地做出按键反应</b></span><p/>
    当按键错误时屏幕中会出现<span style=""color:red""> X </span>，需要按另一个键纠正才能继续<br/><p/>
    请把双手食指分别放在键盘的“E”键和“I”键上<p/>
    按<空格键>开始
    </p></div>"," ","html-keyboard-response","107","256622","0.0-6.0-0.0-7.0","3","3","3","3","3","3","3","2","3","3","4","4","2","4","4","4","4","3","4","4","4","2","4","2","2","2","2","4","2","1","1","1","0","1","1","1","0","1","1","1","0","0","0","1","2","2","2","2","4","4","4","4","2","2","686480127940362240","董","472","","","","","","","","","","","","","","","","","","","","","","","","","","","","","","","","","","","","","","","",""
"null","","null","html-keyboard-response","108","256874","0.0-6.0-0.0-8.0-0.0","3","3","3","3","3","3","3","2","3","3","4","4","2","4","4","4","4","3","4","4","4","2","4","2","2","2","2","4","2","1","1","1","0","1","1","1","0","1","1","1","0","0","0","1","2","2","2","2","4","4","4","4","2","2","686480127940362240","董","472","","","","","","","","","","","","","","","","","","","","","","","","","","","","","","","","","","","","","","","",""
"906","<p style=""color:rgb(150, 250, 100); font-size: 35px;"">本人</p>","e","categorize-html","109","257786","0.0-6.0-0.0-8.0-1.0","3","3","3","3","3","3","3","2","3","3","4","4","2","4","4","4","4","3","4","4","4","2","4","2","2","2","2","4","2","1","1","1","0","1","1","1","0","1","1","1","0","0","0","1","2","2","2","2","4","4","4","4","2","2","686480127940362240","董","472","","","","","","","","","","","","","","","","","","","true","4","4","ability","906","self","本人","","","","","","","","","","","","","","",""
"null","","null","html-keyboard-response","110","258040","0.0-6.0-0.0-8.0-0.1","3","3","3","3","3","3","3","2","3","3","4","4","2","4","4","4","4","3","4","4","4","2","4","2","2","2","2","4","2","1","1","1","0","1","1","1","0","1","1","1","0","0","0","1","2","2","2","2","4","4","4","4","2","2","686480127940362240","董","472","","","","","","","","","","","","","","","","","","","","","","","","","","","","","","","","","","","","","","","",""
"777","<p style=""color:white; font-size: 35px;"">高效</p>","i","categorize-html","111","258822","0.0-6.0-0.0-8.0-1.1","3","3","3","3","3","3","3","2","3","3","4","4","2","4","4","4","4","3","4","4","4","2","4","2","2","2","2","4","2","1","1","1","0","1","1","1","0","1","1","1","0","0","0","1","2","2","2","2","4","4","4","4","2","2","686480127940362240","董","472","","","","","","","","","","","","","","","","","","","true","4","4","ability","777","positive","高效","","","","","","","","","","","","","","",""
"null","","null","html-keyboard-response","112","259073","0.0-6.0-0.0-8.0-0.2","3","3","3","3","3","3","3","2","3","3","4","4","2","4","4","4","4","3","4","4","4","2","4","2","2","2","2","4","2","1","1","1","0","1","1","1","0","1","1","1","0","0","0","1","2","2","2","2","4","4","4","4","2","2","686480127940362240","董","472","","","","","","","","","","","","","","","","","","","","","","","","","","","","","","","","","","","","","","","",""
"1038","<p style=""color:rgb(150, 250, 100); font-size: 35px;"">他人</p>","i","categorize-html","113","260115","0.0-6.0-0.0-8.0-1.2","3","3","3","3","3","3","3","2","3","3","4","4","2","4","4","4","4","3","4","4","4","2","4","2","2","2","2","4","2","1","1","1","0","1","1","1","0","1","1","1","0","0","0","1","2","2","2","2","4","4","4","4","2","2","686480127940362240","董","472","","","","","","","","","","","","","","","","","","","true","4","4","ability","1038","other","他人","","","","","","","","","","","","","","",""
"null","","null","html-keyboard-response","114","260369","0.0-6.0-0.0-8.0-0.3","3","3","3","3","3","3","3","2","3","3","4","4","2","4","4","4","4","3","4","4","4","2","4","2","2","2","2","4","2","1","1","1","0","1","1","1","0","1","1","1","0","0","0","1","2","2","2","2","4","4","4","4","2","2","686480127940362240","董","472","","","","","","","","","","","","","","","","","","","","","","","","","","","","","","","","","","","","","","","",""
"738","<p style=""color:white; font-size: 35px;"">蠢笨</p>","e","categorize-html","115","261112","0.0-6.0-0.0-8.0-1.3","3","3","3","3","3","3","3","2","3","3","4","4","2","4","4","4","4","3","4","4","4","2","4","2","2","2","2","4","2","1","1","1","0","1","1","1","0","1","1","1","0","0","0","1","2","2","2","2","4","4","4","4","2","2","686480127940362240","董","472","","","","","","","","","","","","","","","","","","","true","4","4","ability","738","negative","蠢笨","","","","","","","","","","","","","","",""
"null","","null","html-keyboard-response","116","261365","0.0-6.0-0.0-8.0-0.4","3","3","3","3","3","3","3","2","3","3","4","4","2","4","4","4","4","3","4","4","4","2","4","2","2","2","2","4","2","1","1","1","0","1","1","1","0","1","1","1","0","0","0","1","2","2","2","2","4","4","4","4","2","2","686480127940362240","董","472","","","","","","","","","","","","","","","","","","","","","","","","","","","","","","","","","","","","","","","",""
"996","<p style=""color:rgb(150, 250, 100); font-size: 35px;"">别人的</p>","i","categorize-html","117","262366","0.0-6.0-0.0-8.0-1.4","3","3","3","3","3","3","3","2","3","3","4","4","2","4","4","4","4","3","4","4","4","2","4","2","2","2","2","4","2","1","1","1","0","1","1","1","0","1","1","1","0","0","0","1","2","2","2","2","4","4","4","4","2","2","686480127940362240","董","472","","","","","","","","","","","","","","","","","","","true","4","4","ability","996","other","别人的","","","","","","","","","","","","","","",""
"null","","null","html-keyboard-response","118","262618","0.0-6.0-0.0-8.0-0.5","3","3","3","3","3","3","3","2","3","3","4","4","2","4","4","4","4","3","4","4","4","2","4","2","2","2","2","4","2","1","1","1","0","1","1","1","0","1","1","1","0","0","0","1","2","2","2","2","4","4","4","4","2","2","686480127940362240","董","472","","","","","","","","","","","","","","","","","","","","","","","","","","","","","","","","","","","","","","","",""
"940","<p style=""color:white; font-size: 35px;"">高效</p>","i","categorize-html","119","263562","0.0-6.0-0.0-8.0-1.5","3","3","3","3","3","3","3","2","3","3","4","4","2","4","4","4","4","3","4","4","4","2","4","2","2","2","2","4","2","1","1","1","0","1","1","1","0","1","1","1","0","0","0","1","2","2","2","2","4","4","4","4","2","2","686480127940362240","董","472","","","","","","","","","","","","","","","","","","","true","4","4","ability","940","positive","高效","","","","","","","","","","","","","","",""
"null","","null","html-keyboard-response","120","263815","0.0-6.0-0.0-8.0-0.6","3","3","3","3","3","3","3","2","3","3","4","4","2","4","4","4","4","3","4","4","4","2","4","2","2","2","2","4","2","1","1","1","0","1","1","1","0","1","1","1","0","0","0","1","2","2","2","2","4","4","4","4","2","2","686480127940362240","董","472","","","","","","","","","","","","","","","","","","","","","","","","","","","","","","","","","","","","","","","",""
"579","<p style=""color:rgb(150, 250, 100); font-size: 35px;"">我</p>","e","categorize-html","121","264398","0.0-6.0-0.0-8.0-1.6","3","3","3","3","3","3","3","2","3","3","4","4","2","4","4","4","4","3","4","4","4","2","4","2","2","2","2","4","2","1","1","1","0","1","1","1","0","1","1","1","0","0","0","1","2","2","2","2","4","4","4","4","2","2","686480127940362240","董","472","","","","","","","","","","","","","","","","","","","true","4","4","ability","579","self","我","","","","","","","","","","","","","","",""
"null","","null","html-keyboard-response","122","264652","0.0-6.0-0.0-8.0-0.7","3","3","3","3","3","3","3","2","3","3","4","4","2","4","4","4","4","3","4","4","4","2","4","2","2","2","2","4","2","1","1","1","0","1","1","1","0","1","1","1","0","0","0","1","2","2","2","2","4","4","4","4","2","2","686480127940362240","董","472","","","","","","","","","","","","","","","","","","","","","","","","","","","","","","","","","","","","","","","",""
"571","<p style=""color:white; font-size: 35px;"">无能</p>","e","categorize-html","123","265227","0.0-6.0-0.0-8.0-1.7","3","3","3","3","3","3","3","2","3","3","4","4","2","4","4","4","4","3","4","4","4","2","4","2","2","2","2","4","2","1","1","1","0","1","1","1","0","1","1","1","0","0","0","1","2","2","2","2","4","4","4","4","2","2","686480127940362240","董","472","","","","","","","","","","","","","","","","","","","true","4","4","ability","571","negative","无能","","","","","","","","","","","","","","",""
"null","","null","html-keyboard-response","124","265479","0.0-6.0-0.0-8.0-0.8","3","3","3","3","3","3","3","2","3","3","4","4","2","4","4","4","4","3","4","4","4","2","4","2","2","2","2","4","2","1","1","1","0","1","1","1","0","1","1","1","0","0","0","1","2","2","2","2","4","4","4","4","2","2","686480127940362240","董","472","","","","","","","","","","","","","","","","","","","","","","","","","","","","","","","","","","","","","","","",""
"642","<p style=""color:rgb(150, 250, 100); font-size: 35px;"">自己的</p>","e","categorize-html","125","266126","0.0-6.0-0.0-8.0-1.8","3","3","3","3","3","3","3","2","3","3","4","4","2","4","4","4","4","3","4","4","4","2","4","2","2","2","2","4","2","1","1","1","0","1","1","1","0","1","1","1","0","0","0","1","2","2","2","2","4","4","4","4","2","2","686480127940362240","董","472","","","","","","","","","","","","","","","","","","","true","4","4","ability","642","self","自己的","","","","","","","","","","","","","","",""
"null","","null","html-keyboard-response","126","266377","0.0-6.0-0.0-8.0-0.9","3","3","3","3","3","3","3","2","3","3","4","4","2","4","4","4","4","3","4","4","4","2","4","2","2","2","2","4","2","1","1","1","0","1","1","1","0","1","1","1","0","0","0","1","2","2","2","2","4","4","4","4","2","2","686480127940362240","董","472","","","","","","","","","","","","","","","","","","","","","","","","","","","","","","","","","","","","","","","",""
"543","<p style=""color:white; font-size: 35px;"">能干</p>","i","categorize-html","127","266926","0.0-6.0-0.0-8.0-1.9","3","3","3","3","3","3","3","2","3","3","4","4","2","4","4","4","4","3","4","4","4","2","4","2","2","2","2","4","2","1","1","1","0","1","1","1","0","1","1","1","0","0","0","1","2","2","2","2","4","4","4","4","2","2","686480127940362240","董","472","","","","","","","","","","","","","","","","","","","true","4","4","ability","543","positive","能干","","","","","","","","","","","","","","",""
"null","","null","html-keyboard-response","128","267178","0.0-6.0-0.0-8.0-0.10","3","3","3","3","3","3","3","2","3","3","4","4","2","4","4","4","4","3","4","4","4","2","4","2","2","2","2","4","2","1","1","1","0","1","1","1","0","1","1","1","0","0","0","1","2","2","2","2","4","4","4","4","2","2","686480127940362240","董","472","","","","","","","","","","","","","","","","","","","","","","","","","","","","","","","","","","","","","","","",""
"523","<p style=""color:rgb(150, 250, 100); font-size: 35px;"">别人的</p>","e","categorize-html","129","268256","0.0-6.0-0.0-8.0-1.10","3","3","3","3","3","3","3","2","3","3","4","4","2","4","4","4","4","3","4","4","4","2","4","2","2","2","2","4","2","1","1","1","0","1","1","1","0","1","1","1","0","0","0","1","2","2","2","2","4","4","4","4","2","2","686480127940362240","董","472","","","","","","","","","","","","","","","","","","","false","4","4","ability","1325.913043478261","other","别人的","","","","","","","","","","","","","","",""
"null","","null","html-keyboard-response","130","268507","0.0-6.0-0.0-8.0-0.11","3","3","3","3","3","3","3","2","3","3","4","4","2","4","4","4","4","3","4","4","4","2","4","2","2","2","2","4","2","1","1","1","0","1","1","1","0","1","1","1","0","0","0","1","2","2","2","2","4","4","4","4","2","2","686480127940362240","董","472","","","","","","","","","","","","","","","","","","","","","","","","","","","","","","","","","","","","","","","",""
"980","<p style=""color:white; font-size: 35px;"">愚钝</p>","e","categorize-html","131","269493","0.0-6.0-0.0-8.0-1.11","3","3","3","3","3","3","3","2","3","3","4","4","2","4","4","4","4","3","4","4","4","2","4","2","2","2","2","4","2","1","1","1","0","1","1","1","0","1","1","1","0","0","0","1","2","2","2","2","4","4","4","4","2","2","686480127940362240","董","472","","","","","","","","","","","","","","","","","","","true","4","4","ability","980","negative","愚钝","","","","","","","","","","","","","","",""
"null","","null","html-keyboard-response","132","269746","0.0-6.0-0.0-8.0-0.12","3","3","3","3","3","3","3","2","3","3","4","4","2","4","4","4","4","3","4","4","4","2","4","2","2","2","2","4","2","1","1","1","0","1","1","1","0","1","1","1","0","0","0","1","2","2","2","2","4","4","4","4","2","2","686480127940362240","董","472","","","","","","","","","","","","","","","","","","","","","","","","","","","","","","","","","","","","","","","",""
"969","<p style=""color:rgb(150, 250, 100); font-size: 35px;"">本人的</p>","e","categorize-html","133","270720","0.0-6.0-0.0-8.0-1.12","3","3","3","3","3","3","3","2","3","3","4","4","2","4","4","4","4","3","4","4","4","2","4","2","2","2","2","4","2","1","1","1","0","1","1","1","0","1","1","1","0","0","0","1","2","2","2","2","4","4","4","4","2","2","686480127940362240","董","472","","","","","","","","","","","","","","","","","","","true","4","4","ability","969","self","本人的","","","","","","","","","","","","","","",""
"null","","null","html-keyboard-response","134","270972","0.0-6.0-0.0-8.0-0.13","3","3","3","3","3","3","3","2","3","3","4","4","2","4","4","4","4","3","4","4","4","2","4","2","2","2","2","4","2","1","1","1","0","1","1","1","0","1","1","1","0","0","0","1","2","2","2","2","4","4","4","4","2","2","686480127940362240","董","472","","","","","","","","","","","","","","","","","","","","","","","","","","","","","","","","","","","","","","","",""
"692","<p style=""color:white; font-size: 35px;"">全才</p>","i","categorize-html","135","271669","0.0-6.0-0.0-8.0-1.13","3","3","3","3","3","3","3","2","3","3","4","4","2","4","4","4","4","3","4","4","4","2","4","2","2","2","2","4","2","1","1","1","0","1","1","1","0","1","1","1","0","0","0","1","2","2","2","2","4","4","4","4","2","2","686480127940362240","董","472","","","","","","","","","","","","","","","","","","","true","4","4","ability","692","positive","全才","","","","","","","","","","","","","","",""
"null","","null","html-keyboard-response","136","271921","0.0-6.0-0.0-8.0-0.14","3","3","3","3","3","3","3","2","3","3","4","4","2","4","4","4","4","3","4","4","4","2","4","2","2","2","2","4","2","1","1","1","0","1","1","1","0","1","1","1","0","0","0","1","2","2","2","2","4","4","4","4","2","2","686480127940362240","董","472","","","","","","","","","","","","","","","","","","","","","","","","","","","","","","","","","","","","","","","",""
"806","<p style=""color:rgb(150, 250, 100); font-size: 35px;"">他的</p>","i","categorize-html","137","272731","0.0-6.0-0.0-8.0-1.14","3","3","3","3","3","3","3","2","3","3","4","4","2","4","4","4","4","3","4","4","4","2","4","2","2","2","2","4","2","1","1","1","0","1","1","1","0","1","1","1","0","0","0","1","2","2","2","2","4","4","4","4","2","2","686480127940362240","董","472","","","","","","","","","","","","","","","","","","","true","4","4","ability","806","other","他的","","","","","","","","","","","","","","",""
"null","","null","html-keyboard-response","138","272983","0.0-6.0-0.0-8.0-0.15","3","3","3","3","3","3","3","2","3","3","4","4","2","4","4","4","4","3","4","4","4","2","4","2","2","2","2","4","2","1","1","1","0","1","1","1","0","1","1","1","0","0","0","1","2","2","2","2","4","4","4","4","2","2","686480127940362240","董","472","","","","","","","","","","","","","","","","","","","","","","","","","","","","","","","","","","","","","","","",""
"864","<p style=""color:white; font-size: 35px;"">无能</p>","e","categorize-html","139","273851","0.0-6.0-0.0-8.0-1.15","3","3","3","3","3","3","3","2","3","3","4","4","2","4","4","4","4","3","4","4","4","2","4","2","2","2","2","4","2","1","1","1","0","1","1","1","0","1","1","1","0","0","0","1","2","2","2","2","4","4","4","4","2","2","686480127940362240","董","472","","","","","","","","","","","","","","","","","","","true","4","4","ability","864","negative","无能","","","","","","","","","","","","","","",""
"null","","null","html-keyboard-response","140","274103","0.0-6.0-0.0-8.0-0.16","3","3","3","3","3","3","3","2","3","3","4","4","2","4","4","4","4","3","4","4","4","2","4","2","2","2","2","4","2","1","1","1","0","1","1","1","0","1","1","1","0","0","0","1","2","2","2","2","4","4","4","4","2","2","686480127940362240","董","472","","","","","","","","","","","","","","","","","","","","","","","","","","","","","","","","","","","","","","","",""
"803","<p style=""color:rgb(150, 250, 100); font-size: 35px;"">他</p>","i","categorize-html","141","274909","0.0-6.0-0.0-8.0-1.16","3","3","3","3","3","3","3","2","3","3","4","4","2","4","4","4","4","3","4","4","4","2","4","2","2","2","2","4","2","1","1","1","0","1","1","1","0","1","1","1","0","0","0","1","2","2","2","2","4","4","4","4","2","2","686480127940362240","董","472","","","","","","","","","","","","","","","","","","","true","4","4","ability","803","other","他","","","","","","","","","","","","","","",""
"null","","null","html-keyboard-response","142","275162","0.0-6.0-0.0-8.0-0.17","3","3","3","3","3","3","3","2","3","3","4","4","2","4","4","4","4","3","4","4","4","2","4","2","2","2","2","4","2","1","1","1","0","1","1","1","0","1","1","1","0","0","0","1","2","2","2","2","4","4","4","4","2","2","686480127940362240","董","472","","","","","","","","","","","","","","","","","","","","","","","","","","","","","","","","","","","","","","","",""
"786","<p style=""color:white; font-size: 35px;"">废物</p>","e","categorize-html","143","275952","0.0-6.0-0.0-8.0-1.17","3","3","3","3","3","3","3","2","3","3","4","4","2","4","4","4","4","3","4","4","4","2","4","2","2","2","2","4","2","1","1","1","0","1","1","1","0","1","1","1","0","0","0","1","2","2","2","2","4","4","4","4","2","2","686480127940362240","董","472","","","","","","","","","","","","","","","","","","","true","4","4","ability","786","negative","废物","","","","","","","","","","","","","","",""
"null","","null","html-keyboard-response","144","276204","0.0-6.0-0.0-8.0-0.18","3","3","3","3","3","3","3","2","3","3","4","4","2","4","4","4","4","3","4","4","4","2","4","2","2","2","2","4","2","1","1","1","0","1","1","1","0","1","1","1","0","0","0","1","2","2","2","2","4","4","4","4","2","2","686480127940362240","董","472","","","","","","","","","","","","","","","","","","","","","","","","","","","","","","","","","","","","","","","",""
"648","<p style=""color:rgb(150, 250, 100); font-size: 35px;"">本人的</p>","e","categorize-html","145","276858","0.0-6.0-0.0-8.0-1.18","3","3","3","3","3","3","3","2","3","3","4","4","2","4","4","4","4","3","4","4","4","2","4","2","2","2","2","4","2","1","1","1","0","1","1","1","0","1","1","1","0","0","0","1","2","2","2","2","4","4","4","4","2","2","686480127940362240","董","472","","","","","","","","","","","","","","","","","","","true","4","4","ability","648","self","本人的","","","","","","","","","","","","","","",""
"null","","null","html-keyboard-response","146","277110","0.0-6.0-0.0-8.0-0.19","3","3","3","3","3","3","3","2","3","3","4","4","2","4","4","4","4","3","4","4","4","2","4","2","2","2","2","4","2","1","1","1","0","1","1","1","0","1","1","1","0","0","0","1","2","2","2","2","4","4","4","4","2","2","686480127940362240","董","472","","","","","","","","","","","","","","","","","","","","","","","","","","","","","","","","","","","","","","","",""
"791","<p style=""color:white; font-size: 35px;"">全能</p>","i","categorize-html","147","277906","0.0-6.0-0.0-8.0-1.19","3","3","3","3","3","3","3","2","3","3","4","4","2","4","4","4","4","3","4","4","4","2","4","2","2","2","2","4","2","1","1","1","0","1","1","1","0","1","1","1","0","0","0","1","2","2","2","2","4","4","4","4","2","2","686480127940362240","董","472","","","","","","","","","","","","","","","","","","","true","4","4","ability","791","positive","全能","","","","","","","","","","","","","","",""
"null","","null","html-keyboard-response","148","278158","0.0-6.0-0.0-8.0-0.20","3","3","3","3","3","3","3","2","3","3","4","4","2","4","4","4","4","3","4","4","4","2","4","2","2","2","2","4","2","1","1","1","0","1","1","1","0","1","1","1","0","0","0","1","2","2","2","2","4","4","4","4","2","2","686480127940362240","董","472","","","","","","","","","","","","","","","","","","","","","","","","","","","","","","","","","","","","","","","",""
"674","<p style=""color:rgb(150, 250, 100); font-size: 35px;"">自己</p>","e","categorize-html","149","278836","0.0-6.0-0.0-8.0-1.20","3","3","3","3","3","3","3","2","3","3","4","4","2","4","4","4","4","3","4","4","4","2","4","2","2","2","2","4","2","1","1","1","0","1","1","1","0","1","1","1","0","0","0","1","2","2","2","2","4","4","4","4","2","2","686480127940362240","董","472","","","","","","","","","","","","","","","","","","","true","4","4","ability","674","self","自己","","","","","","","","","","","","","","",""
"null","","null","html-keyboard-response","150","279089","0.0-6.0-0.0-8.0-0.21","3","3","3","3","3","3","3","2","3","3","4","4","2","4","4","4","4","3","4","4","4","2","4","2","2","2","2","4","2","1","1","1","0","1","1","1","0","1","1","1","0","0","0","1","2","2","2","2","4","4","4","4","2","2","686480127940362240","董","472","","","","","","","","","","","","","","","","","","","","","","","","","","","","","","","","","","","","","","","",""
"603","<p style=""color:white; font-size: 35px;"">全能</p>","i","categorize-html","151","279697","0.0-6.0-0.0-8.0-1.21","3","3","3","3","3","3","3","2","3","3","4","4","2","4","4","4","4","3","4","4","4","2","4","2","2","2","2","4","2","1","1","1","0","1","1","1","0","1","1","1","0","0","0","1","2","2","2","2","4","4","4","4","2","2","686480127940362240","董","472","","","","","","","","","","","","","","","","","","","true","4","4","ability","603","positive","全能","","","","","","","","","","","","","","",""
"null","","null","html-keyboard-response","152","279949","0.0-6.0-0.0-8.0-0.22","3","3","3","3","3","3","3","2","3","3","4","4","2","4","4","4","4","3","4","4","4","2","4","2","2","2","2","4","2","1","1","1","0","1","1","1","0","1","1","1","0","0","0","1","2","2","2","2","4","4","4","4","2","2","686480127940362240","董","472","","","","","","","","","","","","","","","","","","","","","","","","","","","","","","","","","","","","","","","",""
"553","<p style=""color:rgb(150, 250, 100); font-size: 35px;"">他人的</p>","e","categorize-html","153","280889","0.0-6.0-0.0-8.0-1.22","3","3","3","3","3","3","3","2","3","3","4","4","2","4","4","4","4","3","4","4","4","2","4","2","2","2","2","4","2","1","1","1","0","1","1","1","0","1","1","1","0","0","0","1","2","2","2","2","4","4","4","4","2","2","686480127940362240","董","472","","","","","","","","","","","","","","","","","","","false","4","4","ability","1325.913043478261","other","他人的","","","","","","","","","","","","","","",""
"null","","null","html-keyboard-response","154","281140","0.0-6.0-0.0-8.0-0.23","3","3","3","3","3","3","3","2","3","3","4","4","2","4","4","4","4","3","4","4","4","2","4","2","2","2","2","4","2","1","1","1","0","1","1","1","0","1","1","1","0","0","0","1","2","2","2","2","4","4","4","4","2","2","686480127940362240","董","472","","","","","","","","","","","","","","","","","","","","","","","","","","","","","","","","","","","","","","","",""
"1131","<p style=""color:white; font-size: 35px;"">愚钝</p>","e","categorize-html","155","282276","0.0-6.0-0.0-8.0-1.23","3","3","3","3","3","3","3","2","3","3","4","4","2","4","4","4","4","3","4","4","4","2","4","2","2","2","2","4","2","1","1","1","0","1","1","1","0","1","1","1","0","0","0","1","2","2","2","2","4","4","4","4","2","2","686480127940362240","董","472","","","","","","","","","","","","","","","","","","","true","4","4","ability","1131","negative","愚钝","","","","","","","","","","","","","","",""
"null","","null","html-keyboard-response","156","282529","0.0-6.0-0.0-8.0-0.24","3","3","3","3","3","3","3","2","3","3","4","4","2","4","4","4","4","3","4","4","4","2","4","2","2","2","2","4","2","1","1","1","0","1","1","1","0","1","1","1","0","0","0","1","2","2","2","2","4","4","4","4","2","2","686480127940362240","董","472","","","","","","","","","","","","","","","","","","","","","","","","","","","","","","","","","","","","","","","",""
"1245","<p style=""color:rgb(150, 250, 100); font-size: 35px;"">他</p>","i","categorize-html","157","283779","0.0-6.0-0.0-8.0-1.24","3","3","3","3","3","3","3","2","3","3","4","4","2","4","4","4","4","3","4","4","4","2","4","2","2","2","2","4","2","1","1","1","0","1","1","1","0","1","1","1","0","0","0","1","2","2","2","2","4","4","4","4","2","2","686480127940362240","董","472","","","","","","","","","","","","","","","","","","","true","4","4","ability","1245","other","他","","","","","","","","","","","","","","",""
"null","","null","html-keyboard-response","158","284030","0.0-6.0-0.0-8.0-0.25","3","3","3","3","3","3","3","2","3","3","4","4","2","4","4","4","4","3","4","4","4","2","4","2","2","2","2","4","2","1","1","1","0","1","1","1","0","1","1","1","0","0","0","1","2","2","2","2","4","4","4","4","2","2","686480127940362240","董","472","","","","","","","","","","","","","","","","","","","","","","","","","","","","","","","","","","","","","","","",""
"737","<p style=""color:white; font-size: 35px;"">低能</p>","e","categorize-html","159","284773","0.0-6.0-0.0-8.0-1.25","3","3","3","3","3","3","3","2","3","3","4","4","2","4","4","4","4","3","4","4","4","2","4","2","2","2","2","4","2","1","1","1","0","1","1","1","0","1","1","1","0","0","0","1","2","2","2","2","4","4","4","4","2","2","686480127940362240","董","472","","","","","","","","","","","","","","","","","","","true","4","4","ability","737","negative","低能","","","","","","","","","","","","","","",""
"null","","null","html-keyboard-response","160","285025","0.0-6.0-0.0-8.0-0.26","3","3","3","3","3","3","3","2","3","3","4","4","2","4","4","4","4","3","4","4","4","2","4","2","2","2","2","4","2","1","1","1","0","1","1","1","0","1","1","1","0","0","0","1","2","2","2","2","4","4","4","4","2","2","686480127940362240","董","472","","","","","","","","","","","","","","","","","","","","","","","","","","","","","","","","","","","","","","","",""
"1046","<p style=""color:rgb(150, 250, 100); font-size: 35px;"">我的</p>","e","categorize-html","161","286076","0.0-6.0-0.0-8.0-1.26","3","3","3","3","3","3","3","2","3","3","4","4","2","4","4","4","4","3","4","4","4","2","4","2","2","2","2","4","2","1","1","1","0","1","1","1","0","1","1","1","0","0","0","1","2","2","2","2","4","4","4","4","2","2","686480127940362240","董","472","","","","","","","","","","","","","","","","","","","true","4","4","ability","1046","self","我的","","","","","","","","","","","","","","",""
"null","","null","html-keyboard-response","162","286327","0.0-6.0-0.0-8.0-0.27","3","3","3","3","3","3","3","2","3","3","4","4","2","4","4","4","4","3","4","4","4","2","4","2","2","2","2","4","2","1","1","1","0","1","1","1","0","1","1","1","0","0","0","1","2","2","2","2","4","4","4","4","2","2","686480127940362240","董","472","","","","","","","","","","","","","","","","","","","","","","","","","","","","","","","","","","","","","","","",""
"738","<p style=""color:white; font-size: 35px;"">精干</p>","i","categorize-html","163","287071","0.0-6.0-0.0-8.0-1.27","3","3","3","3","3","3","3","2","3","3","4","4","2","4","4","4","4","3","4","4","4","2","4","2","2","2","2","4","2","1","1","1","0","1","1","1","0","1","1","1","0","0","0","1","2","2","2","2","4","4","4","4","2","2","686480127940362240","董","472","","","","","","","","","","","","","","","","","","","true","4","4","ability","738","positive","精干","","","","","","","","","","","","","","",""
"null","","null","html-keyboard-response","164","287323","0.0-6.0-0.0-8.0-0.28","3","3","3","3","3","3","3","2","3","3","4","4","2","4","4","4","4","3","4","4","4","2","4","2","2","2","2","4","2","1","1","1","0","1","1","1","0","1","1","1","0","0","0","1","2","2","2","2","4","4","4","4","2","2","686480127940362240","董","472","","","","","","","","","","","","","","","","","","","","","","","","","","","","","","","","","","","","","","","",""
"516","<p style=""color:rgb(150, 250, 100); font-size: 35px;"">我</p>","e","categorize-html","165","287844","0.0-6.0-0.0-8.0-1.28","3","3","3","3","3","3","3","2","3","3","4","4","2","4","4","4","4","3","4","4","4","2","4","2","2","2","2","4","2","1","1","1","0","1","1","1","0","1","1","1","0","0","0","1","2","2","2","2","4","4","4","4","2","2","686480127940362240","董","472","","","","","","","","","","","","","","","","","","","true","4","4","ability","516","self","我","","","","","","","","","","","","","","",""
"null","","null","html-keyboard-response","166","288095","0.0-6.0-0.0-8.0-0.29","3","3","3","3","3","3","3","2","3","3","4","4","2","4","4","4","4","3","4","4","4","2","4","2","2","2","2","4","2","1","1","1","0","1","1","1","0","1","1","1","0","0","0","1","2","2","2","2","4","4","4","4","2","2","686480127940362240","董","472","","","","","","","","","","","","","","","","","","","","","","","","","","","","","","","","","","","","","","","",""
"507","<p style=""color:white; font-size: 35px;"">拙笨</p>","e","categorize-html","167","288607","0.0-6.0-0.0-8.0-1.29","3","3","3","3","3","3","3","2","3","3","4","4","2","4","4","4","4","3","4","4","4","2","4","2","2","2","2","4","2","1","1","1","0","1","1","1","0","1","1","1","0","0","0","1","2","2","2","2","4","4","4","4","2","2","686480127940362240","董","472","","","","","","","","","","","","","","","","","","","true","4","4","ability","507","negative","拙笨","","","","","","","","","","","","","","",""
"null","","null","html-keyboard-response","168","288858","0.0-6.0-0.0-8.0-0.30","3","3","3","3","3","3","3","2","3","3","4","4","2","4","4","4","4","3","4","4","4","2","4","2","2","2","2","4","2","1","1","1","0","1","1","1","0","1","1","1","0","0","0","1","2","2","2","2","4","4","4","4","2","2","686480127940362240","董","472","","","","","","","","","","","","","","","","","","","","","","","","","","","","","","","","","","","","","","","",""
"753","<p style=""color:rgb(150, 250, 100); font-size: 35px;"">他人的</p>","i","categorize-html","169","289614","0.0-6.0-0.0-8.0-1.30","3","3","3","3","3","3","3","2","3","3","4","4","2","4","4","4","4","3","4","4","4","2","4","2","2","2","2","4","2","1","1","1","0","1","1","1","0","1","1","1","0","0","0","1","2","2","2","2","4","4","4","4","2","2","686480127940362240","董","472","","","","","","","","","","","","","","","","","","","true","4","4","ability","753","other","他人的","","","","","","","","","","","","","","",""
"null","","null","html-keyboard-response","170","289865","0.0-6.0-0.0-8.0-0.31","3","3","3","3","3","3","3","2","3","3","4","4","2","4","4","4","4","3","4","4","4","2","4","2","2","2","2","4","2","1","1","1","0","1","1","1","0","1","1","1","0","0","0","1","2","2","2","2","4","4","4","4","2","2","686480127940362240","董","472","","","","","","","","","","","","","","","","","","","","","","","","","","","","","","","","","","","","","","","",""
"445","<p style=""color:white; font-size: 35px;"">精干</p>","i","categorize-html","171","290316","0.0-6.0-0.0-8.0-1.31","3","3","3","3","3","3","3","2","3","3","4","4","2","4","4","4","4","3","4","4","4","2","4","2","2","2","2","4","2","1","1","1","0","1","1","1","0","1","1","1","0","0","0","1","2","2","2","2","4","4","4","4","2","2","686480127940362240","董","472","","","","","","","","","","","","","","","","","","","true","4","4","ability","445","positive","精干","","","","","","","","","","","","","","",""
"null","","null","html-keyboard-response","172","290567","0.0-6.0-0.0-8.0-0.32","3","3","3","3","3","3","3","2","3","3","4","4","2","4","4","4","4","3","4","4","4","2","4","2","2","2","2","4","2","1","1","1","0","1","1","1","0","1","1","1","0","0","0","1","2","2","2","2","4","4","4","4","2","2","686480127940362240","董","472","","","","","","","","","","","","","","","","","","","","","","","","","","","","","","","","","","","","","","","",""
"610","<p style=""color:rgb(150, 250, 100); font-size: 35px;"">他的</p>","i","categorize-html","173","291185","0.0-6.0-0.0-8.0-1.32","3","3","3","3","3","3","3","2","3","3","4","4","2","4","4","4","4","3","4","4","4","2","4","2","2","2","2","4","2","1","1","1","0","1","1","1","0","1","1","1","0","0","0","1","2","2","2","2","4","4","4","4","2","2","686480127940362240","董","472","","","","","","","","","","","","","","","","","","","true","4","4","ability","610","other","他的","","","","","","","","","","","","","","",""
"null","","null","html-keyboard-response","174","291437","0.0-6.0-0.0-8.0-0.33","3","3","3","3","3","3","3","2","3","3","4","4","2","4","4","4","4","3","4","4","4","2","4","2","2","2","2","4","2","1","1","1","0","1","1","1","0","1","1","1","0","0","0","1","2","2","2","2","4","4","4","4","2","2","686480127940362240","董","472","","","","","","","","","","","","","","","","","","","","","","","","","","","","","","","","","","","","","","","",""
"436","<p style=""color:white; font-size: 35px;"">全才</p>","i","categorize-html","175","291878","0.0-6.0-0.0-8.0-1.33","3","3","3","3","3","3","3","2","3","3","4","4","2","4","4","4","4","3","4","4","4","2","4","2","2","2","2","4","2","1","1","1","0","1","1","1","0","1","1","1","0","0","0","1","2","2","2","2","4","4","4","4","2","2","686480127940362240","董","472","","","","","","","","","","","","","","","","","","","true","4","4","ability","436","positive","全才","","","","","","","","","","","","","","",""
"null","","null","html-keyboard-response","176","292130","0.0-6.0-0.0-8.0-0.34","3","3","3","3","3","3","3","2","3","3","4","4","2","4","4","4","4","3","4","4","4","2","4","2","2","2","2","4","2","1","1","1","0","1","1","1","0","1","1","1","0","0","0","1","2","2","2","2","4","4","4","4","2","2","686480127940362240","董","472","","","","","","","","","","","","","","","","","","","","","","","","","","","","","","","","","","","","","","","",""
"613","<p style=""color:rgb(150, 250, 100); font-size: 35px;"">我的</p>","e","categorize-html","177","292748","0.0-6.0-0.0-8.0-1.34","3","3","3","3","3","3","3","2","3","3","4","4","2","4","4","4","4","3","4","4","4","2","4","2","2","2","2","4","2","1","1","1","0","1","1","1","0","1","1","1","0","0","0","1","2","2","2","2","4","4","4","4","2","2","686480127940362240","董","472","","","","","","","","","","","","","","","","","","","true","4","4","ability","613","self","我的","","","","","","","","","","","","","","",""
"null","","null","html-keyboard-response","178","293000","0.0-6.0-0.0-8.0-0.35","3","3","3","3","3","3","3","2","3","3","4","4","2","4","4","4","4","3","4","4","4","2","4","2","2","2","2","4","2","1","1","1","0","1","1","1","0","1","1","1","0","0","0","1","2","2","2","2","4","4","4","4","2","2","686480127940362240","董","472","","","","","","","","","","","","","","","","","","","","","","","","","","","","","","","","","","","","","","","",""
"439","<p style=""color:white; font-size: 35px;"">废物</p>","e","categorize-html","179","293443","0.0-6.0-0.0-8.0-1.35","3","3","3","3","3","3","3","2","3","3","4","4","2","4","4","4","4","3","4","4","4","2","4","2","2","2","2","4","2","1","1","1","0","1","1","1","0","1","1","1","0","0","0","1","2","2","2","2","4","4","4","4","2","2","686480127940362240","董","472","","","","","","","","","","","","","","","","","","","true","4","4","ability","439","negative","废物","","","","","","","","","","","","","","",""
"null","","null","html-keyboard-response","180","293695","0.0-6.0-0.0-8.0-0.36","3","3","3","3","3","3","3","2","3","3","4","4","2","4","4","4","4","3","4","4","4","2","4","2","2","2","2","4","2","1","1","1","0","1","1","1","0","1","1","1","0","0","0","1","2","2","2","2","4","4","4","4","2","2","686480127940362240","董","472","","","","","","","","","","","","","","","","","","","","","","","","","","","","","","","","","","","","","","","",""
"656","<p style=""color:rgb(150, 250, 100); font-size: 35px;"">本人</p>","e","categorize-html","181","294355","0.0-6.0-0.0-8.0-1.36","3","3","3","3","3","3","3","2","3","3","4","4","2","4","4","4","4","3","4","4","4","2","4","2","2","2","2","4","2","1","1","1","0","1","1","1","0","1","1","1","0","0","0","1","2","2","2","2","4","4","4","4","2","2","686480127940362240","董","472","","","","","","","","","","","","","","","","","","","true","4","4","ability","656","self","本人","","","","","","","","","","","","","","",""
"null","","null","html-keyboard-response","182","294608","0.0-6.0-0.0-8.0-0.37","3","3","3","3","3","3","3","2","3","3","4","4","2","4","4","4","4","3","4","4","4","2","4","2","2","2","2","4","2","1","1","1","0","1","1","1","0","1","1","1","0","0","0","1","2","2","2","2","4","4","4","4","2","2","686480127940362240","董","472","","","","","","","","","","","","","","","","","","","","","","","","","","","","","","","","","","","","","","","",""
"390","<p style=""color:white; font-size: 35px;"">蠢笨</p>","e","categorize-html","183","295002","0.0-6.0-0.0-8.0-1.37","3","3","3","3","3","3","3","2","3","3","4","4","2","4","4","4","4","3","4","4","4","2","4","2","2","2","2","4","2","1","1","1","0","1","1","1","0","1","1","1","0","0","0","1","2","2","2","2","4","4","4","4","2","2","686480127940362240","董","472","","","","","","","","","","","","","","","","","","","true","4","4","ability","390","negative","蠢笨","","","","","","","","","","","","","","",""
"null","","null","html-keyboard-response","184","295255","0.0-6.0-0.0-8.0-0.38","3","3","3","3","3","3","3","2","3","3","4","4","2","4","4","4","4","3","4","4","4","2","4","2","2","2","2","4","2","1","1","1","0","1","1","1","0","1","1","1","0","0","0","1","2","2","2","2","4","4","4","4","2","2","686480127940362240","董","472","","","","","","","","","","","","","","","","","","","","","","","","","","","","","","","","","","","","","","","",""
"761","<p style=""color:rgb(150, 250, 100); font-size: 35px;"">别人</p>","i","categorize-html","185","296021","0.0-6.0-0.0-8.0-1.38","3","3","3","3","3","3","3","2","3","3","4","4","2","4","4","4","4","3","4","4","4","2","4","2","2","2","2","4","2","1","1","1","0","1","1","1","0","1","1","1","0","0","0","1","2","2","2","2","4","4","4","4","2","2","686480127940362240","董","472","","","","","","","","","","","","","","","","","","","true","4","4","ability","761","other","别人","","","","","","","","","","","","","","",""
"null","","null","html-keyboard-response","186","296272","0.0-6.0-0.0-8.0-0.39","3","3","3","3","3","3","3","2","3","3","4","4","2","4","4","4","4","3","4","4","4","2","4","2","2","2","2","4","2","1","1","1","0","1","1","1","0","1","1","1","0","0","0","1","2","2","2","2","4","4","4","4","2","2","686480127940362240","董","472","","","","","","","","","","","","","","","","","","","","","","","","","","","","","","","","","","","","","","","",""
"496","<p style=""color:white; font-size: 35px;"">能干</p>","i","categorize-html","187","296771","0.0-6.0-0.0-8.0-1.39","3","3","3","3","3","3","3","2","3","3","4","4","2","4","4","4","4","3","4","4","4","2","4","2","2","2","2","4","2","1","1","1","0","1","1","1","0","1","1","1","0","0","0","1","2","2","2","2","4","4","4","4","2","2","686480127940362240","董","472","","","","","","","","","","","","","","","","","","","true","4","4","ability","496","positive","能干","","","","","","","","","","","","","","",""
"null","","null","html-keyboard-response","188","297023","0.0-6.0-0.0-8.0-0.40","3","3","3","3","3","3","3","2","3","3","4","4","2","4","4","4","4","3","4","4","4","2","4","2","2","2","2","4","2","1","1","1","0","1","1","1","0","1","1","1","0","0","0","1","2","2","2","2","4","4","4","4","2","2","686480127940362240","董","472","","","","","","","","","","","","","","","","","","","","","","","","","","","","","","","","","","","","","","","",""
"650","<p style=""color:rgb(150, 250, 100); font-size: 35px;"">他人</p>","i","categorize-html","189","297678","0.0-6.0-0.0-8.0-1.40","3","3","3","3","3","3","3","2","3","3","4","4","2","4","4","4","4","3","4","4","4","2","4","2","2","2","2","4","2","1","1","1","0","1","1","1","0","1","1","1","0","0","0","1","2","2","2","2","4","4","4","4","2","2","686480127940362240","董","472","","","","","","","","","","","","","","","","","","","true","4","4","ability","650","other","他人","","","","","","","","","","","","","","",""
"null","","null","html-keyboard-response","190","297930","0.0-6.0-0.0-8.0-0.41","3","3","3","3","3","3","3","2","3","3","4","4","2","4","4","4","4","3","4","4","4","2","4","2","2","2","2","4","2","1","1","1","0","1","1","1","0","1","1","1","0","0","0","1","2","2","2","2","4","4","4","4","2","2","686480127940362240","董","472","","","","","","","","","","","","","","","","","","","","","","","","","","","","","","","","","","","","","","","",""
"760","<p style=""color:white; font-size: 35px;"">低能</p>","e","categorize-html","191","298694","0.0-6.0-0.0-8.0-1.41","3","3","3","3","3","3","3","2","3","3","4","4","2","4","4","4","4","3","4","4","4","2","4","2","2","2","2","4","2","1","1","1","0","1","1","1","0","1","1","1","0","0","0","1","2","2","2","2","4","4","4","4","2","2","686480127940362240","董","472","","","","","","","","","","","","","","","","","","","true","4","4","ability","760","negative","低能","","","","","","","","","","","","","","",""
"null","","null","html-keyboard-response","192","298947","0.0-6.0-0.0-8.0-0.42","3","3","3","3","3","3","3","2","3","3","4","4","2","4","4","4","4","3","4","4","4","2","4","2","2","2","2","4","2","1","1","1","0","1","1","1","0","1","1","1","0","0","0","1","2","2","2","2","4","4","4","4","2","2","686480127940362240","董","472","","","","","","","","","","","","","","","","","","","","","","","","","","","","","","","","","","","","","","","",""
"547","<p style=""color:rgb(150, 250, 100); font-size: 35px;"">自己</p>","e","categorize-html","193","299499","0.0-6.0-0.0-8.0-1.42","3","3","3","3","3","3","3","2","3","3","4","4","2","4","4","4","4","3","4","4","4","2","4","2","2","2","2","4","2","1","1","1","0","1","1","1","0","1","1","1","0","0","0","1","2","2","2","2","4","4","4","4","2","2","686480127940362240","董","472","","","","","","","","","","","","","","","","","","","true","4","4","ability","547","self","自己","","","","","","","","","","","","","","",""
"null","","null","html-keyboard-response","194","299763","0.0-6.0-0.0-8.0-0.43","3","3","3","3","3","3","3","2","3","3","4","4","2","4","4","4","4","3","4","4","4","2","4","2","2","2","2","4","2","1","1","1","0","1","1","1","0","1","1","1","0","0","0","1","2","2","2","2","4","4","4","4","2","2","686480127940362240","董","472","","","","","","","","","","","","","","","","","","","","","","","","","","","","","","","","","","","","","","","",""
"576","<p style=""color:white; font-size: 35px;"">天才</p>","i","categorize-html","195","300344","0.0-6.0-0.0-8.0-1.43","3","3","3","3","3","3","3","2","3","3","4","4","2","4","4","4","4","3","4","4","4","2","4","2","2","2","2","4","2","1","1","1","0","1","1","1","0","1","1","1","0","0","0","1","2","2","2","2","4","4","4","4","2","2","686480127940362240","董","472","","","","","","","","","","","","","","","","","","","true","4","4","ability","576","positive","天才","","","","","","","","","","","","","","",""
"null","","null","html-keyboard-response","196","300596","0.0-6.0-0.0-8.0-0.44","3","3","3","3","3","3","3","2","3","3","4","4","2","4","4","4","4","3","4","4","4","2","4","2","2","2","2","4","2","1","1","1","0","1","1","1","0","1","1","1","0","0","0","1","2","2","2","2","4","4","4","4","2","2","686480127940362240","董","472","","","","","","","","","","","","","","","","","","","","","","","","","","","","","","","","","","","","","","","",""
"1410","<p style=""color:rgb(150, 250, 100); font-size: 35px;"">别人</p>","i","categorize-html","197","302011","0.0-6.0-0.0-8.0-1.44","3","3","3","3","3","3","3","2","3","3","4","4","2","4","4","4","4","3","4","4","4","2","4","2","2","2","2","4","2","1","1","1","0","1","1","1","0","1","1","1","0","0","0","1","2","2","2","2","4","4","4","4","2","2","686480127940362240","董","472","","","","","","","","","","","","","","","","","","","true","4","4","ability","1410","other","别人","","","","","","","","","","","","","","",""
