"rt","stimulus","response","trial_type","trial_index","time_elapsed","internal_node_id","ses_1","ses_2","ses_3","ses_4","ses_5","ses_6","ses_7","ses_8","ses_9","ses_10","coreself_1","coreself_2","coreself_3","coreself_4","coreself_5","coreself_6","coreself_7","coreself_8","coreself_9","coreself_10","SGPS_1","SGPS_2","SGPS_3","SGPS_4","SGPS_5","SGPS_6","SGPS_7","SGPS_8","SGPS_9","NPI1","NPI2","NPI3","NPI4","NPI5","NPI6","NPI7","NPI8","NPI9","NPI10","NPI11","NPI12","NPI13","NPI14","NPI15","hsns_1","hsns_2","hsns_3","hsns_4","hsns_5","hsns_6","hsns_7","hsns_8","hsns_9","hsns_10","subj_idx","friend_name","ParticipantID","value","success","user_agent","responses","item_order","radio_event_ids","radio_event_times","key_event_times","mouse_event_times","straightlining","zigzagging","honeypot","timeout","failed_images","failed_audio","failed_video","view_history","response_type","key_press","avg_frame_time","center_x","center_y","correct_response","correct","identity","Image","word","condition","task_id","screen_id","time_stamp","version_attrib2","version_target2","IAT","RT","varname","summary","version_attrib","version_target","question_order"
"1499","
   <p><div style = ""color: white;font-size:25px;"">您好，欢迎参加本次实验。</div> </p>
   <p><div style = ""color: white;font-size:25px;"">为充分保障您的权利，请确保您已经知晓并同意《参与实验同意书》以及《数据公开知情同意书》。</div></p>
   <p><div style = ""color: white;font-size:25px;"">如果您未见过上述内容，请咨询实验员。</div></p>
   <p><div style = ""color: white;font-size:25px;"">如果您选择继续实验，则表示您已经清楚两份知情同意书的内容并同意。</div></p>
   <p> <div style = ""color: green;font-size:25px;""><按空格键至下页></div> </p>
   "," ","html-keyboard-response","0","1500","0.0-0.0","4","4","4","4","4","4","4","3","4","4","5","5","5","4","5","5","5","5","5","5","1","1","1","1","1","1","1","1","1","0","1","0","0","0","0","0","0","0","0","0","0","1","0","1","5","1","1","1","1","1","2","1","4","1","590521239097835520","李","145","","","","","","","","","","","","","","","","","","","","","","","","","","","","","","","","","","","","","","","",""
"","","","call-function","1","1501","0.0-1.0-0.0","4","4","4","4","4","4","4","3","4","4","5","5","5","4","5","5","5","5","5","5","1","1","1","1","1","1","1","1","1","0","1","0","0","0","0","0","0","0","0","0","0","1","0","1","5","1","1","1","1","1","2","1","4","1","590521239097835520","李","145","","","","","","","","","","","","","","","","","","","","","","","","","","","","","","","","","","","","","","","",""
"83324","","{""friend_name"":""李"",""ParticipantID"":""145""}","survey-html-form","2","84827","0.0-1.0-1.0","4","4","4","4","4","4","4","3","4","4","5","5","5","4","5","5","5","5","5","5","1","1","1","1","1","1","1","1","1","0","1","0","0","0","0","0","0","0","0","0","0","1","0","1","5","1","1","1","1","1","2","1","4","1","590521239097835520","李","145","","","","","","","","","","","","","","","","","","","","","","","","","","","","","","","","","","","","","","","",""
"","","","fullscreen","3","86544","0.0-2.0","4","4","4","4","4","4","4","3","4","4","5","5","5","4","5","5","5","5","5","5","1","1","1","1","1","1","1","1","1","0","1","0","0","0","0","0","0","0","0","0","0","1","0","1","5","1","1","1","1","1","2","1","4","1","590521239097835520","李","145","","true","{}","","","","","","","","","","","","","","","","","","","","","","","","","","","","","","","","","","","","",""
"59550.10000000149","","{""Q01"":""4"",""Q02"":""4"",""Q03"":""4"",""Q04"":""4"",""Q05"":""4"",""Q06"":""4"",""Q07"":""4"",""Q08"":""3"",""Q09"":""4"",""Q10"":""4""}","survey-template","4","146096","0.0-3.0","4","4","4","4","4","4","4","3","4","4","5","5","5","4","5","5","5","5","5","5","1","1","1","1","1","1","1","1","1","0","1","0","0","0","0","0","0","0","0","0","0","1","0","1","5","1","1","1","1","1","2","1","4","1","590521239097835520","李","145","","","","{""Q01"":""4"",""Q02"":""4"",""Q03"":""4"",""Q04"":""4"",""Q05"":""4"",""Q06"":""4"",""Q07"":""4"",""Q08"":""3"",""Q09"":""4"",""Q10"":""4""}","[0,1,2,3,4,5,6,7,8,9]","[""Q01"",""Q02"",""Q03"",""Q04"",""Q05"",""Q06"",""Q07"",""Q08"",""Q09"",""Q10"",""Q08""]","[2745.199999999255,7289.10000000149,12217.900000002235,17032.900000002235,19997.199999999255,22217.10000000149,25852.900000002235,30198.300000000745,31489.10000000149,32229.10000000149,47493.900000002235]","[]","[2745.199999999255,7289.10000000149,12217.900000002235,17032.900000002235,19997.199999999255,22217.10000000149,25261.199999999255,25852.900000002235,30198.300000000745,31489.10000000149,32229.10000000149,47493.900000002235,59549.199999999255]","0.5","0.5555555555555556","0","","","","","","","","","","","","","","","","","","","","","","","","","","","",""
"66172.59999999776","","{""Q01"":""5"",""Q02"":""5"",""Q03"":""5"",""Q04"":""4"",""Q05"":""5"",""Q06"":""5"",""Q07"":""5"",""Q08"":""5"",""Q09"":""5"",""Q10"":""5""}","survey-template","5","212271","0.0-4.0","4","4","4","4","4","4","4","3","4","4","5","5","5","4","5","5","5","5","5","5","1","1","1","1","1","1","1","1","1","0","1","0","0","0","0","0","0","0","0","0","0","1","0","1","5","1","1","1","1","1","2","1","4","1","590521239097835520","李","145","","","","{""Q01"":""5"",""Q02"":""5"",""Q03"":""5"",""Q04"":""4"",""Q05"":""5"",""Q06"":""5"",""Q07"":""5"",""Q08"":""5"",""Q09"":""5"",""Q10"":""5""}","[0,1,2,3,4,5,6,7,8,9]","[""Q01"",""Q02"",""Q03"",""Q04"",""Q05"",""Q06"",""Q07"",""Q08"",""Q09"",""Q10""]","[3603.699999999255,5147.79999999702,8267.699999999255,11051.79999999702,14803.79999999702,16699.79999999702,18555.79999999702,26043.699999999255,28148,33811.599999997765]","[]","[3603.699999999255,5147.79999999702,8267.699999999255,11051.79999999702,14803.79999999702,16699.79999999702,18555.79999999702,25635.79999999702,26043.699999999255,28148,33427.5,33811.599999997765,66171.79999999702]","0.6","0.5555555555555556","0","","","","","","","","","","","","","","","","","","","","","","","","","","","",""
"","","","preload","6","212381","0.0-5.0","4","4","4","4","4","4","4","3","4","4","5","5","5","4","5","5","5","5","5","5","1","1","1","1","1","1","1","1","1","0","1","0","0","0","0","0","0","0","0","0","0","1","0","1","5","1","1","1","1","1","2","1","4","1","590521239097835520","李","145","","true","","","","","","","","","","","false","[]","[]","[]","","","","","","","","","","","","","","","","","","","","","","","",""
"34816","","","instructions","7","247198","0.0-6.0","4","4","4","4","4","4","4","3","4","4","5","5","5","4","5","5","5","5","5","5","1","1","1","1","1","1","1","1","1","0","1","0","0","0","0","0","0","0","0","0","0","1","0","1","5","1","1","1","1","1","2","1","4","1","590521239097835520","李","145","","","","","","","","","","","","","","","","","[{""page_index"":0,""viewing_time"":34816}]","","","","","","","","","","","","","","","","","","","","","","",""
"36243","","","instructions","8","283442","0.0-7.0-0.0-0.0","4","4","4","4","4","4","4","3","4","4","5","5","5","4","5","5","5","5","5","5","1","1","1","1","1","1","1","1","1","0","1","0","0","0","0","0","0","0","0","0","0","1","0","1","5","1","1","1","1","1","2","1","4","1","590521239097835520","李","145","","","","","","","","","","","","","","","","","[{""page_index"":0,""viewing_time"":30403},{""page_index"":1,""viewing_time"":2304},{""page_index"":2,""viewing_time"":3536}]","","","","","","","","","","","","","","","","","","","","","","",""
"816","","f","psychophysics","9","285262","0.0-7.0-0.0-1.0-0.0-0.0","4","4","4","4","4","4","4","3","4","4","5","5","5","4","5","5","5","5","5","5","1","1","1","1","1","1","1","1","1","0","1","0","0","0","0","0","0","0","0","0","0","1","0","1","5","1","1","1","1","1","2","1","4","1","590521239097835520","李","145","","","","nonmatch","","","","","","","","","","","","","","key","f","8.33491705069136","853.3333333333334","476","f","true","nonmatch","img/square.png","梯形","方形","ALT1_1","prac_ALT1_1","","","","","","","","","",""
"null","<span style='color:GreenYellow; font-size: 70px;'>正确! </span>","null","html-keyboard-response","10","285769","0.0-7.0-0.0-1.0-0.0-1.0","4","4","4","4","4","4","4","3","4","4","5","5","5","4","5","5","5","5","5","5","1","1","1","1","1","1","1","1","1","0","1","0","0","0","0","0","0","0","0","0","0","1","0","1","5","1","1","1","1","1","2","1","4","1","590521239097835520","李","145","","","","","","","","","","","","","","","","","","","","","","","","","","","","","","feedback_test","","","","","","","","","",""
"1172","","j","psychophysics","11","287942","0.0-7.0-0.0-1.0-0.0-0.1","4","4","4","4","4","4","4","3","4","4","5","5","5","4","5","5","5","5","5","5","1","1","1","1","1","1","1","1","1","0","1","0","0","0","0","0","0","0","0","0","0","1","0","1","5","1","1","1","1","1","2","1","4","1","590521239097835520","李","145","","","","match","","","","","","","","","","","","","","key","j","8.334424710424633","853.3333333333334","476","j","true","match","img/ellipse.png","椭圆","椭圆","ALT1_1","prac_ALT1_1","","","","","","","","","",""
"null","<span style='color:GreenYellow; font-size: 70px;'>正确! </span>","null","html-keyboard-response","12","288446","0.0-7.0-0.0-1.0-0.0-1.1","4","4","4","4","4","4","4","3","4","4","5","5","5","4","5","5","5","5","5","5","1","1","1","1","1","1","1","1","1","0","1","0","0","0","0","0","0","0","0","0","0","1","0","1","5","1","1","1","1","1","2","1","4","1","590521239097835520","李","145","","","","","","","","","","","","","","","","","","","","","","","","","","","","","","feedback_test","","","","","","","","","",""
"542","","j","psychophysics","13","289990","0.0-7.0-0.0-1.0-0.0-0.2","4","4","4","4","4","4","4","3","4","4","5","5","5","4","5","5","5","5","5","5","1","1","1","1","1","1","1","1","1","0","1","0","0","0","0","0","0","0","0","0","0","1","0","1","5","1","1","1","1","1","2","1","4","1","590521239097835520","李","145","","","","match","","","","","","","","","","","","","","key","j","8.334081521739236","853.3333333333334","476","j","true","match","img/hexagon.png","六边","六边","ALT1_1","prac_ALT1_1","","","","","","","","","",""
"null","<span style='color:GreenYellow; font-size: 70px;'>正确! </span>","null","html-keyboard-response","14","290492","0.0-7.0-0.0-1.0-0.0-1.2","4","4","4","4","4","4","4","3","4","4","5","5","5","4","5","5","5","5","5","5","1","1","1","1","1","1","1","1","1","0","1","0","0","0","0","0","0","0","0","0","0","1","0","1","5","1","1","1","1","1","2","1","4","1","590521239097835520","李","145","","","","","","","","","","","","","","","","","","","","","","","","","","","","","","feedback_test","","","","","","","","","",""
"625","","f","psychophysics","15","292118","0.0-7.0-0.0-1.0-0.0-0.3","4","4","4","4","4","4","4","3","4","4","5","5","5","4","5","5","5","5","5","5","1","1","1","1","1","1","1","1","1","0","1","0","0","0","0","0","0","0","0","0","0","1","0","1","5","1","1","1","1","1","2","1","4","1","590521239097835520","李","145","","","","nonmatch","","","","","","","","","","","","","","key","f","8.333412371133875","853.3333333333334","476","f","true","nonmatch","img/trapezoid.png","椭圆","梯形","ALT1_1","prac_ALT1_1","","","","","","","","","",""
"null","<span style='color:GreenYellow; font-size: 70px;'>正确! </span>","null","html-keyboard-response","16","292626","0.0-7.0-0.0-1.0-0.0-1.3","4","4","4","4","4","4","4","3","4","4","5","5","5","4","5","5","5","5","5","5","1","1","1","1","1","1","1","1","1","0","1","0","0","0","0","0","0","0","0","0","0","1","0","1","5","1","1","1","1","1","2","1","4","1","590521239097835520","李","145","","","","","","","","","","","","","","","","","","","","","","","","","","","","","","feedback_test","","","","","","","","","",""
"523","","j","psychophysics","17","294150","0.0-7.0-0.0-1.0-0.0-0.4","4","4","4","4","4","4","4","3","4","4","5","5","5","4","5","5","5","5","5","5","1","1","1","1","1","1","1","1","1","0","1","0","0","0","0","0","0","0","0","0","0","1","0","1","5","1","1","1","1","1","2","1","4","1","590521239097835520","李","145","","","","match","","","","","","","","","","","","","","key","j","8.334602209944883","853.3333333333334","476","j","true","match","img/square.png","方形","方形","ALT1_1","prac_ALT1_1","","","","","","","","","",""
"null","<span style='color:GreenYellow; font-size: 70px;'>正确! </span>","null","html-keyboard-response","18","294658","0.0-7.0-0.0-1.0-0.0-1.4","4","4","4","4","4","4","4","3","4","4","5","5","5","4","5","5","5","5","5","5","1","1","1","1","1","1","1","1","1","0","1","0","0","0","0","0","0","0","0","0","0","1","0","1","5","1","1","1","1","1","2","1","4","1","590521239097835520","李","145","","","","","","","","","","","","","","","","","","","","","","","","","","","","","","feedback_test","","","","","","","","","",""
"627","","j","psychophysics","19","296286","0.0-7.0-0.0-1.0-0.0-0.5","4","4","4","4","4","4","4","3","4","4","5","5","5","4","5","5","5","5","5","5","1","1","1","1","1","1","1","1","1","0","1","0","0","0","0","0","0","0","0","0","0","1","0","1","5","1","1","1","1","1","2","1","4","1","590521239097835520","李","145","","","","match","","","","","","","","","","","","","","key","j","8.334753846153856","853.3333333333334","476","j","true","match","img/square.png","方形","方形","ALT1_1","prac_ALT1_1","","","","","","","","","",""
"null","<span style='color:GreenYellow; font-size: 70px;'>正确! </span>","null","html-keyboard-response","20","296793","0.0-7.0-0.0-1.0-0.0-1.5","4","4","4","4","4","4","4","3","4","4","5","5","5","4","5","5","5","5","5","5","1","1","1","1","1","1","1","1","1","0","1","0","0","0","0","0","0","0","0","0","0","1","0","1","5","1","1","1","1","1","2","1","4","1","590521239097835520","李","145","","","","","","","","","","","","","","","","","","","","","","","","","","","","","","feedback_test","","","","","","","","","",""
"548","","f","psychophysics","21","298342","0.0-7.0-0.0-1.0-0.0-0.6","4","4","4","4","4","4","4","3","4","4","5","5","5","4","5","5","5","5","5","5","1","1","1","1","1","1","1","1","1","0","1","0","0","0","0","0","0","0","0","0","0","1","0","1","5","1","1","1","1","1","2","1","4","1","590521239097835520","李","145","","","","nonmatch","","","","","","","","","","","","","","key","f","8.334733695652256","853.3333333333334","476","f","true","nonmatch","img/hexagon.png","梯形","六边","ALT1_1","prac_ALT1_1","","","","","","","","","",""
"null","<span style='color:GreenYellow; font-size: 70px;'>正确! </span>","null","html-keyboard-response","22","298850","0.0-7.0-0.0-1.0-0.0-1.6","4","4","4","4","4","4","4","3","4","4","5","5","5","4","5","5","5","5","5","5","1","1","1","1","1","1","1","1","1","0","1","0","0","0","0","0","0","0","0","0","0","1","0","1","5","1","1","1","1","1","2","1","4","1","590521239097835520","李","145","","","","","","","","","","","","","","","","","","","","","","","","","","","","","","feedback_test","","","","","","","","","",""
"587","","f","psychophysics","23","300438","0.0-7.0-0.0-1.0-0.0-0.7","4","4","4","4","4","4","4","3","4","4","5","5","5","4","5","5","5","5","5","5","1","1","1","1","1","1","1","1","1","0","1","0","0","0","0","0","0","0","0","0","0","1","0","1","5","1","1","1","1","1","2","1","4","1","590521239097835520","李","145","","","","nonmatch","","","","","","","","","","","","","","key","f","8.333650793650781","853.3333333333334","476","f","true","nonmatch","img/hexagon.png","椭圆","六边","ALT1_1","prac_ALT1_1","","","","","","","","","",""
"null","<span style='color:GreenYellow; font-size: 70px;'>正确! </span>","null","html-keyboard-response","24","300946","0.0-7.0-0.0-1.0-0.0-1.7","4","4","4","4","4","4","4","3","4","4","5","5","5","4","5","5","5","5","5","5","1","1","1","1","1","1","1","1","1","0","1","0","0","0","0","0","0","0","0","0","0","1","0","1","5","1","1","1","1","1","2","1","4","1","590521239097835520","李","145","","","","","","","","","","","","","","","","","","","","","","","","","","","","","","feedback_test","","","","","","","","","",""
"603","","j","psychophysics","25","302550","0.0-7.0-0.0-1.0-0.0-0.8","4","4","4","4","4","4","4","3","4","4","5","5","5","4","5","5","5","5","5","5","1","1","1","1","1","1","1","1","1","0","1","0","0","0","0","0","0","0","0","0","0","1","0","1","5","1","1","1","1","1","2","1","4","1","590521239097835520","李","145","","","","match","","","","","","","","","","","","","","key","j","8.334696335078666","853.3333333333334","476","j","true","match","img/ellipse.png","椭圆","椭圆","ALT1_1","prac_ALT1_1","","","","","","","","","",""
"null","<span style='color:GreenYellow; font-size: 70px;'>正确! </span>","null","html-keyboard-response","26","303057","0.0-7.0-0.0-1.0-0.0-1.8","4","4","4","4","4","4","4","3","4","4","5","5","5","4","5","5","5","5","5","5","1","1","1","1","1","1","1","1","1","0","1","0","0","0","0","0","0","0","0","0","0","1","0","1","5","1","1","1","1","1","2","1","4","1","590521239097835520","李","145","","","","","","","","","","","","","","","","","","","","","","","","","","","","","","feedback_test","","","","","","","","","",""
"652","","j","psychophysics","27","304710","0.0-7.0-0.0-1.0-0.0-0.9","4","4","4","4","4","4","4","3","4","4","5","5","5","4","5","5","5","5","5","5","1","1","1","1","1","1","1","1","1","0","1","0","0","0","0","0","0","0","0","0","0","1","0","1","5","1","1","1","1","1","2","1","4","1","590521239097835520","李","145","","","","match","","","","","","","","","","","","","","key","j","8.3337918781728","853.3333333333334","476","j","true","match","img/trapezoid.png","梯形","梯形","ALT1_1","prac_ALT1_1","","","","","","","","","",""
"null","<span style='color:GreenYellow; font-size: 70px;'>正确! </span>","null","html-keyboard-response","28","305217","0.0-7.0-0.0-1.0-0.0-1.9","4","4","4","4","4","4","4","3","4","4","5","5","5","4","5","5","5","5","5","5","1","1","1","1","1","1","1","1","1","0","1","0","0","0","0","0","0","0","0","0","0","1","0","1","5","1","1","1","1","1","2","1","4","1","590521239097835520","李","145","","","","","","","","","","","","","","","","","","","","","","","","","","","","","","feedback_test","","","","","","","","","",""
"604","","f","psychophysics","29","306822","0.0-7.0-0.0-1.0-0.0-0.10","4","4","4","4","4","4","4","3","4","4","5","5","5","4","5","5","5","5","5","5","1","1","1","1","1","1","1","1","1","0","1","0","0","0","0","0","0","0","0","0","0","1","0","1","5","1","1","1","1","1","2","1","4","1","590521239097835520","李","145","","","","nonmatch","","","","","","","","","","","","","","key","f","8.335208333333261","853.3333333333334","476","f","true","nonmatch","img/ellipse.png","方形","椭圆","ALT1_1","prac_ALT1_1","","","","","","","","","",""
"null","<span style='color:GreenYellow; font-size: 70px;'>正确! </span>","null","html-keyboard-response","30","307329","0.0-7.0-0.0-1.0-0.0-1.10","4","4","4","4","4","4","4","3","4","4","5","5","5","4","5","5","5","5","5","5","1","1","1","1","1","1","1","1","1","0","1","0","0","0","0","0","0","0","0","0","0","1","0","1","5","1","1","1","1","1","2","1","4","1","590521239097835520","李","145","","","","","","","","","","","","","","","","","","","","","","","","","","","","","","feedback_test","","","","","","","","","",""
"540","","f","psychophysics","31","308870","0.0-7.0-0.0-1.0-0.0-0.11","4","4","4","4","4","4","4","3","4","4","5","5","5","4","5","5","5","5","5","5","1","1","1","1","1","1","1","1","1","0","1","0","0","0","0","0","0","0","0","0","0","1","0","1","5","1","1","1","1","1","2","1","4","1","590521239097835520","李","145","","","","nonmatch","","","","","","","","","","","","","","key","f","8.335699453552017","853.3333333333334","476","f","true","nonmatch","img/ellipse.png","梯形","椭圆","ALT1_1","prac_ALT1_1","","","","","","","","","",""
"null","<span style='color:GreenYellow; font-size: 70px;'>正确! </span>","null","html-keyboard-response","32","309377","0.0-7.0-0.0-1.0-0.0-1.11","4","4","4","4","4","4","4","3","4","4","5","5","5","4","5","5","5","5","5","5","1","1","1","1","1","1","1","1","1","0","1","0","0","0","0","0","0","0","0","0","0","1","0","1","5","1","1","1","1","1","2","1","4","1","590521239097835520","李","145","","","","","","","","","","","","","","","","","","","","","","","","","","","","","","feedback_test","","","","","","","","","",""
"629","","f","psychophysics","33","311006","0.0-7.0-0.0-1.0-0.0-0.12","4","4","4","4","4","4","4","3","4","4","5","5","5","4","5","5","5","5","5","5","1","1","1","1","1","1","1","1","1","0","1","0","0","0","0","0","0","0","0","0","0","1","0","1","5","1","1","1","1","1","2","1","4","1","590521239097835520","李","145","","","","nonmatch","","","","","","","","","","","","","","key","f","8.334623711340289","853.3333333333334","476","f","true","nonmatch","img/ellipse.png","六边","椭圆","ALT1_1","prac_ALT1_1","","","","","","","","","",""
"null","<span style='color:GreenYellow; font-size: 70px;'>正确! </span>","null","html-keyboard-response","34","311513","0.0-7.0-0.0-1.0-0.0-1.12","4","4","4","4","4","4","4","3","4","4","5","5","5","4","5","5","5","5","5","5","1","1","1","1","1","1","1","1","1","0","1","0","0","0","0","0","0","0","0","0","0","1","0","1","5","1","1","1","1","1","2","1","4","1","590521239097835520","李","145","","","","","","","","","","","","","","","","","","","","","","","","","","","","","","feedback_test","","","","","","","","","",""
"580","","j","psychophysics","35","313094","0.0-7.0-0.0-1.0-0.0-0.13","4","4","4","4","4","4","4","3","4","4","5","5","5","4","5","5","5","5","5","5","1","1","1","1","1","1","1","1","1","0","1","0","0","0","0","0","0","0","0","0","0","1","0","1","5","1","1","1","1","1","2","1","4","1","590521239097835520","李","145","","","","match","","","","","","","","","","","","","","key","j","8.33285638297867","853.3333333333334","476","j","true","match","img/trapezoid.png","梯形","梯形","ALT1_1","prac_ALT1_1","","","","","","","","","",""
"null","<span style='color:GreenYellow; font-size: 70px;'>正确! </span>","null","html-keyboard-response","36","313601","0.0-7.0-0.0-1.0-0.0-1.13","4","4","4","4","4","4","4","3","4","4","5","5","5","4","5","5","5","5","5","5","1","1","1","1","1","1","1","1","1","0","1","0","0","0","0","0","0","0","0","0","0","1","0","1","5","1","1","1","1","1","2","1","4","1","590521239097835520","李","145","","","","","","","","","","","","","","","","","","","","","","","","","","","","","","feedback_test","","","","","","","","","",""
"588","","f","psychophysics","37","315190","0.0-7.0-0.0-1.0-0.0-0.14","4","4","4","4","4","4","4","3","4","4","5","5","5","4","5","5","5","5","5","5","1","1","1","1","1","1","1","1","1","0","1","0","0","0","0","0","0","0","0","0","0","1","0","1","5","1","1","1","1","1","2","1","4","1","590521239097835520","李","145","","","","nonmatch","","","","","","","","","","","","","","key","f","8.335201058201074","853.3333333333334","476","j","false","match","img/hexagon.png","六边","六边","ALT1_1","prac_ALT1_1","","","","","","","","","",""
"null","<span style='color:red; font-size: 70px;'>错误! </span>","null","html-keyboard-response","38","315697","0.0-7.0-0.0-1.0-0.0-1.14","4","4","4","4","4","4","4","3","4","4","5","5","5","4","5","5","5","5","5","5","1","1","1","1","1","1","1","1","1","0","1","0","0","0","0","0","0","0","0","0","0","1","0","1","5","1","1","1","1","1","2","1","4","1","590521239097835520","李","145","","","","","","","","","","","","","","","","","","","","","","","","","","","","","","feedback_test","","","","","","","","","",""
"764","","f","psychophysics","39","317462","0.0-7.0-0.0-1.0-0.0-0.15","4","4","4","4","4","4","4","3","4","4","5","5","5","4","5","5","5","5","5","5","1","1","1","1","1","1","1","1","1","0","1","0","0","0","0","0","0","0","0","0","0","1","0","1","5","1","1","1","1","1","2","1","4","1","590521239097835520","李","145","","","","nonmatch","","","","","","","","","","","","","","key","f","8.334819047618934","853.3333333333334","476","f","true","nonmatch","img/trapezoid.png","六边","梯形","ALT1_1","prac_ALT1_1","","","","","","","","","",""
"null","<span style='color:GreenYellow; font-size: 70px;'>正确! </span>","null","html-keyboard-response","40","317970","0.0-7.0-0.0-1.0-0.0-1.15","4","4","4","4","4","4","4","3","4","4","5","5","5","4","5","5","5","5","5","5","1","1","1","1","1","1","1","1","1","0","1","0","0","0","0","0","0","0","0","0","0","1","0","1","5","1","1","1","1","1","2","1","4","1","590521239097835520","李","145","","","","","","","","","","","","","","","","","","","","","","","","","","","","","","feedback_test","","","","","","","","","",""
"603","","f","psychophysics","41","319574","0.0-7.0-0.0-1.0-0.0-0.16","4","4","4","4","4","4","4","3","4","4","5","5","5","4","5","5","5","5","5","5","1","1","1","1","1","1","1","1","1","0","1","0","0","0","0","0","0","0","0","0","0","1","0","1","5","1","1","1","1","1","2","1","4","1","590521239097835520","李","145","","","","nonmatch","","","","","","","","","","","","","","key","f","8.334596858638722","853.3333333333334","476","f","true","nonmatch","img/square.png","六边","方形","ALT1_1","prac_ALT1_1","","","","","","","","","",""
"null","<span style='color:GreenYellow; font-size: 70px;'>正确! </span>","null","html-keyboard-response","42","320082","0.0-7.0-0.0-1.0-0.0-1.16","4","4","4","4","4","4","4","3","4","4","5","5","5","4","5","5","5","5","5","5","1","1","1","1","1","1","1","1","1","0","1","0","0","0","0","0","0","0","0","0","0","1","0","1","5","1","1","1","1","1","2","1","4","1","590521239097835520","李","145","","","","","","","","","","","","","","","","","","","","","","","","","","","","","","feedback_test","","","","","","","","","",""
"531","","j","psychophysics","43","321614","0.0-7.0-0.0-1.0-0.0-0.17","4","4","4","4","4","4","4","3","4","4","5","5","5","4","5","5","5","5","5","5","1","1","1","1","1","1","1","1","1","0","1","0","0","0","0","0","0","0","0","0","0","1","0","1","5","1","1","1","1","1","2","1","4","1","590521239097835520","李","145","","","","match","","","","","","","","","","","","","","key","j","8.33534615384613","853.3333333333334","476","f","false","nonmatch","img/trapezoid.png","方形","梯形","ALT1_1","prac_ALT1_1","","","","","","","","","",""
"null","<span style='color:red; font-size: 70px;'>错误! </span>","null","html-keyboard-response","44","322120","0.0-7.0-0.0-1.0-0.0-1.17","4","4","4","4","4","4","4","3","4","4","5","5","5","4","5","5","5","5","5","5","1","1","1","1","1","1","1","1","1","0","1","0","0","0","0","0","0","0","0","0","0","1","0","1","5","1","1","1","1","1","2","1","4","1","590521239097835520","李","145","","","","","","","","","","","","","","","","","","","","","","","","","","","","","","feedback_test","","","","","","","","","",""
"572","","f","psychophysics","45","323694","0.0-7.0-0.0-1.0-0.0-0.18","4","4","4","4","4","4","4","3","4","4","5","5","5","4","5","5","5","5","5","5","1","1","1","1","1","1","1","1","1","0","1","0","0","0","0","0","0","0","0","0","0","1","0","1","5","1","1","1","1","1","2","1","4","1","590521239097835520","李","145","","","","nonmatch","","","","","","","","","","","","","","key","f","8.333925133689934","853.3333333333334","476","f","true","nonmatch","img/square.png","椭圆","方形","ALT1_1","prac_ALT1_1","","","","","","","","","",""
"null","<span style='color:GreenYellow; font-size: 70px;'>正确! </span>","null","html-keyboard-response","46","324201","0.0-7.0-0.0-1.0-0.0-1.18","4","4","4","4","4","4","4","3","4","4","5","5","5","4","5","5","5","5","5","5","1","1","1","1","1","1","1","1","1","0","1","0","0","0","0","0","0","0","0","0","0","1","0","1","5","1","1","1","1","1","2","1","4","1","590521239097835520","李","145","","","","","","","","","","","","","","","","","","","","","","","","","","","","","","feedback_test","","","","","","","","","",""
"628","","f","psychophysics","47","325830","0.0-7.0-0.0-1.0-0.0-0.19","4","4","4","4","4","4","4","3","4","4","5","5","5","4","5","5","5","5","5","5","1","1","1","1","1","1","1","1","1","0","1","0","0","0","0","0","0","0","0","0","0","1","0","1","5","1","1","1","1","1","2","1","4","1","590521239097835520","李","145","","","","nonmatch","","","","","","","","","","","","","","key","f","8.377632124352491","853.3333333333334","476","f","true","nonmatch","img/hexagon.png","方形","六边","ALT1_1","prac_ALT1_1","","","","","","","","","",""
"null","<span style='color:GreenYellow; font-size: 70px;'>正确! </span>","null","html-keyboard-response","48","326336","0.0-7.0-0.0-1.0-0.0-1.19","4","4","4","4","4","4","4","3","4","4","5","5","5","4","5","5","5","5","5","5","1","1","1","1","1","1","1","1","1","0","1","0","0","0","0","0","0","0","0","0","0","1","0","1","5","1","1","1","1","1","2","1","4","1","590521239097835520","李","145","","","","","","","","","","","","","","","","","","","","","","","","","","","","","","feedback_test","","","","","","","","","",""
"533","","j","psychophysics","49","327870","0.0-7.0-0.0-1.0-0.0-0.20","4","4","4","4","4","4","4","3","4","4","5","5","5","4","5","5","5","5","5","5","1","1","1","1","1","1","1","1","1","0","1","0","0","0","0","0","0","0","0","0","0","1","0","1","5","1","1","1","1","1","2","1","4","1","590521239097835520","李","145","","","","match","","","","","","","","","","","","","","key","j","8.33534972677599","853.3333333333334","476","j","true","match","img/square.png","方形","方形","ALT1_1","prac_ALT1_1","","","","","","","","","",""
"null","<span style='color:GreenYellow; font-size: 70px;'>正确! </span>","null","html-keyboard-response","50","328376","0.0-7.0-0.0-1.0-0.0-1.20","4","4","4","4","4","4","4","3","4","4","5","5","5","4","5","5","5","5","5","5","1","1","1","1","1","1","1","1","1","0","1","0","0","0","0","0","0","0","0","0","0","1","0","1","5","1","1","1","1","1","2","1","4","1","590521239097835520","李","145","","","","","","","","","","","","","","","","","","","","","","","","","","","","","","feedback_test","","","","","","","","","",""
"564","","j","psychophysics","51","329942","0.0-7.0-0.0-1.0-0.0-0.21","4","4","4","4","4","4","4","3","4","4","5","5","5","4","5","5","5","5","5","5","1","1","1","1","1","1","1","1","1","0","1","0","0","0","0","0","0","0","0","0","0","1","0","1","5","1","1","1","1","1","2","1","4","1","590521239097835520","李","145","","","","match","","","","","","","","","","","","","","key","j","8.331489247311863","853.3333333333334","476","j","true","match","img/trapezoid.png","梯形","梯形","ALT1_1","prac_ALT1_1","","","","","","","","","",""
"null","<span style='color:GreenYellow; font-size: 70px;'>正确! </span>","null","html-keyboard-response","52","330446","0.0-7.0-0.0-1.0-0.0-1.21","4","4","4","4","4","4","4","3","4","4","5","5","5","4","5","5","5","5","5","5","1","1","1","1","1","1","1","1","1","0","1","0","0","0","0","0","0","0","0","0","0","1","0","1","5","1","1","1","1","1","2","1","4","1","590521239097835520","李","145","","","","","","","","","","","","","","","","","","","","","","","","","","","","","","feedback_test","","","","","","","","","",""
"926","","j","psychophysics","53","332374","0.0-7.0-0.0-1.0-0.0-0.22","4","4","4","4","4","4","4","3","4","4","5","5","5","4","5","5","5","5","5","5","1","1","1","1","1","1","1","1","1","0","1","0","0","0","0","0","0","0","0","0","0","1","0","1","5","1","1","1","1","1","2","1","4","1","590521239097835520","李","145","","","","match","","","","","","","","","","","","","","key","j","8.333686956521833","853.3333333333334","476","j","true","match","img/ellipse.png","椭圆","椭圆","ALT1_1","prac_ALT1_1","","","","","","","","","",""
"null","<span style='color:GreenYellow; font-size: 70px;'>正确! </span>","null","html-keyboard-response","54","332882","0.0-7.0-0.0-1.0-0.0-1.22","4","4","4","4","4","4","4","3","4","4","5","5","5","4","5","5","5","5","5","5","1","1","1","1","1","1","1","1","1","0","1","0","0","0","0","0","0","0","0","0","0","1","0","1","5","1","1","1","1","1","2","1","4","1","590521239097835520","李","145","","","","","","","","","","","","","","","","","","","","","","","","","","","","","","feedback_test","","","","","","","","","",""
"563","","j","psychophysics","55","334446","0.0-7.0-0.0-1.0-0.0-0.23","4","4","4","4","4","4","4","3","4","4","5","5","5","4","5","5","5","5","5","5","1","1","1","1","1","1","1","1","1","0","1","0","0","0","0","0","0","0","0","0","0","1","0","1","5","1","1","1","1","1","2","1","4","1","590521239097835520","李","145","","","","match","","","","","","","","","","","","","","key","j","8.331822580645381","853.3333333333334","476","j","true","match","img/hexagon.png","六边","六边","ALT1_1","prac_ALT1_1","","","","","","","","","",""
"null","<span style='color:GreenYellow; font-size: 70px;'>正确! </span>","null","html-keyboard-response","56","334954","0.0-7.0-0.0-1.0-0.0-1.23","4","4","4","4","4","4","4","3","4","4","5","5","5","4","5","5","5","5","5","5","1","1","1","1","1","1","1","1","1","0","1","0","0","0","0","0","0","0","0","0","0","1","0","1","5","1","1","1","1","1","2","1","4","1","590521239097835520","李","145","","","","","","","","","","","","","","","","","","","","","","","","","","","","","","feedback_test","","","","","","","","","",""
"595","","j","psychophysics","57","336550","0.0-7.0-0.0-1.0-0.0-0.24","4","4","4","4","4","4","4","3","4","4","5","5","5","4","5","5","5","5","5","5","1","1","1","1","1","1","1","1","1","0","1","0","0","0","0","0","0","0","0","0","0","1","0","1","5","1","1","1","1","1","2","1","4","1","590521239097835520","李","145","","","","match","","","","","","","","","","","","","","key","j","8.33402631578961","853.3333333333334","476","j","true","match","img/trapezoid.png","梯形","梯形","ALT1_1","prac_ALT1_1","","","","","","","","","",""
"null","<span style='color:GreenYellow; font-size: 70px;'>正确! </span>","null","html-keyboard-response","58","337057","0.0-7.0-0.0-1.0-0.0-1.24","4","4","4","4","4","4","4","3","4","4","5","5","5","4","5","5","5","5","5","5","1","1","1","1","1","1","1","1","1","0","1","0","0","0","0","0","0","0","0","0","0","1","0","1","5","1","1","1","1","1","2","1","4","1","590521239097835520","李","145","","","","","","","","","","","","","","","","","","","","","","","","","","","","","","feedback_test","","","","","","","","","",""
"572","","j","psychophysics","59","338630","0.0-7.0-0.0-1.0-0.0-0.25","4","4","4","4","4","4","4","3","4","4","5","5","5","4","5","5","5","5","5","5","1","1","1","1","1","1","1","1","1","0","1","0","0","0","0","0","0","0","0","0","0","1","0","1","5","1","1","1","1","1","2","1","4","1","590521239097835520","李","145","","","","match","","","","","","","","","","","","","","key","j","8.334930481283333","853.3333333333334","476","j","true","match","img/trapezoid.png","梯形","梯形","ALT1_1","prac_ALT1_1","","","","","","","","","",""
"null","<span style='color:GreenYellow; font-size: 70px;'>正确! </span>","null","html-keyboard-response","60","339137","0.0-7.0-0.0-1.0-0.0-1.25","4","4","4","4","4","4","4","3","4","4","5","5","5","4","5","5","5","5","5","5","1","1","1","1","1","1","1","1","1","0","1","0","0","0","0","0","0","0","0","0","0","1","0","1","5","1","1","1","1","1","2","1","4","1","590521239097835520","李","145","","","","","","","","","","","","","","","","","","","","","","","","","","","","","","feedback_test","","","","","","","","","",""
"949","","f","psychophysics","61","341086","0.0-7.0-0.0-1.0-0.0-0.26","4","4","4","4","4","4","4","3","4","4","5","5","5","4","5","5","5","5","5","5","1","1","1","1","1","1","1","1","1","0","1","0","0","0","0","0","0","0","0","0","0","1","0","1","5","1","1","1","1","1","2","1","4","1","590521239097835520","李","145","","","","nonmatch","","","","","","","","","","","","","","key","f","8.332693965517231","853.3333333333334","476","f","true","nonmatch","img/hexagon.png","梯形","六边","ALT1_1","prac_ALT1_1","","","","","","","","","",""
"null","<span style='color:GreenYellow; font-size: 70px;'>正确! </span>","null","html-keyboard-response","62","341593","0.0-7.0-0.0-1.0-0.0-1.26","4","4","4","4","4","4","4","3","4","4","5","5","5","4","5","5","5","5","5","5","1","1","1","1","1","1","1","1","1","0","1","0","0","0","0","0","0","0","0","0","0","1","0","1","5","1","1","1","1","1","2","1","4","1","590521239097835520","李","145","","","","","","","","","","","","","","","","","","","","","","","","","","","","","","feedback_test","","","","","","","","","",""
"700","","j","psychophysics","63","343294","0.0-7.0-0.0-1.0-0.0-0.27","4","4","4","4","4","4","4","3","4","4","5","5","5","4","5","5","5","5","5","5","1","1","1","1","1","1","1","1","1","0","1","0","0","0","0","0","0","0","0","0","0","1","0","1","5","1","1","1","1","1","2","1","4","1","590521239097835520","李","145","","","","match","","","","","","","","","","","","","","key","j","8.334480198019813","853.3333333333334","476","f","false","nonmatch","img/ellipse.png","梯形","椭圆","ALT1_1","prac_ALT1_1","","","","","","","","","",""
"null","<span style='color:red; font-size: 70px;'>错误! </span>","null","html-keyboard-response","64","343801","0.0-7.0-0.0-1.0-0.0-1.27","4","4","4","4","4","4","4","3","4","4","5","5","5","4","5","5","5","5","5","5","1","1","1","1","1","1","1","1","1","0","1","0","0","0","0","0","0","0","0","0","0","1","0","1","5","1","1","1","1","1","2","1","4","1","590521239097835520","李","145","","","","","","","","","","","","","","","","","","","","","","","","","","","","","","feedback_test","","","","","","","","","",""
"667","","j","psychophysics","65","345470","0.0-7.0-0.0-1.0-0.0-0.28","4","4","4","4","4","4","4","3","4","4","5","5","5","4","5","5","5","5","5","5","1","1","1","1","1","1","1","1","1","0","1","0","0","0","0","0","0","0","0","0","0","1","0","1","5","1","1","1","1","1","2","1","4","1","590521239097835520","李","145","","","","match","","","","","","","","","","","","","","key","j","8.33420603015067","853.3333333333334","476","j","true","match","img/ellipse.png","椭圆","椭圆","ALT1_1","prac_ALT1_1","","","","","","","","","",""
"null","<span style='color:GreenYellow; font-size: 70px;'>正确! </span>","null","html-keyboard-response","66","345978","0.0-7.0-0.0-1.0-0.0-1.28","4","4","4","4","4","4","4","3","4","4","5","5","5","4","5","5","5","5","5","5","1","1","1","1","1","1","1","1","1","0","1","0","0","0","0","0","0","0","0","0","0","1","0","1","5","1","1","1","1","1","2","1","4","1","590521239097835520","李","145","","","","","","","","","","","","","","","","","","","","","","","","","","","","","","feedback_test","","","","","","","","","",""
"627","","f","psychophysics","67","347606","0.0-7.0-0.0-1.0-0.0-0.29","4","4","4","4","4","4","4","3","4","4","5","5","5","4","5","5","5","5","5","5","1","1","1","1","1","1","1","1","1","0","1","0","0","0","0","0","0","0","0","0","0","1","0","1","5","1","1","1","1","1","2","1","4","1","590521239097835520","李","145","","","","nonmatch","","","","","","","","","","","","","","key","f","8.33400515463898","853.3333333333334","476","f","true","nonmatch","img/square.png","椭圆","方形","ALT1_1","prac_ALT1_1","","","","","","","","","",""
"null","<span style='color:GreenYellow; font-size: 70px;'>正确! </span>","null","html-keyboard-response","68","348113","0.0-7.0-0.0-1.0-0.0-1.29","4","4","4","4","4","4","4","3","4","4","5","5","5","4","5","5","5","5","5","5","1","1","1","1","1","1","1","1","1","0","1","0","0","0","0","0","0","0","0","0","0","1","0","1","5","1","1","1","1","1","2","1","4","1","590521239097835520","李","145","","","","","","","","","","","","","","","","","","","","","","","","","","","","","","feedback_test","","","","","","","","","",""
"629","","j","psychophysics","69","349742","0.0-7.0-0.0-1.0-0.0-0.30","4","4","4","4","4","4","4","3","4","4","5","5","5","4","5","5","5","5","5","5","1","1","1","1","1","1","1","1","1","0","1","0","0","0","0","0","0","0","0","0","0","1","0","1","5","1","1","1","1","1","2","1","4","1","590521239097835520","李","145","","","","match","","","","","","","","","","","","","","key","j","8.33302577319567","853.3333333333334","476","j","true","match","img/hexagon.png","六边","六边","ALT1_1","prac_ALT1_1","","","","","","","","","",""
"null","<span style='color:GreenYellow; font-size: 70px;'>正确! </span>","null","html-keyboard-response","70","350250","0.0-7.0-0.0-1.0-0.0-1.30","4","4","4","4","4","4","4","3","4","4","5","5","5","4","5","5","5","5","5","5","1","1","1","1","1","1","1","1","1","0","1","0","0","0","0","0","0","0","0","0","0","1","0","1","5","1","1","1","1","1","2","1","4","1","590521239097835520","李","145","","","","","","","","","","","","","","","","","","","","","","","","","","","","","","feedback_test","","","","","","","","","",""
"709","","f","psychophysics","71","351960","0.0-7.0-0.0-1.0-0.0-0.31","4","4","4","4","4","4","4","3","4","4","5","5","5","4","5","5","5","5","5","5","1","1","1","1","1","1","1","1","1","0","1","0","0","0","0","0","0","0","0","0","0","1","0","1","5","1","1","1","1","1","2","1","4","1","590521239097835520","李","145","","","","nonmatch","","","","","","","","","","","","","","key","f","8.332666666666674","853.3333333333334","476","f","true","nonmatch","img/square.png","六边","方形","ALT1_1","prac_ALT1_1","","","","","","","","","",""
"null","<span style='color:GreenYellow; font-size: 70px;'>正确! </span>","null","html-keyboard-response","72","352466","0.0-7.0-0.0-1.0-0.0-1.31","4","4","4","4","4","4","4","3","4","4","5","5","5","4","5","5","5","5","5","5","1","1","1","1","1","1","1","1","1","0","1","0","0","0","0","0","0","0","0","0","0","1","0","1","5","1","1","1","1","1","2","1","4","1","590521239097835520","李","145","","","","","","","","","","","","","","","","","","","","","","","","","","","","","","feedback_test","","","","","","","","","",""
"795","","j","psychophysics","73","354262","0.0-7.0-0.0-1.0-0.0-0.32","4","4","4","4","4","4","4","3","4","4","5","5","5","4","5","5","5","5","5","5","1","1","1","1","1","1","1","1","1","0","1","0","0","0","0","0","0","0","0","0","0","1","0","1","5","1","1","1","1","1","2","1","4","1","590521239097835520","李","145","","","","match","","","","","","","","","","","","","","key","j","8.332683720930241","853.3333333333334","476","j","true","match","img/square.png","方形","方形","ALT1_1","prac_ALT1_1","","","","","","","","","",""
"null","<span style='color:GreenYellow; font-size: 70px;'>正确! </span>","null","html-keyboard-response","74","354769","0.0-7.0-0.0-1.0-0.0-1.32","4","4","4","4","4","4","4","3","4","4","5","5","5","4","5","5","5","5","5","5","1","1","1","1","1","1","1","1","1","0","1","0","0","0","0","0","0","0","0","0","0","1","0","1","5","1","1","1","1","1","2","1","4","1","590521239097835520","李","145","","","","","","","","","","","","","","","","","","","","","","","","","","","","","","feedback_test","","","","","","","","","",""
"572","","j","psychophysics","75","356342","0.0-7.0-0.0-1.0-0.0-0.33","4","4","4","4","4","4","4","3","4","4","5","5","5","4","5","5","5","5","5","5","1","1","1","1","1","1","1","1","1","0","1","0","0","0","0","0","0","0","0","0","0","1","0","1","5","1","1","1","1","1","2","1","4","1","590521239097835520","李","145","","","","match","","","","","","","","","","","","","","key","j","8.33456149732633","853.3333333333334","476","j","true","match","img/ellipse.png","椭圆","椭圆","ALT1_1","prac_ALT1_1","","","","","","","","","",""
"null","<span style='color:GreenYellow; font-size: 70px;'>正确! </span>","null","html-keyboard-response","76","356849","0.0-7.0-0.0-1.0-0.0-1.33","4","4","4","4","4","4","4","3","4","4","5","5","5","4","5","5","5","5","5","5","1","1","1","1","1","1","1","1","1","0","1","0","0","0","0","0","0","0","0","0","0","1","0","1","5","1","1","1","1","1","2","1","4","1","590521239097835520","李","145","","","","","","","","","","","","","","","","","","","","","","","","","","","","","","feedback_test","","","","","","","","","",""
"692","","j","psychophysics","77","358542","0.0-7.0-0.0-1.0-0.0-0.34","4","4","4","4","4","4","4","3","4","4","5","5","5","4","5","5","5","5","5","5","1","1","1","1","1","1","1","1","1","0","1","0","0","0","0","0","0","0","0","0","0","1","0","1","5","1","1","1","1","1","2","1","4","1","590521239097835520","李","145","","","","match","","","","","","","","","","","","","","key","j","8.335435643564509","853.3333333333334","476","j","true","match","img/square.png","方形","方形","ALT1_1","prac_ALT1_1","","","","","","","","","",""
"null","<span style='color:GreenYellow; font-size: 70px;'>正确! </span>","null","html-keyboard-response","78","359049","0.0-7.0-0.0-1.0-0.0-1.34","4","4","4","4","4","4","4","3","4","4","5","5","5","4","5","5","5","5","5","5","1","1","1","1","1","1","1","1","1","0","1","0","0","0","0","0","0","0","0","0","0","1","0","1","5","1","1","1","1","1","2","1","4","1","590521239097835520","李","145","","","","","","","","","","","","","","","","","","","","","","","","","","","","","","feedback_test","","","","","","","","","",""
"741","","f","psychophysics","79","360790","0.0-7.0-0.0-1.0-0.0-0.35","4","4","4","4","4","4","4","3","4","4","5","5","5","4","5","5","5","5","5","5","1","1","1","1","1","1","1","1","1","0","1","0","0","0","0","0","0","0","0","0","0","1","0","1","5","1","1","1","1","1","2","1","4","1","590521239097835520","李","145","","","","nonmatch","","","","","","","","","","","","","","key","f","8.33191787439611","853.3333333333334","476","f","true","nonmatch","img/square.png","梯形","方形","ALT1_1","prac_ALT1_1","","","","","","","","","",""
"null","<span style='color:GreenYellow; font-size: 70px;'>正确! </span>","null","html-keyboard-response","80","361298","0.0-7.0-0.0-1.0-0.0-1.35","4","4","4","4","4","4","4","3","4","4","5","5","5","4","5","5","5","5","5","5","1","1","1","1","1","1","1","1","1","0","1","0","0","0","0","0","0","0","0","0","0","1","0","1","5","1","1","1","1","1","2","1","4","1","590521239097835520","李","145","","","","","","","","","","","","","","","","","","","","","","","","","","","","","","feedback_test","","","","","","","","","",""
"794","","f","psychophysics","81","363094","0.0-7.0-0.0-1.0-0.0-0.36","4","4","4","4","4","4","4","3","4","4","5","5","5","4","5","5","5","5","5","5","1","1","1","1","1","1","1","1","1","0","1","0","0","0","0","0","0","0","0","0","0","1","0","1","5","1","1","1","1","1","2","1","4","1","590521239097835520","李","145","","","","nonmatch","","","","","","","","","","","","","","key","f","8.33458878504652","853.3333333333334","476","f","true","nonmatch","img/trapezoid.png","六边","梯形","ALT1_1","prac_ALT1_1","","","","","","","","","",""
"null","<span style='color:GreenYellow; font-size: 70px;'>正确! </span>","null","html-keyboard-response","82","363601","0.0-7.0-0.0-1.0-0.0-1.36","4","4","4","4","4","4","4","3","4","4","5","5","5","4","5","5","5","5","5","5","1","1","1","1","1","1","1","1","1","0","1","0","0","0","0","0","0","0","0","0","0","1","0","1","5","1","1","1","1","1","2","1","4","1","590521239097835520","李","145","","","","","","","","","","","","","","","","","","","","","","","","","","","","","","feedback_test","","","","","","","","","",""
"692","","j","psychophysics","83","365294","0.0-7.0-0.0-1.0-0.0-0.37","4","4","4","4","4","4","4","3","4","4","5","5","5","4","5","5","5","5","5","5","1","1","1","1","1","1","1","1","1","0","1","0","0","0","0","0","0","0","0","0","0","1","0","1","5","1","1","1","1","1","2","1","4","1","590521239097835520","李","145","","","","match","","","","","","","","","","","","","","key","j","8.334183168316855","853.3333333333334","476","j","true","match","img/hexagon.png","六边","六边","ALT1_1","prac_ALT1_1","","","","","","","","","",""
"null","<span style='color:GreenYellow; font-size: 70px;'>正确! </span>","null","html-keyboard-response","84","365801","0.0-7.0-0.0-1.0-0.0-1.37","4","4","4","4","4","4","4","3","4","4","5","5","5","4","5","5","5","5","5","5","1","1","1","1","1","1","1","1","1","0","1","0","0","0","0","0","0","0","0","0","0","1","0","1","5","1","1","1","1","1","2","1","4","1","590521239097835520","李","145","","","","","","","","","","","","","","","","","","","","","","","","","","","","","","feedback_test","","","","","","","","","",""
"764","","j","psychophysics","85","367566","0.0-7.0-0.0-1.0-0.0-0.38","4","4","4","4","4","4","4","3","4","4","5","5","5","4","5","5","5","5","5","5","1","1","1","1","1","1","1","1","1","0","1","0","0","0","0","0","0","0","0","0","0","1","0","1","5","1","1","1","1","1","2","1","4","1","590521239097835520","李","145","","","","match","","","","","","","","","","","","","","key","j","8.334152380952478","853.3333333333334","476","j","true","match","img/square.png","方形","方形","ALT1_1","prac_ALT1_1","","","","","","","","","",""
"null","<span style='color:GreenYellow; font-size: 70px;'>正确! </span>","null","html-keyboard-response","86","368073","0.0-7.0-0.0-1.0-0.0-1.38","4","4","4","4","4","4","4","3","4","4","5","5","5","4","5","5","5","5","5","5","1","1","1","1","1","1","1","1","1","0","1","0","0","0","0","0","0","0","0","0","0","1","0","1","5","1","1","1","1","1","2","1","4","1","590521239097835520","李","145","","","","","","","","","","","","","","","","","","","","","","","","","","","","","","feedback_test","","","","","","","","","",""
"716","","f","psychophysics","87","369790","0.0-7.0-0.0-1.0-0.0-0.39","4","4","4","4","4","4","4","3","4","4","5","5","5","4","5","5","5","5","5","5","1","1","1","1","1","1","1","1","1","0","1","0","0","0","0","0","0","0","0","0","0","1","0","1","5","1","1","1","1","1","2","1","4","1","590521239097835520","李","145","","","","nonmatch","","","","","","","","","","","","","","key","f","8.332600000000093","853.3333333333334","476","f","true","nonmatch","img/ellipse.png","方形","椭圆","ALT1_1","prac_ALT1_1","","","","","","","","","",""
"null","<span style='color:GreenYellow; font-size: 70px;'>正确! </span>","null","html-keyboard-response","88","370297","0.0-7.0-0.0-1.0-0.0-1.39","4","4","4","4","4","4","4","3","4","4","5","5","5","4","5","5","5","5","5","5","1","1","1","1","1","1","1","1","1","0","1","0","0","0","0","0","0","0","0","0","0","1","0","1","5","1","1","1","1","1","2","1","4","1","590521239097835520","李","145","","","","","","","","","","","","","","","","","","","","","","","","","","","","","","feedback_test","","","","","","","","","",""
"660","","f","psychophysics","89","371958","0.0-7.0-0.0-1.0-0.0-0.40","4","4","4","4","4","4","4","3","4","4","5","5","5","4","5","5","5","5","5","5","1","1","1","1","1","1","1","1","1","0","1","0","0","0","0","0","0","0","0","0","0","1","0","1","5","1","1","1","1","1","2","1","4","1","590521239097835520","李","145","","","","nonmatch","","","","","","","","","","","","","","key","f","8.332646464646471","853.3333333333334","476","f","true","nonmatch","img/trapezoid.png","椭圆","梯形","ALT1_1","prac_ALT1_1","","","","","","","","","",""
"null","<span style='color:GreenYellow; font-size: 70px;'>正确! </span>","null","html-keyboard-response","90","372466","0.0-7.0-0.0-1.0-0.0-1.40","4","4","4","4","4","4","4","3","4","4","5","5","5","4","5","5","5","5","5","5","1","1","1","1","1","1","1","1","1","0","1","0","0","0","0","0","0","0","0","0","0","1","0","1","5","1","1","1","1","1","2","1","4","1","590521239097835520","李","145","","","","","","","","","","","","","","","","","","","","","","","","","","","","","","feedback_test","","","","","","","","","",""
"739","","f","psychophysics","91","374206","0.0-7.0-0.0-1.0-0.0-0.41","4","4","4","4","4","4","4","3","4","4","5","5","5","4","5","5","5","5","5","5","1","1","1","1","1","1","1","1","1","0","1","0","0","0","0","0","0","0","0","0","0","1","0","1","5","1","1","1","1","1","2","1","4","1","590521239097835520","李","145","","","","nonmatch","","","","","","","","","","","","","","key","f","8.333454106280305","853.3333333333334","476","f","true","nonmatch","img/hexagon.png","方形","六边","ALT1_1","prac_ALT1_1","","","","","","","","","",""
"null","<span style='color:GreenYellow; font-size: 70px;'>正确! </span>","null","html-keyboard-response","92","374727","0.0-7.0-0.0-1.0-0.0-1.41","4","4","4","4","4","4","4","3","4","4","5","5","5","4","5","5","5","5","5","5","1","1","1","1","1","1","1","1","1","0","1","0","0","0","0","0","0","0","0","0","0","1","0","1","5","1","1","1","1","1","2","1","4","1","590521239097835520","李","145","","","","","","","","","","","","","","","","","","","","","","","","","","","","","","feedback_test","","","","","","","","","",""
"718","","f","psychophysics","93","376446","0.0-7.0-0.0-1.0-0.0-0.42","4","4","4","4","4","4","4","3","4","4","5","5","5","4","5","5","5","5","5","5","1","1","1","1","1","1","1","1","1","0","1","0","0","0","0","0","0","0","0","0","0","1","0","1","5","1","1","1","1","1","2","1","4","1","590521239097835520","李","145","","","","nonmatch","","","","","","","","","","","","","","key","f","8.334580487804772","853.3333333333334","476","f","true","nonmatch","img/ellipse.png","六边","椭圆","ALT1_1","prac_ALT1_1","","","","","","","","","",""
"null","<span style='color:GreenYellow; font-size: 70px;'>正确! </span>","null","html-keyboard-response","94","376953","0.0-7.0-0.0-1.0-0.0-1.42","4","4","4","4","4","4","4","3","4","4","5","5","5","4","5","5","5","5","5","5","1","1","1","1","1","1","1","1","1","0","1","0","0","0","0","0","0","0","0","0","0","1","0","1","5","1","1","1","1","1","2","1","4","1","590521239097835520","李","145","","","","","","","","","","","","","","","","","","","","","","","","","","","","","","feedback_test","","","","","","","","","",""
"940","","j","psychophysics","95","378894","0.0-7.0-0.0-1.0-0.0-0.43","4","4","4","4","4","4","4","3","4","4","5","5","5","4","5","5","5","5","5","5","1","1","1","1","1","1","1","1","1","0","1","0","0","0","0","0","0","0","0","0","0","1","0","1","5","1","1","1","1","1","2","1","4","1","590521239097835520","李","145","","","","match","","","","","","","","","","","","","","key","j","8.334298701298692","853.3333333333334","476","j","true","match","img/trapezoid.png","梯形","梯形","ALT1_1","prac_ALT1_1","","","","","","","","","",""
"null","<span style='color:GreenYellow; font-size: 70px;'>正确! </span>","null","html-keyboard-response","96","379401","0.0-7.0-0.0-1.0-0.0-1.43","4","4","4","4","4","4","4","3","4","4","5","5","5","4","5","5","5","5","5","5","1","1","1","1","1","1","1","1","1","0","1","0","0","0","0","0","0","0","0","0","0","1","0","1","5","1","1","1","1","1","2","1","4","1","590521239097835520","李","145","","","","","","","","","","","","","","","","","","","","","","","","","","","","","","feedback_test","","","","","","","","","",""
"740","","f","psychophysics","97","381143","0.0-7.0-0.0-1.0-0.0-0.44","4","4","4","4","4","4","4","3","4","4","5","5","5","4","5","5","5","5","5","5","1","1","1","1","1","1","1","1","1","0","1","0","0","0","0","0","0","0","0","0","0","1","0","1","5","1","1","1","1","1","2","1","4","1","590521239097835520","李","145","","","","nonmatch","","","","","","","","","","","","","","key","f","8.334985507246397","853.3333333333334","476","f","true","nonmatch","img/trapezoid.png","方形","梯形","ALT1_1","prac_ALT1_1","","","","","","","","","",""
"null","<span style='color:GreenYellow; font-size: 70px;'>正确! </span>","null","html-keyboard-response","98","381650","0.0-7.0-0.0-1.0-0.0-1.44","4","4","4","4","4","4","4","3","4","4","5","5","5","4","5","5","5","5","5","5","1","1","1","1","1","1","1","1","1","0","1","0","0","0","0","0","0","0","0","0","0","1","0","1","5","1","1","1","1","1","2","1","4","1","590521239097835520","李","145","","","","","","","","","","","","","","","","","","","","","","","","","","","","","","feedback_test","","","","","","","","","",""
"843","","j","psychophysics","99","383494","0.0-7.0-0.0-1.0-0.0-0.45","4","4","4","4","4","4","4","3","4","4","5","5","5","4","5","5","5","5","5","5","1","1","1","1","1","1","1","1","1","0","1","0","0","0","0","0","0","0","0","0","0","1","0","1","5","1","1","1","1","1","2","1","4","1","590521239097835520","李","145","","","","match","","","","","","","","","","","","","","key","j","8.334799999999813","853.3333333333334","476","j","true","match","img/hexagon.png","六边","六边","ALT1_1","prac_ALT1_1","","","","","","","","","",""
"null","<span style='color:GreenYellow; font-size: 70px;'>正确! </span>","null","html-keyboard-response","100","384002","0.0-7.0-0.0-1.0-0.0-1.45","4","4","4","4","4","4","4","3","4","4","5","5","5","4","5","5","5","5","5","5","1","1","1","1","1","1","1","1","1","0","1","0","0","0","0","0","0","0","0","0","0","1","0","1","5","1","1","1","1","1","2","1","4","1","590521239097835520","李","145","","","","","","","","","","","","","","","","","","","","","","","","","","","","","","feedback_test","","","","","","","","","",""
"587","","f","psychophysics","101","385590","0.0-7.0-0.0-1.0-0.0-0.46","4","4","4","4","4","4","4","3","4","4","5","5","5","4","5","5","5","5","5","5","1","1","1","1","1","1","1","1","1","0","1","0","0","0","0","0","0","0","0","0","0","1","0","1","5","1","1","1","1","1","2","1","4","1","590521239097835520","李","145","","","","nonmatch","","","","","","","","","","","","","","key","f","8.333068783068844","853.3333333333334","476","f","true","nonmatch","img/hexagon.png","椭圆","六边","ALT1_1","prac_ALT1_1","","","","","","","","","",""
"null","<span style='color:GreenYellow; font-size: 70px;'>正确! </span>","null","html-keyboard-response","102","386097","0.0-7.0-0.0-1.0-0.0-1.46","4","4","4","4","4","4","4","3","4","4","5","5","5","4","5","5","5","5","5","5","1","1","1","1","1","1","1","1","1","0","1","0","0","0","0","0","0","0","0","0","0","1","0","1","5","1","1","1","1","1","2","1","4","1","590521239097835520","李","145","","","","","","","","","","","","","","","","","","","","","","","","","","","","","","feedback_test","","","","","","","","","",""
"540","","j","psychophysics","103","387638","0.0-7.0-0.0-1.0-0.0-0.47","4","4","4","4","4","4","4","3","4","4","5","5","5","4","5","5","5","5","5","5","1","1","1","1","1","1","1","1","1","0","1","0","0","0","0","0","0","0","0","0","0","1","0","1","5","1","1","1","1","1","2","1","4","1","590521239097835520","李","145","","","","match","","","","","","","","","","","","","","key","j","8.335625000000025","853.3333333333334","476","j","true","match","img/ellipse.png","椭圆","椭圆","ALT1_1","prac_ALT1_1","","","","","","","","","",""
"null","<span style='color:GreenYellow; font-size: 70px;'>正确! </span>","null","html-keyboard-response","104","388145","0.0-7.0-0.0-1.0-0.0-1.47","4","4","4","4","4","4","4","3","4","4","5","5","5","4","5","5","5","5","5","5","1","1","1","1","1","1","1","1","1","0","1","0","0","0","0","0","0","0","0","0","0","1","0","1","5","1","1","1","1","1","2","1","4","1","590521239097835520","李","145","","","","","","","","","","","","","","","","","","","","","","","","","","","","","","feedback_test","","","","","","","","","",""
"16636","<style>.context{color:white; font-size: 35px; line-height:40px}</style>                            <div><p class='context'>您正确回答了94% 的试次。</p><p class='context'>您的平均反应时为677毫秒。</p><p class='context'>恭喜您完成练习。按空格键进入正式实验。</p><p class='footer' style='font-size: 35px; line-height:40px;'>请在进入正式实验之前将您的<span style='color: lightgreen;'>食指</span>放在电脑键盘的相应键位上进行按键。</p>"," ","html-keyboard-response","105","404782","0.0-7.0-0.0-2.0","4","4","4","4","4","4","4","3","4","4","5","5","5","4","5","5","5","5","5","5","1","1","1","1","1","1","1","1","1","0","1","0","0","0","0","0","0","0","0","0","0","1","0","1","5","1","1","1","1","1","2","1","4","1","590521239097835520","李","145","","","","","","","","","","","","","","","","","","","","","","","","","","","","","","","","","","","","","","","",""
"943","
    <p style='color: white; font-size: 22px'>请您将手指放在按键上，准备进入正式的匹配任务。</p>
    <p> <div style = ""color: green""><按空格键进入下一阶段的匹配任务></div></p>
    "," ","html-keyboard-response","106","405726","0.0-7.0-0.0-3.0","4","4","4","4","4","4","4","3","4","4","5","5","5","4","5","5","5","5","5","5","1","1","1","1","1","1","1","1","1","0","1","0","0","0","0","0","0","0","0","0","0","1","0","1","5","1","1","1","1","1","2","1","4","1","590521239097835520","李","145","","","","","","","","","","","","","","","","","","","","","","","","","","","","","","","","","","","","","","","",""
"694","","f","psychophysics","107","407422","0.0-7.0-0.0-4.0-0.0-0.0","4","4","4","4","4","4","4","3","4","4","5","5","5","4","5","5","5","5","5","5","1","1","1","1","1","1","1","1","1","0","1","0","0","0","0","0","0","0","0","0","0","1","0","1","5","1","1","1","1","1","2","1","4","1","590521239097835520","李","145","","","","nonmatch","","","","","","","","","","","","","","key","f","8.395750000000117","853.3333333333334","476","f","true","nonmatch","img/hexagon.png","椭圆","六边","ALT1","formal_ALT1_1","","","","","","","","","",""
"null","<span style='color:GreenYellow; font-size: 70px;'>正确! </span>","null","html-keyboard-response","108","407929","0.0-7.0-0.0-4.0-0.0-1.0","4","4","4","4","4","4","4","3","4","4","5","5","5","4","5","5","5","5","5","5","1","1","1","1","1","1","1","1","1","0","1","0","0","0","0","0","0","0","0","0","0","1","0","1","5","1","1","1","1","1","2","1","4","1","590521239097835520","李","145","","","","","","","","","","","","","","","","","","","","","","","","","","","","","","feedback_test","","","","","","","","","",""
"684","","f","psychophysics","109","409614","0.0-7.0-0.0-4.0-0.0-0.1","4","4","4","4","4","4","4","3","4","4","5","5","5","4","5","5","5","5","5","5","1","1","1","1","1","1","1","1","1","0","1","0","0","0","0","0","0","0","0","0","0","1","0","1","5","1","1","1","1","1","2","1","4","1","590521239097835520","李","145","","","","nonmatch","","","","","","","","","","","","","","key","f","8.333353233830922","853.3333333333334","476","f","true","nonmatch","img/hexagon.png","梯形","六边","ALT1","formal_ALT1_1","","","","","","","","","",""
"null","<span style='color:GreenYellow; font-size: 70px;'>正确! </span>","null","html-keyboard-response","110","410121","0.0-7.0-0.0-4.0-0.0-1.1","4","4","4","4","4","4","4","3","4","4","5","5","5","4","5","5","5","5","5","5","1","1","1","1","1","1","1","1","1","0","1","0","0","0","0","0","0","0","0","0","0","1","0","1","5","1","1","1","1","1","2","1","4","1","590521239097835520","李","145","","","","","","","","","","","","","","","","","","","","","","","","","","","","","","feedback_test","","","","","","","","","",""
"596","","f","psychophysics","111","411718","0.0-7.0-0.0-4.0-0.0-0.2","4","4","4","4","4","4","4","3","4","4","5","5","5","4","5","5","5","5","5","5","1","1","1","1","1","1","1","1","1","0","1","0","0","0","0","0","0","0","0","0","0","1","0","1","5","1","1","1","1","1","2","1","4","1","590521239097835520","李","145","","","","nonmatch","","","","","","","","","","","","","","key","f","8.335278947368312","853.3333333333334","476","f","true","nonmatch","img/square.png","椭圆","方形","ALT1","formal_ALT1_1","","","","","","","","","",""
"null","<span style='color:GreenYellow; font-size: 70px;'>正确! </span>","null","html-keyboard-response","112","412225","0.0-7.0-0.0-4.0-0.0-1.2","4","4","4","4","4","4","4","3","4","4","5","5","5","4","5","5","5","5","5","5","1","1","1","1","1","1","1","1","1","0","1","0","0","0","0","0","0","0","0","0","0","1","0","1","5","1","1","1","1","1","2","1","4","1","590521239097835520","李","145","","","","","","","","","","","","","","","","","","","","","","","","","","","","","","feedback_test","","","","","","","","","",""
"572","","j","psychophysics","113","413798","0.0-7.0-0.0-4.0-0.0-0.3","4","4","4","4","4","4","4","3","4","4","5","5","5","4","5","5","5","5","5","5","1","1","1","1","1","1","1","1","1","0","1","0","0","0","0","0","0","0","0","0","0","1","0","1","5","1","1","1","1","1","2","1","4","1","590521239097835520","李","145","","","","match","","","","","","","","","","","","","","key","j","8.334732620321018","853.3333333333334","476","j","true","match","img/trapezoid.png","梯形","梯形","ALT1","formal_ALT1_1","","","","","","","","","",""
"null","<span style='color:GreenYellow; font-size: 70px;'>正确! </span>","null","html-keyboard-response","114","414304","0.0-7.0-0.0-4.0-0.0-1.3","4","4","4","4","4","4","4","3","4","4","5","5","5","4","5","5","5","5","5","5","1","1","1","1","1","1","1","1","1","0","1","0","0","0","0","0","0","0","0","0","0","1","0","1","5","1","1","1","1","1","2","1","4","1","590521239097835520","李","145","","","","","","","","","","","","","","","","","","","","","","","","","","","","","","feedback_test","","","","","","","","","",""
"660","","f","psychophysics","115","415966","0.0-7.0-0.0-4.0-0.0-0.4","4","4","4","4","4","4","4","3","4","4","5","5","5","4","5","5","5","5","5","5","1","1","1","1","1","1","1","1","1","0","1","0","0","0","0","0","0","0","0","0","0","1","0","1","5","1","1","1","1","1","2","1","4","1","590521239097835520","李","145","","","","nonmatch","","","","","","","","","","","","","","key","f","8.37699492385807","853.3333333333334","476","f","true","nonmatch","img/square.png","六边","方形","ALT1","formal_ALT1_1","","","","","","","","","",""
"null","<span style='color:GreenYellow; font-size: 70px;'>正确! </span>","null","html-keyboard-response","116","416473","0.0-7.0-0.0-4.0-0.0-1.4","4","4","4","4","4","4","4","3","4","4","5","5","5","4","5","5","5","5","5","5","1","1","1","1","1","1","1","1","1","0","1","0","0","0","0","0","0","0","0","0","0","1","0","1","5","1","1","1","1","1","2","1","4","1","590521239097835520","李","145","","","","","","","","","","","","","","","","","","","","","","","","","","","","","","feedback_test","","","","","","","","","",""
"677","","j","psychophysics","117","418151","0.0-7.0-0.0-4.0-0.0-0.5","4","4","4","4","4","4","4","3","4","4","5","5","5","4","5","5","5","5","5","5","1","1","1","1","1","1","1","1","1","0","1","0","0","0","0","0","0","0","0","0","0","1","0","1","5","1","1","1","1","1","2","1","4","1","590521239097835520","李","145","","","","match","","","","","","","","","","","","","","key","j","8.332290000000212","853.3333333333334","476","f","false","nonmatch","img/ellipse.png","梯形","椭圆","ALT1","formal_ALT1_1","","","","","","","","","",""
"null","<span style='color:red; font-size: 70px;'>错误! </span>","null","html-keyboard-response","118","418658","0.0-7.0-0.0-4.0-0.0-1.5","4","4","4","4","4","4","4","3","4","4","5","5","5","4","5","5","5","5","5","5","1","1","1","1","1","1","1","1","1","0","1","0","0","0","0","0","0","0","0","0","0","1","0","1","5","1","1","1","1","1","2","1","4","1","590521239097835520","李","145","","","","","","","","","","","","","","","","","","","","","","","","","","","","","","feedback_test","","","","","","","","","",""
"596","","j","psychophysics","119","420254","0.0-7.0-0.0-4.0-0.0-0.6","4","4","4","4","4","4","4","3","4","4","5","5","5","4","5","5","5","5","5","5","1","1","1","1","1","1","1","1","1","0","1","0","0","0","0","0","0","0","0","0","0","1","0","1","5","1","1","1","1","1","2","1","4","1","590521239097835520","李","145","","","","match","","","","","","","","","","","","","","key","j","8.332031746031827","853.3333333333334","476","j","true","match","img/hexagon.png","六边","六边","ALT1","formal_ALT1_1","","","","","","","","","",""
"null","<span style='color:GreenYellow; font-size: 70px;'>正确! </span>","null","html-keyboard-response","120","420761","0.0-7.0-0.0-4.0-0.0-1.6","4","4","4","4","4","4","4","3","4","4","5","5","5","4","5","5","5","5","5","5","1","1","1","1","1","1","1","1","1","0","1","0","0","0","0","0","0","0","0","0","0","1","0","1","5","1","1","1","1","1","2","1","4","1","590521239097835520","李","145","","","","","","","","","","","","","","","","","","","","","","","","","","","","","","feedback_test","","","","","","","","","",""
"780","","f","psychophysics","121","422542","0.0-7.0-0.0-4.0-0.0-0.7","4","4","4","4","4","4","4","3","4","4","5","5","5","4","5","5","5","5","5","5","1","1","1","1","1","1","1","1","1","0","1","0","0","0","0","0","0","0","0","0","0","1","0","1","5","1","1","1","1","1","2","1","4","1","590521239097835520","李","145","","","","nonmatch","","","","","","","","","","","","","","key","f","8.334278301886922","853.3333333333334","476","f","true","nonmatch","img/trapezoid.png","方形","梯形","ALT1","formal_ALT1_1","","","","","","","","","",""
"null","<span style='color:GreenYellow; font-size: 70px;'>正确! </span>","null","html-keyboard-response","122","423049","0.0-7.0-0.0-4.0-0.0-1.7","4","4","4","4","4","4","4","3","4","4","5","5","5","4","5","5","5","5","5","5","1","1","1","1","1","1","1","1","1","0","1","0","0","0","0","0","0","0","0","0","0","1","0","1","5","1","1","1","1","1","2","1","4","1","590521239097835520","李","145","","","","","","","","","","","","","","","","","","","","","","","","","","","","","","feedback_test","","","","","","","","","",""
"612","","f","psychophysics","123","424662","0.0-7.0-0.0-4.0-0.0-0.8","4","4","4","4","4","4","4","3","4","4","5","5","5","4","5","5","5","5","5","5","1","1","1","1","1","1","1","1","1","0","1","0","0","0","0","0","0","0","0","0","0","1","0","1","5","1","1","1","1","1","2","1","4","1","590521239097835520","李","145","","","","nonmatch","","","","","","","","","","","","","","key","f","8.332770833333294","853.3333333333334","476","f","true","nonmatch","img/ellipse.png","方形","椭圆","ALT1","formal_ALT1_1","","","","","","","","","",""
"null","<span style='color:GreenYellow; font-size: 70px;'>正确! </span>","null","html-keyboard-response","124","425169","0.0-7.0-0.0-4.0-0.0-1.8","4","4","4","4","4","4","4","3","4","4","5","5","5","4","5","5","5","5","5","5","1","1","1","1","1","1","1","1","1","0","1","0","0","0","0","0","0","0","0","0","0","1","0","1","5","1","1","1","1","1","2","1","4","1","590521239097835520","李","145","","","","","","","","","","","","","","","","","","","","","","","","","","","","","","feedback_test","","","","","","","","","",""
"877","","j","psychophysics","125","427046","0.0-7.0-0.0-4.0-0.0-0.9","4","4","4","4","4","4","4","3","4","4","5","5","5","4","5","5","5","5","5","5","1","1","1","1","1","1","1","1","1","0","1","0","0","0","0","0","0","0","0","0","0","1","0","1","5","1","1","1","1","1","2","1","4","1","590521239097835520","李","145","","","","match","","","","","","","","","","","","","","key","j","8.332941964285835","853.3333333333334","476","j","true","match","img/trapezoid.png","梯形","梯形","ALT1","formal_ALT1_1","","","","","","","","","",""
"null","<span style='color:GreenYellow; font-size: 70px;'>正确! </span>","null","html-keyboard-response","126","427554","0.0-7.0-0.0-4.0-0.0-1.9","4","4","4","4","4","4","4","3","4","4","5","5","5","4","5","5","5","5","5","5","1","1","1","1","1","1","1","1","1","0","1","0","0","0","0","0","0","0","0","0","0","1","0","1","5","1","1","1","1","1","2","1","4","1","590521239097835520","李","145","","","","","","","","","","","","","","","","","","","","","","","","","","","","","","feedback_test","","","","","","","","","",""
"956","","j","psychophysics","127","429510","0.0-7.0-0.0-4.0-0.0-0.10","4","4","4","4","4","4","4","3","4","4","5","5","5","4","5","5","5","5","5","5","1","1","1","1","1","1","1","1","1","0","1","0","0","0","0","0","0","0","0","0","0","1","0","1","5","1","1","1","1","1","2","1","4","1","590521239097835520","李","145","","","","match","","","","","","","","","","","","","","key","j","8.333489270386428","853.3333333333334","476","j","true","match","img/ellipse.png","椭圆","椭圆","ALT1","formal_ALT1_1","","","","","","","","","",""
"null","<span style='color:GreenYellow; font-size: 70px;'>正确! </span>","null","html-keyboard-response","128","430016","0.0-7.0-0.0-4.0-0.0-1.10","4","4","4","4","4","4","4","3","4","4","5","5","5","4","5","5","5","5","5","5","1","1","1","1","1","1","1","1","1","0","1","0","0","0","0","0","0","0","0","0","0","1","0","1","5","1","1","1","1","1","2","1","4","1","590521239097835520","李","145","","","","","","","","","","","","","","","","","","","","","","","","","","","","","","feedback_test","","","","","","","","","",""
"708","","f","psychophysics","129","431726","0.0-7.0-0.0-4.0-0.0-0.11","4","4","4","4","4","4","4","3","4","4","5","5","5","4","5","5","5","5","5","5","1","1","1","1","1","1","1","1","1","0","1","0","0","0","0","0","0","0","0","0","0","1","0","1","5","1","1","1","1","1","2","1","4","1","590521239097835520","李","145","","","","nonmatch","","","","","","","","","","","","","","key","f","8.334384236453225","853.3333333333334","476","f","true","nonmatch","img/trapezoid.png","六边","梯形","ALT1","formal_ALT1_1","","","","","","","","","",""
"null","<span style='color:GreenYellow; font-size: 70px;'>正确! </span>","null","html-keyboard-response","130","432233","0.0-7.0-0.0-4.0-0.0-1.11","4","4","4","4","4","4","4","3","4","4","5","5","5","4","5","5","5","5","5","5","1","1","1","1","1","1","1","1","1","0","1","0","0","0","0","0","0","0","0","0","0","1","0","1","5","1","1","1","1","1","2","1","4","1","590521239097835520","李","145","","","","","","","","","","","","","","","","","","","","","","","","","","","","","","feedback_test","","","","","","","","","",""
"612","","j","psychophysics","131","433846","0.0-7.0-0.0-4.0-0.0-0.12","4","4","4","4","4","4","4","3","4","4","5","5","5","4","5","5","5","5","5","5","1","1","1","1","1","1","1","1","1","0","1","0","0","0","0","0","0","0","0","0","0","1","0","1","5","1","1","1","1","1","2","1","4","1","590521239097835520","李","145","","","","match","","","","","","","","","","","","","","key","j","8.333505208333312","853.3333333333334","476","j","true","match","img/square.png","方形","方形","ALT1","formal_ALT1_1","","","","","","","","","",""
"null","<span style='color:GreenYellow; font-size: 70px;'>正确! </span>","null","html-keyboard-response","132","434354","0.0-7.0-0.0-4.0-0.0-1.12","4","4","4","4","4","4","4","3","4","4","5","5","5","4","5","5","5","5","5","5","1","1","1","1","1","1","1","1","1","0","1","0","0","0","0","0","0","0","0","0","0","1","0","1","5","1","1","1","1","1","2","1","4","1","590521239097835520","李","145","","","","","","","","","","","","","","","","","","","","","","","","","","","","","","feedback_test","","","","","","","","","",""
"539","","j","psychophysics","133","435894","0.0-7.0-0.0-4.0-0.0-0.13","4","4","4","4","4","4","4","3","4","4","5","5","5","4","5","5","5","5","5","5","1","1","1","1","1","1","1","1","1","0","1","0","0","0","0","0","0","0","0","0","0","1","0","1","5","1","1","1","1","1","2","1","4","1","590521239097835520","李","145","","","","match","","","","","","","","","","","","","","key","j","8.333857923497375","853.3333333333334","476","j","true","match","img/hexagon.png","六边","六边","ALT1","formal_ALT1_1","","","","","","","","","",""
"null","<span style='color:GreenYellow; font-size: 70px;'>正确! </span>","null","html-keyboard-response","134","436396","0.0-7.0-0.0-4.0-0.0-1.13","4","4","4","4","4","4","4","3","4","4","5","5","5","4","5","5","5","5","5","5","1","1","1","1","1","1","1","1","1","0","1","0","0","0","0","0","0","0","0","0","0","1","0","1","5","1","1","1","1","1","2","1","4","1","590521239097835520","李","145","","","","","","","","","","","","","","","","","","","","","","","","","","","","","","feedback_test","","","","","","","","","",""
"673","","f","psychophysics","135","438070","0.0-7.0-0.0-4.0-0.0-0.14","4","4","4","4","4","4","4","3","4","4","5","5","5","4","5","5","5","5","5","5","1","1","1","1","1","1","1","1","1","0","1","0","0","0","0","0","0","0","0","0","0","1","0","1","5","1","1","1","1","1","2","1","4","1","590521239097835520","李","145","","","","nonmatch","","","","","","","","","","","","","","key","f","8.332713567839301","853.3333333333334","476","f","true","nonmatch","img/hexagon.png","方形","六边","ALT1","formal_ALT1_1","","","","","","","","","",""
"null","<span style='color:GreenYellow; font-size: 70px;'>正确! </span>","null","html-keyboard-response","136","438578","0.0-7.0-0.0-4.0-0.0-1.14","4","4","4","4","4","4","4","3","4","4","5","5","5","4","5","5","5","5","5","5","1","1","1","1","1","1","1","1","1","0","1","0","0","0","0","0","0","0","0","0","0","1","0","1","5","1","1","1","1","1","2","1","4","1","590521239097835520","李","145","","","","","","","","","","","","","","","","","","","","","","","","","","","","","","feedback_test","","","","","","","","","",""
"619","","f","psychophysics","137","440198","0.0-7.0-0.0-4.0-0.0-0.15","4","4","4","4","4","4","4","3","4","4","5","5","5","4","5","5","5","5","5","5","1","1","1","1","1","1","1","1","1","0","1","0","0","0","0","0","0","0","0","0","0","1","0","1","5","1","1","1","1","1","2","1","4","1","590521239097835520","李","145","","","","nonmatch","","","","","","","","","","","","","","key","f","8.334860103626777","853.3333333333334","476","f","true","nonmatch","img/trapezoid.png","椭圆","梯形","ALT1","formal_ALT1_1","","","","","","","","","",""
"null","<span style='color:GreenYellow; font-size: 70px;'>正确! </span>","null","html-keyboard-response","138","440705","0.0-7.0-0.0-4.0-0.0-1.15","4","4","4","4","4","4","4","3","4","4","5","5","5","4","5","5","5","5","5","5","1","1","1","1","1","1","1","1","1","0","1","0","0","0","0","0","0","0","0","0","0","1","0","1","5","1","1","1","1","1","2","1","4","1","590521239097835520","李","145","","","","","","","","","","","","","","","","","","","","","","","","","","","","","","feedback_test","","","","","","","","","",""
"516","","j","psychophysics","139","442222","0.0-7.0-0.0-4.0-0.0-0.16","4","4","4","4","4","4","4","3","4","4","5","5","5","4","5","5","5","5","5","5","1","1","1","1","1","1","1","1","1","0","1","0","0","0","0","0","0","0","0","0","0","1","0","1","5","1","1","1","1","1","2","1","4","1","590521239097835520","李","145","","","","match","","","","","","","","","","","","","","key","j","8.33352777777796","853.3333333333334","476","j","true","match","img/hexagon.png","六边","六边","ALT1","formal_ALT1_1","","","","","","","","","",""
"null","<span style='color:GreenYellow; font-size: 70px;'>正确! </span>","null","html-keyboard-response","140","442730","0.0-7.0-0.0-4.0-0.0-1.16","4","4","4","4","4","4","4","3","4","4","5","5","5","4","5","5","5","5","5","5","1","1","1","1","1","1","1","1","1","0","1","0","0","0","0","0","0","0","0","0","0","1","0","1","5","1","1","1","1","1","2","1","4","1","590521239097835520","李","145","","","","","","","","","","","","","","","","","","","","","","","","","","","","","","feedback_test","","","","","","","","","",""
"523","","j","psychophysics","141","444254","0.0-7.0-0.0-4.0-0.0-0.17","4","4","4","4","4","4","4","3","4","4","5","5","5","4","5","5","5","5","5","5","1","1","1","1","1","1","1","1","1","0","1","0","0","0","0","0","0","0","0","0","0","1","0","1","5","1","1","1","1","1","2","1","4","1","590521239097835520","李","145","","","","match","","","","","","","","","","","","","","key","j","8.333878453038839","853.3333333333334","476","j","true","match","img/square.png","方形","方形","ALT1","formal_ALT1_1","","","","","","","","","",""
"null","<span style='color:GreenYellow; font-size: 70px;'>正确! </span>","null","html-keyboard-response","142","444761","0.0-7.0-0.0-4.0-0.0-1.17","4","4","4","4","4","4","4","3","4","4","5","5","5","4","5","5","5","5","5","5","1","1","1","1","1","1","1","1","1","0","1","0","0","0","0","0","0","0","0","0","0","1","0","1","5","1","1","1","1","1","2","1","4","1","590521239097835520","李","145","","","","","","","","","","","","","","","","","","","","","","","","","","","","","","feedback_test","","","","","","","","","",""
"659","","j","psychophysics","143","446422","0.0-7.0-0.0-4.0-0.0-0.18","4","4","4","4","4","4","4","3","4","4","5","5","5","4","5","5","5","5","5","5","1","1","1","1","1","1","1","1","1","0","1","0","0","0","0","0","0","0","0","0","0","1","0","1","5","1","1","1","1","1","2","1","4","1","590521239097835520","李","145","","","","match","","","","","","","","","","","","","","key","j","8.332449494949554","853.3333333333334","476","j","true","match","img/ellipse.png","椭圆","椭圆","ALT1","formal_ALT1_1","","","","","","","","","",""
"null","<span style='color:GreenYellow; font-size: 70px;'>正确! </span>","null","html-keyboard-response","144","446929","0.0-7.0-0.0-4.0-0.0-1.18","4","4","4","4","4","4","4","3","4","4","5","5","5","4","5","5","5","5","5","5","1","1","1","1","1","1","1","1","1","0","1","0","0","0","0","0","0","0","0","0","0","1","0","1","5","1","1","1","1","1","2","1","4","1","590521239097835520","李","145","","","","","","","","","","","","","","","","","","","","","","","","","","","","","","feedback_test","","","","","","","","","",""
"1077","","j","psychophysics","145","449006","0.0-7.0-0.0-4.0-0.0-0.19","4","4","4","4","4","4","4","3","4","4","5","5","5","4","5","5","5","5","5","5","1","1","1","1","1","1","1","1","1","0","1","0","0","0","0","0","0","0","0","0","0","1","0","1","5","1","1","1","1","1","2","1","4","1","590521239097835520","李","145","","","","match","","","","","","","","","","","","","","key","j","8.334024193548341","853.3333333333334","476","j","true","match","img/square.png","方形","方形","ALT1","formal_ALT1_1","","","","","","","","","",""
"null","<span style='color:GreenYellow; font-size: 70px;'>正确! </span>","null","html-keyboard-response","146","449514","0.0-7.0-0.0-4.0-0.0-1.19","4","4","4","4","4","4","4","3","4","4","5","5","5","4","5","5","5","5","5","5","1","1","1","1","1","1","1","1","1","0","1","0","0","0","0","0","0","0","0","0","0","1","0","1","5","1","1","1","1","1","2","1","4","1","590521239097835520","李","145","","","","","","","","","","","","","","","","","","","","","","","","","","","","","","feedback_test","","","","","","","","","",""
"579","","j","psychophysics","147","451094","0.0-7.0-0.0-4.0-0.0-0.20","4","4","4","4","4","4","4","3","4","4","5","5","5","4","5","5","5","5","5","5","1","1","1","1","1","1","1","1","1","0","1","0","0","0","0","0","0","0","0","0","0","1","0","1","5","1","1","1","1","1","2","1","4","1","590521239097835520","李","145","","","","match","","","","","","","","","","","","","","key","j","8.33347340425547","853.3333333333334","476","j","true","match","img/trapezoid.png","梯形","梯形","ALT1","formal_ALT1_1","","","","","","","","","",""
"null","<span style='color:GreenYellow; font-size: 70px;'>正确! </span>","null","html-keyboard-response","148","451601","0.0-7.0-0.0-4.0-0.0-1.20","4","4","4","4","4","4","4","3","4","4","5","5","5","4","5","5","5","5","5","5","1","1","1","1","1","1","1","1","1","0","1","0","0","0","0","0","0","0","0","0","0","1","0","1","5","1","1","1","1","1","2","1","4","1","590521239097835520","李","145","","","","","","","","","","","","","","","","","","","","","","","","","","","","","","feedback_test","","","","","","","","","",""
"652","","f","psychophysics","149","453254","0.0-7.0-0.0-4.0-0.0-0.21","4","4","4","4","4","4","4","3","4","4","5","5","5","4","5","5","5","5","5","5","1","1","1","1","1","1","1","1","1","0","1","0","0","0","0","0","0","0","0","0","0","1","0","1","5","1","1","1","1","1","2","1","4","1","590521239097835520","李","145","","","","nonmatch","","","","","","","","","","","","","","key","f","8.335040609137188","853.3333333333334","476","f","true","nonmatch","img/ellipse.png","六边","椭圆","ALT1","formal_ALT1_1","","","","","","","","","",""
"null","<span style='color:GreenYellow; font-size: 70px;'>正确! </span>","null","html-keyboard-response","150","453761","0.0-7.0-0.0-4.0-0.0-1.21","4","4","4","4","4","4","4","3","4","4","5","5","5","4","5","5","5","5","5","5","1","1","1","1","1","1","1","1","1","0","1","0","0","0","0","0","0","0","0","0","0","1","0","1","5","1","1","1","1","1","2","1","4","1","590521239097835520","李","145","","","","","","","","","","","","","","","","","","","","","","","","","","","","","","feedback_test","","","","","","","","","",""
"628","","j","psychophysics","151","455390","0.0-7.0-0.0-4.0-0.0-0.22","4","4","4","4","4","4","4","3","4","4","5","5","5","4","5","5","5","5","5","5","1","1","1","1","1","1","1","1","1","0","1","0","0","0","0","0","0","0","0","0","0","1","0","1","5","1","1","1","1","1","2","1","4","1","590521239097835520","李","145","","","","match","","","","","","","","","","","","","","key","j","8.334118556700822","853.3333333333334","476","j","true","match","img/ellipse.png","椭圆","椭圆","ALT1","formal_ALT1_1","","","","","","","","","",""
"null","<span style='color:GreenYellow; font-size: 70px;'>正确! </span>","null","html-keyboard-response","152","455898","0.0-7.0-0.0-4.0-0.0-1.22","4","4","4","4","4","4","4","3","4","4","5","5","5","4","5","5","5","5","5","5","1","1","1","1","1","1","1","1","1","0","1","0","0","0","0","0","0","0","0","0","0","1","0","1","5","1","1","1","1","1","2","1","4","1","590521239097835520","李","145","","","","","","","","","","","","","","","","","","","","","","","","","","","","","","feedback_test","","","","","","","","","",""
"691","","f","psychophysics","153","457590","0.0-7.0-0.0-4.0-0.0-0.23","4","4","4","4","4","4","4","3","4","4","5","5","5","4","5","5","5","5","5","5","1","1","1","1","1","1","1","1","1","0","1","0","0","0","0","0","0","0","0","0","0","1","0","1","5","1","1","1","1","1","2","1","4","1","590521239097835520","李","145","","","","nonmatch","","","","","","","","","","","","","","key","f","8.331577114427846","853.3333333333334","476","f","true","nonmatch","img/square.png","梯形","方形","ALT1","formal_ALT1_1","","","","","","","","","",""
"null","<span style='color:GreenYellow; font-size: 70px;'>正确! </span>","null","html-keyboard-response","154","458096","0.0-7.0-0.0-4.0-0.0-1.23","4","4","4","4","4","4","4","3","4","4","5","5","5","4","5","5","5","5","5","5","1","1","1","1","1","1","1","1","1","0","1","0","0","0","0","0","0","0","0","0","0","1","0","1","5","1","1","1","1","1","2","1","4","1","590521239097835520","李","145","","","","","","","","","","","","","","","","","","","","","","","","","","","","","","feedback_test","","","","","","","","","",""
"604","","j","psychophysics","155","459702","0.0-7.0-0.0-4.0-0.0-0.24","4","4","4","4","4","4","4","3","4","4","5","5","5","4","5","5","5","5","5","5","1","1","1","1","1","1","1","1","1","0","1","0","0","0","0","0","0","0","0","0","0","1","0","1","5","1","1","1","1","1","2","1","4","1","590521239097835520","李","145","","","","match","","","","","","","","","","","","","","key","j","8.333114583333554","853.3333333333334","476","j","true","match","img/hexagon.png","六边","六边","ALT1","formal_ALT1_1","","","","","","","","","",""
"null","<span style='color:GreenYellow; font-size: 70px;'>正确! </span>","null","html-keyboard-response","156","460209","0.0-7.0-0.0-4.0-0.0-1.24","4","4","4","4","4","4","4","3","4","4","5","5","5","4","5","5","5","5","5","5","1","1","1","1","1","1","1","1","1","0","1","0","0","0","0","0","0","0","0","0","0","1","0","1","5","1","1","1","1","1","2","1","4","1","590521239097835520","李","145","","","","","","","","","","","","","","","","","","","","","","","","","","","","","","feedback_test","","","","","","","","","",""
"677","","f","psychophysics","157","461886","0.0-7.0-0.0-4.0-0.0-0.25","4","4","4","4","4","4","4","3","4","4","5","5","5","4","5","5","5","5","5","5","1","1","1","1","1","1","1","1","1","0","1","0","0","0","0","0","0","0","0","0","0","1","0","1","5","1","1","1","1","1","2","1","4","1","590521239097835520","李","145","","","","nonmatch","","","","","","","","","","","","","","key","f","8.33457000000024","853.3333333333334","476","f","true","nonmatch","img/ellipse.png","六边","椭圆","ALT1","formal_ALT1_1","","","","","","","","","",""
"null","<span style='color:GreenYellow; font-size: 70px;'>正确! </span>","null","html-keyboard-response","158","462394","0.0-7.0-0.0-4.0-0.0-1.25","4","4","4","4","4","4","4","3","4","4","5","5","5","4","5","5","5","5","5","5","1","1","1","1","1","1","1","1","1","0","1","0","0","0","0","0","0","0","0","0","0","1","0","1","5","1","1","1","1","1","2","1","4","1","590521239097835520","李","145","","","","","","","","","","","","","","","","","","","","","","","","","","","","","","feedback_test","","","","","","","","","",""
"563","","j","psychophysics","159","463958","0.0-7.0-0.0-4.0-0.0-0.26","4","4","4","4","4","4","4","3","4","4","5","5","5","4","5","5","5","5","5","5","1","1","1","1","1","1","1","1","1","0","1","0","0","0","0","0","0","0","0","0","0","1","0","1","5","1","1","1","1","1","2","1","4","1","590521239097835520","李","145","","","","match","","","","","","","","","","","","","","key","j","8.334370967741775","853.3333333333334","476","j","true","match","img/hexagon.png","六边","六边","ALT1","formal_ALT1_1","","","","","","","","","",""
"null","<span style='color:GreenYellow; font-size: 70px;'>正确! </span>","null","html-keyboard-response","160","464466","0.0-7.0-0.0-4.0-0.0-1.26","4","4","4","4","4","4","4","3","4","4","5","5","5","4","5","5","5","5","5","5","1","1","1","1","1","1","1","1","1","0","1","0","0","0","0","0","0","0","0","0","0","1","0","1","5","1","1","1","1","1","2","1","4","1","590521239097835520","李","145","","","","","","","","","","","","","","","","","","","","","","","","","","","","","","feedback_test","","","","","","","","","",""
"875","","f","psychophysics","161","466342","0.0-7.0-0.0-4.0-0.0-0.27","4","4","4","4","4","4","4","3","4","4","5","5","5","4","5","5","5","5","5","5","1","1","1","1","1","1","1","1","1","0","1","0","0","0","0","0","0","0","0","0","0","1","0","1","5","1","1","1","1","1","2","1","4","1","590521239097835520","李","145","","","","nonmatch","","","","","","","","","","","","","","key","f","8.33404484304919","853.3333333333334","476","f","true","nonmatch","img/hexagon.png","梯形","六边","ALT1","formal_ALT1_1","","","","","","","","","",""
"null","<span style='color:GreenYellow; font-size: 70px;'>正确! </span>","null","html-keyboard-response","162","466849","0.0-7.0-0.0-4.0-0.0-1.27","4","4","4","4","4","4","4","3","4","4","5","5","5","4","5","5","5","5","5","5","1","1","1","1","1","1","1","1","1","0","1","0","0","0","0","0","0","0","0","0","0","1","0","1","5","1","1","1","1","1","2","1","4","1","590521239097835520","李","145","","","","","","","","","","","","","","","","","","","","","","","","","","","","","","feedback_test","","","","","","","","","",""
"541","","j","psychophysics","163","468390","0.0-7.0-0.0-4.0-0.0-0.28","4","4","4","4","4","4","4","3","4","4","5","5","5","4","5","5","5","5","5","5","1","1","1","1","1","1","1","1","1","0","1","0","0","0","0","0","0","0","0","0","0","1","0","1","5","1","1","1","1","1","2","1","4","1","590521239097835520","李","145","","","","match","","","","","","","","","","","","","","key","j","8.332207650273194","853.3333333333334","476","j","true","match","img/square.png","方形","方形","ALT1","formal_ALT1_1","","","","","","","","","",""
"null","<span style='color:GreenYellow; font-size: 70px;'>正确! </span>","null","html-keyboard-response","164","468897","0.0-7.0-0.0-4.0-0.0-1.28","4","4","4","4","4","4","4","3","4","4","5","5","5","4","5","5","5","5","5","5","1","1","1","1","1","1","1","1","1","0","1","0","0","0","0","0","0","0","0","0","0","1","0","1","5","1","1","1","1","1","2","1","4","1","590521239097835520","李","145","","","","","","","","","","","","","","","","","","","","","","","","","","","","","","feedback_test","","","","","","","","","",""
"684","","f","psychophysics","165","470582","0.0-7.0-0.0-4.0-0.0-0.29","4","4","4","4","4","4","4","3","4","4","5","5","5","4","5","5","5","5","5","5","1","1","1","1","1","1","1","1","1","0","1","0","0","0","0","0","0","0","0","0","0","1","0","1","5","1","1","1","1","1","2","1","4","1","590521239097835520","李","145","","","","nonmatch","","","","","","","","","","","","","","key","f","8.332522388059699","853.3333333333334","476","f","true","nonmatch","img/trapezoid.png","方形","梯形","ALT1","formal_ALT1_1","","","","","","","","","",""
"null","<span style='color:GreenYellow; font-size: 70px;'>正确! </span>","null","html-keyboard-response","166","471089","0.0-7.0-0.0-4.0-0.0-1.29","4","4","4","4","4","4","4","3","4","4","5","5","5","4","5","5","5","5","5","5","1","1","1","1","1","1","1","1","1","0","1","0","0","0","0","0","0","0","0","0","0","1","0","1","5","1","1","1","1","1","2","1","4","1","590521239097835520","李","145","","","","","","","","","","","","","","","","","","","","","","","","","","","","","","feedback_test","","","","","","","","","",""
"700","","j","psychophysics","167","472789","0.0-7.0-0.0-4.0-0.0-0.30","4","4","4","4","4","4","4","3","4","4","5","5","5","4","5","5","5","5","5","5","1","1","1","1","1","1","1","1","1","0","1","0","0","0","0","0","0","0","0","0","0","1","0","1","5","1","1","1","1","1","2","1","4","1","590521239097835520","李","145","","","","match","","","","","","","","","","","","","","key","j","8.332349753694603","853.3333333333334","476","j","true","match","img/hexagon.png","六边","六边","ALT1","formal_ALT1_1","","","","","","","","","",""
"null","<span style='color:GreenYellow; font-size: 70px;'>正确! </span>","null","html-keyboard-response","168","473306","0.0-7.0-0.0-4.0-0.0-1.30","4","4","4","4","4","4","4","3","4","4","5","5","5","4","5","5","5","5","5","5","1","1","1","1","1","1","1","1","1","0","1","0","0","0","0","0","0","0","0","0","0","1","0","1","5","1","1","1","1","1","2","1","4","1","590521239097835520","李","145","","","","","","","","","","","","","","","","","","","","","","","","","","","","","","feedback_test","","","","","","","","","",""
"579","","j","psychophysics","169","474886","0.0-7.0-0.0-4.0-0.0-0.31","4","4","4","4","4","4","4","3","4","4","5","5","5","4","5","5","5","5","5","5","1","1","1","1","1","1","1","1","1","0","1","0","0","0","0","0","0","0","0","0","0","1","0","1","5","1","1","1","1","1","2","1","4","1","590521239097835520","李","145","","","","match","","","","","","","","","","","","","","key","j","8.331196808510713","853.3333333333334","476","j","true","match","img/ellipse.png","椭圆","椭圆","ALT1","formal_ALT1_1","","","","","","","","","",""
"null","<span style='color:GreenYellow; font-size: 70px;'>正确! </span>","null","html-keyboard-response","170","475392","0.0-7.0-0.0-4.0-0.0-1.31","4","4","4","4","4","4","4","3","4","4","5","5","5","4","5","5","5","5","5","5","1","1","1","1","1","1","1","1","1","0","1","0","0","0","0","0","0","0","0","0","0","1","0","1","5","1","1","1","1","1","2","1","4","1","590521239097835520","李","145","","","","","","","","","","","","","","","","","","","","","","","","","","","","","","feedback_test","","","","","","","","","",""
"469","","f","psychophysics","171","476862","0.0-7.0-0.0-4.0-0.0-0.32","4","4","4","4","4","4","4","3","4","4","5","5","5","4","5","5","5","5","5","5","1","1","1","1","1","1","1","1","1","0","1","0","0","0","0","0","0","0","0","0","0","1","0","1","5","1","1","1","1","1","2","1","4","1","590521239097835520","李","145","","","","nonmatch","","","","","","","","","","","","","","key","f","8.33250285714266","853.3333333333334","476","f","true","nonmatch","img/trapezoid.png","椭圆","梯形","ALT1","formal_ALT1_1","","","","","","","","","",""
"null","<span style='color:GreenYellow; font-size: 70px;'>正确! </span>","null","html-keyboard-response","172","477376","0.0-7.0-0.0-4.0-0.0-1.32","4","4","4","4","4","4","4","3","4","4","5","5","5","4","5","5","5","5","5","5","1","1","1","1","1","1","1","1","1","0","1","0","0","0","0","0","0","0","0","0","0","1","0","1","5","1","1","1","1","1","2","1","4","1","590521239097835520","李","145","","","","","","","","","","","","","","","","","","","","","","","","","","","","","","feedback_test","","","","","","","","","",""
"589","","f","psychophysics","173","478966","0.0-7.0-0.0-4.0-0.0-0.33","4","4","4","4","4","4","4","3","4","4","5","5","5","4","5","5","5","5","5","5","1","1","1","1","1","1","1","1","1","0","1","0","0","0","0","0","0","0","0","0","0","1","0","1","5","1","1","1","1","1","2","1","4","1","590521239097835520","李","145","","","","nonmatch","","","","","","","","","","","","","","key","f","8.331269841269767","853.3333333333334","476","f","true","nonmatch","img/trapezoid.png","六边","梯形","ALT1","formal_ALT1_1","","","","","","","","","",""
"null","<span style='color:GreenYellow; font-size: 70px;'>正确! </span>","null","html-keyboard-response","174","479473","0.0-7.0-0.0-4.0-0.0-1.33","4","4","4","4","4","4","4","3","4","4","5","5","5","4","5","5","5","5","5","5","1","1","1","1","1","1","1","1","1","0","1","0","0","0","0","0","0","0","0","0","0","1","0","1","5","1","1","1","1","1","2","1","4","1","590521239097835520","李","145","","","","","","","","","","","","","","","","","","","","","","","","","","","","","","feedback_test","","","","","","","","","",""
"589","","j","psychophysics","175","481062","0.0-7.0-0.0-4.0-0.0-0.34","4","4","4","4","4","4","4","3","4","4","5","5","5","4","5","5","5","5","5","5","1","1","1","1","1","1","1","1","1","0","1","0","0","0","0","0","0","0","0","0","0","1","0","1","5","1","1","1","1","1","2","1","4","1","590521239097835520","李","145","","","","match","","","","","","","","","","","","","","key","j","8.331592592592758","853.3333333333334","476","j","true","match","img/trapezoid.png","梯形","梯形","ALT1","formal_ALT1_1","","","","","","","","","",""
"null","<span style='color:GreenYellow; font-size: 70px;'>正确! </span>","null","html-keyboard-response","176","481569","0.0-7.0-0.0-4.0-0.0-1.34","4","4","4","4","4","4","4","3","4","4","5","5","5","4","5","5","5","5","5","5","1","1","1","1","1","1","1","1","1","0","1","0","0","0","0","0","0","0","0","0","0","1","0","1","5","1","1","1","1","1","2","1","4","1","590521239097835520","李","145","","","","","","","","","","","","","","","","","","","","","","","","","","","","","","feedback_test","","","","","","","","","",""
"700","","f","psychophysics","177","483270","0.0-7.0-0.0-4.0-0.0-0.35","4","4","4","4","4","4","4","3","4","4","5","5","5","4","5","5","5","5","5","5","1","1","1","1","1","1","1","1","1","0","1","0","0","0","0","0","0","0","0","0","0","1","0","1","5","1","1","1","1","1","2","1","4","1","590521239097835520","李","145","","","","nonmatch","","","","","","","","","","","","","","key","f","8.333648514851472","853.3333333333334","476","f","true","nonmatch","img/square.png","椭圆","方形","ALT1","formal_ALT1_1","","","","","","","","","",""
"null","<span style='color:GreenYellow; font-size: 70px;'>正确! </span>","null","html-keyboard-response","178","483777","0.0-7.0-0.0-4.0-0.0-1.35","4","4","4","4","4","4","4","3","4","4","5","5","5","4","5","5","5","5","5","5","1","1","1","1","1","1","1","1","1","0","1","0","0","0","0","0","0","0","0","0","0","1","0","1","5","1","1","1","1","1","2","1","4","1","590521239097835520","李","145","","","","","","","","","","","","","","","","","","","","","","","","","","","","","","feedback_test","","","","","","","","","",""
"563","","f","psychophysics","179","485342","0.0-7.0-0.0-4.0-0.0-0.36","4","4","4","4","4","4","4","3","4","4","5","5","5","4","5","5","5","5","5","5","1","1","1","1","1","1","1","1","1","0","1","0","0","0","0","0","0","0","0","0","0","1","0","1","5","1","1","1","1","1","2","1","4","1","590521239097835520","李","145","","","","nonmatch","","","","","","","","","","","","","","key","f","8.334956989247134","853.3333333333334","476","f","true","nonmatch","img/hexagon.png","椭圆","六边","ALT1","formal_ALT1_1","","","","","","","","","",""
"null","<span style='color:GreenYellow; font-size: 70px;'>正确! </span>","null","html-keyboard-response","180","485849","0.0-7.0-0.0-4.0-0.0-1.36","4","4","4","4","4","4","4","3","4","4","5","5","5","4","5","5","5","5","5","5","1","1","1","1","1","1","1","1","1","0","1","0","0","0","0","0","0","0","0","0","0","1","0","1","5","1","1","1","1","1","2","1","4","1","590521239097835520","李","145","","","","","","","","","","","","","","","","","","","","","","","","","","","","","","feedback_test","","","","","","","","","",""
"669","","j","psychophysics","181","487518","0.0-7.0-0.0-4.0-0.0-0.37","4","4","4","4","4","4","4","3","4","4","5","5","5","4","5","5","5","5","5","5","1","1","1","1","1","1","1","1","1","0","1","0","0","0","0","0","0","0","0","0","0","1","0","1","5","1","1","1","1","1","2","1","4","1","590521239097835520","李","145","","","","match","","","","","","","","","","","","","","key","j","8.334170854271356","853.3333333333334","476","j","true","match","img/trapezoid.png","梯形","梯形","ALT1","formal_ALT1_1","","","","","","","","","",""
"null","<span style='color:GreenYellow; font-size: 70px;'>正确! </span>","null","html-keyboard-response","182","488026","0.0-7.0-0.0-4.0-0.0-1.37","4","4","4","4","4","4","4","3","4","4","5","5","5","4","5","5","5","5","5","5","1","1","1","1","1","1","1","1","1","0","1","0","0","0","0","0","0","0","0","0","0","1","0","1","5","1","1","1","1","1","2","1","4","1","590521239097835520","李","145","","","","","","","","","","","","","","","","","","","","","","","","","","","","","","feedback_test","","","","","","","","","",""
