"rt","stimulus","response","trial_type","trial_index","time_elapsed","internal_node_id","ses_1","ses_2","ses_3","ses_4","ses_5","ses_6","ses_7","ses_8","ses_9","ses_10","coreself_1","coreself_2","coreself_3","coreself_4","coreself_5","coreself_6","coreself_7","coreself_8","coreself_9","coreself_10","SGPS_1","SGPS_2","SGPS_3","SGPS_4","SGPS_5","SGPS_6","SGPS_7","SGPS_8","SGPS_9","NPI1","NPI2","NPI3","NPI4","NPI5","NPI6","NPI7","NPI8","NPI9","NPI10","NPI11","NPI12","NPI13","NPI14","NPI15","hsns_1","hsns_2","hsns_3","hsns_4","hsns_5","hsns_6","hsns_7","hsns_8","hsns_9","hsns_10","subj_idx","friend_name","ParticipantID","value","success","user_agent","responses","item_order","radio_event_ids","radio_event_times","key_event_times","mouse_event_times","straightlining","zigzagging","honeypot","timeout","failed_images","failed_audio","failed_video","version_attrib2","version_target2","correct","IAT","screen_id","task_id","RT","condition","word","varname","summary","version_attrib","version_target","time_stamp","view_history","response_type","key_press","avg_frame_time","center_x","center_y","correct_response","identity","Image","question_order"
"79438","
   <p><div style = ""color: white;font-size:25px;"">您好，欢迎参加本次实验。</div> </p>
   <p><div style = ""color: white;font-size:25px;"">为充分保障您的权利，请确保您已经知晓并同意《参与实验同意书》以及《数据公开知情同意书》。</div></p>
   <p><div style = ""color: white;font-size:25px;"">如果您未见过上述内容，请咨询实验员。</div></p>
   <p><div style = ""color: white;font-size:25px;"">如果您选择继续实验，则表示您已经清楚两份知情同意书的内容并同意。</div></p>
   <p> <div style = ""color: green;font-size:25px;""><按空格键至下页></div> </p>
   "," ","html-keyboard-response","0","79440","0.0-0.0","2","2","2","2","2","2","2","2","2","2","2","2","1","3","2","2","2","2","2","2","4","5","4","4","4","5","4","5","4","1","0","1","1","0","0","1","1","0","1","1","0","1","0","1","3","4","5","4","4","5","4","3","3","2","587598071420944384","陈","181","","","","","","","","","","","","","","","","","","","","","","","","","","","","","","","","","","","","","","","",""
"","","","call-function","1","79441","0.0-1.0-0.0","2","2","2","2","2","2","2","2","2","2","2","2","1","3","2","2","2","2","2","2","4","5","4","4","4","5","4","5","4","1","0","1","1","0","0","1","1","0","1","1","0","1","0","1","3","4","5","4","4","5","4","3","3","2","587598071420944384","陈","181","","","","","","","","","","","","","","","","","","","","","","","","","","","","","","","","","","","","","","","",""
"6272","","{""friend_name"":""陈"",""ParticipantID"":""181""}","survey-html-form","2","85713","0.0-1.0-1.0","2","2","2","2","2","2","2","2","2","2","2","2","1","3","2","2","2","2","2","2","4","5","4","4","4","5","4","5","4","1","0","1","1","0","0","1","1","0","1","1","0","1","0","1","3","4","5","4","4","5","4","3","3","2","587598071420944384","陈","181","","","","","","","","","","","","","","","","","","","","","","","","","","","","","","","","","","","","","","","",""
"","","","fullscreen","3","104382","0.0-2.0","2","2","2","2","2","2","2","2","2","2","2","2","1","3","2","2","2","2","2","2","4","5","4","4","4","5","4","5","4","1","0","1","1","0","0","1","1","0","1","1","0","1","0","1","3","4","5","4","4","5","4","3","3","2","587598071420944384","陈","181","","true","{}","","","","","","","","","","","","","","","","","","","","","","","","","","","","","","","","","","","","",""
"20802.799999998882","","{""Q01"":""2"",""Q02"":""2"",""Q03"":""2"",""Q04"":""2"",""Q05"":""2"",""Q06"":""2"",""Q07"":""2"",""Q08"":""2"",""Q09"":""2"",""Q10"":""2""}","survey-template","4","125187","0.0-3.0","2","2","2","2","2","2","2","2","2","2","2","2","1","3","2","2","2","2","2","2","4","5","4","4","4","5","4","5","4","1","0","1","1","0","0","1","1","0","1","1","0","1","0","1","3","4","5","4","4","5","4","3","3","2","587598071420944384","陈","181","","","","{""Q01"":""2"",""Q02"":""2"",""Q03"":""2"",""Q04"":""2"",""Q05"":""2"",""Q06"":""2"",""Q07"":""2"",""Q08"":""2"",""Q09"":""2"",""Q10"":""2""}","[0,1,2,3,4,5,6,7,8,9]","[""Q01"",""Q01"",""Q01"",""Q01"",""Q01"",""Q02"",""Q03"",""Q04"",""Q05"",""Q06"",""Q07"",""Q08"",""Q09"",""Q10""]","[2353.5,3233.5,4257.5,5721.5,8329.599999999627,8865.39999999851,10337.5,11737.699999999255,13058,14593.5,15505.39999999851,17657.599999999627,18817.5,19889.89999999851]","[]","[2089.89999999851,2353.5,3233.5,4257.5,5721.5,7601.5999999996275,8329.599999999627,8865.39999999851,10337.5,11737.699999999255,13058,14593.5,15505.39999999851,17657.599999999627,18817.5,19657.5,19889.89999999851,20802.199999999255]","0.5","0.5555555555555556","0","","","","","","","","","","","","","","","","","","","","","","","","","","","",""
"21299.89999999851","","{""Q01"":""2"",""Q02"":""2"",""Q03"":""1"",""Q04"":""3"",""Q05"":""2"",""Q06"":""2"",""Q07"":""2"",""Q08"":""2"",""Q09"":""2"",""Q10"":""2""}","survey-template","5","146490","0.0-4.0","2","2","2","2","2","2","2","2","2","2","2","2","1","3","2","2","2","2","2","2","4","5","4","4","4","5","4","5","4","1","0","1","1","0","0","1","1","0","1","1","0","1","0","1","3","4","5","4","4","5","4","3","3","2","587598071420944384","陈","181","","","","{""Q01"":""2"",""Q02"":""2"",""Q03"":""1"",""Q04"":""3"",""Q05"":""2"",""Q06"":""2"",""Q07"":""2"",""Q08"":""2"",""Q09"":""2"",""Q10"":""2""}","[0,1,2,3,4,5,6,7,8,9]","[""Q01"",""Q02"",""Q03"",""Q04"",""Q04"",""Q05"",""Q06"",""Q07"",""Q08"",""Q09"",""Q10""]","[1867.5,4235.39999999851,5051.5,7707.5,8475.89999999851,11891.39999999851,14371.799999998882,15091.5,16507.599999999627,19075.599999999627,20035.699999999255]","[]","[1867.5,4235.39999999851,5051.5,6571.5,6947.39999999851,7707.5,8475.89999999851,11891.39999999851,13747.5,14371.799999998882,15091.5,16155.39999999851,16507.599999999627,19075.599999999627,20035.699999999255,21299.299999998882]","0.5","0.2222222222222222","0","","","","","","","","","","","","","","","","","","","","","","","","","","","",""
"","","","preload","6","146849","0.0-5.0","2","2","2","2","2","2","2","2","2","2","2","2","1","3","2","2","2","2","2","2","4","5","4","4","4","5","4","5","4","1","0","1","1","0","0","1","1","0","1","1","0","1","0","1","3","4","5","4","4","5","4","3","3","2","587598071420944384","陈","181","","true","","","","","","","","","","","false","[]","[]","[]","","","","","","","","","","","","","","","","","","","","","","","",""
"13487","
    <h3>词语分类任务</h3>
    <p>在接下来的任务中，你需要对一系列词语进行分类。<p/>
    请先熟悉这些词语，这有利于你完成接下来的任务。</p>
    <table align=""center"" border=1 cellpadding=3 cellspacing=0>
    <tr> <th>类别</th> <th>词语</th> </tr>
    <tr> <td>&emsp;积极&emsp;</td> <td>&emsp;高尚、诚信、善良、君子、廉正、正直&emsp;</td> </tr>
    <tr> <td>&emsp;消极&emsp;</td> <td>&emsp;缺德、卑鄙、不孝、不仁、小人、黑心&emsp;</td> </tr>
    <tr> <td>&emsp;自我&emsp;</td> <td>&emsp;我、我的、自己、自己的、本人、本人的&emsp;</td> </tr>
    <tr> <td>&emsp;他人&emsp;</td> <td>&emsp;他、他的、别人、别人的、他人、他人的&emsp;</td> </tr>
    </table><br/>","0","html-button-response","7","160337","0.0-6.0-1.0-0.0","2","2","2","2","2","2","2","2","2","2","2","2","1","3","2","2","2","2","2","2","4","5","4","4","4","5","4","5","4","1","0","1","1","0","0","1","1","0","1","1","0","1","0","1","3","4","5","4","4","5","4","3","3","2","587598071420944384","陈","181","","","","","","","","","","","","","","","","","1","2","","","","","","","","","","","","","","","","","","","","","",""
"6644","
    <div class=""tag-bottom""><p>
    —— 任务1：对“他人”词和“自我”词分类 ——<p/>
    不同词语会出现在屏幕中央，类别标签将始终显示在屏幕上方<p/>   
    <span style=""color:#FFD866""><b>请根据上方标签的提示，尽可能正确并且快速地做出按键反应</b></span><p/>
    当按键错误时屏幕中会出现<span style=""color:red""> X </span>，需要按另一个键纠正才能继续<br/><p/>
    请把双手食指分别放在键盘的“E”键和“I”键上<p/>
    按<空格键>开始
    </p></div>"," ","html-keyboard-response","8","166983","0.0-6.0-1.0-1.0","2","2","2","2","2","2","2","2","2","2","2","2","1","3","2","2","2","2","2","2","4","5","4","4","4","5","4","5","4","1","0","1","1","0","0","1","1","0","1","1","0","1","0","1","3","4","5","4","4","5","4","3","3","2","587598071420944384","陈","181","","","","","","","","","","","","","","","","","","","","","","","","","","","","","","","","","","","","","","","",""
"null","","null","html-keyboard-response","9","167235","0.0-6.0-1.0-2.0-0.0","2","2","2","2","2","2","2","2","2","2","2","2","1","3","2","2","2","2","2","2","4","5","4","4","4","5","4","5","4","1","0","1","1","0","0","1","1","0","1","1","0","1","0","1","3","4","5","4","4","5","4","3","3","2","587598071420944384","陈","181","","","","","","","","","","","","","","","","","","","","","","","","","","","","","","","","","","","","","","","",""
"859","<p style=""color:rgb(150, 250, 100); font-size: 35px;"">他</p>","e","categorize-html","10","168095","0.0-6.0-1.0-2.0-1.0","2","2","2","2","2","2","2","2","2","2","2","2","1","3","2","2","2","2","2","2","4","5","4","4","4","5","4","5","4","1","0","1","1","0","0","1","1","0","1","1","0","1","0","1","3","4","5","4","4","5","4","3","3","2","587598071420944384","陈","181","","","","","","","","","","","","","","","","","","","true","11","1","moral","859","other","他","","","","","","","","","","","","","","",""
"null","","null","html-keyboard-response","11","168346","0.0-6.0-1.0-2.0-0.1","2","2","2","2","2","2","2","2","2","2","2","2","1","3","2","2","2","2","2","2","4","5","4","4","4","5","4","5","4","1","0","1","1","0","0","1","1","0","1","1","0","1","0","1","3","4","5","4","4","5","4","3","3","2","587598071420944384","陈","181","","","","","","","","","","","","","","","","","","","","","","","","","","","","","","","","","","","","","","","",""
"589","<p style=""color:rgb(150, 250, 100); font-size: 35px;"">他人的</p>","e","categorize-html","12","168935","0.0-6.0-1.0-2.0-1.1","2","2","2","2","2","2","2","2","2","2","2","2","1","3","2","2","2","2","2","2","4","5","4","4","4","5","4","5","4","1","0","1","1","0","0","1","1","0","1","1","0","1","0","1","3","4","5","4","4","5","4","3","3","2","587598071420944384","陈","181","","","","","","","","","","","","","","","","","","","true","11","1","moral","589","other","他人的","","","","","","","","","","","","","","",""
"null","","null","html-keyboard-response","13","169187","0.0-6.0-1.0-2.0-0.2","2","2","2","2","2","2","2","2","2","2","2","2","1","3","2","2","2","2","2","2","4","5","4","4","4","5","4","5","4","1","0","1","1","0","0","1","1","0","1","1","0","1","0","1","3","4","5","4","4","5","4","3","3","2","587598071420944384","陈","181","","","","","","","","","","","","","","","","","","","","","","","","","","","","","","","","","","","","","","","",""
"572","<p style=""color:rgb(150, 250, 100); font-size: 35px;"">我的</p>","i","categorize-html","14","169759","0.0-6.0-1.0-2.0-1.2","2","2","2","2","2","2","2","2","2","2","2","2","1","3","2","2","2","2","2","2","4","5","4","4","4","5","4","5","4","1","0","1","1","0","0","1","1","0","1","1","0","1","0","1","3","4","5","4","4","5","4","3","3","2","587598071420944384","陈","181","","","","","","","","","","","","","","","","","","","true","11","1","moral","572","self","我的","","","","","","","","","","","","","","",""
"null","","null","html-keyboard-response","15","170010","0.0-6.0-1.0-2.0-0.3","2","2","2","2","2","2","2","2","2","2","2","2","1","3","2","2","2","2","2","2","4","5","4","4","4","5","4","5","4","1","0","1","1","0","0","1","1","0","1","1","0","1","0","1","3","4","5","4","4","5","4","3","3","2","587598071420944384","陈","181","","","","","","","","","","","","","","","","","","","","","","","","","","","","","","","","","","","","","","","",""
"692","<p style=""color:rgb(150, 250, 100); font-size: 35px;"">本人</p>","i","categorize-html","16","170703","0.0-6.0-1.0-2.0-1.3","2","2","2","2","2","2","2","2","2","2","2","2","1","3","2","2","2","2","2","2","4","5","4","4","4","5","4","5","4","1","0","1","1","0","0","1","1","0","1","1","0","1","0","1","3","4","5","4","4","5","4","3","3","2","587598071420944384","陈","181","","","","","","","","","","","","","","","","","","","true","11","1","moral","692","self","本人","","","","","","","","","","","","","","",""
"null","","null","html-keyboard-response","17","170955","0.0-6.0-1.0-2.0-0.4","2","2","2","2","2","2","2","2","2","2","2","2","1","3","2","2","2","2","2","2","4","5","4","4","4","5","4","5","4","1","0","1","1","0","0","1","1","0","1","1","0","1","0","1","3","4","5","4","4","5","4","3","3","2","587598071420944384","陈","181","","","","","","","","","","","","","","","","","","","","","","","","","","","","","","","","","","","","","","","",""
"484","<p style=""color:rgb(150, 250, 100); font-size: 35px;"">他人</p>","e","categorize-html","18","171439","0.0-6.0-1.0-2.0-1.4","2","2","2","2","2","2","2","2","2","2","2","2","1","3","2","2","2","2","2","2","4","5","4","4","4","5","4","5","4","1","0","1","1","0","0","1","1","0","1","1","0","1","0","1","3","4","5","4","4","5","4","3","3","2","587598071420944384","陈","181","","","","","","","","","","","","","","","","","","","true","11","1","moral","484","other","他人","","","","","","","","","","","","","","",""
"null","","null","html-keyboard-response","19","171690","0.0-6.0-1.0-2.0-0.5","2","2","2","2","2","2","2","2","2","2","2","2","1","3","2","2","2","2","2","2","4","5","4","4","4","5","4","5","4","1","0","1","1","0","0","1","1","0","1","1","0","1","0","1","3","4","5","4","4","5","4","3","3","2","587598071420944384","陈","181","","","","","","","","","","","","","","","","","","","","","","","","","","","","","","","","","","","","","","","",""
"523","<p style=""color:rgb(150, 250, 100); font-size: 35px;"">我</p>","i","categorize-html","20","172214","0.0-6.0-1.0-2.0-1.5","2","2","2","2","2","2","2","2","2","2","2","2","1","3","2","2","2","2","2","2","4","5","4","4","4","5","4","5","4","1","0","1","1","0","0","1","1","0","1","1","0","1","0","1","3","4","5","4","4","5","4","3","3","2","587598071420944384","陈","181","","","","","","","","","","","","","","","","","","","true","11","1","moral","523","self","我","","","","","","","","","","","","","","",""
"null","","null","html-keyboard-response","21","172466","0.0-6.0-1.0-2.0-0.6","2","2","2","2","2","2","2","2","2","2","2","2","1","3","2","2","2","2","2","2","4","5","4","4","4","5","4","5","4","1","0","1","1","0","0","1","1","0","1","1","0","1","0","1","3","4","5","4","4","5","4","3","3","2","587598071420944384","陈","181","","","","","","","","","","","","","","","","","","","","","","","","","","","","","","","","","","","","","","","",""
"524","<p style=""color:rgb(150, 250, 100); font-size: 35px;"">自己</p>","i","categorize-html","22","172991","0.0-6.0-1.0-2.0-1.6","2","2","2","2","2","2","2","2","2","2","2","2","1","3","2","2","2","2","2","2","4","5","4","4","4","5","4","5","4","1","0","1","1","0","0","1","1","0","1","1","0","1","0","1","3","4","5","4","4","5","4","3","3","2","587598071420944384","陈","181","","","","","","","","","","","","","","","","","","","true","11","1","moral","524","self","自己","","","","","","","","","","","","","","",""
"null","","null","html-keyboard-response","23","173242","0.0-6.0-1.0-2.0-0.7","2","2","2","2","2","2","2","2","2","2","2","2","1","3","2","2","2","2","2","2","4","5","4","4","4","5","4","5","4","1","0","1","1","0","0","1","1","0","1","1","0","1","0","1","3","4","5","4","4","5","4","3","3","2","587598071420944384","陈","181","","","","","","","","","","","","","","","","","","","","","","","","","","","","","","","","","","","","","","","",""
"629","<p style=""color:rgb(150, 250, 100); font-size: 35px;"">本人的</p>","i","categorize-html","24","173871","0.0-6.0-1.0-2.0-1.7","2","2","2","2","2","2","2","2","2","2","2","2","1","3","2","2","2","2","2","2","4","5","4","4","4","5","4","5","4","1","0","1","1","0","0","1","1","0","1","1","0","1","0","1","3","4","5","4","4","5","4","3","3","2","587598071420944384","陈","181","","","","","","","","","","","","","","","","","","","true","11","1","moral","629","self","本人的","","","","","","","","","","","","","","",""
"null","","null","html-keyboard-response","25","174122","0.0-6.0-1.0-2.0-0.8","2","2","2","2","2","2","2","2","2","2","2","2","1","3","2","2","2","2","2","2","4","5","4","4","4","5","4","5","4","1","0","1","1","0","0","1","1","0","1","1","0","1","0","1","3","4","5","4","4","5","4","3","3","2","587598071420944384","陈","181","","","","","","","","","","","","","","","","","","","","","","","","","","","","","","","","","","","","","","","",""
"460","<p style=""color:rgb(150, 250, 100); font-size: 35px;"">自己的</p>","i","categorize-html","26","174582","0.0-6.0-1.0-2.0-1.8","2","2","2","2","2","2","2","2","2","2","2","2","1","3","2","2","2","2","2","2","4","5","4","4","4","5","4","5","4","1","0","1","1","0","0","1","1","0","1","1","0","1","0","1","3","4","5","4","4","5","4","3","3","2","587598071420944384","陈","181","","","","","","","","","","","","","","","","","","","true","11","1","moral","460","self","自己的","","","","","","","","","","","","","","",""
"null","","null","html-keyboard-response","27","174833","0.0-6.0-1.0-2.0-0.9","2","2","2","2","2","2","2","2","2","2","2","2","1","3","2","2","2","2","2","2","4","5","4","4","4","5","4","5","4","1","0","1","1","0","0","1","1","0","1","1","0","1","0","1","3","4","5","4","4","5","4","3","3","2","587598071420944384","陈","181","","","","","","","","","","","","","","","","","","","","","","","","","","","","","","","","","","","","","","","",""
"525","<p style=""color:rgb(150, 250, 100); font-size: 35px;"">他的</p>","e","categorize-html","28","175358","0.0-6.0-1.0-2.0-1.9","2","2","2","2","2","2","2","2","2","2","2","2","1","3","2","2","2","2","2","2","4","5","4","4","4","5","4","5","4","1","0","1","1","0","0","1","1","0","1","1","0","1","0","1","3","4","5","4","4","5","4","3","3","2","587598071420944384","陈","181","","","","","","","","","","","","","","","","","","","true","11","1","moral","525","other","他的","","","","","","","","","","","","","","",""
"null","","null","html-keyboard-response","29","175609","0.0-6.0-1.0-2.0-0.10","2","2","2","2","2","2","2","2","2","2","2","2","1","3","2","2","2","2","2","2","4","5","4","4","4","5","4","5","4","1","0","1","1","0","0","1","1","0","1","1","0","1","0","1","3","4","5","4","4","5","4","3","3","2","587598071420944384","陈","181","","","","","","","","","","","","","","","","","","","","","","","","","","","","","","","","","","","","","","","",""
"509","<p style=""color:rgb(150, 250, 100); font-size: 35px;"">别人</p>","e","categorize-html","30","176119","0.0-6.0-1.0-2.0-1.10","2","2","2","2","2","2","2","2","2","2","2","2","1","3","2","2","2","2","2","2","4","5","4","4","4","5","4","5","4","1","0","1","1","0","0","1","1","0","1","1","0","1","0","1","3","4","5","4","4","5","4","3","3","2","587598071420944384","陈","181","","","","","","","","","","","","","","","","","","","true","11","1","moral","509","other","别人","","","","","","","","","","","","","","",""
"null","","null","html-keyboard-response","31","176370","0.0-6.0-1.0-2.0-0.11","2","2","2","2","2","2","2","2","2","2","2","2","1","3","2","2","2","2","2","2","4","5","4","4","4","5","4","5","4","1","0","1","1","0","0","1","1","0","1","1","0","1","0","1","3","4","5","4","4","5","4","3","3","2","587598071420944384","陈","181","","","","","","","","","","","","","","","","","","","","","","","","","","","","","","","","","","","","","","","",""
"484","<p style=""color:rgb(150, 250, 100); font-size: 35px;"">别人的</p>","e","categorize-html","32","176855","0.0-6.0-1.0-2.0-1.11","2","2","2","2","2","2","2","2","2","2","2","2","1","3","2","2","2","2","2","2","4","5","4","4","4","5","4","5","4","1","0","1","1","0","0","1","1","0","1","1","0","1","0","1","3","4","5","4","4","5","4","3","3","2","587598071420944384","陈","181","","","","","","","","","","","","","","","","","","","true","11","1","moral","484","other","别人的","","","","","","","","","","","","","","",""
"4112","
    <div class=""tag-bottom""><p>
    —— 任务2：对“积极”词和“消极”词分类 ——<p/>   
    <span style=""color:#78DCE8""><b>注意上方，类别标签和需要分类的词语都已经改变</b></span><p/>
    <span style=""color:#FFD866""><b>请根据上方标签的提示，尽可能正确并且快速地做出按键反应</b></span><p/>
    当按键错误时屏幕中会出现<span style=""color:red""> X </span>，需要按另一个键纠正才能继续<br/><p/>
    请把双手食指分别放在键盘的“E”键和“I”键上<p/>
    按<空格键>开始
    </p></div>"," ","html-keyboard-response","33","180967","0.0-6.0-1.0-3.0","2","2","2","2","2","2","2","2","2","2","2","2","1","3","2","2","2","2","2","2","4","5","4","4","4","5","4","5","4","1","0","1","1","0","0","1","1","0","1","1","0","1","0","1","3","4","5","4","4","5","4","3","3","2","587598071420944384","陈","181","","","","","","","","","","","","","","","","","","","","","","","","","","","","","","","","","","","","","","","",""
"null","","null","html-keyboard-response","34","181218","0.0-6.0-1.0-4.0-0.0","2","2","2","2","2","2","2","2","2","2","2","2","1","3","2","2","2","2","2","2","4","5","4","4","4","5","4","5","4","1","0","1","1","0","0","1","1","0","1","1","0","1","0","1","3","4","5","4","4","5","4","3","3","2","587598071420944384","陈","181","","","","","","","","","","","","","","","","","","","","","","","","","","","","","","","","","","","","","","","",""
"947","<p style=""color:white; font-size: 35px;"">诚信</p>","e","categorize-html","35","182166","0.0-6.0-1.0-4.0-1.0","2","2","2","2","2","2","2","2","2","2","2","2","1","3","2","2","2","2","2","2","4","5","4","4","4","5","4","5","4","1","0","1","1","0","0","1","1","0","1","1","0","1","0","1","3","4","5","4","4","5","4","3","3","2","587598071420944384","陈","181","","","","","","","","","","","","","","","","","","","true","12","2","moral","947","positive","诚信","","","","","","","","","","","","","","",""
"null","","null","html-keyboard-response","36","182417","0.0-6.0-1.0-4.0-0.1","2","2","2","2","2","2","2","2","2","2","2","2","1","3","2","2","2","2","2","2","4","5","4","4","4","5","4","5","4","1","0","1","1","0","0","1","1","0","1","1","0","1","0","1","3","4","5","4","4","5","4","3","3","2","587598071420944384","陈","181","","","","","","","","","","","","","","","","","","","","","","","","","","","","","","","","","","","","","","","",""
"501","<p style=""color:white; font-size: 35px;"">正直</p>","e","categorize-html","37","182919","0.0-6.0-1.0-4.0-1.1","2","2","2","2","2","2","2","2","2","2","2","2","1","3","2","2","2","2","2","2","4","5","4","4","4","5","4","5","4","1","0","1","1","0","0","1","1","0","1","1","0","1","0","1","3","4","5","4","4","5","4","3","3","2","587598071420944384","陈","181","","","","","","","","","","","","","","","","","","","true","12","2","moral","501","positive","正直","","","","","","","","","","","","","","",""
"null","","null","html-keyboard-response","38","183171","0.0-6.0-1.0-4.0-0.2","2","2","2","2","2","2","2","2","2","2","2","2","1","3","2","2","2","2","2","2","4","5","4","4","4","5","4","5","4","1","0","1","1","0","0","1","1","0","1","1","0","1","0","1","3","4","5","4","4","5","4","3","3","2","587598071420944384","陈","181","","","","","","","","","","","","","","","","","","","","","","","","","","","","","","","","","","","","","","","",""
"508","<p style=""color:white; font-size: 35px;"">黑心</p>","i","categorize-html","39","183679","0.0-6.0-1.0-4.0-1.2","2","2","2","2","2","2","2","2","2","2","2","2","1","3","2","2","2","2","2","2","4","5","4","4","4","5","4","5","4","1","0","1","1","0","0","1","1","0","1","1","0","1","0","1","3","4","5","4","4","5","4","3","3","2","587598071420944384","陈","181","","","","","","","","","","","","","","","","","","","true","12","2","moral","508","negative","黑心","","","","","","","","","","","","","","",""
"null","","null","html-keyboard-response","40","183931","0.0-6.0-1.0-4.0-0.3","2","2","2","2","2","2","2","2","2","2","2","2","1","3","2","2","2","2","2","2","4","5","4","4","4","5","4","5","4","1","0","1","1","0","0","1","1","0","1","1","0","1","0","1","3","4","5","4","4","5","4","3","3","2","587598071420944384","陈","181","","","","","","","","","","","","","","","","","","","","","","","","","","","","","","","","","","","","","","","",""
"483","<p style=""color:white; font-size: 35px;"">不仁</p>","i","categorize-html","41","184415","0.0-6.0-1.0-4.0-1.3","2","2","2","2","2","2","2","2","2","2","2","2","1","3","2","2","2","2","2","2","4","5","4","4","4","5","4","5","4","1","0","1","1","0","0","1","1","0","1","1","0","1","0","1","3","4","5","4","4","5","4","3","3","2","587598071420944384","陈","181","","","","","","","","","","","","","","","","","","","true","12","2","moral","483","negative","不仁","","","","","","","","","","","","","","",""
"null","","null","html-keyboard-response","42","184666","0.0-6.0-1.0-4.0-0.4","2","2","2","2","2","2","2","2","2","2","2","2","1","3","2","2","2","2","2","2","4","5","4","4","4","5","4","5","4","1","0","1","1","0","0","1","1","0","1","1","0","1","0","1","3","4","5","4","4","5","4","3","3","2","587598071420944384","陈","181","","","","","","","","","","","","","","","","","","","","","","","","","","","","","","","","","","","","","","","",""
"652","<p style=""color:white; font-size: 35px;"">廉正</p>","e","categorize-html","43","185319","0.0-6.0-1.0-4.0-1.4","2","2","2","2","2","2","2","2","2","2","2","2","1","3","2","2","2","2","2","2","4","5","4","4","4","5","4","5","4","1","0","1","1","0","0","1","1","0","1","1","0","1","0","1","3","4","5","4","4","5","4","3","3","2","587598071420944384","陈","181","","","","","","","","","","","","","","","","","","","true","12","2","moral","652","positive","廉正","","","","","","","","","","","","","","",""
"null","","null","html-keyboard-response","44","185570","0.0-6.0-1.0-4.0-0.5","2","2","2","2","2","2","2","2","2","2","2","2","1","3","2","2","2","2","2","2","4","5","4","4","4","5","4","5","4","1","0","1","1","0","0","1","1","0","1","1","0","1","0","1","3","4","5","4","4","5","4","3","3","2","587598071420944384","陈","181","","","","","","","","","","","","","","","","","","","","","","","","","","","","","","","","","","","","","","","",""
"484","<p style=""color:white; font-size: 35px;"">不孝</p>","i","categorize-html","45","186055","0.0-6.0-1.0-4.0-1.5","2","2","2","2","2","2","2","2","2","2","2","2","1","3","2","2","2","2","2","2","4","5","4","4","4","5","4","5","4","1","0","1","1","0","0","1","1","0","1","1","0","1","0","1","3","4","5","4","4","5","4","3","3","2","587598071420944384","陈","181","","","","","","","","","","","","","","","","","","","true","12","2","moral","484","negative","不孝","","","","","","","","","","","","","","",""
"null","","null","html-keyboard-response","46","186306","0.0-6.0-1.0-4.0-0.6","2","2","2","2","2","2","2","2","2","2","2","2","1","3","2","2","2","2","2","2","4","5","4","4","4","5","4","5","4","1","0","1","1","0","0","1","1","0","1","1","0","1","0","1","3","4","5","4","4","5","4","3","3","2","587598071420944384","陈","181","","","","","","","","","","","","","","","","","","","","","","","","","","","","","","","","","","","","","","","",""
"540","<p style=""color:white; font-size: 35px;"">卑鄙</p>","i","categorize-html","47","186847","0.0-6.0-1.0-4.0-1.6","2","2","2","2","2","2","2","2","2","2","2","2","1","3","2","2","2","2","2","2","4","5","4","4","4","5","4","5","4","1","0","1","1","0","0","1","1","0","1","1","0","1","0","1","3","4","5","4","4","5","4","3","3","2","587598071420944384","陈","181","","","","","","","","","","","","","","","","","","","true","12","2","moral","540","negative","卑鄙","","","","","","","","","","","","","","",""
"null","","null","html-keyboard-response","48","187098","0.0-6.0-1.0-4.0-0.7","2","2","2","2","2","2","2","2","2","2","2","2","1","3","2","2","2","2","2","2","4","5","4","4","4","5","4","5","4","1","0","1","1","0","0","1","1","0","1","1","0","1","0","1","3","4","5","4","4","5","4","3","3","2","587598071420944384","陈","181","","","","","","","","","","","","","","","","","","","","","","","","","","","","","","","","","","","","","","","",""
"804","<p style=""color:white; font-size: 35px;"">君子</p>","e","categorize-html","49","187903","0.0-6.0-1.0-4.0-1.7","2","2","2","2","2","2","2","2","2","2","2","2","1","3","2","2","2","2","2","2","4","5","4","4","4","5","4","5","4","1","0","1","1","0","0","1","1","0","1","1","0","1","0","1","3","4","5","4","4","5","4","3","3","2","587598071420944384","陈","181","","","","","","","","","","","","","","","","","","","true","12","2","moral","804","positive","君子","","","","","","","","","","","","","","",""
"null","","null","html-keyboard-response","50","188154","0.0-6.0-1.0-4.0-0.8","2","2","2","2","2","2","2","2","2","2","2","2","1","3","2","2","2","2","2","2","4","5","4","4","4","5","4","5","4","1","0","1","1","0","0","1","1","0","1","1","0","1","0","1","3","4","5","4","4","5","4","3","3","2","587598071420944384","陈","181","","","","","","","","","","","","","","","","","","","","","","","","","","","","","","","","","","","","","","","",""
"772","<p style=""color:white; font-size: 35px;"">高尚</p>","e","categorize-html","51","188927","0.0-6.0-1.0-4.0-1.8","2","2","2","2","2","2","2","2","2","2","2","2","1","3","2","2","2","2","2","2","4","5","4","4","4","5","4","5","4","1","0","1","1","0","0","1","1","0","1","1","0","1","0","1","3","4","5","4","4","5","4","3","3","2","587598071420944384","陈","181","","","","","","","","","","","","","","","","","","","true","12","2","moral","772","positive","高尚","","","","","","","","","","","","","","",""
"null","","null","html-keyboard-response","52","189178","0.0-6.0-1.0-4.0-0.9","2","2","2","2","2","2","2","2","2","2","2","2","1","3","2","2","2","2","2","2","4","5","4","4","4","5","4","5","4","1","0","1","1","0","0","1","1","0","1","1","0","1","0","1","3","4","5","4","4","5","4","3","3","2","587598071420944384","陈","181","","","","","","","","","","","","","","","","","","","","","","","","","","","","","","","","","","","","","","","",""
"508","<p style=""color:white; font-size: 35px;"">善良</p>","e","categorize-html","53","189686","0.0-6.0-1.0-4.0-1.9","2","2","2","2","2","2","2","2","2","2","2","2","1","3","2","2","2","2","2","2","4","5","4","4","4","5","4","5","4","1","0","1","1","0","0","1","1","0","1","1","0","1","0","1","3","4","5","4","4","5","4","3","3","2","587598071420944384","陈","181","","","","","","","","","","","","","","","","","","","true","12","2","moral","508","positive","善良","","","","","","","","","","","","","","",""
"null","","null","html-keyboard-response","54","189937","0.0-6.0-1.0-4.0-0.10","2","2","2","2","2","2","2","2","2","2","2","2","1","3","2","2","2","2","2","2","4","5","4","4","4","5","4","5","4","1","0","1","1","0","0","1","1","0","1","1","0","1","0","1","3","4","5","4","4","5","4","3","3","2","587598071420944384","陈","181","","","","","","","","","","","","","","","","","","","","","","","","","","","","","","","","","","","","","","","",""
"485","<p style=""color:white; font-size: 35px;"">小人</p>","i","categorize-html","55","190423","0.0-6.0-1.0-4.0-1.10","2","2","2","2","2","2","2","2","2","2","2","2","1","3","2","2","2","2","2","2","4","5","4","4","4","5","4","5","4","1","0","1","1","0","0","1","1","0","1","1","0","1","0","1","3","4","5","4","4","5","4","3","3","2","587598071420944384","陈","181","","","","","","","","","","","","","","","","","","","true","12","2","moral","485","negative","小人","","","","","","","","","","","","","","",""
"null","","null","html-keyboard-response","56","190674","0.0-6.0-1.0-4.0-0.11","2","2","2","2","2","2","2","2","2","2","2","2","1","3","2","2","2","2","2","2","4","5","4","4","4","5","4","5","4","1","0","1","1","0","0","1","1","0","1","1","0","1","0","1","3","4","5","4","4","5","4","3","3","2","587598071420944384","陈","181","","","","","","","","","","","","","","","","","","","","","","","","","","","","","","","","","","","","","","","",""
"692","<p style=""color:white; font-size: 35px;"">缺德</p>","i","categorize-html","57","191367","0.0-6.0-1.0-4.0-1.11","2","2","2","2","2","2","2","2","2","2","2","2","1","3","2","2","2","2","2","2","4","5","4","4","4","5","4","5","4","1","0","1","1","0","0","1","1","0","1","1","0","1","0","1","3","4","5","4","4","5","4","3","3","2","587598071420944384","陈","181","","","","","","","","","","","","","","","","","","","true","12","2","moral","692","negative","缺德","","","","","","","","","","","","","","",""
"3271","
    <div class=""tag-bottom""><p>
    —— 任务3：对“他人/积极”词和“自我/消极”词分类 ——<p/>
    <span style=""color:#78DCE8""><b>注意上方，之前的四类词语将混合在一起交替呈现</b></span><p/>
    <span style=""color:#FFD866""><b>请根据上方标签的提示，尽可能正确并且快速地做出按键反应</b></span><p/>
    当按键错误时屏幕中会出现<span style=""color:red""> X </span>，需要按另一个键纠正才能继续<br/><p/>
    请把双手食指分别放在键盘的“E”键和“I”键上<p/>
    按<空格键>开始
    </p></div>"," ","html-keyboard-response","58","194638","0.0-6.0-1.0-5.0","2","2","2","2","2","2","2","2","2","2","2","2","1","3","2","2","2","2","2","2","4","5","4","4","4","5","4","5","4","1","0","1","1","0","0","1","1","0","1","1","0","1","0","1","3","4","5","4","4","5","4","3","3","2","587598071420944384","陈","181","","","","","","","","","","","","","","","","","","","","","","","","","","","","","","","","","","","","","","","",""
"null","","null","html-keyboard-response","59","194889","0.0-6.0-1.0-6.0-0.0","2","2","2","2","2","2","2","2","2","2","2","2","1","3","2","2","2","2","2","2","4","5","4","4","4","5","4","5","4","1","0","1","1","0","0","1","1","0","1","1","0","1","0","1","3","4","5","4","4","5","4","3","3","2","587598071420944384","陈","181","","","","","","","","","","","","","","","","","","","","","","","","","","","","","","","","","","","","","","","",""
"797","<p style=""color:rgb(150, 250, 100); font-size: 35px;"">他</p>","e","categorize-html","60","195687","0.0-6.0-1.0-6.0-1.0","2","2","2","2","2","2","2","2","2","2","2","2","1","3","2","2","2","2","2","2","4","5","4","4","4","5","4","5","4","1","0","1","1","0","0","1","1","0","1","1","0","1","0","1","3","4","5","4","4","5","4","3","3","2","587598071420944384","陈","181","","","","","","","","","","","","","","","","","","","true","13","3","moral","797","other","他","","","","","","","","","","","","","","",""
"null","","null","html-keyboard-response","61","195938","0.0-6.0-1.0-6.0-0.1","2","2","2","2","2","2","2","2","2","2","2","2","1","3","2","2","2","2","2","2","4","5","4","4","4","5","4","5","4","1","0","1","1","0","0","1","1","0","1","1","0","1","0","1","3","4","5","4","4","5","4","3","3","2","587598071420944384","陈","181","","","","","","","","","","","","","","","","","","","","","","","","","","","","","","","","","","","","","","","",""
"572","<p style=""color:white; font-size: 35px;"">小人</p>","i","categorize-html","62","196510","0.0-6.0-1.0-6.0-1.1","2","2","2","2","2","2","2","2","2","2","2","2","1","3","2","2","2","2","2","2","4","5","4","4","4","5","4","5","4","1","0","1","1","0","0","1","1","0","1","1","0","1","0","1","3","4","5","4","4","5","4","3","3","2","587598071420944384","陈","181","","","","","","","","","","","","","","","","","","","true","13","3","moral","572","negative","小人","","","","","","","","","","","","","","",""
"null","","null","html-keyboard-response","63","196761","0.0-6.0-1.0-6.0-0.2","2","2","2","2","2","2","2","2","2","2","2","2","1","3","2","2","2","2","2","2","4","5","4","4","4","5","4","5","4","1","0","1","1","0","0","1","1","0","1","1","0","1","0","1","3","4","5","4","4","5","4","3","3","2","587598071420944384","陈","181","","","","","","","","","","","","","","","","","","","","","","","","","","","","","","","","","","","","","","","",""
"669","<p style=""color:rgb(150, 250, 100); font-size: 35px;"">本人</p>","i","categorize-html","64","197431","0.0-6.0-1.0-6.0-1.2","2","2","2","2","2","2","2","2","2","2","2","2","1","3","2","2","2","2","2","2","4","5","4","4","4","5","4","5","4","1","0","1","1","0","0","1","1","0","1","1","0","1","0","1","3","4","5","4","4","5","4","3","3","2","587598071420944384","陈","181","","","","","","","","","","","","","","","","","","","true","13","3","moral","669","self","本人","","","","","","","","","","","","","","",""
"null","","null","html-keyboard-response","65","197682","0.0-6.0-1.0-6.0-0.3","2","2","2","2","2","2","2","2","2","2","2","2","1","3","2","2","2","2","2","2","4","5","4","4","4","5","4","5","4","1","0","1","1","0","0","1","1","0","1","1","0","1","0","1","3","4","5","4","4","5","4","3","3","2","587598071420944384","陈","181","","","","","","","","","","","","","","","","","","","","","","","","","","","","","","","","","","","","","","","",""
"692","<p style=""color:white; font-size: 35px;"">廉正</p>","e","categorize-html","66","198375","0.0-6.0-1.0-6.0-1.3","2","2","2","2","2","2","2","2","2","2","2","2","1","3","2","2","2","2","2","2","4","5","4","4","4","5","4","5","4","1","0","1","1","0","0","1","1","0","1","1","0","1","0","1","3","4","5","4","4","5","4","3","3","2","587598071420944384","陈","181","","","","","","","","","","","","","","","","","","","true","13","3","moral","692","positive","廉正","","","","","","","","","","","","","","",""
"null","","null","html-keyboard-response","67","198625","0.0-6.0-1.0-6.0-0.4","2","2","2","2","2","2","2","2","2","2","2","2","1","3","2","2","2","2","2","2","4","5","4","4","4","5","4","5","4","1","0","1","1","0","0","1","1","0","1","1","0","1","0","1","3","4","5","4","4","5","4","3","3","2","587598071420944384","陈","181","","","","","","","","","","","","","","","","","","","","","","","","","","","","","","","","","","","","","","","",""
"652","<p style=""color:rgb(150, 250, 100); font-size: 35px;"">我的</p>","i","categorize-html","68","199278","0.0-6.0-1.0-6.0-1.4","2","2","2","2","2","2","2","2","2","2","2","2","1","3","2","2","2","2","2","2","4","5","4","4","4","5","4","5","4","1","0","1","1","0","0","1","1","0","1","1","0","1","0","1","3","4","5","4","4","5","4","3","3","2","587598071420944384","陈","181","","","","","","","","","","","","","","","","","","","true","13","3","moral","652","self","我的","","","","","","","","","","","","","","",""
"null","","null","html-keyboard-response","69","199529","0.0-6.0-1.0-6.0-0.5","2","2","2","2","2","2","2","2","2","2","2","2","1","3","2","2","2","2","2","2","4","5","4","4","4","5","4","5","4","1","0","1","1","0","0","1","1","0","1","1","0","1","0","1","3","4","5","4","4","5","4","3","3","2","587598071420944384","陈","181","","","","","","","","","","","","","","","","","","","","","","","","","","","","","","","","","","","","","","","",""
"782","<p style=""color:white; font-size: 35px;"">不仁</p>","i","categorize-html","70","200311","0.0-6.0-1.0-6.0-1.5","2","2","2","2","2","2","2","2","2","2","2","2","1","3","2","2","2","2","2","2","4","5","4","4","4","5","4","5","4","1","0","1","1","0","0","1","1","0","1","1","0","1","0","1","3","4","5","4","4","5","4","3","3","2","587598071420944384","陈","181","","","","","","","","","","","","","","","","","","","true","13","3","moral","782","negative","不仁","","","","","","","","","","","","","","",""
"null","","null","html-keyboard-response","71","200561","0.0-6.0-1.0-6.0-0.6","2","2","2","2","2","2","2","2","2","2","2","2","1","3","2","2","2","2","2","2","4","5","4","4","4","5","4","5","4","1","0","1","1","0","0","1","1","0","1","1","0","1","0","1","3","4","5","4","4","5","4","3","3","2","587598071420944384","陈","181","","","","","","","","","","","","","","","","","","","","","","","","","","","","","","","","","","","","","","","",""
"837","<p style=""color:rgb(150, 250, 100); font-size: 35px;"">他人的</p>","e","categorize-html","72","201399","0.0-6.0-1.0-6.0-1.6","2","2","2","2","2","2","2","2","2","2","2","2","1","3","2","2","2","2","2","2","4","5","4","4","4","5","4","5","4","1","0","1","1","0","0","1","1","0","1","1","0","1","0","1","3","4","5","4","4","5","4","3","3","2","587598071420944384","陈","181","","","","","","","","","","","","","","","","","","","true","13","3","moral","837","other","他人的","","","","","","","","","","","","","","",""
"null","","null","html-keyboard-response","73","201649","0.0-6.0-1.0-6.0-0.7","2","2","2","2","2","2","2","2","2","2","2","2","1","3","2","2","2","2","2","2","4","5","4","4","4","5","4","5","4","1","0","1","1","0","0","1","1","0","1","1","0","1","0","1","3","4","5","4","4","5","4","3","3","2","587598071420944384","陈","181","","","","","","","","","","","","","","","","","","","","","","","","","","","","","","","","","","","","","","","",""
"653","<p style=""color:white; font-size: 35px;"">善良</p>","e","categorize-html","74","202303","0.0-6.0-1.0-6.0-1.7","2","2","2","2","2","2","2","2","2","2","2","2","1","3","2","2","2","2","2","2","4","5","4","4","4","5","4","5","4","1","0","1","1","0","0","1","1","0","1","1","0","1","0","1","3","4","5","4","4","5","4","3","3","2","587598071420944384","陈","181","","","","","","","","","","","","","","","","","","","true","13","3","moral","653","positive","善良","","","","","","","","","","","","","","",""
"null","","null","html-keyboard-response","75","202554","0.0-6.0-1.0-6.0-0.8","2","2","2","2","2","2","2","2","2","2","2","2","1","3","2","2","2","2","2","2","4","5","4","4","4","5","4","5","4","1","0","1","1","0","0","1","1","0","1","1","0","1","0","1","3","4","5","4","4","5","4","3","3","2","587598071420944384","陈","181","","","","","","","","","","","","","","","","","","","","","","","","","","","","","","","","","","","","","","","",""
"549","<p style=""color:rgb(150, 250, 100); font-size: 35px;"">别人</p>","e","categorize-html","76","203103","0.0-6.0-1.0-6.0-1.8","2","2","2","2","2","2","2","2","2","2","2","2","1","3","2","2","2","2","2","2","4","5","4","4","4","5","4","5","4","1","0","1","1","0","0","1","1","0","1","1","0","1","0","1","3","4","5","4","4","5","4","3","3","2","587598071420944384","陈","181","","","","","","","","","","","","","","","","","","","true","13","3","moral","549","other","别人","","","","","","","","","","","","","","",""
"null","","null","html-keyboard-response","77","203354","0.0-6.0-1.0-6.0-0.9","2","2","2","2","2","2","2","2","2","2","2","2","1","3","2","2","2","2","2","2","4","5","4","4","4","5","4","5","4","1","0","1","1","0","0","1","1","0","1","1","0","1","0","1","3","4","5","4","4","5","4","3","3","2","587598071420944384","陈","181","","","","","","","","","","","","","","","","","","","","","","","","","","","","","","","","","","","","","","","",""
"612","<p style=""color:white; font-size: 35px;"">高尚</p>","i","categorize-html","78","205663","0.0-6.0-1.0-6.0-1.9","2","2","2","2","2","2","2","2","2","2","2","2","1","3","2","2","2","2","2","2","4","5","4","4","4","5","4","5","4","1","0","1","1","0","0","1","1","0","1","1","0","1","0","1","3","4","5","4","4","5","4","3","3","2","587598071420944384","陈","181","","","","","","","","","","","","","","","","","","","false","13","3","moral","1382.590909090909","positive","高尚","","","","","","","","","","","","","","",""
"null","","null","html-keyboard-response","79","205914","0.0-6.0-1.0-6.0-0.10","2","2","2","2","2","2","2","2","2","2","2","2","1","3","2","2","2","2","2","2","4","5","4","4","4","5","4","5","4","1","0","1","1","0","0","1","1","0","1","1","0","1","0","1","3","4","5","4","4","5","4","3","3","2","587598071420944384","陈","181","","","","","","","","","","","","","","","","","","","","","","","","","","","","","","","","","","","","","","","",""
"1301","<p style=""color:rgb(150, 250, 100); font-size: 35px;"">我</p>","i","categorize-html","80","207215","0.0-6.0-1.0-6.0-1.10","2","2","2","2","2","2","2","2","2","2","2","2","1","3","2","2","2","2","2","2","4","5","4","4","4","5","4","5","4","1","0","1","1","0","0","1","1","0","1","1","0","1","0","1","3","4","5","4","4","5","4","3","3","2","587598071420944384","陈","181","","","","","","","","","","","","","","","","","","","true","13","3","moral","1301","self","我","","","","","","","","","","","","","","",""
"null","","null","html-keyboard-response","81","207467","0.0-6.0-1.0-6.0-0.11","2","2","2","2","2","2","2","2","2","2","2","2","1","3","2","2","2","2","2","2","4","5","4","4","4","5","4","5","4","1","0","1","1","0","0","1","1","0","1","1","0","1","0","1","3","4","5","4","4","5","4","3","3","2","587598071420944384","陈","181","","","","","","","","","","","","","","","","","","","","","","","","","","","","","","","","","","","","","","","",""
"803","<p style=""color:white; font-size: 35px;"">不孝</p>","i","categorize-html","82","208270","0.0-6.0-1.0-6.0-1.11","2","2","2","2","2","2","2","2","2","2","2","2","1","3","2","2","2","2","2","2","4","5","4","4","4","5","4","5","4","1","0","1","1","0","0","1","1","0","1","1","0","1","0","1","3","4","5","4","4","5","4","3","3","2","587598071420944384","陈","181","","","","","","","","","","","","","","","","","","","true","13","3","moral","803","negative","不孝","","","","","","","","","","","","","","",""
"null","","null","html-keyboard-response","83","208522","0.0-6.0-1.0-6.0-0.12","2","2","2","2","2","2","2","2","2","2","2","2","1","3","2","2","2","2","2","2","4","5","4","4","4","5","4","5","4","1","0","1","1","0","0","1","1","0","1","1","0","1","0","1","3","4","5","4","4","5","4","3","3","2","587598071420944384","陈","181","","","","","","","","","","","","","","","","","","","","","","","","","","","","","","","","","","","","","","","",""
"524","<p style=""color:rgb(150, 250, 100); font-size: 35px;"">自己</p>","i","categorize-html","84","209047","0.0-6.0-1.0-6.0-1.12","2","2","2","2","2","2","2","2","2","2","2","2","1","3","2","2","2","2","2","2","4","5","4","4","4","5","4","5","4","1","0","1","1","0","0","1","1","0","1","1","0","1","0","1","3","4","5","4","4","5","4","3","3","2","587598071420944384","陈","181","","","","","","","","","","","","","","","","","","","true","13","3","moral","524","self","自己","","","","","","","","","","","","","","",""
"null","","null","html-keyboard-response","85","209298","0.0-6.0-1.0-6.0-0.13","2","2","2","2","2","2","2","2","2","2","2","2","1","3","2","2","2","2","2","2","4","5","4","4","4","5","4","5","4","1","0","1","1","0","0","1","1","0","1","1","0","1","0","1","3","4","5","4","4","5","4","3","3","2","587598071420944384","陈","181","","","","","","","","","","","","","","","","","","","","","","","","","","","","","","","","","","","","","","","",""
"1596","<p style=""color:white; font-size: 35px;"">正直</p>","e","categorize-html","86","210896","0.0-6.0-1.0-6.0-1.13","2","2","2","2","2","2","2","2","2","2","2","2","1","3","2","2","2","2","2","2","4","5","4","4","4","5","4","5","4","1","0","1","1","0","0","1","1","0","1","1","0","1","0","1","3","4","5","4","4","5","4","3","3","2","587598071420944384","陈","181","","","","","","","","","","","","","","","","","","","true","13","3","moral","1596","positive","正直","","","","","","","","","","","","","","",""
"null","","null","html-keyboard-response","87","211147","0.0-6.0-1.0-6.0-0.14","2","2","2","2","2","2","2","2","2","2","2","2","1","3","2","2","2","2","2","2","4","5","4","4","4","5","4","5","4","1","0","1","1","0","0","1","1","0","1","1","0","1","0","1","3","4","5","4","4","5","4","3","3","2","587598071420944384","陈","181","","","","","","","","","","","","","","","","","","","","","","","","","","","","","","","","","","","","","","","",""
"603","<p style=""color:rgb(150, 250, 100); font-size: 35px;"">别人的</p>","e","categorize-html","88","211751","0.0-6.0-1.0-6.0-1.14","2","2","2","2","2","2","2","2","2","2","2","2","1","3","2","2","2","2","2","2","4","5","4","4","4","5","4","5","4","1","0","1","1","0","0","1","1","0","1","1","0","1","0","1","3","4","5","4","4","5","4","3","3","2","587598071420944384","陈","181","","","","","","","","","","","","","","","","","","","true","13","3","moral","603","other","别人的","","","","","","","","","","","","","","",""
"null","","null","html-keyboard-response","89","212002","0.0-6.0-1.0-6.0-0.15","2","2","2","2","2","2","2","2","2","2","2","2","1","3","2","2","2","2","2","2","4","5","4","4","4","5","4","5","4","1","0","1","1","0","0","1","1","0","1","1","0","1","0","1","3","4","5","4","4","5","4","3","3","2","587598071420944384","陈","181","","","","","","","","","","","","","","","","","","","","","","","","","","","","","","","","","","","","","","","",""
"717","<p style=""color:white; font-size: 35px;"">缺德</p>","i","categorize-html","90","212719","0.0-6.0-1.0-6.0-1.15","2","2","2","2","2","2","2","2","2","2","2","2","1","3","2","2","2","2","2","2","4","5","4","4","4","5","4","5","4","1","0","1","1","0","0","1","1","0","1","1","0","1","0","1","3","4","5","4","4","5","4","3","3","2","587598071420944384","陈","181","","","","","","","","","","","","","","","","","","","true","13","3","moral","717","negative","缺德","","","","","","","","","","","","","","",""
"null","","null","html-keyboard-response","91","212970","0.0-6.0-1.0-6.0-0.16","2","2","2","2","2","2","2","2","2","2","2","2","1","3","2","2","2","2","2","2","4","5","4","4","4","5","4","5","4","1","0","1","1","0","0","1","1","0","1","1","0","1","0","1","3","4","5","4","4","5","4","3","3","2","587598071420944384","陈","181","","","","","","","","","","","","","","","","","","","","","","","","","","","","","","","","","","","","","","","",""
"508","<p style=""color:rgb(150, 250, 100); font-size: 35px;"">本人的</p>","i","categorize-html","92","213478","0.0-6.0-1.0-6.0-1.16","2","2","2","2","2","2","2","2","2","2","2","2","1","3","2","2","2","2","2","2","4","5","4","4","4","5","4","5","4","1","0","1","1","0","0","1","1","0","1","1","0","1","0","1","3","4","5","4","4","5","4","3","3","2","587598071420944384","陈","181","","","","","","","","","","","","","","","","","","","true","13","3","moral","508","self","本人的","","","","","","","","","","","","","","",""
"null","","null","html-keyboard-response","93","213730","0.0-6.0-1.0-6.0-0.17","2","2","2","2","2","2","2","2","2","2","2","2","1","3","2","2","2","2","2","2","4","5","4","4","4","5","4","5","4","1","0","1","1","0","0","1","1","0","1","1","0","1","0","1","3","4","5","4","4","5","4","3","3","2","587598071420944384","陈","181","","","","","","","","","","","","","","","","","","","","","","","","","","","","","","","","","","","","","","","",""
"669","<p style=""color:white; font-size: 35px;"">卑鄙</p>","i","categorize-html","94","214399","0.0-6.0-1.0-6.0-1.17","2","2","2","2","2","2","2","2","2","2","2","2","1","3","2","2","2","2","2","2","4","5","4","4","4","5","4","5","4","1","0","1","1","0","0","1","1","0","1","1","0","1","0","1","3","4","5","4","4","5","4","3","3","2","587598071420944384","陈","181","","","","","","","","","","","","","","","","","","","true","13","3","moral","669","negative","卑鄙","","","","","","","","","","","","","","",""
"null","","null","html-keyboard-response","95","214650","0.0-6.0-1.0-6.0-0.18","2","2","2","2","2","2","2","2","2","2","2","2","1","3","2","2","2","2","2","2","4","5","4","4","4","5","4","5","4","1","0","1","1","0","0","1","1","0","1","1","0","1","0","1","3","4","5","4","4","5","4","3","3","2","587598071420944384","陈","181","","","","","","","","","","","","","","","","","","","","","","","","","","","","","","","","","","","","","","","",""
"612","<p style=""color:rgb(150, 250, 100); font-size: 35px;"">他人</p>","e","categorize-html","96","215263","0.0-6.0-1.0-6.0-1.18","2","2","2","2","2","2","2","2","2","2","2","2","1","3","2","2","2","2","2","2","4","5","4","4","4","5","4","5","4","1","0","1","1","0","0","1","1","0","1","1","0","1","0","1","3","4","5","4","4","5","4","3","3","2","587598071420944384","陈","181","","","","","","","","","","","","","","","","","","","true","13","3","moral","612","other","他人","","","","","","","","","","","","","","",""
"null","","null","html-keyboard-response","97","215515","0.0-6.0-1.0-6.0-0.19","2","2","2","2","2","2","2","2","2","2","2","2","1","3","2","2","2","2","2","2","4","5","4","4","4","5","4","5","4","1","0","1","1","0","0","1","1","0","1","1","0","1","0","1","3","4","5","4","4","5","4","3","3","2","587598071420944384","陈","181","","","","","","","","","","","","","","","","","","","","","","","","","","","","","","","","","","","","","","","",""
"884","<p style=""color:white; font-size: 35px;"">君子</p>","i","categorize-html","98","217126","0.0-6.0-1.0-6.0-1.19","2","2","2","2","2","2","2","2","2","2","2","2","1","3","2","2","2","2","2","2","4","5","4","4","4","5","4","5","4","1","0","1","1","0","0","1","1","0","1","1","0","1","0","1","3","4","5","4","4","5","4","3","3","2","587598071420944384","陈","181","","","","","","","","","","","","","","","","","","","false","13","3","moral","1382.590909090909","positive","君子","","","","","","","","","","","","","","",""
"null","","null","html-keyboard-response","99","217379","0.0-6.0-1.0-6.0-0.20","2","2","2","2","2","2","2","2","2","2","2","2","1","3","2","2","2","2","2","2","4","5","4","4","4","5","4","5","4","1","0","1","1","0","0","1","1","0","1","1","0","1","0","1","3","4","5","4","4","5","4","3","3","2","587598071420944384","陈","181","","","","","","","","","","","","","","","","","","","","","","","","","","","","","","","","","","","","","","","",""
"924","<p style=""color:rgb(150, 250, 100); font-size: 35px;"">他的</p>","e","categorize-html","100","218303","0.0-6.0-1.0-6.0-1.20","2","2","2","2","2","2","2","2","2","2","2","2","1","3","2","2","2","2","2","2","4","5","4","4","4","5","4","5","4","1","0","1","1","0","0","1","1","0","1","1","0","1","0","1","3","4","5","4","4","5","4","3","3","2","587598071420944384","陈","181","","","","","","","","","","","","","","","","","","","true","13","3","moral","924","other","他的","","","","","","","","","","","","","","",""
"null","","null","html-keyboard-response","101","218554","0.0-6.0-1.0-6.0-0.21","2","2","2","2","2","2","2","2","2","2","2","2","1","3","2","2","2","2","2","2","4","5","4","4","4","5","4","5","4","1","0","1","1","0","0","1","1","0","1","1","0","1","0","1","3","4","5","4","4","5","4","3","3","2","587598071420944384","陈","181","","","","","","","","","","","","","","","","","","","","","","","","","","","","","","","","","","","","","","","",""
"757","<p style=""color:white; font-size: 35px;"">诚信</p>","e","categorize-html","102","219311","0.0-6.0-1.0-6.0-1.21","2","2","2","2","2","2","2","2","2","2","2","2","1","3","2","2","2","2","2","2","4","5","4","4","4","5","4","5","4","1","0","1","1","0","0","1","1","0","1","1","0","1","0","1","3","4","5","4","4","5","4","3","3","2","587598071420944384","陈","181","","","","","","","","","","","","","","","","","","","true","13","3","moral","757","positive","诚信","","","","","","","","","","","","","","",""
"null","","null","html-keyboard-response","103","219562","0.0-6.0-1.0-6.0-0.22","2","2","2","2","2","2","2","2","2","2","2","2","1","3","2","2","2","2","2","2","4","5","4","4","4","5","4","5","4","1","0","1","1","0","0","1","1","0","1","1","0","1","0","1","3","4","5","4","4","5","4","3","3","2","587598071420944384","陈","181","","","","","","","","","","","","","","","","","","","","","","","","","","","","","","","","","","","","","","","",""
"757","<p style=""color:rgb(150, 250, 100); font-size: 35px;"">自己的</p>","i","categorize-html","104","220319","0.0-6.0-1.0-6.0-1.22","2","2","2","2","2","2","2","2","2","2","2","2","1","3","2","2","2","2","2","2","4","5","4","4","4","5","4","5","4","1","0","1","1","0","0","1","1","0","1","1","0","1","0","1","3","4","5","4","4","5","4","3","3","2","587598071420944384","陈","181","","","","","","","","","","","","","","","","","","","true","13","3","moral","757","self","自己的","","","","","","","","","","","","","","",""
"null","","null","html-keyboard-response","105","220571","0.0-6.0-1.0-6.0-0.23","2","2","2","2","2","2","2","2","2","2","2","2","1","3","2","2","2","2","2","2","4","5","4","4","4","5","4","5","4","1","0","1","1","0","0","1","1","0","1","1","0","1","0","1","3","4","5","4","4","5","4","3","3","2","587598071420944384","陈","181","","","","","","","","","","","","","","","","","","","","","","","","","","","","","","","","","","","","","","","",""
"1243","<p style=""color:white; font-size: 35px;"">黑心</p>","i","categorize-html","106","221815","0.0-6.0-1.0-6.0-1.23","2","2","2","2","2","2","2","2","2","2","2","2","1","3","2","2","2","2","2","2","4","5","4","4","4","5","4","5","4","1","0","1","1","0","0","1","1","0","1","1","0","1","0","1","3","4","5","4","4","5","4","3","3","2","587598071420944384","陈","181","","","","","","","","","","","","","","","","","","","true","13","3","moral","1243","negative","黑心","","","","","","","","","","","","","","",""
"6463","
    <div class=""tag-bottom""><p>
    —— 任务4：对“他人/积极”词和“自我/消极”词分类 ——<p/>
    <span style=""color:#78DCE8""><b>与刚才的任务完全相同，请再次对这四类词语分类</b></span><p/>
    <span style=""color:#FFD866""><b>请根据上方标签的提示，尽可能正确并且快速地做出按键反应</b></span><p/>
    当按键错误时屏幕中会出现<span style=""color:red""> X </span>，需要按另一个键纠正才能继续<br/><p/>
    请把双手食指分别放在键盘的“E”键和“I”键上<p/>
    按<空格键>开始
    </p></div>"," ","html-keyboard-response","107","228279","0.0-6.0-1.0-7.0","2","2","2","2","2","2","2","2","2","2","2","2","1","3","2","2","2","2","2","2","4","5","4","4","4","5","4","5","4","1","0","1","1","0","0","1","1","0","1","1","0","1","0","1","3","4","5","4","4","5","4","3","3","2","587598071420944384","陈","181","","","","","","","","","","","","","","","","","","","","","","","","","","","","","","","","","","","","","","","",""
"null","","null","html-keyboard-response","108","228529","0.0-6.0-1.0-8.0-0.0","2","2","2","2","2","2","2","2","2","2","2","2","1","3","2","2","2","2","2","2","4","5","4","4","4","5","4","5","4","1","0","1","1","0","0","1","1","0","1","1","0","1","0","1","3","4","5","4","4","5","4","3","3","2","587598071420944384","陈","181","","","","","","","","","","","","","","","","","","","","","","","","","","","","","","","","","","","","","","","",""
"589","<p style=""color:rgb(150, 250, 100); font-size: 35px;"">别人</p>","e","categorize-html","109","229118","0.0-6.0-1.0-8.0-1.0","2","2","2","2","2","2","2","2","2","2","2","2","1","3","2","2","2","2","2","2","4","5","4","4","4","5","4","5","4","1","0","1","1","0","0","1","1","0","1","1","0","1","0","1","3","4","5","4","4","5","4","3","3","2","587598071420944384","陈","181","","","","","","","","","","","","","","","","","","","true","14","4","moral","589","other","别人","","","","","","","","","","","","","","",""
"null","","null","html-keyboard-response","110","229370","0.0-6.0-1.0-8.0-0.1","2","2","2","2","2","2","2","2","2","2","2","2","1","3","2","2","2","2","2","2","4","5","4","4","4","5","4","5","4","1","0","1","1","0","0","1","1","0","1","1","0","1","0","1","3","4","5","4","4","5","4","3","3","2","587598071420944384","陈","181","","","","","","","","","","","","","","","","","","","","","","","","","","","","","","","","","","","","","","","",""
"548","<p style=""color:white; font-size: 35px;"">正直</p>","e","categorize-html","111","229919","0.0-6.0-1.0-8.0-1.1","2","2","2","2","2","2","2","2","2","2","2","2","1","3","2","2","2","2","2","2","4","5","4","4","4","5","4","5","4","1","0","1","1","0","0","1","1","0","1","1","0","1","0","1","3","4","5","4","4","5","4","3","3","2","587598071420944384","陈","181","","","","","","","","","","","","","","","","","","","true","14","4","moral","548","positive","正直","","","","","","","","","","","","","","",""
"null","","null","html-keyboard-response","112","230169","0.0-6.0-1.0-8.0-0.2","2","2","2","2","2","2","2","2","2","2","2","2","1","3","2","2","2","2","2","2","4","5","4","4","4","5","4","5","4","1","0","1","1","0","0","1","1","0","1","1","0","1","0","1","3","4","5","4","4","5","4","3","3","2","587598071420944384","陈","181","","","","","","","","","","","","","","","","","","","","","","","","","","","","","","","","","","","","","","","",""
"501","<p style=""color:rgb(150, 250, 100); font-size: 35px;"">本人的</p>","e","categorize-html","113","231327","0.0-6.0-1.0-8.0-1.2","2","2","2","2","2","2","2","2","2","2","2","2","1","3","2","2","2","2","2","2","4","5","4","4","4","5","4","5","4","1","0","1","1","0","0","1","1","0","1","1","0","1","0","1","3","4","5","4","4","5","4","3","3","2","587598071420944384","陈","181","","","","","","","","","","","","","","","","","","","false","14","4","moral","1384","self","本人的","","","","","","","","","","","","","","",""
"null","","null","html-keyboard-response","114","231578","0.0-6.0-1.0-8.0-0.3","2","2","2","2","2","2","2","2","2","2","2","2","1","3","2","2","2","2","2","2","4","5","4","4","4","5","4","5","4","1","0","1","1","0","0","1","1","0","1","1","0","1","0","1","3","4","5","4","4","5","4","3","3","2","587598071420944384","陈","181","","","","","","","","","","","","","","","","","","","","","","","","","","","","","","","","","","","","","","","",""
"757","<p style=""color:white; font-size: 35px;"">卑鄙</p>","i","categorize-html","115","232335","0.0-6.0-1.0-8.0-1.3","2","2","2","2","2","2","2","2","2","2","2","2","1","3","2","2","2","2","2","2","4","5","4","4","4","5","4","5","4","1","0","1","1","0","0","1","1","0","1","1","0","1","0","1","3","4","5","4","4","5","4","3","3","2","587598071420944384","陈","181","","","","","","","","","","","","","","","","","","","true","14","4","moral","757","negative","卑鄙","","","","","","","","","","","","","","",""
"null","","null","html-keyboard-response","116","232586","0.0-6.0-1.0-8.0-0.4","2","2","2","2","2","2","2","2","2","2","2","2","1","3","2","2","2","2","2","2","4","5","4","4","4","5","4","5","4","1","0","1","1","0","0","1","1","0","1","1","0","1","0","1","3","4","5","4","4","5","4","3","3","2","587598071420944384","陈","181","","","","","","","","","","","","","","","","","","","","","","","","","","","","","","","","","","","","","","","",""
"692","<p style=""color:rgb(150, 250, 100); font-size: 35px;"">他人的</p>","e","categorize-html","117","233279","0.0-6.0-1.0-8.0-1.4","2","2","2","2","2","2","2","2","2","2","2","2","1","3","2","2","2","2","2","2","4","5","4","4","4","5","4","5","4","1","0","1","1","0","0","1","1","0","1","1","0","1","0","1","3","4","5","4","4","5","4","3","3","2","587598071420944384","陈","181","","","","","","","","","","","","","","","","","","","true","14","4","moral","692","other","他人的","","","","","","","","","","","","","","",""
"null","","null","html-keyboard-response","118","233530","0.0-6.0-1.0-8.0-0.5","2","2","2","2","2","2","2","2","2","2","2","2","1","3","2","2","2","2","2","2","4","5","4","4","4","5","4","5","4","1","0","1","1","0","0","1","1","0","1","1","0","1","0","1","3","4","5","4","4","5","4","3","3","2","587598071420944384","陈","181","","","","","","","","","","","","","","","","","","","","","","","","","","","","","","","","","","","","","","","",""
"484","<p style=""color:white; font-size: 35px;"">不仁</p>","i","categorize-html","119","234015","0.0-6.0-1.0-8.0-1.5","2","2","2","2","2","2","2","2","2","2","2","2","1","3","2","2","2","2","2","2","4","5","4","4","4","5","4","5","4","1","0","1","1","0","0","1","1","0","1","1","0","1","0","1","3","4","5","4","4","5","4","3","3","2","587598071420944384","陈","181","","","","","","","","","","","","","","","","","","","true","14","4","moral","484","negative","不仁","","","","","","","","","","","","","","",""
"null","","null","html-keyboard-response","120","234266","0.0-6.0-1.0-8.0-0.6","2","2","2","2","2","2","2","2","2","2","2","2","1","3","2","2","2","2","2","2","4","5","4","4","4","5","4","5","4","1","0","1","1","0","0","1","1","0","1","1","0","1","0","1","3","4","5","4","4","5","4","3","3","2","587598071420944384","陈","181","","","","","","","","","","","","","","","","","","","","","","","","","","","","","","","","","","","","","","","",""
"484","<p style=""color:rgb(150, 250, 100); font-size: 35px;"">自己</p>","i","categorize-html","121","234751","0.0-6.0-1.0-8.0-1.6","2","2","2","2","2","2","2","2","2","2","2","2","1","3","2","2","2","2","2","2","4","5","4","4","4","5","4","5","4","1","0","1","1","0","0","1","1","0","1","1","0","1","0","1","3","4","5","4","4","5","4","3","3","2","587598071420944384","陈","181","","","","","","","","","","","","","","","","","","","true","14","4","moral","484","self","自己","","","","","","","","","","","","","","",""
"null","","null","html-keyboard-response","122","235002","0.0-6.0-1.0-8.0-0.7","2","2","2","2","2","2","2","2","2","2","2","2","1","3","2","2","2","2","2","2","4","5","4","4","4","5","4","5","4","1","0","1","1","0","0","1","1","0","1","1","0","1","0","1","3","4","5","4","4","5","4","3","3","2","587598071420944384","陈","181","","","","","","","","","","","","","","","","","","","","","","","","","","","","","","","","","","","","","","","",""
"525","<p style=""color:white; font-size: 35px;"">诚信</p>","e","categorize-html","123","235527","0.0-6.0-1.0-8.0-1.7","2","2","2","2","2","2","2","2","2","2","2","2","1","3","2","2","2","2","2","2","4","5","4","4","4","5","4","5","4","1","0","1","1","0","0","1","1","0","1","1","0","1","0","1","3","4","5","4","4","5","4","3","3","2","587598071420944384","陈","181","","","","","","","","","","","","","","","","","","","true","14","4","moral","525","positive","诚信","","","","","","","","","","","","","","",""
"null","","null","html-keyboard-response","124","235778","0.0-6.0-1.0-8.0-0.8","2","2","2","2","2","2","2","2","2","2","2","2","1","3","2","2","2","2","2","2","4","5","4","4","4","5","4","5","4","1","0","1","1","0","0","1","1","0","1","1","0","1","0","1","3","4","5","4","4","5","4","3","3","2","587598071420944384","陈","181","","","","","","","","","","","","","","","","","","","","","","","","","","","","","","","","","","","","","","","",""
"588","<p style=""color:rgb(150, 250, 100); font-size: 35px;"">我的</p>","i","categorize-html","125","236366","0.0-6.0-1.0-8.0-1.8","2","2","2","2","2","2","2","2","2","2","2","2","1","3","2","2","2","2","2","2","4","5","4","4","4","5","4","5","4","1","0","1","1","0","0","1","1","0","1","1","0","1","0","1","3","4","5","4","4","5","4","3","3","2","587598071420944384","陈","181","","","","","","","","","","","","","","","","","","","true","14","4","moral","588","self","我的","","","","","","","","","","","","","","",""
"null","","null","html-keyboard-response","126","236618","0.0-6.0-1.0-8.0-0.9","2","2","2","2","2","2","2","2","2","2","2","2","1","3","2","2","2","2","2","2","4","5","4","4","4","5","4","5","4","1","0","1","1","0","0","1","1","0","1","1","0","1","0","1","3","4","5","4","4","5","4","3","3","2","587598071420944384","陈","181","","","","","","","","","","","","","","","","","","","","","","","","","","","","","","","","","","","","","","","",""
"628","<p style=""color:white; font-size: 35px;"">善良</p>","e","categorize-html","127","237246","0.0-6.0-1.0-8.0-1.9","2","2","2","2","2","2","2","2","2","2","2","2","1","3","2","2","2","2","2","2","4","5","4","4","4","5","4","5","4","1","0","1","1","0","0","1","1","0","1","1","0","1","0","1","3","4","5","4","4","5","4","3","3","2","587598071420944384","陈","181","","","","","","","","","","","","","","","","","","","true","14","4","moral","628","positive","善良","","","","","","","","","","","","","","",""
"null","","null","html-keyboard-response","128","237498","0.0-6.0-1.0-8.0-0.10","2","2","2","2","2","2","2","2","2","2","2","2","1","3","2","2","2","2","2","2","4","5","4","4","4","5","4","5","4","1","0","1","1","0","0","1","1","0","1","1","0","1","0","1","3","4","5","4","4","5","4","3","3","2","587598071420944384","陈","181","","","","","","","","","","","","","","","","","","","","","","","","","","","","","","","","","","","","","","","",""
"797","<p style=""color:rgb(150, 250, 100); font-size: 35px;"">他人</p>","i","categorize-html","129","238735","0.0-6.0-1.0-8.0-1.10","2","2","2","2","2","2","2","2","2","2","2","2","1","3","2","2","2","2","2","2","4","5","4","4","4","5","4","5","4","1","0","1","1","0","0","1","1","0","1","1","0","1","0","1","3","4","5","4","4","5","4","3","3","2","587598071420944384","陈","181","","","","","","","","","","","","","","","","","","","false","14","4","moral","1384","other","他人","","","","","","","","","","","","","","",""
"null","","null","html-keyboard-response","130","238987","0.0-6.0-1.0-8.0-0.11","2","2","2","2","2","2","2","2","2","2","2","2","1","3","2","2","2","2","2","2","4","5","4","4","4","5","4","5","4","1","0","1","1","0","0","1","1","0","1","1","0","1","0","1","3","4","5","4","4","5","4","3","3","2","587598071420944384","陈","181","","","","","","","","","","","","","","","","","","","","","","","","","","","","","","","","","","","","","","","",""
"779","<p style=""color:white; font-size: 35px;"">不孝</p>","i","categorize-html","131","239767","0.0-6.0-1.0-8.0-1.11","2","2","2","2","2","2","2","2","2","2","2","2","1","3","2","2","2","2","2","2","4","5","4","4","4","5","4","5","4","1","0","1","1","0","0","1","1","0","1","1","0","1","0","1","3","4","5","4","4","5","4","3","3","2","587598071420944384","陈","181","","","","","","","","","","","","","","","","","","","true","14","4","moral","779","negative","不孝","","","","","","","","","","","","","","",""
"null","","null","html-keyboard-response","132","240017","0.0-6.0-1.0-8.0-0.12","2","2","2","2","2","2","2","2","2","2","2","2","1","3","2","2","2","2","2","2","4","5","4","4","4","5","4","5","4","1","0","1","1","0","0","1","1","0","1","1","0","1","0","1","3","4","5","4","4","5","4","3","3","2","587598071420944384","陈","181","","","","","","","","","","","","","","","","","","","","","","","","","","","","","","","","","","","","","","","",""
"589","<p style=""color:rgb(150, 250, 100); font-size: 35px;"">本人的</p>","i","categorize-html","133","240606","0.0-6.0-1.0-8.0-1.12","2","2","2","2","2","2","2","2","2","2","2","2","1","3","2","2","2","2","2","2","4","5","4","4","4","5","4","5","4","1","0","1","1","0","0","1","1","0","1","1","0","1","0","1","3","4","5","4","4","5","4","3","3","2","587598071420944384","陈","181","","","","","","","","","","","","","","","","","","","true","14","4","moral","589","self","本人的","","","","","","","","","","","","","","",""
"null","","null","html-keyboard-response","134","240857","0.0-6.0-1.0-8.0-0.13","2","2","2","2","2","2","2","2","2","2","2","2","1","3","2","2","2","2","2","2","4","5","4","4","4","5","4","5","4","1","0","1","1","0","0","1","1","0","1","1","0","1","0","1","3","4","5","4","4","5","4","3","3","2","587598071420944384","陈","181","","","","","","","","","","","","","","","","","","","","","","","","","","","","","","","","","","","","","","","",""
"589","<p style=""color:white; font-size: 35px;"">不仁</p>","i","categorize-html","135","241447","0.0-6.0-1.0-8.0-1.13","2","2","2","2","2","2","2","2","2","2","2","2","1","3","2","2","2","2","2","2","4","5","4","4","4","5","4","5","4","1","0","1","1","0","0","1","1","0","1","1","0","1","0","1","3","4","5","4","4","5","4","3","3","2","587598071420944384","陈","181","","","","","","","","","","","","","","","","","","","true","14","4","moral","589","negative","不仁","","","","","","","","","","","","","","",""
"null","","null","html-keyboard-response","136","241698","0.0-6.0-1.0-8.0-0.14","2","2","2","2","2","2","2","2","2","2","2","2","1","3","2","2","2","2","2","2","4","5","4","4","4","5","4","5","4","1","0","1","1","0","0","1","1","0","1","1","0","1","0","1","3","4","5","4","4","5","4","3","3","2","587598071420944384","陈","181","","","","","","","","","","","","","","","","","","","","","","","","","","","","","","","","","","","","","","","",""
"508","<p style=""color:rgb(150, 250, 100); font-size: 35px;"">他</p>","e","categorize-html","137","242207","0.0-6.0-1.0-8.0-1.14","2","2","2","2","2","2","2","2","2","2","2","2","1","3","2","2","2","2","2","2","4","5","4","4","4","5","4","5","4","1","0","1","1","0","0","1","1","0","1","1","0","1","0","1","3","4","5","4","4","5","4","3","3","2","587598071420944384","陈","181","","","","","","","","","","","","","","","","","","","true","14","4","moral","508","other","他","","","","","","","","","","","","","","",""
"null","","null","html-keyboard-response","138","242458","0.0-6.0-1.0-8.0-0.15","2","2","2","2","2","2","2","2","2","2","2","2","1","3","2","2","2","2","2","2","4","5","4","4","4","5","4","5","4","1","0","1","1","0","0","1","1","0","1","1","0","1","0","1","3","4","5","4","4","5","4","3","3","2","587598071420944384","陈","181","","","","","","","","","","","","","","","","","","","","","","","","","","","","","","","","","","","","","","","",""
"1004","<p style=""color:white; font-size: 35px;"">君子</p>","e","categorize-html","139","243462","0.0-6.0-1.0-8.0-1.15","2","2","2","2","2","2","2","2","2","2","2","2","1","3","2","2","2","2","2","2","4","5","4","4","4","5","4","5","4","1","0","1","1","0","0","1","1","0","1","1","0","1","0","1","3","4","5","4","4","5","4","3","3","2","587598071420944384","陈","181","","","","","","","","","","","","","","","","","","","true","14","4","moral","1004","positive","君子","","","","","","","","","","","","","","",""
"null","","null","html-keyboard-response","140","243713","0.0-6.0-1.0-8.0-0.16","2","2","2","2","2","2","2","2","2","2","2","2","1","3","2","2","2","2","2","2","4","5","4","4","4","5","4","5","4","1","0","1","1","0","0","1","1","0","1","1","0","1","0","1","3","4","5","4","4","5","4","3","3","2","587598071420944384","陈","181","","","","","","","","","","","","","","","","","","","","","","","","","","","","","","","","","","","","","","","",""
"613","<p style=""color:rgb(150, 250, 100); font-size: 35px;"">本人</p>","i","categorize-html","141","244327","0.0-6.0-1.0-8.0-1.16","2","2","2","2","2","2","2","2","2","2","2","2","1","3","2","2","2","2","2","2","4","5","4","4","4","5","4","5","4","1","0","1","1","0","0","1","1","0","1","1","0","1","0","1","3","4","5","4","4","5","4","3","3","2","587598071420944384","陈","181","","","","","","","","","","","","","","","","","","","true","14","4","moral","613","self","本人","","","","","","","","","","","","","","",""
"null","","null","html-keyboard-response","142","244578","0.0-6.0-1.0-8.0-0.17","2","2","2","2","2","2","2","2","2","2","2","2","1","3","2","2","2","2","2","2","4","5","4","4","4","5","4","5","4","1","0","1","1","0","0","1","1","0","1","1","0","1","0","1","3","4","5","4","4","5","4","3","3","2","587598071420944384","陈","181","","","","","","","","","","","","","","","","","","","","","","","","","","","","","","","","","","","","","","","",""
"1765","<p style=""color:white; font-size: 35px;"">善良</p>","e","categorize-html","143","246343","0.0-6.0-1.0-8.0-1.17","2","2","2","2","2","2","2","2","2","2","2","2","1","3","2","2","2","2","2","2","4","5","4","4","4","5","4","5","4","1","0","1","1","0","0","1","1","0","1","1","0","1","0","1","3","4","5","4","4","5","4","3","3","2","587598071420944384","陈","181","","","","","","","","","","","","","","","","","","","true","14","4","moral","1765","positive","善良","","","","","","","","","","","","","","",""
"null","","null","html-keyboard-response","144","246594","0.0-6.0-1.0-8.0-0.18","2","2","2","2","2","2","2","2","2","2","2","2","1","3","2","2","2","2","2","2","4","5","4","4","4","5","4","5","4","1","0","1","1","0","0","1","1","0","1","1","0","1","0","1","3","4","5","4","4","5","4","3","3","2","587598071420944384","陈","181","","","","","","","","","","","","","","","","","","","","","","","","","","","","","","","","","","","","","","","",""
"500","<p style=""color:rgb(150, 250, 100); font-size: 35px;"">他人</p>","e","categorize-html","145","247095","0.0-6.0-1.0-8.0-1.18","2","2","2","2","2","2","2","2","2","2","2","2","1","3","2","2","2","2","2","2","4","5","4","4","4","5","4","5","4","1","0","1","1","0","0","1","1","0","1","1","0","1","0","1","3","4","5","4","4","5","4","3","3","2","587598071420944384","陈","181","","","","","","","","","","","","","","","","","","","true","14","4","moral","500","other","他人","","","","","","","","","","","","","","",""
"null","","null","html-keyboard-response","146","247347","0.0-6.0-1.0-8.0-0.19","2","2","2","2","2","2","2","2","2","2","2","2","1","3","2","2","2","2","2","2","4","5","4","4","4","5","4","5","4","1","0","1","1","0","0","1","1","0","1","1","0","1","0","1","3","4","5","4","4","5","4","3","3","2","587598071420944384","陈","181","","","","","","","","","","","","","","","","","","","","","","","","","","","","","","","","","","","","","","","",""
"676","<p style=""color:white; font-size: 35px;"">小人</p>","i","categorize-html","147","248023","0.0-6.0-1.0-8.0-1.19","2","2","2","2","2","2","2","2","2","2","2","2","1","3","2","2","2","2","2","2","4","5","4","4","4","5","4","5","4","1","0","1","1","0","0","1","1","0","1","1","0","1","0","1","3","4","5","4","4","5","4","3","3","2","587598071420944384","陈","181","","","","","","","","","","","","","","","","","","","true","14","4","moral","676","negative","小人","","","","","","","","","","","","","","",""
"null","","null","html-keyboard-response","148","248273","0.0-6.0-1.0-8.0-0.20","2","2","2","2","2","2","2","2","2","2","2","2","1","3","2","2","2","2","2","2","4","5","4","4","4","5","4","5","4","1","0","1","1","0","0","1","1","0","1","1","0","1","0","1","3","4","5","4","4","5","4","3","3","2","587598071420944384","陈","181","","","","","","","","","","","","","","","","","","","","","","","","","","","","","","","","","","","","","","","",""
"501","<p style=""color:rgb(150, 250, 100); font-size: 35px;"">我</p>","i","categorize-html","149","248775","0.0-6.0-1.0-8.0-1.20","2","2","2","2","2","2","2","2","2","2","2","2","1","3","2","2","2","2","2","2","4","5","4","4","4","5","4","5","4","1","0","1","1","0","0","1","1","0","1","1","0","1","0","1","3","4","5","4","4","5","4","3","3","2","587598071420944384","陈","181","","","","","","","","","","","","","","","","","","","true","14","4","moral","501","self","我","","","","","","","","","","","","","","",""
"null","","null","html-keyboard-response","150","249026","0.0-6.0-1.0-8.0-0.21","2","2","2","2","2","2","2","2","2","2","2","2","1","3","2","2","2","2","2","2","4","5","4","4","4","5","4","5","4","1","0","1","1","0","0","1","1","0","1","1","0","1","0","1","3","4","5","4","4","5","4","3","3","2","587598071420944384","陈","181","","","","","","","","","","","","","","","","","","","","","","","","","","","","","","","","","","","","","","","",""
"1517","<p style=""color:white; font-size: 35px;"">不孝</p>","i","categorize-html","151","250543","0.0-6.0-1.0-8.0-1.21","2","2","2","2","2","2","2","2","2","2","2","2","1","3","2","2","2","2","2","2","4","5","4","4","4","5","4","5","4","1","0","1","1","0","0","1","1","0","1","1","0","1","0","1","3","4","5","4","4","5","4","3","3","2","587598071420944384","陈","181","","","","","","","","","","","","","","","","","","","true","14","4","moral","1517","negative","不孝","","","","","","","","","","","","","","",""
"null","","null","html-keyboard-response","152","250794","0.0-6.0-1.0-8.0-0.22","2","2","2","2","2","2","2","2","2","2","2","2","1","3","2","2","2","2","2","2","4","5","4","4","4","5","4","5","4","1","0","1","1","0","0","1","1","0","1","1","0","1","0","1","3","4","5","4","4","5","4","3","3","2","587598071420944384","陈","181","","","","","","","","","","","","","","","","","","","","","","","","","","","","","","","","","","","","","","","",""
"732","<p style=""color:rgb(150, 250, 100); font-size: 35px;"">别人的</p>","e","categorize-html","153","251527","0.0-6.0-1.0-8.0-1.22","2","2","2","2","2","2","2","2","2","2","2","2","1","3","2","2","2","2","2","2","4","5","4","4","4","5","4","5","4","1","0","1","1","0","0","1","1","0","1","1","0","1","0","1","3","4","5","4","4","5","4","3","3","2","587598071420944384","陈","181","","","","","","","","","","","","","","","","","","","true","14","4","moral","732","other","别人的","","","","","","","","","","","","","","",""
"null","","null","html-keyboard-response","154","251778","0.0-6.0-1.0-8.0-0.23","2","2","2","2","2","2","2","2","2","2","2","2","1","3","2","2","2","2","2","2","4","5","4","4","4","5","4","5","4","1","0","1","1","0","0","1","1","0","1","1","0","1","0","1","3","4","5","4","4","5","4","3","3","2","587598071420944384","陈","181","","","","","","","","","","","","","","","","","","","","","","","","","","","","","","","","","","","","","","","",""
"1468","<p style=""color:white; font-size: 35px;"">廉正</p>","e","categorize-html","155","253247","0.0-6.0-1.0-8.0-1.23","2","2","2","2","2","2","2","2","2","2","2","2","1","3","2","2","2","2","2","2","4","5","4","4","4","5","4","5","4","1","0","1","1","0","0","1","1","0","1","1","0","1","0","1","3","4","5","4","4","5","4","3","3","2","587598071420944384","陈","181","","","","","","","","","","","","","","","","","","","true","14","4","moral","1468","positive","廉正","","","","","","","","","","","","","","",""
"null","","null","html-keyboard-response","156","253498","0.0-6.0-1.0-8.0-0.24","2","2","2","2","2","2","2","2","2","2","2","2","1","3","2","2","2","2","2","2","4","5","4","4","4","5","4","5","4","1","0","1","1","0","0","1","1","0","1","1","0","1","0","1","3","4","5","4","4","5","4","3","3","2","587598071420944384","陈","181","","","","","","","","","","","","","","","","","","","","","","","","","","","","","","","","","","","","","","","",""
"588","<p style=""color:rgb(150, 250, 100); font-size: 35px;"">别人</p>","e","categorize-html","157","254086","0.0-6.0-1.0-8.0-1.24","2","2","2","2","2","2","2","2","2","2","2","2","1","3","2","2","2","2","2","2","4","5","4","4","4","5","4","5","4","1","0","1","1","0","0","1","1","0","1","1","0","1","0","1","3","4","5","4","4","5","4","3","3","2","587598071420944384","陈","181","","","","","","","","","","","","","","","","","","","true","14","4","moral","588","other","别人","","","","","","","","","","","","","","",""
"null","","null","html-keyboard-response","158","254337","0.0-6.0-1.0-8.0-0.25","2","2","2","2","2","2","2","2","2","2","2","2","1","3","2","2","2","2","2","2","4","5","4","4","4","5","4","5","4","1","0","1","1","0","0","1","1","0","1","1","0","1","0","1","3","4","5","4","4","5","4","3","3","2","587598071420944384","陈","181","","","","","","","","","","","","","","","","","","","","","","","","","","","","","","","","","","","","","","","",""
"966","<p style=""color:white; font-size: 35px;"">黑心</p>","i","categorize-html","159","255303","0.0-6.0-1.0-8.0-1.25","2","2","2","2","2","2","2","2","2","2","2","2","1","3","2","2","2","2","2","2","4","5","4","4","4","5","4","5","4","1","0","1","1","0","0","1","1","0","1","1","0","1","0","1","3","4","5","4","4","5","4","3","3","2","587598071420944384","陈","181","","","","","","","","","","","","","","","","","","","true","14","4","moral","966","negative","黑心","","","","","","","","","","","","","","",""
"null","","null","html-keyboard-response","160","255554","0.0-6.0-1.0-8.0-0.26","2","2","2","2","2","2","2","2","2","2","2","2","1","3","2","2","2","2","2","2","4","5","4","4","4","5","4","5","4","1","0","1","1","0","0","1","1","0","1","1","0","1","0","1","3","4","5","4","4","5","4","3","3","2","587598071420944384","陈","181","","","","","","","","","","","","","","","","","","","","","","","","","","","","","","","","","","","","","","","",""
"573","<p style=""color:rgb(150, 250, 100); font-size: 35px;"">自己的</p>","i","categorize-html","161","256127","0.0-6.0-1.0-8.0-1.26","2","2","2","2","2","2","2","2","2","2","2","2","1","3","2","2","2","2","2","2","4","5","4","4","4","5","4","5","4","1","0","1","1","0","0","1","1","0","1","1","0","1","0","1","3","4","5","4","4","5","4","3","3","2","587598071420944384","陈","181","","","","","","","","","","","","","","","","","","","true","14","4","moral","573","self","自己的","","","","","","","","","","","","","","",""
"null","","null","html-keyboard-response","162","256379","0.0-6.0-1.0-8.0-0.27","2","2","2","2","2","2","2","2","2","2","2","2","1","3","2","2","2","2","2","2","4","5","4","4","4","5","4","5","4","1","0","1","1","0","0","1","1","0","1","1","0","1","0","1","3","4","5","4","4","5","4","3","3","2","587598071420944384","陈","181","","","","","","","","","","","","","","","","","","","","","","","","","","","","","","","","","","","","","","","",""
"1027","<p style=""color:white; font-size: 35px;"">高尚</p>","e","categorize-html","163","257406","0.0-6.0-1.0-8.0-1.27","2","2","2","2","2","2","2","2","2","2","2","2","1","3","2","2","2","2","2","2","4","5","4","4","4","5","4","5","4","1","0","1","1","0","0","1","1","0","1","1","0","1","0","1","3","4","5","4","4","5","4","3","3","2","587598071420944384","陈","181","","","","","","","","","","","","","","","","","","","true","14","4","moral","1027","positive","高尚","","","","","","","","","","","","","","",""
"null","","null","html-keyboard-response","164","257658","0.0-6.0-1.0-8.0-0.28","2","2","2","2","2","2","2","2","2","2","2","2","1","3","2","2","2","2","2","2","4","5","4","4","4","5","4","5","4","1","0","1","1","0","0","1","1","0","1","1","0","1","0","1","3","4","5","4","4","5","4","3","3","2","587598071420944384","陈","181","","","","","","","","","","","","","","","","","","","","","","","","","","","","","","","","","","","","","","","",""
"612","<p style=""color:rgb(150, 250, 100); font-size: 35px;"">本人</p>","i","categorize-html","165","258270","0.0-6.0-1.0-8.0-1.28","2","2","2","2","2","2","2","2","2","2","2","2","1","3","2","2","2","2","2","2","4","5","4","4","4","5","4","5","4","1","0","1","1","0","0","1","1","0","1","1","0","1","0","1","3","4","5","4","4","5","4","3","3","2","587598071420944384","陈","181","","","","","","","","","","","","","","","","","","","true","14","4","moral","612","self","本人","","","","","","","","","","","","","","",""
"null","","null","html-keyboard-response","166","258521","0.0-6.0-1.0-8.0-0.29","2","2","2","2","2","2","2","2","2","2","2","2","1","3","2","2","2","2","2","2","4","5","4","4","4","5","4","5","4","1","0","1","1","0","0","1","1","0","1","1","0","1","0","1","3","4","5","4","4","5","4","3","3","2","587598071420944384","陈","181","","","","","","","","","","","","","","","","","","","","","","","","","","","","","","","","","","","","","","","",""
"862","<p style=""color:white; font-size: 35px;"">高尚</p>","e","categorize-html","167","259383","0.0-6.0-1.0-8.0-1.29","2","2","2","2","2","2","2","2","2","2","2","2","1","3","2","2","2","2","2","2","4","5","4","4","4","5","4","5","4","1","0","1","1","0","0","1","1","0","1","1","0","1","0","1","3","4","5","4","4","5","4","3","3","2","587598071420944384","陈","181","","","","","","","","","","","","","","","","","","","true","14","4","moral","862","positive","高尚","","","","","","","","","","","","","","",""
"null","","null","html-keyboard-response","168","259634","0.0-6.0-1.0-8.0-0.30","2","2","2","2","2","2","2","2","2","2","2","2","1","3","2","2","2","2","2","2","4","5","4","4","4","5","4","5","4","1","0","1","1","0","0","1","1","0","1","1","0","1","0","1","3","4","5","4","4","5","4","3","3","2","587598071420944384","陈","181","","","","","","","","","","","","","","","","","","","","","","","","","","","","","","","","","","","","","","","",""
"524","<p style=""color:rgb(150, 250, 100); font-size: 35px;"">他人的</p>","e","categorize-html","169","260159","0.0-6.0-1.0-8.0-1.30","2","2","2","2","2","2","2","2","2","2","2","2","1","3","2","2","2","2","2","2","4","5","4","4","4","5","4","5","4","1","0","1","1","0","0","1","1","0","1","1","0","1","0","1","3","4","5","4","4","5","4","3","3","2","587598071420944384","陈","181","","","","","","","","","","","","","","","","","","","true","14","4","moral","524","other","他人的","","","","","","","","","","","","","","",""
"null","","null","html-keyboard-response","170","260410","0.0-6.0-1.0-8.0-0.31","2","2","2","2","2","2","2","2","2","2","2","2","1","3","2","2","2","2","2","2","4","5","4","4","4","5","4","5","4","1","0","1","1","0","0","1","1","0","1","1","0","1","0","1","3","4","5","4","4","5","4","3","3","2","587598071420944384","陈","181","","","","","","","","","","","","","","","","","","","","","","","","","","","","","","","","","","","","","","","",""
"604","<p style=""color:white; font-size: 35px;"">小人</p>","i","categorize-html","171","261014","0.0-6.0-1.0-8.0-1.31","2","2","2","2","2","2","2","2","2","2","2","2","1","3","2","2","2","2","2","2","4","5","4","4","4","5","4","5","4","1","0","1","1","0","0","1","1","0","1","1","0","1","0","1","3","4","5","4","4","5","4","3","3","2","587598071420944384","陈","181","","","","","","","","","","","","","","","","","","","true","14","4","moral","604","negative","小人","","","","","","","","","","","","","","",""
"null","","null","html-keyboard-response","172","261265","0.0-6.0-1.0-8.0-0.32","2","2","2","2","2","2","2","2","2","2","2","2","1","3","2","2","2","2","2","2","4","5","4","4","4","5","4","5","4","1","0","1","1","0","0","1","1","0","1","1","0","1","0","1","3","4","5","4","4","5","4","3","3","2","587598071420944384","陈","181","","","","","","","","","","","","","","","","","","","","","","","","","","","","","","","","","","","","","","","",""
"717","<p style=""color:rgb(150, 250, 100); font-size: 35px;"">自己的</p>","i","categorize-html","173","261983","0.0-6.0-1.0-8.0-1.32","2","2","2","2","2","2","2","2","2","2","2","2","1","3","2","2","2","2","2","2","4","5","4","4","4","5","4","5","4","1","0","1","1","0","0","1","1","0","1","1","0","1","0","1","3","4","5","4","4","5","4","3","3","2","587598071420944384","陈","181","","","","","","","","","","","","","","","","","","","true","14","4","moral","717","self","自己的","","","","","","","","","","","","","","",""
"null","","null","html-keyboard-response","174","262234","0.0-6.0-1.0-8.0-0.33","2","2","2","2","2","2","2","2","2","2","2","2","1","3","2","2","2","2","2","2","4","5","4","4","4","5","4","5","4","1","0","1","1","0","0","1","1","0","1","1","0","1","0","1","3","4","5","4","4","5","4","3","3","2","587598071420944384","陈","181","","","","","","","","","","","","","","","","","","","","","","","","","","","","","","","","","","","","","","","",""
"821","<p style=""color:white; font-size: 35px;"">缺德</p>","e","categorize-html","175","263495","0.0-6.0-1.0-8.0-1.33","2","2","2","2","2","2","2","2","2","2","2","2","1","3","2","2","2","2","2","2","4","5","4","4","4","5","4","5","4","1","0","1","1","0","0","1","1","0","1","1","0","1","0","1","3","4","5","4","4","5","4","3","3","2","587598071420944384","陈","181","","","","","","","","","","","","","","","","","","","false","14","4","moral","1384","negative","缺德","","","","","","","","","","","","","","",""
"null","","null","html-keyboard-response","176","263747","0.0-6.0-1.0-8.0-0.34","2","2","2","2","2","2","2","2","2","2","2","2","1","3","2","2","2","2","2","2","4","5","4","4","4","5","4","5","4","1","0","1","1","0","0","1","1","0","1","1","0","1","0","1","3","4","5","4","4","5","4","3","3","2","587598071420944384","陈","181","","","","","","","","","","","","","","","","","","","","","","","","","","","","","","","","","","","","","","","",""
"755","<p style=""color:rgb(150, 250, 100); font-size: 35px;"">他的</p>","e","categorize-html","177","264503","0.0-6.0-1.0-8.0-1.34","2","2","2","2","2","2","2","2","2","2","2","2","1","3","2","2","2","2","2","2","4","5","4","4","4","5","4","5","4","1","0","1","1","0","0","1","1","0","1","1","0","1","0","1","3","4","5","4","4","5","4","3","3","2","587598071420944384","陈","181","","","","","","","","","","","","","","","","","","","true","14","4","moral","755","other","他的","","","","","","","","","","","","","","",""
"null","","null","html-keyboard-response","178","264755","0.0-6.0-1.0-8.0-0.35","2","2","2","2","2","2","2","2","2","2","2","2","1","3","2","2","2","2","2","2","4","5","4","4","4","5","4","5","4","1","0","1","1","0","0","1","1","0","1","1","0","1","0","1","3","4","5","4","4","5","4","3","3","2","587598071420944384","陈","181","","","","","","","","","","","","","","","","","","","","","","","","","","","","","","","","","","","","","","","",""
"1155","<p style=""color:white; font-size: 35px;"">正直</p>","e","categorize-html","179","265911","0.0-6.0-1.0-8.0-1.35","2","2","2","2","2","2","2","2","2","2","2","2","1","3","2","2","2","2","2","2","4","5","4","4","4","5","4","5","4","1","0","1","1","0","0","1","1","0","1","1","0","1","0","1","3","4","5","4","4","5","4","3","3","2","587598071420944384","陈","181","","","","","","","","","","","","","","","","","","","true","14","4","moral","1155","positive","正直","","","","","","","","","","","","","","",""
"null","","null","html-keyboard-response","180","266162","0.0-6.0-1.0-8.0-0.36","2","2","2","2","2","2","2","2","2","2","2","2","1","3","2","2","2","2","2","2","4","5","4","4","4","5","4","5","4","1","0","1","1","0","0","1","1","0","1","1","0","1","0","1","3","4","5","4","4","5","4","3","3","2","587598071420944384","陈","181","","","","","","","","","","","","","","","","","","","","","","","","","","","","","","","","","","","","","","","",""
"756","<p style=""color:rgb(150, 250, 100); font-size: 35px;"">他的</p>","e","categorize-html","181","266919","0.0-6.0-1.0-8.0-1.36","2","2","2","2","2","2","2","2","2","2","2","2","1","3","2","2","2","2","2","2","4","5","4","4","4","5","4","5","4","1","0","1","1","0","0","1","1","0","1","1","0","1","0","1","3","4","5","4","4","5","4","3","3","2","587598071420944384","陈","181","","","","","","","","","","","","","","","","","","","true","14","4","moral","756","other","他的","","","","","","","","","","","","","","",""
"null","","null","html-keyboard-response","182","267170","0.0-6.0-1.0-8.0-0.37","2","2","2","2","2","2","2","2","2","2","2","2","1","3","2","2","2","2","2","2","4","5","4","4","4","5","4","5","4","1","0","1","1","0","0","1","1","0","1","1","0","1","0","1","3","4","5","4","4","5","4","3","3","2","587598071420944384","陈","181","","","","","","","","","","","","","","","","","","","","","","","","","","","","","","","","","","","","","","","",""
"524","<p style=""color:white; font-size: 35px;"">君子</p>","e","categorize-html","183","267694","0.0-6.0-1.0-8.0-1.37","2","2","2","2","2","2","2","2","2","2","2","2","1","3","2","2","2","2","2","2","4","5","4","4","4","5","4","5","4","1","0","1","1","0","0","1","1","0","1","1","0","1","0","1","3","4","5","4","4","5","4","3","3","2","587598071420944384","陈","181","","","","","","","","","","","","","","","","","","","true","14","4","moral","524","positive","君子","","","","","","","","","","","","","","",""
"null","","null","html-keyboard-response","184","267945","0.0-6.0-1.0-8.0-0.38","2","2","2","2","2","2","2","2","2","2","2","2","1","3","2","2","2","2","2","2","4","5","4","4","4","5","4","5","4","1","0","1","1","0","0","1","1","0","1","1","0","1","0","1","3","4","5","4","4","5","4","3","3","2","587598071420944384","陈","181","","","","","","","","","","","","","","","","","","","","","","","","","","","","","","","","","","","","","","","",""
"565","<p style=""color:rgb(150, 250, 100); font-size: 35px;"">我</p>","i","categorize-html","185","268511","0.0-6.0-1.0-8.0-1.38","2","2","2","2","2","2","2","2","2","2","2","2","1","3","2","2","2","2","2","2","4","5","4","4","4","5","4","5","4","1","0","1","1","0","0","1","1","0","1","1","0","1","0","1","3","4","5","4","4","5","4","3","3","2","587598071420944384","陈","181","","","","","","","","","","","","","","","","","","","true","14","4","moral","565","self","我","","","","","","","","","","","","","","",""
"null","","null","html-keyboard-response","186","268761","0.0-6.0-1.0-8.0-0.39","2","2","2","2","2","2","2","2","2","2","2","2","1","3","2","2","2","2","2","2","4","5","4","4","4","5","4","5","4","1","0","1","1","0","0","1","1","0","1","1","0","1","0","1","3","4","5","4","4","5","4","3","3","2","587598071420944384","陈","181","","","","","","","","","","","","","","","","","","","","","","","","","","","","","","","","","","","","","","","",""
"574","<p style=""color:white; font-size: 35px;"">缺德</p>","i","categorize-html","187","269335","0.0-6.0-1.0-8.0-1.39","2","2","2","2","2","2","2","2","2","2","2","2","1","3","2","2","2","2","2","2","4","5","4","4","4","5","4","5","4","1","0","1","1","0","0","1","1","0","1","1","0","1","0","1","3","4","5","4","4","5","4","3","3","2","587598071420944384","陈","181","","","","","","","","","","","","","","","","","","","true","14","4","moral","574","negative","缺德","","","","","","","","","","","","","","",""
"null","","null","html-keyboard-response","188","269587","0.0-6.0-1.0-8.0-0.40","2","2","2","2","2","2","2","2","2","2","2","2","1","3","2","2","2","2","2","2","4","5","4","4","4","5","4","5","4","1","0","1","1","0","0","1","1","0","1","1","0","1","0","1","3","4","5","4","4","5","4","3","3","2","587598071420944384","陈","181","","","","","","","","","","","","","","","","","","","","","","","","","","","","","","","","","","","","","","","",""
"899","<p style=""color:rgb(150, 250, 100); font-size: 35px;"">别人的</p>","e","categorize-html","189","270487","0.0-6.0-1.0-8.0-1.40","2","2","2","2","2","2","2","2","2","2","2","2","1","3","2","2","2","2","2","2","4","5","4","4","4","5","4","5","4","1","0","1","1","0","0","1","1","0","1","1","0","1","0","1","3","4","5","4","4","5","4","3","3","2","587598071420944384","陈","181","","","","","","","","","","","","","","","","","","","true","14","4","moral","899","other","别人的","","","","","","","","","","","","","","",""
"null","","null","html-keyboard-response","190","270738","0.0-6.0-1.0-8.0-0.41","2","2","2","2","2","2","2","2","2","2","2","2","1","3","2","2","2","2","2","2","4","5","4","4","4","5","4","5","4","1","0","1","1","0","0","1","1","0","1","1","0","1","0","1","3","4","5","4","4","5","4","3","3","2","587598071420944384","陈","181","","","","","","","","","","","","","","","","","","","","","","","","","","","","","","","","","","","","","","","",""
"1260","<p style=""color:white; font-size: 35px;"">廉正</p>","e","categorize-html","191","271999","0.0-6.0-1.0-8.0-1.41","2","2","2","2","2","2","2","2","2","2","2","2","1","3","2","2","2","2","2","2","4","5","4","4","4","5","4","5","4","1","0","1","1","0","0","1","1","0","1","1","0","1","0","1","3","4","5","4","4","5","4","3","3","2","587598071420944384","陈","181","","","","","","","","","","","","","","","","","","","true","14","4","moral","1260","positive","廉正","","","","","","","","","","","","","","",""
"null","","null","html-keyboard-response","192","272249","0.0-6.0-1.0-8.0-0.42","2","2","2","2","2","2","2","2","2","2","2","2","1","3","2","2","2","2","2","2","4","5","4","4","4","5","4","5","4","1","0","1","1","0","0","1","1","0","1","1","0","1","0","1","3","4","5","4","4","5","4","3","3","2","587598071420944384","陈","181","","","","","","","","","","","","","","","","","","","","","","","","","","","","","","","","","","","","","","","",""
"740","<p style=""color:rgb(150, 250, 100); font-size: 35px;"">我的</p>","e","categorize-html","193","274142","0.0-6.0-1.0-8.0-1.42","2","2","2","2","2","2","2","2","2","2","2","2","1","3","2","2","2","2","2","2","4","5","4","4","4","5","4","5","4","1","0","1","1","0","0","1","1","0","1","1","0","1","0","1","3","4","5","4","4","5","4","3","3","2","587598071420944384","陈","181","","","","","","","","","","","","","","","","","","","false","14","4","moral","1384","self","我的","","","","","","","","","","","","","","",""
"null","","null","html-keyboard-response","194","274394","0.0-6.0-1.0-8.0-0.43","2","2","2","2","2","2","2","2","2","2","2","2","1","3","2","2","2","2","2","2","4","5","4","4","4","5","4","5","4","1","0","1","1","0","0","1","1","0","1","1","0","1","0","1","3","4","5","4","4","5","4","3","3","2","587598071420944384","陈","181","","","","","","","","","","","","","","","","","","","","","","","","","","","","","","","","","","","","","","","",""
"733","<p style=""color:white; font-size: 35px;"">卑鄙</p>","i","categorize-html","195","275127","0.0-6.0-1.0-8.0-1.43","2","2","2","2","2","2","2","2","2","2","2","2","1","3","2","2","2","2","2","2","4","5","4","4","4","5","4","5","4","1","0","1","1","0","0","1","1","0","1","1","0","1","0","1","3","4","5","4","4","5","4","3","3","2","587598071420944384","陈","181","","","","","","","","","","","","","","","","","","","true","14","4","moral","733","negative","卑鄙","","","","","","","","","","","","","","",""
"null","","null","html-keyboard-response","196","275378","0.0-6.0-1.0-8.0-0.44","2","2","2","2","2","2","2","2","2","2","2","2","1","3","2","2","2","2","2","2","4","5","4","4","4","5","4","5","4","1","0","1","1","0","0","1","1","0","1","1","0","1","0","1","3","4","5","4","4","5","4","3","3","2","587598071420944384","陈","181","","","","","","","","","","","","","","","","","","","","","","","","","","","","","","","","","","","","","","","",""
"588","<p style=""color:rgb(150, 250, 100); font-size: 35px;"">他</p>","e","categorize-html","197","275967","0.0-6.0-1.0-8.0-1.44","2","2","2","2","2","2","2","2","2","2","2","2","1","3","2","2","2","2","2","2","4","5","4","4","4","5","4","5","4","1","0","1","1","0","0","1","1","0","1","1","0","1","0","1","3","4","5","4","4","5","4","3","3","2","587598071420944384","陈","181","","","","","","","","","","","","","","","","","","","true","14","4","moral","588","other","他","","","","","","","","","","","","","","",""
