"rt","stimulus","response","trial_type","trial_index","time_elapsed","internal_node_id","ses_1","ses_2","ses_3","ses_4","ses_5","ses_6","ses_7","ses_8","ses_9","ses_10","coreself_1","coreself_2","coreself_3","coreself_4","coreself_5","coreself_6","coreself_7","coreself_8","coreself_9","coreself_10","SGPS_1","SGPS_2","SGPS_3","SGPS_4","SGPS_5","SGPS_6","SGPS_7","SGPS_8","SGPS_9","NPI1","NPI2","NPI3","NPI4","NPI5","NPI6","NPI7","NPI8","NPI9","NPI10","NPI11","NPI12","NPI13","NPI14","NPI15","hsns_1","hsns_2","hsns_3","hsns_4","hsns_5","hsns_6","hsns_7","hsns_8","hsns_9","hsns_10","subj_idx","friend_name","ParticipantID","value","success","user_agent","responses","item_order","radio_event_ids","radio_event_times","key_event_times","mouse_event_times","straightlining","zigzagging","honeypot","timeout","failed_images","failed_audio","failed_video","view_history","response_type","key_press","avg_frame_time","center_x","center_y","correct_response","correct","identity","Image","word","condition","task_id","screen_id","time_stamp","version_attrib2","version_target2","IAT","RT","varname","summary","version_attrib","version_target","question_order"
"1652","
   <p><div style = ""color: white;font-size:25px;"">您好，欢迎参加本次实验。</div> </p>
   <p><div style = ""color: white;font-size:25px;"">为充分保障您的权利，请确保您已经知晓并同意《参与实验同意书》以及《数据公开知情同意书》。</div></p>
   <p><div style = ""color: white;font-size:25px;"">如果您未见过上述内容，请咨询实验员。</div></p>
   <p><div style = ""color: white;font-size:25px;"">如果您选择继续实验，则表示您已经清楚两份知情同意书的内容并同意。</div></p>
   <p> <div style = ""color: green;font-size:25px;""><按空格键至下页></div> </p>
   "," ","html-keyboard-response","0","1661","0.0-0.0","4","3","4","3","4","3","3","4","4","4","5","4","5","4","4","5","4","5","5","4","2","2","2","1","2","2","1","4","2","1","0","1","1","0","0","0","1","0","1","1","1","1","0","1","4","1","3","2","3","4","4","2","2","2","672546881741520896","陈","162","","","","","","","","","","","","","","","","","","","","","","","","","","","","","","","","","","","","","","","",""
"","","","call-function","1","1662","0.0-1.0-0.0","4","3","4","3","4","3","3","4","4","4","5","4","5","4","4","5","4","5","5","4","2","2","2","1","2","2","1","4","2","1","0","1","1","0","0","0","1","0","1","1","1","1","0","1","4","1","3","2","3","4","4","2","2","2","672546881741520896","陈","162","","","","","","","","","","","","","","","","","","","","","","","","","","","","","","","","","","","","","","","",""
"6942","","{""friend_name"":""陈"",""ParticipantID"":""162""}","survey-html-form","2","8607","0.0-1.0-1.0","4","3","4","3","4","3","3","4","4","4","5","4","5","4","4","5","4","5","5","4","2","2","2","1","2","2","1","4","2","1","0","1","1","0","0","0","1","0","1","1","1","1","0","1","4","1","3","2","3","4","4","2","2","2","672546881741520896","陈","162","","","","","","","","","","","","","","","","","","","","","","","","","","","","","","","","","","","","","","","",""
"","","","fullscreen","3","10638","0.0-2.0","4","3","4","3","4","3","3","4","4","4","5","4","5","4","4","5","4","5","5","4","2","2","2","1","2","2","1","4","2","1","0","1","1","0","0","0","1","0","1","1","1","1","0","1","4","1","3","2","3","4","4","2","2","2","672546881741520896","陈","162","","true","{}","","","","","","","","","","","","","","","","","","","","","","","","","","","","","","","","","","","","",""
"61821.5","","{""Q01"":""4"",""Q02"":""3"",""Q03"":""4"",""Q04"":""3"",""Q05"":""4"",""Q06"":""3"",""Q07"":""3"",""Q08"":""4"",""Q09"":""4"",""Q10"":""4""}","survey-template","4","72473","0.0-3.0","4","3","4","3","4","3","3","4","4","4","5","4","5","4","4","5","4","5","5","4","2","2","2","1","2","2","1","4","2","1","0","1","1","0","0","0","1","0","1","1","1","1","0","1","4","1","3","2","3","4","4","2","2","2","672546881741520896","陈","162","","","","{""Q01"":""4"",""Q02"":""3"",""Q03"":""4"",""Q04"":""3"",""Q05"":""4"",""Q06"":""3"",""Q07"":""3"",""Q08"":""4"",""Q09"":""4"",""Q10"":""4""}","[0,1,2,3,4,5,6,7,8,9]","[""Q01"",""Q02"",""Q03"",""Q04"",""Q05"",""Q06"",""Q07"",""Q08"",""Q09"",""Q10""]","[6540.5,8604.40000000014,35636.30000000005,37020.200000000186,40803.700000000186,42075.80000000005,43627.60000000009,46499.60000000009,50979.5,61195.5]","[]","[6540.5,8604.40000000014,35636.30000000005,37020.200000000186,40803.700000000186,42075.80000000005,43627.60000000009,45835.80000000005,46499.60000000009,50979.5,59731.60000000009,61195.5,61819.60000000009]","0.5","0.1111111111111111","0","","","","","","","","","","","","","","","","","","","","","","","","","","","",""
"23706.5","","{""Q01"":""5"",""Q02"":""4"",""Q03"":""5"",""Q04"":""4"",""Q05"":""4"",""Q06"":""5"",""Q07"":""4"",""Q08"":""5"",""Q09"":""5"",""Q10"":""4""}","survey-template","5","96193","0.0-4.0","4","3","4","3","4","3","3","4","4","4","5","4","5","4","4","5","4","5","5","4","2","2","2","1","2","2","1","4","2","1","0","1","1","0","0","0","1","0","1","1","1","1","0","1","4","1","3","2","3","4","4","2","2","2","672546881741520896","陈","162","","","","{""Q01"":""5"",""Q02"":""4"",""Q03"":""5"",""Q04"":""4"",""Q05"":""4"",""Q06"":""5"",""Q07"":""4"",""Q08"":""5"",""Q09"":""5"",""Q10"":""4""}","[0,1,2,3,4,5,6,7,8,9]","[""Q01"",""Q02"",""Q03"",""Q04"",""Q05"",""Q06"",""Q07"",""Q08"",""Q09"",""Q10""]","[3672.6999999999534,4464.800000000047,6792.800000000047,7864.59999999986,9112.699999999953,11008.899999999907,12360.800000000047,17672.59999999986,21104.699999999953,22961.199999999953]","[]","[2472.6999999999534,3672.6999999999534,4464.800000000047,6792.800000000047,7864.59999999986,9112.699999999953,11008.899999999907,12360.800000000047,17672.59999999986,21104.699999999953,22961.199999999953,23704.800000000047]","0.4","0.3333333333333333","0","","","","","","","","","","","","","","","","","","","","","","","","","","","",""
"","","","preload","6","96245","0.0-5.0","4","3","4","3","4","3","3","4","4","4","5","4","5","4","4","5","4","5","5","4","2","2","2","1","2","2","1","4","2","1","0","1","1","0","0","0","1","0","1","1","1","1","0","1","4","1","3","2","3","4","4","2","2","2","672546881741520896","陈","162","","true","","","","","","","","","","","false","[]","[]","[]","","","","","","","","","","","","","","","","","","","","","","","",""
"1199","","","instructions","7","97446","0.0-6.0","4","3","4","3","4","3","3","4","4","4","5","4","5","4","4","5","4","5","5","4","2","2","2","1","2","2","1","4","2","1","0","1","1","0","0","0","1","0","1","1","1","1","0","1","4","1","3","2","3","4","4","2","2","2","672546881741520896","陈","162","","","","","","","","","","","","","","","","","[{""page_index"":0,""viewing_time"":1199}]","","","","","","","","","","","","","","","","","","","","","","",""
"4910","","","instructions","8","102357","0.0-7.0-1.0-0.0","4","3","4","3","4","3","3","4","4","4","5","4","5","4","4","5","4","5","5","4","2","2","2","1","2","2","1","4","2","1","0","1","1","0","0","0","1","0","1","1","1","1","0","1","4","1","3","2","3","4","4","2","2","2","672546881741520896","陈","162","","","","","","","","","","","","","","","","","[{""page_index"":0,""viewing_time"":2558},{""page_index"":1,""viewing_time"":1440},{""page_index"":2,""viewing_time"":912}]","","","","","","","","","","","","","","","","","","","","","","",""
"null","","null","psychophysics","9","104571","0.0-7.0-1.0-1.0-0.0-0.0","4","3","4","3","4","3","3","4","4","4","5","4","5","4","4","5","4","5","5","4","2","2","2","1","2","2","1","4","2","1","0","1","1","0","0","0","1","0","1","1","1","1","0","1","4","1","3","2","3","4","4","2","2","2","672546881741520896","陈","162","","","","null","","","","","","","","","","","","","","key","null","16.647954545454535","683","380","j","false","nonmatch","img/square.png","椭圆","方形","ALT1_2","prac_ALT1_2","","","","","","","","","",""
"null","<span class='add_' style='color:yellow; font-size: 70px;'> 太慢! </span>","null","html-keyboard-response","10","105073","0.0-7.0-1.0-1.0-0.0-1.0","4","3","4","3","4","3","3","4","4","4","5","4","5","4","4","5","4","5","5","4","2","2","2","1","2","2","1","4","2","1","0","1","1","0","0","0","1","0","1","1","1","1","0","1","4","1","3","2","3","4","4","2","2","2","672546881741520896","陈","162","","","","","","","","","","","","","","","","","","","","","","","","","","","","","","feedback_test","","","","","","","","","",""
"405","","f","psychophysics","11","106480","0.0-7.0-1.0-1.0-0.0-0.1","4","3","4","3","4","3","3","4","4","4","5","4","5","4","4","5","4","5","5","4","2","2","2","1","2","2","1","4","2","1","0","1","1","0","0","0","1","0","1","1","1","1","0","1","4","1","3","2","3","4","4","2","2","2","672546881741520896","陈","162","","","","match","","","","","","","","","","","","","","key","f","16.6465903614458","683","380","f","true","match","img/triangle.png","三角","三角","ALT1_2","prac_ALT1_2","","","","","","","","","",""
"null","<span style='color:GreenYellow; font-size: 70px;'>正确! </span>","null","html-keyboard-response","12","106981","0.0-7.0-1.0-1.0-0.0-1.1","4","3","4","3","4","3","3","4","4","4","5","4","5","4","4","5","4","5","5","4","2","2","2","1","2","2","1","4","2","1","0","1","1","0","0","0","1","0","1","1","1","1","0","1","4","1","3","2","3","4","4","2","2","2","672546881741520896","陈","162","","","","","","","","","","","","","","","","","","","","","","","","","","","","","","feedback_test","","","","","","","","","",""
"769","","j","psychophysics","13","108751","0.0-7.0-1.0-1.0-0.0-0.2","4","3","4","3","4","3","3","4","4","4","5","4","5","4","4","5","4","5","5","4","2","2","2","1","2","2","1","4","2","1","0","1","1","0","0","0","1","0","1","1","1","1","0","1","4","1","3","2","3","4","4","2","2","2","672546881741520896","陈","162","","","","nonmatch","","","","","","","","","","","","","","key","j","16.64757547169808","683","380","j","true","nonmatch","img/triangle.png","六边","三角","ALT1_2","prac_ALT1_2","","","","","","","","","",""
"null","<span style='color:GreenYellow; font-size: 70px;'>正确! </span>","null","html-keyboard-response","14","109253","0.0-7.0-1.0-1.0-0.0-1.2","4","3","4","3","4","3","3","4","4","4","5","4","5","4","4","5","4","5","5","4","2","2","2","1","2","2","1","4","2","1","0","1","1","0","0","0","1","0","1","1","1","1","0","1","4","1","3","2","3","4","4","2","2","2","672546881741520896","陈","162","","","","","","","","","","","","","","","","","","","","","","","","","","","","","","feedback_test","","","","","","","","","",""
"null","","null","psychophysics","15","111456","0.0-7.0-1.0-1.0-0.0-0.3","4","3","4","3","4","3","3","4","4","4","5","4","5","4","4","5","4","5","5","4","2","2","2","1","2","2","1","4","2","1","0","1","1","0","0","0","1","0","1","1","1","1","0","1","4","1","3","2","3","4","4","2","2","2","672546881741520896","陈","162","","","","null","","","","","","","","","","","","","","key","null","16.64716793893126","683","380","f","false","match","img/hexagon.png","六边","六边","ALT1_2","prac_ALT1_2","","","","","","","","","",""
"null","<span class='add_' style='color:yellow; font-size: 70px;'> 太慢! </span>","null","html-keyboard-response","16","111957","0.0-7.0-1.0-1.0-0.0-1.3","4","3","4","3","4","3","3","4","4","4","5","4","5","4","4","5","4","5","5","4","2","2","2","1","2","2","1","4","2","1","0","1","1","0","0","0","1","0","1","1","1","1","0","1","4","1","3","2","3","4","4","2","2","2","672546881741520896","陈","162","","","","","","","","","","","","","","","","","","","","","","","","","","","","","","feedback_test","","","","","","","","","",""
"705","","f","psychophysics","17","113664","0.0-7.0-1.0-1.0-0.0-0.4","4","3","4","3","4","3","3","4","4","4","5","4","5","4","4","5","4","5","5","4","2","2","2","1","2","2","1","4","2","1","0","1","1","0","0","0","1","0","1","1","1","1","0","1","4","1","3","2","3","4","4","2","2","2","672546881741520896","陈","162","","","","match","","","","","","","","","","","","","","key","f","16.6469313725491","683","380","f","true","match","img/square.png","方形","方形","ALT1_2","prac_ALT1_2","","","","","","","","","",""
"null","<span style='color:GreenYellow; font-size: 70px;'>正确! </span>","null","html-keyboard-response","18","114179","0.0-7.0-1.0-1.0-0.0-1.4","4","3","4","3","4","3","3","4","4","4","5","4","5","4","4","5","4","5","5","4","2","2","2","1","2","2","1","4","2","1","0","1","1","0","0","0","1","0","1","1","1","1","0","1","4","1","3","2","3","4","4","2","2","2","672546881741520896","陈","162","","","","","","","","","","","","","","","","","","","","","","","","","","","","","","feedback_test","","","","","","","","","",""
"779","","j","psychophysics","19","115960","0.0-7.0-1.0-1.0-0.0-0.5","4","3","4","3","4","3","3","4","4","4","5","4","5","4","4","5","4","5","5","4","2","2","2","1","2","2","1","4","2","1","0","1","1","0","0","0","1","0","1","1","1","1","0","1","4","1","3","2","3","4","4","2","2","2","672546881741520896","陈","162","","","","nonmatch","","","","","","","","","","","","","","key","j","16.647028301886717","683","380","j","true","nonmatch","img/ellipse.png","方形","椭圆","ALT1_2","prac_ALT1_2","","","","","","","","","",""
"null","<span style='color:GreenYellow; font-size: 70px;'>正确! </span>","null","html-keyboard-response","20","116462","0.0-7.0-1.0-1.0-0.0-1.5","4","3","4","3","4","3","3","4","4","4","5","4","5","4","4","5","4","5","5","4","2","2","2","1","2","2","1","4","2","1","0","1","1","0","0","0","1","0","1","1","1","1","0","1","4","1","3","2","3","4","4","2","2","2","672546881741520896","陈","162","","","","","","","","","","","","","","","","","","","","","","","","","","","","","","feedback_test","","","","","","","","","",""
"733","","j","psychophysics","21","118196","0.0-7.0-1.0-1.0-0.0-0.6","4","3","4","3","4","3","3","4","4","4","5","4","5","4","4","5","4","5","5","4","2","2","2","1","2","2","1","4","2","1","0","1","1","0","0","0","1","0","1","1","1","1","0","1","4","1","3","2","3","4","4","2","2","2","672546881741520896","陈","162","","","","nonmatch","","","","","","","","","","","","","","key","j","16.64723529411761","683","380","j","true","nonmatch","img/square.png","六边","方形","ALT1_2","prac_ALT1_2","","","","","","","","","",""
"null","<span style='color:GreenYellow; font-size: 70px;'>正确! </span>","null","html-keyboard-response","22","118698","0.0-7.0-1.0-1.0-0.0-1.6","4","3","4","3","4","3","3","4","4","4","5","4","5","4","4","5","4","5","5","4","2","2","2","1","2","2","1","4","2","1","0","1","1","0","0","0","1","0","1","1","1","1","0","1","4","1","3","2","3","4","4","2","2","2","672546881741520896","陈","162","","","","","","","","","","","","","","","","","","","","","","","","","","","","","","feedback_test","","","","","","","","","",""
"830","","f","psychophysics","23","120529","0.0-7.0-1.0-1.0-0.0-0.7","4","3","4","3","4","3","3","4","4","4","5","4","5","4","4","5","4","5","5","4","2","2","2","1","2","2","1","4","2","1","0","1","1","0","0","0","1","0","1","1","1","1","0","1","4","1","3","2","3","4","4","2","2","2","672546881741520896","陈","162","","","","match","","","","","","","","","","","","","","key","f","16.646779816513725","683","380","j","false","nonmatch","img/triangle.png","椭圆","三角","ALT1_2","prac_ALT1_2","","","","","","","","","",""
"null","<span style='color:red; font-size: 70px;'>错误! </span>","null","html-keyboard-response","24","121030","0.0-7.0-1.0-1.0-0.0-1.7","4","3","4","3","4","3","3","4","4","4","5","4","5","4","4","5","4","5","5","4","2","2","2","1","2","2","1","4","2","1","0","1","1","0","0","0","1","0","1","1","1","1","0","1","4","1","3","2","3","4","4","2","2","2","672546881741520896","陈","162","","","","","","","","","","","","","","","","","","","","","","","","","","","","","","feedback_test","","","","","","","","","",""
"912","","f","psychophysics","25","122944","0.0-7.0-1.0-1.0-0.0-0.8","4","3","4","3","4","3","3","4","4","4","5","4","5","4","4","5","4","5","5","4","2","2","2","1","2","2","1","4","2","1","0","1","1","0","0","0","1","0","1","1","1","1","0","1","4","1","3","2","3","4","4","2","2","2","672546881741520896","陈","162","","","","match","","","","","","","","","","","","","","key","f","16.647315789473634","683","380","f","true","match","img/hexagon.png","六边","六边","ALT1_2","prac_ALT1_2","","","","","","","","","",""
"null","<span style='color:GreenYellow; font-size: 70px;'>正确! </span>","null","html-keyboard-response","26","123446","0.0-7.0-1.0-1.0-0.0-1.8","4","3","4","3","4","3","3","4","4","4","5","4","5","4","4","5","4","5","5","4","2","2","2","1","2","2","1","4","2","1","0","1","1","0","0","0","1","0","1","1","1","1","0","1","4","1","3","2","3","4","4","2","2","2","672546881741520896","陈","162","","","","","","","","","","","","","","","","","","","","","","","","","","","","","","feedback_test","","","","","","","","","",""
"776","","j","psychophysics","27","125223","0.0-7.0-1.0-1.0-0.0-0.9","4","3","4","3","4","3","3","4","4","4","5","4","5","4","4","5","4","5","5","4","2","2","2","1","2","2","1","4","2","1","0","1","1","0","0","0","1","0","1","1","1","1","0","1","4","1","3","2","3","4","4","2","2","2","672546881741520896","陈","162","","","","nonmatch","","","","","","","","","","","","","","key","j","16.647292452830165","683","380","j","true","nonmatch","img/hexagon.png","方形","六边","ALT1_2","prac_ALT1_2","","","","","","","","","",""
"null","<span style='color:GreenYellow; font-size: 70px;'>正确! </span>","null","html-keyboard-response","28","125725","0.0-7.0-1.0-1.0-0.0-1.9","4","3","4","3","4","3","3","4","4","4","5","4","5","4","4","5","4","5","5","4","2","2","2","1","2","2","1","4","2","1","0","1","1","0","0","0","1","0","1","1","1","1","0","1","4","1","3","2","3","4","4","2","2","2","672546881741520896","陈","162","","","","","","","","","","","","","","","","","","","","","","","","","","","","","","feedback_test","","","","","","","","","",""
"740","","f","psychophysics","29","127465","0.0-7.0-1.0-1.0-0.0-0.10","4","3","4","3","4","3","3","4","4","4","5","4","5","4","4","5","4","5","5","4","2","2","2","1","2","2","1","4","2","1","0","1","1","0","0","0","1","0","1","1","1","1","0","1","4","1","3","2","3","4","4","2","2","2","672546881741520896","陈","162","","","","match","","","","","","","","","","","","","","key","f","16.647076923076945","683","380","f","true","match","img/triangle.png","三角","三角","ALT1_2","prac_ALT1_2","","","","","","","","","",""
"null","<span style='color:GreenYellow; font-size: 70px;'>正确! </span>","null","html-keyboard-response","30","127966","0.0-7.0-1.0-1.0-0.0-1.10","4","3","4","3","4","3","3","4","4","4","5","4","5","4","4","5","4","5","5","4","2","2","2","1","2","2","1","4","2","1","0","1","1","0","0","0","1","0","1","1","1","1","0","1","4","1","3","2","3","4","4","2","2","2","672546881741520896","陈","162","","","","","","","","","","","","","","","","","","","","","","","","","","","","","","feedback_test","","","","","","","","","",""
"628","","j","psychophysics","31","129597","0.0-7.0-1.0-1.0-0.0-0.11","4","3","4","3","4","3","3","4","4","4","5","4","5","4","4","5","4","5","5","4","2","2","2","1","2","2","1","4","2","1","0","1","1","0","0","0","1","0","1","1","1","1","0","1","4","1","3","2","3","4","4","2","2","2","672546881741520896","陈","162","","","","nonmatch","","","","","","","","","","","","","","key","j","16.647000000000055","683","380","j","true","nonmatch","img/ellipse.png","三角","椭圆","ALT1_2","prac_ALT1_2","","","","","","","","","",""
"null","<span style='color:GreenYellow; font-size: 70px;'>正确! </span>","null","html-keyboard-response","32","130098","0.0-7.0-1.0-1.0-0.0-1.11","4","3","4","3","4","3","3","4","4","4","5","4","5","4","4","5","4","5","5","4","2","2","2","1","2","2","1","4","2","1","0","1","1","0","0","0","1","0","1","1","1","1","0","1","4","1","3","2","3","4","4","2","2","2","672546881741520896","陈","162","","","","","","","","","","","","","","","","","","","","","","","","","","","","","","feedback_test","","","","","","","","","",""
"686","","j","psychophysics","33","131786","0.0-7.0-1.0-1.0-0.0-0.12","4","3","4","3","4","3","3","4","4","4","5","4","5","4","4","5","4","5","5","4","2","2","2","1","2","2","1","4","2","1","0","1","1","0","0","0","1","0","1","1","1","1","0","1","4","1","3","2","3","4","4","2","2","2","672546881741520896","陈","162","","","","nonmatch","","","","","","","","","","","","","","key","j","16.64747000000003","683","380","j","true","nonmatch","img/ellipse.png","六边","椭圆","ALT1_2","prac_ALT1_2","","","","","","","","","",""
"null","<span style='color:GreenYellow; font-size: 70px;'>正确! </span>","null","html-keyboard-response","34","132287","0.0-7.0-1.0-1.0-0.0-1.12","4","3","4","3","4","3","3","4","4","4","5","4","5","4","4","5","4","5","5","4","2","2","2","1","2","2","1","4","2","1","0","1","1","0","0","0","1","0","1","1","1","1","0","1","4","1","3","2","3","4","4","2","2","2","672546881741520896","陈","162","","","","","","","","","","","","","","","","","","","","","","","","","","","","","","feedback_test","","","","","","","","","",""
"890","","j","psychophysics","35","134180","0.0-7.0-1.0-1.0-0.0-0.13","4","3","4","3","4","3","3","4","4","4","5","4","5","4","4","5","4","5","5","4","2","2","2","1","2","2","1","4","2","1","0","1","1","0","0","0","1","0","1","1","1","1","0","1","4","1","3","2","3","4","4","2","2","2","672546881741520896","陈","162","","","","nonmatch","","","","","","","","","","","","","","key","j","16.646982142857137","683","380","j","true","nonmatch","img/triangle.png","方形","三角","ALT1_2","prac_ALT1_2","","","","","","","","","",""
"null","<span style='color:GreenYellow; font-size: 70px;'>正确! </span>","null","html-keyboard-response","36","134683","0.0-7.0-1.0-1.0-0.0-1.13","4","3","4","3","4","3","3","4","4","4","5","4","5","4","4","5","4","5","5","4","2","2","2","1","2","2","1","4","2","1","0","1","1","0","0","0","1","0","1","1","1","1","0","1","4","1","3","2","3","4","4","2","2","2","672546881741520896","陈","162","","","","","","","","","","","","","","","","","","","","","","","","","","","","","","feedback_test","","","","","","","","","",""
"638","","f","psychophysics","37","136324","0.0-7.0-1.0-1.0-0.0-0.14","4","3","4","3","4","3","3","4","4","4","5","4","5","4","4","5","4","5","5","4","2","2","2","1","2","2","1","4","2","1","0","1","1","0","0","0","1","0","1","1","1","1","0","1","4","1","3","2","3","4","4","2","2","2","672546881741520896","陈","162","","","","match","","","","","","","","","","","","","","key","f","16.6470102040814","683","380","f","true","match","img/square.png","方形","方形","ALT1_2","prac_ALT1_2","","","","","","","","","",""
"null","<span style='color:GreenYellow; font-size: 70px;'>正确! </span>","null","html-keyboard-response","38","136825","0.0-7.0-1.0-1.0-0.0-1.14","4","3","4","3","4","3","3","4","4","4","5","4","5","4","4","5","4","5","5","4","2","2","2","1","2","2","1","4","2","1","0","1","1","0","0","0","1","0","1","1","1","1","0","1","4","1","3","2","3","4","4","2","2","2","672546881741520896","陈","162","","","","","","","","","","","","","","","","","","","","","","","","","","","","","","feedback_test","","","","","","","","","",""
"793","","j","psychophysics","39","138619","0.0-7.0-1.0-1.0-0.0-0.15","4","3","4","3","4","3","3","4","4","4","5","4","5","4","4","5","4","5","5","4","2","2","2","1","2","2","1","4","2","1","0","1","1","0","0","0","1","0","1","1","1","1","0","1","4","1","3","2","3","4","4","2","2","2","672546881741520896","陈","162","","","","nonmatch","","","","","","","","","","","","","","key","j","16.64825233644844","683","380","j","true","nonmatch","img/square.png","三角","方形","ALT1_2","prac_ALT1_2","","","","","","","","","",""
"null","<span style='color:GreenYellow; font-size: 70px;'>正确! </span>","null","html-keyboard-response","40","139122","0.0-7.0-1.0-1.0-0.0-1.15","4","3","4","3","4","3","3","4","4","4","5","4","5","4","4","5","4","5","5","4","2","2","2","1","2","2","1","4","2","1","0","1","1","0","0","0","1","0","1","1","1","1","0","1","4","1","3","2","3","4","4","2","2","2","672546881741520896","陈","162","","","","","","","","","","","","","","","","","","","","","","","","","","","","","","feedback_test","","","","","","","","","",""
"860","","f","psychophysics","41","140983","0.0-7.0-1.0-1.0-0.0-0.16","4","3","4","3","4","3","3","4","4","4","5","4","5","4","4","5","4","5","5","4","2","2","2","1","2","2","1","4","2","1","0","1","1","0","0","0","1","0","1","1","1","1","0","1","4","1","3","2","3","4","4","2","2","2","672546881741520896","陈","162","","","","match","","","","","","","","","","","","","","key","f","16.647810810810608","683","380","f","true","match","img/ellipse.png","椭圆","椭圆","ALT1_2","prac_ALT1_2","","","","","","","","","",""
"null","<span style='color:GreenYellow; font-size: 70px;'>正确! </span>","null","html-keyboard-response","42","141484","0.0-7.0-1.0-1.0-0.0-1.16","4","3","4","3","4","3","3","4","4","4","5","4","5","4","4","5","4","5","5","4","2","2","2","1","2","2","1","4","2","1","0","1","1","0","0","0","1","0","1","1","1","1","0","1","4","1","3","2","3","4","4","2","2","2","672546881741520896","陈","162","","","","","","","","","","","","","","","","","","","","","","","","","","","","","","feedback_test","","","","","","","","","",""
"757","","f","psychophysics","43","143243","0.0-7.0-1.0-1.0-0.0-0.17","4","3","4","3","4","3","3","4","4","4","5","4","5","4","4","5","4","5","5","4","2","2","2","1","2","2","1","4","2","1","0","1","1","0","0","0","1","0","1","1","1","1","0","1","4","1","3","2","3","4","4","2","2","2","672546881741520896","陈","162","","","","match","","","","","","","","","","","","","","key","f","16.647209523809753","683","380","f","true","match","img/ellipse.png","椭圆","椭圆","ALT1_2","prac_ALT1_2","","","","","","","","","",""
"null","<span style='color:GreenYellow; font-size: 70px;'>正确! </span>","null","html-keyboard-response","44","143746","0.0-7.0-1.0-1.0-0.0-1.17","4","3","4","3","4","3","3","4","4","4","5","4","5","4","4","5","4","5","5","4","2","2","2","1","2","2","1","4","2","1","0","1","1","0","0","0","1","0","1","1","1","1","0","1","4","1","3","2","3","4","4","2","2","2","672546881741520896","陈","162","","","","","","","","","","","","","","","","","","","","","","","","","","","","","","feedback_test","","","","","","","","","",""
"735","","f","psychophysics","45","145482","0.0-7.0-1.0-1.0-0.0-0.18","4","3","4","3","4","3","3","4","4","4","5","4","5","4","4","5","4","5","5","4","2","2","2","1","2","2","1","4","2","1","0","1","1","0","0","0","1","0","1","1","1","1","0","1","4","1","3","2","3","4","4","2","2","2","672546881741520896","陈","162","","","","match","","","","","","","","","","","","","","key","f","16.647786407767075","683","380","f","true","match","img/square.png","方形","方形","ALT1_2","prac_ALT1_2","","","","","","","","","",""
"null","<span style='color:GreenYellow; font-size: 70px;'>正确! </span>","null","html-keyboard-response","46","145983","0.0-7.0-1.0-1.0-0.0-1.18","4","3","4","3","4","3","3","4","4","4","5","4","5","4","4","5","4","5","5","4","2","2","2","1","2","2","1","4","2","1","0","1","1","0","0","0","1","0","1","1","1","1","0","1","4","1","3","2","3","4","4","2","2","2","672546881741520896","陈","162","","","","","","","","","","","","","","","","","","","","","","","","","","","","","","feedback_test","","","","","","","","","",""
"709","","f","psychophysics","47","147694","0.0-7.0-1.0-1.0-0.0-0.19","4","3","4","3","4","3","3","4","4","4","5","4","5","4","4","5","4","5","5","4","2","2","2","1","2","2","1","4","2","1","0","1","1","0","0","0","1","0","1","1","1","1","0","1","4","1","3","2","3","4","4","2","2","2","672546881741520896","陈","162","","","","match","","","","","","","","","","","","","","key","f","16.64714705882344","683","380","f","true","match","img/triangle.png","三角","三角","ALT1_2","prac_ALT1_2","","","","","","","","","",""
"null","<span style='color:GreenYellow; font-size: 70px;'>正确! </span>","null","html-keyboard-response","48","148195","0.0-7.0-1.0-1.0-0.0-1.19","4","3","4","3","4","3","3","4","4","4","5","4","5","4","4","5","4","5","5","4","2","2","2","1","2","2","1","4","2","1","0","1","1","0","0","0","1","0","1","1","1","1","0","1","4","1","3","2","3","4","4","2","2","2","672546881741520896","陈","162","","","","","","","","","","","","","","","","","","","","","","","","","","","","","","feedback_test","","","","","","","","","",""
"658","","f","psychophysics","49","149854","0.0-7.0-1.0-1.0-0.0-0.20","4","3","4","3","4","3","3","4","4","4","5","4","5","4","4","5","4","5","5","4","2","2","2","1","2","2","1","4","2","1","0","1","1","0","0","0","1","0","1","1","1","1","0","1","4","1","3","2","3","4","4","2","2","2","672546881741520896","陈","162","","","","match","","","","","","","","","","","","","","key","f","16.647454545454526","683","380","f","true","match","img/hexagon.png","六边","六边","ALT1_2","prac_ALT1_2","","","","","","","","","",""
"null","<span style='color:GreenYellow; font-size: 70px;'>正确! </span>","null","html-keyboard-response","50","150356","0.0-7.0-1.0-1.0-0.0-1.20","4","3","4","3","4","3","3","4","4","4","5","4","5","4","4","5","4","5","5","4","2","2","2","1","2","2","1","4","2","1","0","1","1","0","0","0","1","0","1","1","1","1","0","1","4","1","3","2","3","4","4","2","2","2","672546881741520896","陈","162","","","","","","","","","","","","","","","","","","","","","","","","","","","","","","feedback_test","","","","","","","","","",""
"637","","j","psychophysics","51","151994","0.0-7.0-1.0-1.0-0.0-0.21","4","3","4","3","4","3","3","4","4","4","5","4","5","4","4","5","4","5","5","4","2","2","2","1","2","2","1","4","2","1","0","1","1","0","0","0","1","0","1","1","1","1","0","1","4","1","3","2","3","4","4","2","2","2","672546881741520896","陈","162","","","","nonmatch","","","","","","","","","","","","","","key","j","16.647144329897067","683","380","f","false","match","img/ellipse.png","椭圆","椭圆","ALT1_2","prac_ALT1_2","","","","","","","","","",""
"null","<span style='color:red; font-size: 70px;'>错误! </span>","null","html-keyboard-response","52","152495","0.0-7.0-1.0-1.0-0.0-1.21","4","3","4","3","4","3","3","4","4","4","5","4","5","4","4","5","4","5","5","4","2","2","2","1","2","2","1","4","2","1","0","1","1","0","0","0","1","0","1","1","1","1","0","1","4","1","3","2","3","4","4","2","2","2","672546881741520896","陈","162","","","","","","","","","","","","","","","","","","","","","","","","","","","","","","feedback_test","","","","","","","","","",""
"754","","j","psychophysics","53","154251","0.0-7.0-1.0-1.0-0.0-0.22","4","3","4","3","4","3","3","4","4","4","5","4","5","4","4","5","4","5","5","4","2","2","2","1","2","2","1","4","2","1","0","1","1","0","0","0","1","0","1","1","1","1","0","1","4","1","3","2","3","4","4","2","2","2","672546881741520896","陈","162","","","","nonmatch","","","","","","","","","","","","","","key","j","16.646761904761938","683","380","j","true","nonmatch","img/hexagon.png","三角","六边","ALT1_2","prac_ALT1_2","","","","","","","","","",""
"null","<span style='color:GreenYellow; font-size: 70px;'>正确! </span>","null","html-keyboard-response","54","154752","0.0-7.0-1.0-1.0-0.0-1.22","4","3","4","3","4","3","3","4","4","4","5","4","5","4","4","5","4","5","5","4","2","2","2","1","2","2","1","4","2","1","0","1","1","0","0","0","1","0","1","1","1","1","0","1","4","1","3","2","3","4","4","2","2","2","672546881741520896","陈","162","","","","","","","","","","","","","","","","","","","","","","","","","","","","","","feedback_test","","","","","","","","","",""
"731","","j","psychophysics","55","156484","0.0-7.0-1.0-1.0-0.0-0.23","4","3","4","3","4","3","3","4","4","4","5","4","5","4","4","5","4","5","5","4","2","2","2","1","2","2","1","4","2","1","0","1","1","0","0","0","1","0","1","1","1","1","0","1","4","1","3","2","3","4","4","2","2","2","672546881741520896","陈","162","","","","nonmatch","","","","","","","","","","","","","","key","j","16.64654368932022","683","380","j","true","nonmatch","img/hexagon.png","椭圆","六边","ALT1_2","prac_ALT1_2","","","","","","","","","",""
"null","<span style='color:GreenYellow; font-size: 70px;'>正确! </span>","null","html-keyboard-response","56","156987","0.0-7.0-1.0-1.0-0.0-1.23","4","3","4","3","4","3","3","4","4","4","5","4","5","4","4","5","4","5","5","4","2","2","2","1","2","2","1","4","2","1","0","1","1","0","0","0","1","0","1","1","1","1","0","1","4","1","3","2","3","4","4","2","2","2","672546881741520896","陈","162","","","","","","","","","","","","","","","","","","","","","","","","","","","","","","feedback_test","","","","","","","","","",""
"792","","j","psychophysics","57","158784","0.0-7.0-1.0-1.0-0.0-0.24","4","3","4","3","4","3","3","4","4","4","5","4","5","4","4","5","4","5","5","4","2","2","2","1","2","2","1","4","2","1","0","1","1","0","0","0","1","0","1","1","1","1","0","1","4","1","3","2","3","4","4","2","2","2","672546881741520896","陈","162","","","","nonmatch","","","","","","","","","","","","","","key","j","16.647794392523487","683","380","j","true","nonmatch","img/triangle.png","方形","三角","ALT1_2","prac_ALT1_2","","","","","","","","","",""
"null","<span style='color:GreenYellow; font-size: 70px;'>正确! </span>","null","html-keyboard-response","58","159285","0.0-7.0-1.0-1.0-0.0-1.24","4","3","4","3","4","3","3","4","4","4","5","4","5","4","4","5","4","5","5","4","2","2","2","1","2","2","1","4","2","1","0","1","1","0","0","0","1","0","1","1","1","1","0","1","4","1","3","2","3","4","4","2","2","2","672546881741520896","陈","162","","","","","","","","","","","","","","","","","","","","","","","","","","","","","","feedback_test","","","","","","","","","",""
"842","","f","psychophysics","59","161128","0.0-7.0-1.0-1.0-0.0-0.25","4","3","4","3","4","3","3","4","4","4","5","4","5","4","4","5","4","5","5","4","2","2","2","1","2","2","1","4","2","1","0","1","1","0","0","0","1","0","1","1","1","1","0","1","4","1","3","2","3","4","4","2","2","2","672546881741520896","陈","162","","","","match","","","","","","","","","","","","","","key","f","16.647754545454518","683","380","f","true","match","img/ellipse.png","椭圆","椭圆","ALT1_2","prac_ALT1_2","","","","","","","","","",""
"null","<span style='color:GreenYellow; font-size: 70px;'>正确! </span>","null","html-keyboard-response","60","161629","0.0-7.0-1.0-1.0-0.0-1.25","4","3","4","3","4","3","3","4","4","4","5","4","5","4","4","5","4","5","5","4","2","2","2","1","2","2","1","4","2","1","0","1","1","0","0","0","1","0","1","1","1","1","0","1","4","1","3","2","3","4","4","2","2","2","672546881741520896","陈","162","","","","","","","","","","","","","","","","","","","","","","","","","","","","","","feedback_test","","","","","","","","","",""
"759","","j","psychophysics","61","163389","0.0-7.0-1.0-1.0-0.0-0.26","4","3","4","3","4","3","3","4","4","4","5","4","5","4","4","5","4","5","5","4","2","2","2","1","2","2","1","4","2","1","0","1","1","0","0","0","1","0","1","1","1","1","0","1","4","1","3","2","3","4","4","2","2","2","672546881741520896","陈","162","","","","nonmatch","","","","","","","","","","","","","","key","j","16.646838095238145","683","380","j","true","nonmatch","img/square.png","椭圆","方形","ALT1_2","prac_ALT1_2","","","","","","","","","",""
"null","<span style='color:GreenYellow; font-size: 70px;'>正确! </span>","null","html-keyboard-response","62","163890","0.0-7.0-1.0-1.0-0.0-1.26","4","3","4","3","4","3","3","4","4","4","5","4","5","4","4","5","4","5","5","4","2","2","2","1","2","2","1","4","2","1","0","1","1","0","0","0","1","0","1","1","1","1","0","1","4","1","3","2","3","4","4","2","2","2","672546881741520896","陈","162","","","","","","","","","","","","","","","","","","","","","","","","","","","","","","feedback_test","","","","","","","","","",""
"740","","f","psychophysics","63","165633","0.0-7.0-1.0-1.0-0.0-0.27","4","3","4","3","4","3","3","4","4","4","5","4","5","4","4","5","4","5","5","4","2","2","2","1","2","2","1","4","2","1","0","1","1","0","0","0","1","0","1","1","1","1","0","1","4","1","3","2","3","4","4","2","2","2","672546881741520896","陈","162","","","","match","","","","","","","","","","","","","","key","f","16.647135922330087","683","380","f","true","match","img/square.png","方形","方形","ALT1_2","prac_ALT1_2","","","","","","","","","",""
"null","<span style='color:GreenYellow; font-size: 70px;'>正确! </span>","null","html-keyboard-response","64","166135","0.0-7.0-1.0-1.0-0.0-1.27","4","3","4","3","4","3","3","4","4","4","5","4","5","4","4","5","4","5","5","4","2","2","2","1","2","2","1","4","2","1","0","1","1","0","0","0","1","0","1","1","1","1","0","1","4","1","3","2","3","4","4","2","2","2","672546881741520896","陈","162","","","","","","","","","","","","","","","","","","","","","","","","","","","","","","feedback_test","","","","","","","","","",""
"720","","f","psychophysics","65","167856","0.0-7.0-1.0-1.0-0.0-0.28","4","3","4","3","4","3","3","4","4","4","5","4","5","4","4","5","4","5","5","4","2","2","2","1","2","2","1","4","2","1","0","1","1","0","0","0","1","0","1","1","1","1","0","1","4","1","3","2","3","4","4","2","2","2","672546881741520896","陈","162","","","","match","","","","","","","","","","","","","","key","f","16.646862745098144","683","380","f","true","match","img/triangle.png","三角","三角","ALT1_2","prac_ALT1_2","","","","","","","","","",""
"null","<span style='color:GreenYellow; font-size: 70px;'>正确! </span>","null","html-keyboard-response","66","168357","0.0-7.0-1.0-1.0-0.0-1.28","4","3","4","3","4","3","3","4","4","4","5","4","5","4","4","5","4","5","5","4","2","2","2","1","2","2","1","4","2","1","0","1","1","0","0","0","1","0","1","1","1","1","0","1","4","1","3","2","3","4","4","2","2","2","672546881741520896","陈","162","","","","","","","","","","","","","","","","","","","","","","","","","","","","","","feedback_test","","","","","","","","","",""
"686","","f","psychophysics","67","170045","0.0-7.0-1.0-1.0-0.0-0.29","4","3","4","3","4","3","3","4","4","4","5","4","5","4","4","5","4","5","5","4","2","2","2","1","2","2","1","4","2","1","0","1","1","0","0","0","1","0","1","1","1","1","0","1","4","1","3","2","3","4","4","2","2","2","672546881741520896","陈","162","","","","match","","","","","","","","","","","","","","key","f","16.647300000000104","683","380","f","true","match","img/ellipse.png","椭圆","椭圆","ALT1_2","prac_ALT1_2","","","","","","","","","",""
"null","<span style='color:GreenYellow; font-size: 70px;'>正确! </span>","null","html-keyboard-response","68","170547","0.0-7.0-1.0-1.0-0.0-1.29","4","3","4","3","4","3","3","4","4","4","5","4","5","4","4","5","4","5","5","4","2","2","2","1","2","2","1","4","2","1","0","1","1","0","0","0","1","0","1","1","1","1","0","1","4","1","3","2","3","4","4","2","2","2","672546881741520896","陈","162","","","","","","","","","","","","","","","","","","","","","","","","","","","","","","feedback_test","","","","","","","","","",""
"740","","j","psychophysics","69","172288","0.0-7.0-1.0-1.0-0.0-0.30","4","3","4","3","4","3","3","4","4","4","5","4","5","4","4","5","4","5","5","4","2","2","2","1","2","2","1","4","2","1","0","1","1","0","0","0","1","0","1","1","1","1","0","1","4","1","3","2","3","4","4","2","2","2","672546881741520896","陈","162","","","","nonmatch","","","","","","","","","","","","","","key","j","16.64662135922315","683","380","f","false","match","img/ellipse.png","椭圆","椭圆","ALT1_2","prac_ALT1_2","","","","","","","","","",""
"null","<span style='color:red; font-size: 70px;'>错误! </span>","null","html-keyboard-response","70","172789","0.0-7.0-1.0-1.0-0.0-1.30","4","3","4","3","4","3","3","4","4","4","5","4","5","4","4","5","4","5","5","4","2","2","2","1","2","2","1","4","2","1","0","1","1","0","0","0","1","0","1","1","1","1","0","1","4","1","3","2","3","4","4","2","2","2","672546881741520896","陈","162","","","","","","","","","","","","","","","","","","","","","","","","","","","","","","feedback_test","","","","","","","","","",""
"666","","j","psychophysics","71","174457","0.0-7.0-1.0-1.0-0.0-0.31","4","3","4","3","4","3","3","4","4","4","5","4","5","4","4","5","4","5","5","4","2","2","2","1","2","2","1","4","2","1","0","1","1","0","0","0","1","0","1","1","1","1","0","1","4","1","3","2","3","4","4","2","2","2","672546881741520896","陈","162","","","","nonmatch","","","","","","","","","","","","","","key","j","16.64688888888905","683","380","j","true","nonmatch","img/square.png","三角","方形","ALT1_2","prac_ALT1_2","","","","","","","","","",""
"null","<span style='color:GreenYellow; font-size: 70px;'>正确! </span>","null","html-keyboard-response","72","174960","0.0-7.0-1.0-1.0-0.0-1.31","4","3","4","3","4","3","3","4","4","4","5","4","5","4","4","5","4","5","5","4","2","2","2","1","2","2","1","4","2","1","0","1","1","0","0","0","1","0","1","1","1","1","0","1","4","1","3","2","3","4","4","2","2","2","672546881741520896","陈","162","","","","","","","","","","","","","","","","","","","","","","","","","","","","","","feedback_test","","","","","","","","","",""
"731","","j","psychophysics","73","176692","0.0-7.0-1.0-1.0-0.0-0.32","4","3","4","3","4","3","3","4","4","4","5","4","5","4","4","5","4","5","5","4","2","2","2","1","2","2","1","4","2","1","0","1","1","0","0","0","1","0","1","1","1","1","0","1","4","1","3","2","3","4","4","2","2","2","672546881741520896","陈","162","","","","nonmatch","","","","","","","","","","","","","","key","j","16.64736893203887","683","380","j","true","nonmatch","img/ellipse.png","三角","椭圆","ALT1_2","prac_ALT1_2","","","","","","","","","",""
"null","<span style='color:GreenYellow; font-size: 70px;'>正确! </span>","null","html-keyboard-response","74","177194","0.0-7.0-1.0-1.0-0.0-1.32","4","3","4","3","4","3","3","4","4","4","5","4","5","4","4","5","4","5","5","4","2","2","2","1","2","2","1","4","2","1","0","1","1","0","0","0","1","0","1","1","1","1","0","1","4","1","3","2","3","4","4","2","2","2","672546881741520896","陈","162","","","","","","","","","","","","","","","","","","","","","","","","","","","","","","feedback_test","","","","","","","","","",""
"639","","j","psychophysics","75","178834","0.0-7.0-1.0-1.0-0.0-0.33","4","3","4","3","4","3","3","4","4","4","5","4","5","4","4","5","4","5","5","4","2","2","2","1","2","2","1","4","2","1","0","1","1","0","0","0","1","0","1","1","1","1","0","1","4","1","3","2","3","4","4","2","2","2","672546881741520896","陈","162","","","","nonmatch","","","","","","","","","","","","","","key","j","16.64725773195861","683","380","j","true","nonmatch","img/square.png","六边","方形","ALT1_2","prac_ALT1_2","","","","","","","","","",""
"null","<span style='color:GreenYellow; font-size: 70px;'>正确! </span>","null","html-keyboard-response","76","179336","0.0-7.0-1.0-1.0-0.0-1.33","4","3","4","3","4","3","3","4","4","4","5","4","5","4","4","5","4","5","5","4","2","2","2","1","2","2","1","4","2","1","0","1","1","0","0","0","1","0","1","1","1","1","0","1","4","1","3","2","3","4","4","2","2","2","672546881741520896","陈","162","","","","","","","","","","","","","","","","","","","","","","","","","","","","","","feedback_test","","","","","","","","","",""
"784","","j","psychophysics","77","181122","0.0-7.0-1.0-1.0-0.0-0.34","4","3","4","3","4","3","3","4","4","4","5","4","5","4","4","5","4","5","5","4","2","2","2","1","2","2","1","4","2","1","0","1","1","0","0","0","1","0","1","1","1","1","0","1","4","1","3","2","3","4","4","2","2","2","672546881741520896","陈","162","","","","nonmatch","","","","","","","","","","","","","","key","j","16.647452830188723","683","380","j","true","nonmatch","img/hexagon.png","椭圆","六边","ALT1_2","prac_ALT1_2","","","","","","","","","",""
"null","<span style='color:GreenYellow; font-size: 70px;'>正确! </span>","null","html-keyboard-response","78","181625","0.0-7.0-1.0-1.0-0.0-1.34","4","3","4","3","4","3","3","4","4","4","5","4","5","4","4","5","4","5","5","4","2","2","2","1","2","2","1","4","2","1","0","1","1","0","0","0","1","0","1","1","1","1","0","1","4","1","3","2","3","4","4","2","2","2","672546881741520896","陈","162","","","","","","","","","","","","","","","","","","","","","","","","","","","","","","feedback_test","","","","","","","","","",""
"686","","j","psychophysics","79","183313","0.0-7.0-1.0-1.0-0.0-0.35","4","3","4","3","4","3","3","4","4","4","5","4","5","4","4","5","4","5","5","4","2","2","2","1","2","2","1","4","2","1","0","1","1","0","0","0","1","0","1","1","1","1","0","1","4","1","3","2","3","4","4","2","2","2","672546881741520896","陈","162","","","","nonmatch","","","","","","","","","","","","","","key","j","16.646820000000005","683","380","j","true","nonmatch","img/hexagon.png","方形","六边","ALT1_2","prac_ALT1_2","","","","","","","","","",""
"null","<span style='color:GreenYellow; font-size: 70px;'>正确! </span>","null","html-keyboard-response","80","183817","0.0-7.0-1.0-1.0-0.0-1.35","4","3","4","3","4","3","3","4","4","4","5","4","5","4","4","5","4","5","5","4","2","2","2","1","2","2","1","4","2","1","0","1","1","0","0","0","1","0","1","1","1","1","0","1","4","1","3","2","3","4","4","2","2","2","672546881741520896","陈","162","","","","","","","","","","","","","","","","","","","","","","","","","","","","","","feedback_test","","","","","","","","","",""
"733","","j","psychophysics","81","185551","0.0-7.0-1.0-1.0-0.0-0.36","4","3","4","3","4","3","3","4","4","4","5","4","5","4","4","5","4","5","5","4","2","2","2","1","2","2","1","4","2","1","0","1","1","0","0","0","1","0","1","1","1","1","0","1","4","1","3","2","3","4","4","2","2","2","672546881741520896","陈","162","","","","nonmatch","","","","","","","","","","","","","","key","j","16.64716504854365","683","380","j","true","nonmatch","img/ellipse.png","方形","椭圆","ALT1_2","prac_ALT1_2","","","","","","","","","",""
"null","<span style='color:GreenYellow; font-size: 70px;'>正确! </span>","null","html-keyboard-response","82","186052","0.0-7.0-1.0-1.0-0.0-1.36","4","3","4","3","4","3","3","4","4","4","5","4","5","4","4","5","4","5","5","4","2","2","2","1","2","2","1","4","2","1","0","1","1","0","0","0","1","0","1","1","1","1","0","1","4","1","3","2","3","4","4","2","2","2","672546881741520896","陈","162","","","","","","","","","","","","","","","","","","","","","","","","","","","","","","feedback_test","","","","","","","","","",""
"677","","j","psychophysics","83","187731","0.0-7.0-1.0-1.0-0.0-0.37","4","3","4","3","4","3","3","4","4","4","5","4","5","4","4","5","4","5","5","4","2","2","2","1","2","2","1","4","2","1","0","1","1","0","0","0","1","0","1","1","1","1","0","1","4","1","3","2","3","4","4","2","2","2","672546881741520896","陈","162","","","","nonmatch","","","","","","","","","","","","","","key","j","16.647390000000016","683","380","j","true","nonmatch","img/triangle.png","六边","三角","ALT1_2","prac_ALT1_2","","","","","","","","","",""
"null","<span style='color:GreenYellow; font-size: 70px;'>正确! </span>","null","html-keyboard-response","84","188234","0.0-7.0-1.0-1.0-0.0-1.37","4","3","4","3","4","3","3","4","4","4","5","4","5","4","4","5","4","5","5","4","2","2","2","1","2","2","1","4","2","1","0","1","1","0","0","0","1","0","1","1","1","1","0","1","4","1","3","2","3","4","4","2","2","2","672546881741520896","陈","162","","","","","","","","","","","","","","","","","","","","","","","","","","","","","","feedback_test","","","","","","","","","",""
"803","","j","psychophysics","85","190039","0.0-7.0-1.0-1.0-0.0-0.38","4","3","4","3","4","3","3","4","4","4","5","4","5","4","4","5","4","5","5","4","2","2","2","1","2","2","1","4","2","1","0","1","1","0","0","0","1","0","1","1","1","1","0","1","4","1","3","2","3","4","4","2","2","2","672546881741520896","陈","162","","","","nonmatch","","","","","","","","","","","","","","key","j","16.646897196261623","683","380","j","true","nonmatch","img/triangle.png","椭圆","三角","ALT1_2","prac_ALT1_2","","","","","","","","","",""
"null","<span style='color:GreenYellow; font-size: 70px;'>正确! </span>","null","html-keyboard-response","86","190540","0.0-7.0-1.0-1.0-0.0-1.38","4","3","4","3","4","3","3","4","4","4","5","4","5","4","4","5","4","5","5","4","2","2","2","1","2","2","1","4","2","1","0","1","1","0","0","0","1","0","1","1","1","1","0","1","4","1","3","2","3","4","4","2","2","2","672546881741520896","陈","162","","","","","","","","","","","","","","","","","","","","","","","","","","","","","","feedback_test","","","","","","","","","",""
"634","","j","psychophysics","87","192176","0.0-7.0-1.0-1.0-0.0-0.39","4","3","4","3","4","3","3","4","4","4","5","4","5","4","4","5","4","5","5","4","2","2","2","1","2","2","1","4","2","1","0","1","1","0","0","0","1","0","1","1","1","1","0","1","4","1","3","2","3","4","4","2","2","2","672546881741520896","陈","162","","","","nonmatch","","","","","","","","","","","","","","key","j","16.647206185567107","683","380","f","false","match","img/hexagon.png","六边","六边","ALT1_2","prac_ALT1_2","","","","","","","","","",""
"null","<span style='color:red; font-size: 70px;'>错误! </span>","null","html-keyboard-response","88","192677","0.0-7.0-1.0-1.0-0.0-1.39","4","3","4","3","4","3","3","4","4","4","5","4","5","4","4","5","4","5","5","4","2","2","2","1","2","2","1","4","2","1","0","1","1","0","0","0","1","0","1","1","1","1","0","1","4","1","3","2","3","4","4","2","2","2","672546881741520896","陈","162","","","","","","","","","","","","","","","","","","","","","","","","","","","","","","feedback_test","","","","","","","","","",""
"675","","f","psychophysics","89","194354","0.0-7.0-1.0-1.0-0.0-0.40","4","3","4","3","4","3","3","4","4","4","5","4","5","4","4","5","4","5","5","4","2","2","2","1","2","2","1","4","2","1","0","1","1","0","0","0","1","0","1","1","1","1","0","1","4","1","3","2","3","4","4","2","2","2","672546881741520896","陈","162","","","","match","","","","","","","","","","","","","","key","f","16.6471100000001","683","380","f","true","match","img/triangle.png","三角","三角","ALT1_2","prac_ALT1_2","","","","","","","","","",""
"null","<span style='color:GreenYellow; font-size: 70px;'>正确! </span>","null","html-keyboard-response","90","194856","0.0-7.0-1.0-1.0-0.0-1.40","4","3","4","3","4","3","3","4","4","4","5","4","5","4","4","5","4","5","5","4","2","2","2","1","2","2","1","4","2","1","0","1","1","0","0","0","1","0","1","1","1","1","0","1","4","1","3","2","3","4","4","2","2","2","672546881741520896","陈","162","","","","","","","","","","","","","","","","","","","","","","","","","","","","","","feedback_test","","","","","","","","","",""
"787","","f","psychophysics","91","196645","0.0-7.0-1.0-1.0-0.0-0.41","4","3","4","3","4","3","3","4","4","4","5","4","5","4","4","5","4","5","5","4","2","2","2","1","2","2","1","4","2","1","0","1","1","0","0","0","1","0","1","1","1","1","0","1","4","1","3","2","3","4","4","2","2","2","672546881741520896","陈","162","","","","match","","","","","","","","","","","","","","key","f","16.647452830188723","683","380","f","true","match","img/hexagon.png","六边","六边","ALT1_2","prac_ALT1_2","","","","","","","","","",""
"null","<span style='color:GreenYellow; font-size: 70px;'>正确! </span>","null","html-keyboard-response","92","197146","0.0-7.0-1.0-1.0-0.0-1.41","4","3","4","3","4","3","3","4","4","4","5","4","5","4","4","5","4","5","5","4","2","2","2","1","2","2","1","4","2","1","0","1","1","0","0","0","1","0","1","1","1","1","0","1","4","1","3","2","3","4","4","2","2","2","672546881741520896","陈","162","","","","","","","","","","","","","","","","","","","","","","","","","","","","","","feedback_test","","","","","","","","","",""
"701","","j","psychophysics","93","198849","0.0-7.0-1.0-1.0-0.0-0.42","4","3","4","3","4","3","3","4","4","4","5","4","5","4","4","5","4","5","5","4","2","2","2","1","2","2","1","4","2","1","0","1","1","0","0","0","1","0","1","1","1","1","0","1","4","1","3","2","3","4","4","2","2","2","672546881741520896","陈","162","","","","nonmatch","","","","","","","","","","","","","","key","j","16.64756435643545","683","380","j","true","nonmatch","img/hexagon.png","三角","六边","ALT1_2","prac_ALT1_2","","","","","","","","","",""
"null","<span style='color:GreenYellow; font-size: 70px;'>正确! </span>","null","html-keyboard-response","94","199350","0.0-7.0-1.0-1.0-0.0-1.42","4","3","4","3","4","3","3","4","4","4","5","4","5","4","4","5","4","5","5","4","2","2","2","1","2","2","1","4","2","1","0","1","1","0","0","0","1","0","1","1","1","1","0","1","4","1","3","2","3","4","4","2","2","2","672546881741520896","陈","162","","","","","","","","","","","","","","","","","","","","","","","","","","","","","","feedback_test","","","","","","","","","",""
"748","","f","psychophysics","95","201100","0.0-7.0-1.0-1.0-0.0-0.43","4","3","4","3","4","3","3","4","4","4","5","4","5","4","4","5","4","5","5","4","2","2","2","1","2","2","1","4","2","1","0","1","1","0","0","0","1","0","1","1","1","1","0","1","4","1","3","2","3","4","4","2","2","2","672546881741520896","陈","162","","","","match","","","","","","","","","","","","","","key","f","16.647538461538296","683","380","f","true","match","img/square.png","方形","方形","ALT1_2","prac_ALT1_2","","","","","","","","","",""
"null","<span style='color:GreenYellow; font-size: 70px;'>正确! </span>","null","html-keyboard-response","96","201613","0.0-7.0-1.0-1.0-0.0-1.43","4","3","4","3","4","3","3","4","4","4","5","4","5","4","4","5","4","5","5","4","2","2","2","1","2","2","1","4","2","1","0","1","1","0","0","0","1","0","1","1","1","1","0","1","4","1","3","2","3","4","4","2","2","2","672546881741520896","陈","162","","","","","","","","","","","","","","","","","","","","","","","","","","","","","","feedback_test","","","","","","","","","",""
"853","","f","psychophysics","97","203468","0.0-7.0-1.0-1.0-0.0-0.44","4","3","4","3","4","3","3","4","4","4","5","4","5","4","4","5","4","5","5","4","2","2","2","1","2","2","1","4","2","1","0","1","1","0","0","0","1","0","1","1","1","1","0","1","4","1","3","2","3","4","4","2","2","2","672546881741520896","陈","162","","","","match","","","","","","","","","","","","","","key","f","16.647136363636342","683","380","f","true","match","img/hexagon.png","六边","六边","ALT1_2","prac_ALT1_2","","","","","","","","","",""
"null","<span style='color:GreenYellow; font-size: 70px;'>正确! </span>","null","html-keyboard-response","98","203969","0.0-7.0-1.0-1.0-0.0-1.44","4","3","4","3","4","3","3","4","4","4","5","4","5","4","4","5","4","5","5","4","2","2","2","1","2","2","1","4","2","1","0","1","1","0","0","0","1","0","1","1","1","1","0","1","4","1","3","2","3","4","4","2","2","2","672546881741520896","陈","162","","","","","","","","","","","","","","","","","","","","","","","","","","","","","","feedback_test","","","","","","","","","",""
"667","","f","psychophysics","99","205638","0.0-7.0-1.0-1.0-0.0-0.45","4","3","4","3","4","3","3","4","4","4","5","4","5","4","4","5","4","5","5","4","2","2","2","1","2","2","1","4","2","1","0","1","1","0","0","0","1","0","1","1","1","1","0","1","4","1","3","2","3","4","4","2","2","2","672546881741520896","陈","162","","","","match","","","","","","","","","","","","","","key","f","16.647229999999983","683","380","f","true","match","img/square.png","方形","方形","ALT1_2","prac_ALT1_2","","","","","","","","","",""
"null","<span style='color:GreenYellow; font-size: 70px;'>正确! </span>","null","html-keyboard-response","100","206140","0.0-7.0-1.0-1.0-0.0-1.45","4","3","4","3","4","3","3","4","4","4","5","4","5","4","4","5","4","5","5","4","2","2","2","1","2","2","1","4","2","1","0","1","1","0","0","0","1","0","1","1","1","1","0","1","4","1","3","2","3","4","4","2","2","2","672546881741520896","陈","162","","","","","","","","","","","","","","","","","","","","","","","","","","","","","","feedback_test","","","","","","","","","",""
"835","","j","psychophysics","101","207976","0.0-7.0-1.0-1.0-0.0-0.46","4","3","4","3","4","3","3","4","4","4","5","4","5","4","4","5","4","5","5","4","2","2","2","1","2","2","1","4","2","1","0","1","1","0","0","0","1","0","1","1","1","1","0","1","4","1","3","2","3","4","4","2","2","2","672546881741520896","陈","162","","","","nonmatch","","","","","","","","","","","","","","key","j","16.647467889908196","683","380","j","true","nonmatch","img/ellipse.png","六边","椭圆","ALT1_2","prac_ALT1_2","","","","","","","","","",""
"null","<span style='color:GreenYellow; font-size: 70px;'>正确! </span>","null","html-keyboard-response","102","208477","0.0-7.0-1.0-1.0-0.0-1.46","4","3","4","3","4","3","3","4","4","4","5","4","5","4","4","5","4","5","5","4","2","2","2","1","2","2","1","4","2","1","0","1","1","0","0","0","1","0","1","1","1","1","0","1","4","1","3","2","3","4","4","2","2","2","672546881741520896","陈","162","","","","","","","","","","","","","","","","","","","","","","","","","","","","","","feedback_test","","","","","","","","","",""
"705","","f","psychophysics","103","210184","0.0-7.0-1.0-1.0-0.0-0.47","4","3","4","3","4","3","3","4","4","4","5","4","5","4","4","5","4","5","5","4","2","2","2","1","2","2","1","4","2","1","0","1","1","0","0","0","1","0","1","1","1","1","0","1","4","1","3","2","3","4","4","2","2","2","672546881741520896","陈","162","","","","match","","","","","","","","","","","","","","key","f","16.647480392156627","683","380","f","true","match","img/triangle.png","三角","三角","ALT1_2","prac_ALT1_2","","","","","","","","","",""
"null","<span style='color:GreenYellow; font-size: 70px;'>正确! </span>","null","html-keyboard-response","104","210686","0.0-7.0-1.0-1.0-0.0-1.47","4","3","4","3","4","3","3","4","4","4","5","4","5","4","4","5","4","5","5","4","2","2","2","1","2","2","1","4","2","1","0","1","1","0","0","0","1","0","1","1","1","1","0","1","4","1","3","2","3","4","4","2","2","2","672546881741520896","陈","162","","","","","","","","","","","","","","","","","","","","","","","","","","","","","","feedback_test","","","","","","","","","",""
"1194","<style>.context{color:white; font-size: 35px; line-height:40px}</style>                          <div><p class='context'>您正确回答了88% 的试次。</p><p class='context'>您的平均反应时为735毫秒。</p><p class='context'>恭喜您完成练习。按空格键进入正式实验。</p><p class='footer' style='font-size: 35px; line-height:40px;'>请在进入正式实验实验之前将您的<span style='color: lightgreen;'>食指</span>放在电脑键盘的相应键位上进行按键。</p>"," ","html-keyboard-response","105","211884","0.0-7.0-1.0-2.0","4","3","4","3","4","3","3","4","4","4","5","4","5","4","4","5","4","5","5","4","2","2","2","1","2","2","1","4","2","1","0","1","1","0","0","0","1","0","1","1","1","1","0","1","4","1","3","2","3","4","4","2","2","2","672546881741520896","陈","162","","","","","","","","","","","","","","","","","","","","","","","","","","","","","","","","","","","","","","","",""
"758","
  <p style='color: white; font-size: 22px'>请您将手指放在按键上，准备进入正式的匹配任务。</p>
  <p> <div style = ""color: green""><按空格键进入下一阶段的匹配任务></div></p>
  "," ","html-keyboard-response","106","212653","0.0-7.0-1.0-3.0","4","3","4","3","4","3","3","4","4","4","5","4","5","4","4","5","4","5","5","4","2","2","2","1","2","2","1","4","2","1","0","1","1","0","0","0","1","0","1","1","1","1","0","1","4","1","3","2","3","4","4","2","2","2","672546881741520896","陈","162","","","","","","","","","","","","","","","","","","","","","","","","","","","","","","","","","","","","","","","",""
"694","","f","psychophysics","107","214349","0.0-7.0-1.0-4.0-0.0-0.0","4","3","4","3","4","3","3","4","4","4","5","4","5","4","4","5","4","5","5","4","2","2","2","1","2","2","1","4","2","1","0","1","1","0","0","0","1","0","1","1","1","1","0","1","4","1","3","2","3","4","4","2","2","2","672546881741520896","陈","162","","","","match","","","","","","","","","","","","","","key","f","16.64705940594062","683","380","f","true","match","img/triangle.png","三角","三角","ALT1","formal_ALT1_2","","","","","","","","","",""
"null","<span style='color:GreenYellow; font-size: 70px;'>正确! </span>","null","html-keyboard-response","108","214850","0.0-7.0-1.0-4.0-0.0-1.0","4","3","4","3","4","3","3","4","4","4","5","4","5","4","4","5","4","5","5","4","2","2","2","1","2","2","1","4","2","1","0","1","1","0","0","0","1","0","1","1","1","1","0","1","4","1","3","2","3","4","4","2","2","2","672546881741520896","陈","162","","","","","","","","","","","","","","","","","","","","","","","","","","","","","","feedback_test","","","","","","","","","",""
"700","","j","psychophysics","109","216553","0.0-7.0-1.0-4.0-0.0-0.1","4","3","4","3","4","3","3","4","4","4","5","4","5","4","4","5","4","5","5","4","2","2","2","1","2","2","1","4","2","1","0","1","1","0","0","0","1","0","1","1","1","1","0","1","4","1","3","2","3","4","4","2","2","2","672546881741520896","陈","162","","","","nonmatch","","","","","","","","","","","","","","key","j","16.647792079207882","683","380","j","true","nonmatch","img/square.png","三角","方形","ALT1","formal_ALT1_2","","","","","","","","","",""
"null","<span style='color:GreenYellow; font-size: 70px;'>正确! </span>","null","html-keyboard-response","110","217054","0.0-7.0-1.0-4.0-0.0-1.1","4","3","4","3","4","3","3","4","4","4","5","4","5","4","4","5","4","5","5","4","2","2","2","1","2","2","1","4","2","1","0","1","1","0","0","0","1","0","1","1","1","1","0","1","4","1","3","2","3","4","4","2","2","2","672546881741520896","陈","162","","","","","","","","","","","","","","","","","","","","","","","","","","","","","","feedback_test","","","","","","","","","",""
"608","","f","psychophysics","111","218665","0.0-7.0-1.0-4.0-0.0-0.2","4","3","4","3","4","3","3","4","4","4","5","4","5","4","4","5","4","5","5","4","2","2","2","1","2","2","1","4","2","1","0","1","1","0","0","0","1","0","1","1","1","1","0","1","4","1","3","2","3","4","4","2","2","2","672546881741520896","陈","162","","","","match","","","","","","","","","","","","","","key","f","16.64745833333321","683","380","j","false","nonmatch","img/hexagon.png","椭圆","六边","ALT1","formal_ALT1_2","","","","","","","","","",""
"null","<span style='color:red; font-size: 70px;'>错误! </span>","null","html-keyboard-response","112","219165","0.0-7.0-1.0-4.0-0.0-1.2","4","3","4","3","4","3","3","4","4","4","5","4","5","4","4","5","4","5","5","4","2","2","2","1","2","2","1","4","2","1","0","1","1","0","0","0","1","0","1","1","1","1","0","1","4","1","3","2","3","4","4","2","2","2","672546881741520896","陈","162","","","","","","","","","","","","","","","","","","","","","","","","","","","","","","feedback_test","","","","","","","","","",""
"1038","","j","psychophysics","113","221205","0.0-7.0-1.0-4.0-0.0-0.3","4","3","4","3","4","3","3","4","4","4","5","4","5","4","4","5","4","5","5","4","2","2","2","1","2","2","1","4","2","1","0","1","1","0","0","0","1","0","1","1","1","1","0","1","4","1","3","2","3","4","4","2","2","2","672546881741520896","陈","162","","","","nonmatch","","","","","","","","","","","","","","key","j","16.646852459016372","683","380","j","true","nonmatch","img/hexagon.png","三角","六边","ALT1","formal_ALT1_2","","","","","","","","","",""
"null","<span style='color:GreenYellow; font-size: 70px;'>正确! </span>","null","html-keyboard-response","114","221707","0.0-7.0-1.0-4.0-0.0-1.3","4","3","4","3","4","3","3","4","4","4","5","4","5","4","4","5","4","5","5","4","2","2","2","1","2","2","1","4","2","1","0","1","1","0","0","0","1","0","1","1","1","1","0","1","4","1","3","2","3","4","4","2","2","2","672546881741520896","陈","162","","","","","","","","","","","","","","","","","","","","","","","","","","","","","","feedback_test","","","","","","","","","",""
"787","","j","psychophysics","115","223495","0.0-7.0-1.0-4.0-0.0-0.4","4","3","4","3","4","3","3","4","4","4","5","4","5","4","4","5","4","5","5","4","2","2","2","1","2","2","1","4","2","1","0","1","1","0","0","0","1","0","1","1","1","1","0","1","4","1","3","2","3","4","4","2","2","2","672546881741520896","陈","162","","","","nonmatch","","","","","","","","","","","","","","key","j","16.647783018868","683","380","j","true","nonmatch","img/triangle.png","方形","三角","ALT1","formal_ALT1_2","","","","","","","","","",""
"null","<span style='color:GreenYellow; font-size: 70px;'>正确! </span>","null","html-keyboard-response","116","223996","0.0-7.0-1.0-4.0-0.0-1.4","4","3","4","3","4","3","3","4","4","4","5","4","5","4","4","5","4","5","5","4","2","2","2","1","2","2","1","4","2","1","0","1","1","0","0","0","1","0","1","1","1","1","0","1","4","1","3","2","3","4","4","2","2","2","672546881741520896","陈","162","","","","","","","","","","","","","","","","","","","","","","","","","","","","","","feedback_test","","","","","","","","","",""
"674","","f","psychophysics","117","225673","0.0-7.0-1.0-4.0-0.0-0.5","4","3","4","3","4","3","3","4","4","4","5","4","5","4","4","5","4","5","5","4","2","2","2","1","2","2","1","4","2","1","0","1","1","0","0","0","1","0","1","1","1","1","0","1","4","1","3","2","3","4","4","2","2","2","672546881741520896","陈","162","","","","match","","","","","","","","","","","","","","key","f","16.64695000000007","683","380","f","true","match","img/square.png","方形","方形","ALT1","formal_ALT1_2","","","","","","","","","",""
"null","<span style='color:GreenYellow; font-size: 70px;'>正确! </span>","null","html-keyboard-response","118","226176","0.0-7.0-1.0-4.0-0.0-1.5","4","3","4","3","4","3","3","4","4","4","5","4","5","4","4","5","4","5","5","4","2","2","2","1","2","2","1","4","2","1","0","1","1","0","0","0","1","0","1","1","1","1","0","1","4","1","3","2","3","4","4","2","2","2","672546881741520896","陈","162","","","","","","","","","","","","","","","","","","","","","","","","","","","","","","feedback_test","","","","","","","","","",""
"609","","j","psychophysics","119","227788","0.0-7.0-1.0-4.0-0.0-0.6","4","3","4","3","4","3","3","4","4","4","5","4","5","4","4","5","4","5","5","4","2","2","2","1","2","2","1","4","2","1","0","1","1","0","0","0","1","0","1","1","1","1","0","1","4","1","3","2","3","4","4","2","2","2","672546881741520896","陈","162","","","","nonmatch","","","","","","","","","","","","","","key","j","16.64651041666669","683","380","j","true","nonmatch","img/ellipse.png","方形","椭圆","ALT1","formal_ALT1_2","","","","","","","","","",""
"null","<span style='color:GreenYellow; font-size: 70px;'>正确! </span>","null","html-keyboard-response","120","228300","0.0-7.0-1.0-4.0-0.0-1.6","4","3","4","3","4","3","3","4","4","4","5","4","5","4","4","5","4","5","5","4","2","2","2","1","2","2","1","4","2","1","0","1","1","0","0","0","1","0","1","1","1","1","0","1","4","1","3","2","3","4","4","2","2","2","672546881741520896","陈","162","","","","","","","","","","","","","","","","","","","","","","","","","","","","","","feedback_test","","","","","","","","","",""
"650","","f","psychophysics","121","229952","0.0-7.0-1.0-4.0-0.0-0.7","4","3","4","3","4","3","3","4","4","4","5","4","5","4","4","5","4","5","5","4","2","2","2","1","2","2","1","4","2","1","0","1","1","0","0","0","1","0","1","1","1","1","0","1","4","1","3","2","3","4","4","2","2","2","672546881741520896","陈","162","","","","match","","","","","","","","","","","","","","key","f","16.646897959183754","683","380","f","true","match","img/triangle.png","三角","三角","ALT1","formal_ALT1_2","","","","","","","","","",""
"null","<span style='color:GreenYellow; font-size: 70px;'>正确! </span>","null","html-keyboard-response","122","230453","0.0-7.0-1.0-4.0-0.0-1.7","4","3","4","3","4","3","3","4","4","4","5","4","5","4","4","5","4","5","5","4","2","2","2","1","2","2","1","4","2","1","0","1","1","0","0","0","1","0","1","1","1","1","0","1","4","1","3","2","3","4","4","2","2","2","672546881741520896","陈","162","","","","","","","","","","","","","","","","","","","","","","","","","","","","","","feedback_test","","","","","","","","","",""
"719","","f","psychophysics","123","232174","0.0-7.0-1.0-4.0-0.0-0.8","4","3","4","3","4","3","3","4","4","4","5","4","5","4","4","5","4","5","5","4","2","2","2","1","2","2","1","4","2","1","0","1","1","0","0","0","1","0","1","1","1","1","0","1","4","1","3","2","3","4","4","2","2","2","672546881741520896","陈","162","","","","match","","","","","","","","","","","","","","key","f","16.647637254902044","683","380","f","true","match","img/ellipse.png","椭圆","椭圆","ALT1","formal_ALT1_2","","","","","","","","","",""
"null","<span style='color:GreenYellow; font-size: 70px;'>正确! </span>","null","html-keyboard-response","124","232678","0.0-7.0-1.0-4.0-0.0-1.8","4","3","4","3","4","3","3","4","4","4","5","4","5","4","4","5","4","5","5","4","2","2","2","1","2","2","1","4","2","1","0","1","1","0","0","0","1","0","1","1","1","1","0","1","4","1","3","2","3","4","4","2","2","2","672546881741520896","陈","162","","","","","","","","","","","","","","","","","","","","","","","","","","","","","","feedback_test","","","","","","","","","",""
"517","","j","psychophysics","125","234196","0.0-7.0-1.0-4.0-0.0-0.9","4","3","4","3","4","3","3","4","4","4","5","4","5","4","4","5","4","5","5","4","2","2","2","1","2","2","1","4","2","1","0","1","1","0","0","0","1","0","1","1","1","1","0","1","4","1","3","2","3","4","4","2","2","2","672546881741520896","陈","162","","","","nonmatch","","","","","","","","","","","","","","key","j","16.646700000000095","683","380","j","true","nonmatch","img/square.png","六边","方形","ALT1","formal_ALT1_2","","","","","","","","","",""
"null","<span style='color:GreenYellow; font-size: 70px;'>正确! </span>","null","html-keyboard-response","126","234698","0.0-7.0-1.0-4.0-0.0-1.9","4","3","4","3","4","3","3","4","4","4","5","4","5","4","4","5","4","5","5","4","2","2","2","1","2","2","1","4","2","1","0","1","1","0","0","0","1","0","1","1","1","1","0","1","4","1","3","2","3","4","4","2","2","2","672546881741520896","陈","162","","","","","","","","","","","","","","","","","","","","","","","","","","","","","","feedback_test","","","","","","","","","",""
"709","","f","psychophysics","127","236409","0.0-7.0-1.0-4.0-0.0-0.10","4","3","4","3","4","3","3","4","4","4","5","4","5","4","4","5","4","5","5","4","2","2","2","1","2","2","1","4","2","1","0","1","1","0","0","0","1","0","1","1","1","1","0","1","4","1","3","2","3","4","4","2","2","2","672546881741520896","陈","162","","","","match","","","","","","","","","","","","","","key","f","16.64659803921577","683","380","f","true","match","img/hexagon.png","六边","六边","ALT1","formal_ALT1_2","","","","","","","","","",""
"null","<span style='color:GreenYellow; font-size: 70px;'>正确! </span>","null","html-keyboard-response","128","236911","0.0-7.0-1.0-4.0-0.0-1.10","4","3","4","3","4","3","3","4","4","4","5","4","5","4","4","5","4","5","5","4","2","2","2","1","2","2","1","4","2","1","0","1","1","0","0","0","1","0","1","1","1","1","0","1","4","1","3","2","3","4","4","2","2","2","672546881741520896","陈","162","","","","","","","","","","","","","","","","","","","","","","","","","","","","","","feedback_test","","","","","","","","","",""
"930","","f","psychophysics","129","238843","0.0-7.0-1.0-4.0-0.0-0.11","4","3","4","3","4","3","3","4","4","4","5","4","5","4","4","5","4","5","5","4","2","2","2","1","2","2","1","4","2","1","0","1","1","0","0","0","1","0","1","1","1","1","0","1","4","1","3","2","3","4","4","2","2","2","672546881741520896","陈","162","","","","match","","","","","","","","","","","","","","key","f","16.64755652173898","683","380","f","true","match","img/triangle.png","三角","三角","ALT1","formal_ALT1_2","","","","","","","","","",""
"null","<span style='color:GreenYellow; font-size: 70px;'>正确! </span>","null","html-keyboard-response","130","239345","0.0-7.0-1.0-4.0-0.0-1.11","4","3","4","3","4","3","3","4","4","4","5","4","5","4","4","5","4","5","5","4","2","2","2","1","2","2","1","4","2","1","0","1","1","0","0","0","1","0","1","1","1","1","0","1","4","1","3","2","3","4","4","2","2","2","672546881741520896","陈","162","","","","","","","","","","","","","","","","","","","","","","","","","","","","","","feedback_test","","","","","","","","","",""
"739","","j","psychophysics","131","241085","0.0-7.0-1.0-4.0-0.0-0.12","4","3","4","3","4","3","3","4","4","4","5","4","5","4","4","5","4","5","5","4","2","2","2","1","2","2","1","4","2","1","0","1","1","0","0","0","1","0","1","1","1","1","0","1","4","1","3","2","3","4","4","2","2","2","672546881741520896","陈","162","","","","nonmatch","","","","","","","","","","","","","","key","j","16.64735576923088","683","380","j","true","nonmatch","img/ellipse.png","三角","椭圆","ALT1","formal_ALT1_2","","","","","","","","","",""
"null","<span style='color:GreenYellow; font-size: 70px;'>正确! </span>","null","html-keyboard-response","132","241587","0.0-7.0-1.0-4.0-0.0-1.12","4","3","4","3","4","3","3","4","4","4","5","4","5","4","4","5","4","5","5","4","2","2","2","1","2","2","1","4","2","1","0","1","1","0","0","0","1","0","1","1","1","1","0","1","4","1","3","2","3","4","4","2","2","2","672546881741520896","陈","162","","","","","","","","","","","","","","","","","","","","","","","","","","","","","","feedback_test","","","","","","","","","",""
"729","","j","psychophysics","133","243317","0.0-7.0-1.0-4.0-0.0-0.13","4","3","4","3","4","3","3","4","4","4","5","4","5","4","4","5","4","5","5","4","2","2","2","1","2","2","1","4","2","1","0","1","1","0","0","0","1","0","1","1","1","1","0","1","4","1","3","2","3","4","4","2","2","2","672546881741520896","陈","162","","","","nonmatch","","","","","","","","","","","","","","key","j","16.646844660194176","683","380","j","true","nonmatch","img/triangle.png","六边","三角","ALT1","formal_ALT1_2","","","","","","","","","",""
"null","<span style='color:GreenYellow; font-size: 70px;'>正确! </span>","null","html-keyboard-response","134","243818","0.0-7.0-1.0-4.0-0.0-1.13","4","3","4","3","4","3","3","4","4","4","5","4","5","4","4","5","4","5","5","4","2","2","2","1","2","2","1","4","2","1","0","1","1","0","0","0","1","0","1","1","1","1","0","1","4","1","3","2","3","4","4","2","2","2","672546881741520896","陈","162","","","","","","","","","","","","","","","","","","","","","","","","","","","","","","feedback_test","","","","","","","","","",""
"725","","f","psychophysics","135","245544","0.0-7.0-1.0-4.0-0.0-0.14","4","3","4","3","4","3","3","4","4","4","5","4","5","4","4","5","4","5","5","4","2","2","2","1","2","2","1","4","2","1","0","1","1","0","0","0","1","0","1","1","1","1","0","1","4","1","3","2","3","4","4","2","2","2","672546881741520896","陈","162","","","","match","","","","","","","","","","","","","","key","f","16.646854368931933","683","380","f","true","match","img/ellipse.png","椭圆","椭圆","ALT1","formal_ALT1_2","","","","","","","","","",""
"null","<span style='color:GreenYellow; font-size: 70px;'>正确! </span>","null","html-keyboard-response","136","246047","0.0-7.0-1.0-4.0-0.0-1.14","4","3","4","3","4","3","3","4","4","4","5","4","5","4","4","5","4","5","5","4","2","2","2","1","2","2","1","4","2","1","0","1","1","0","0","0","1","0","1","1","1","1","0","1","4","1","3","2","3","4","4","2","2","2","672546881741520896","陈","162","","","","","","","","","","","","","","","","","","","","","","","","","","","","","","feedback_test","","","","","","","","","",""
"718","","j","psychophysics","137","247767","0.0-7.0-1.0-4.0-0.0-0.15","4","3","4","3","4","3","3","4","4","4","5","4","5","4","4","5","4","5","5","4","2","2","2","1","2","2","1","4","2","1","0","1","1","0","0","0","1","0","1","1","1","1","0","1","4","1","3","2","3","4","4","2","2","2","672546881741520896","陈","162","","","","nonmatch","","","","","","","","","","","","","","key","j","16.647215686274542","683","380","j","true","nonmatch","img/hexagon.png","方形","六边","ALT1","formal_ALT1_2","","","","","","","","","",""
"null","<span style='color:GreenYellow; font-size: 70px;'>正确! </span>","null","html-keyboard-response","138","248268","0.0-7.0-1.0-4.0-0.0-1.15","4","3","4","3","4","3","3","4","4","4","5","4","5","4","4","5","4","5","5","4","2","2","2","1","2","2","1","4","2","1","0","1","1","0","0","0","1","0","1","1","1","1","0","1","4","1","3","2","3","4","4","2","2","2","672546881741520896","陈","162","","","","","","","","","","","","","","","","","","","","","","","","","","","","","","feedback_test","","","","","","","","","",""
"731","","f","psychophysics","139","250000","0.0-7.0-1.0-4.0-0.0-0.16","4","3","4","3","4","3","3","4","4","4","5","4","5","4","4","5","4","5","5","4","2","2","2","1","2","2","1","4","2","1","0","1","1","0","0","0","1","0","1","1","1","1","0","1","4","1","3","2","3","4","4","2","2","2","672546881741520896","陈","162","","","","match","","","","","","","","","","","","","","key","f","16.64726213592238","683","380","f","true","match","img/ellipse.png","椭圆","椭圆","ALT1","formal_ALT1_2","","","","","","","","","",""
"null","<span style='color:GreenYellow; font-size: 70px;'>正确! </span>","null","html-keyboard-response","140","250502","0.0-7.0-1.0-4.0-0.0-1.16","4","3","4","3","4","3","3","4","4","4","5","4","5","4","4","5","4","5","5","4","2","2","2","1","2","2","1","4","2","1","0","1","1","0","0","0","1","0","1","1","1","1","0","1","4","1","3","2","3","4","4","2","2","2","672546881741520896","陈","162","","","","","","","","","","","","","","","","","","","","","","","","","","","","","","feedback_test","","","","","","","","","",""
"686","","j","psychophysics","141","252189","0.0-7.0-1.0-4.0-0.0-0.17","4","3","4","3","4","3","3","4","4","4","5","4","5","4","4","5","4","5","5","4","2","2","2","1","2","2","1","4","2","1","0","1","1","0","0","0","1","0","1","1","1","1","0","1","4","1","3","2","3","4","4","2","2","2","672546881741520896","陈","162","","","","nonmatch","","","","","","","","","","","","","","key","j","16.64717000000004","683","380","j","true","nonmatch","img/square.png","椭圆","方形","ALT1","formal_ALT1_2","","","","","","","","","",""
"null","<span style='color:GreenYellow; font-size: 70px;'>正确! </span>","null","html-keyboard-response","142","252691","0.0-7.0-1.0-4.0-0.0-1.17","4","3","4","3","4","3","3","4","4","4","5","4","5","4","4","5","4","5","5","4","2","2","2","1","2","2","1","4","2","1","0","1","1","0","0","0","1","0","1","1","1","1","0","1","4","1","3","2","3","4","4","2","2","2","672546881741520896","陈","162","","","","","","","","","","","","","","","","","","","","","","","","","","","","","","feedback_test","","","","","","","","","",""
"568","","j","psychophysics","143","254261","0.0-7.0-1.0-4.0-0.0-0.18","4","3","4","3","4","3","3","4","4","4","5","4","5","4","4","5","4","5","5","4","2","2","2","1","2","2","1","4","2","1","0","1","1","0","0","0","1","0","1","1","1","1","0","1","4","1","3","2","3","4","4","2","2","2","672546881741520896","陈","162","","","","nonmatch","","","","","","","","","","","","","","key","j","16.64683870967729","683","380","j","true","nonmatch","img/triangle.png","椭圆","三角","ALT1","formal_ALT1_2","","","","","","","","","",""
"null","<span style='color:GreenYellow; font-size: 70px;'>正确! </span>","null","html-keyboard-response","144","254762","0.0-7.0-1.0-4.0-0.0-1.18","4","3","4","3","4","3","3","4","4","4","5","4","5","4","4","5","4","5","5","4","2","2","2","1","2","2","1","4","2","1","0","1","1","0","0","0","1","0","1","1","1","1","0","1","4","1","3","2","3","4","4","2","2","2","672546881741520896","陈","162","","","","","","","","","","","","","","","","","","","","","","","","","","","","","","feedback_test","","","","","","","","","",""
"720","","f","psychophysics","145","256483","0.0-7.0-1.0-4.0-0.0-0.19","4","3","4","3","4","3","3","4","4","4","5","4","5","4","4","5","4","5","5","4","2","2","2","1","2","2","1","4","2","1","0","1","1","0","0","0","1","0","1","1","1","1","0","1","4","1","3","2","3","4","4","2","2","2","672546881741520896","陈","162","","","","match","","","","","","","","","","","","","","key","f","16.647388349514674","683","380","f","true","match","img/square.png","方形","方形","ALT1","formal_ALT1_2","","","","","","","","","",""
"null","<span style='color:GreenYellow; font-size: 70px;'>正确! </span>","null","html-keyboard-response","146","256984","0.0-7.0-1.0-4.0-0.0-1.19","4","3","4","3","4","3","3","4","4","4","5","4","5","4","4","5","4","5","5","4","2","2","2","1","2","2","1","4","2","1","0","1","1","0","0","0","1","0","1","1","1","1","0","1","4","1","3","2","3","4","4","2","2","2","672546881741520896","陈","162","","","","","","","","","","","","","","","","","","","","","","","","","","","","","","feedback_test","","","","","","","","","",""
"699","","f","psychophysics","147","258684","0.0-7.0-1.0-4.0-0.0-0.20","4","3","4","3","4","3","3","4","4","4","5","4","5","4","4","5","4","5","5","4","2","2","2","1","2","2","1","4","2","1","0","1","1","0","0","0","1","0","1","1","1","1","0","1","4","1","3","2","3","4","4","2","2","2","672546881741520896","陈","162","","","","match","","","","","","","","","","","","","","key","f","16.647287128712765","683","380","f","true","match","img/hexagon.png","六边","六边","ALT1","formal_ALT1_2","","","","","","","","","",""
"null","<span style='color:GreenYellow; font-size: 70px;'>正确! </span>","null","html-keyboard-response","148","259185","0.0-7.0-1.0-4.0-0.0-1.20","4","3","4","3","4","3","3","4","4","4","5","4","5","4","4","5","4","5","5","4","2","2","2","1","2","2","1","4","2","1","0","1","1","0","0","0","1","0","1","1","1","1","0","1","4","1","3","2","3","4","4","2","2","2","672546881741520896","陈","162","","","","","","","","","","","","","","","","","","","","","","","","","","","","","","feedback_test","","","","","","","","","",""
"887","","f","psychophysics","149","261081","0.0-7.0-1.0-4.0-0.0-0.21","4","3","4","3","4","3","3","4","4","4","5","4","5","4","4","5","4","5","5","4","2","2","2","1","2","2","1","4","2","1","0","1","1","0","0","0","1","0","1","1","1","1","0","1","4","1","3","2","3","4","4","2","2","2","672546881741520896","陈","162","","","","match","","","","","","","","","","","","","","key","f","16.647088495575087","683","380","f","true","match","img/square.png","方形","方形","ALT1","formal_ALT1_2","","","","","","","","","",""
"null","<span style='color:GreenYellow; font-size: 70px;'>正确! </span>","null","html-keyboard-response","150","261596","0.0-7.0-1.0-4.0-0.0-1.21","4","3","4","3","4","3","3","4","4","4","5","4","5","4","4","5","4","5","5","4","2","2","2","1","2","2","1","4","2","1","0","1","1","0","0","0","1","0","1","1","1","1","0","1","4","1","3","2","3","4","4","2","2","2","672546881741520896","陈","162","","","","","","","","","","","","","","","","","","","","","","","","","","","","","","feedback_test","","","","","","","","","",""
"665","","j","psychophysics","151","263262","0.0-7.0-1.0-4.0-0.0-0.22","4","3","4","3","4","3","3","4","4","4","5","4","5","4","4","5","4","5","5","4","2","2","2","1","2","2","1","4","2","1","0","1","1","0","0","0","1","0","1","1","1","1","0","1","4","1","3","2","3","4","4","2","2","2","672546881741520896","陈","162","","","","nonmatch","","","","","","","","","","","","","","key","j","16.647080808080677","683","380","j","true","nonmatch","img/ellipse.png","六边","椭圆","ALT1","formal_ALT1_2","","","","","","","","","",""
"null","<span style='color:GreenYellow; font-size: 70px;'>正确! </span>","null","html-keyboard-response","152","263763","0.0-7.0-1.0-4.0-0.0-1.22","4","3","4","3","4","3","3","4","4","4","5","4","5","4","4","5","4","5","5","4","2","2","2","1","2","2","1","4","2","1","0","1","1","0","0","0","1","0","1","1","1","1","0","1","4","1","3","2","3","4","4","2","2","2","672546881741520896","陈","162","","","","","","","","","","","","","","","","","","","","","","","","","","","","","","feedback_test","","","","","","","","","",""
"631","","f","psychophysics","153","265395","0.0-7.0-1.0-4.0-0.0-0.23","4","3","4","3","4","3","3","4","4","4","5","4","5","4","4","5","4","5","5","4","2","2","2","1","2","2","1","4","2","1","0","1","1","0","0","0","1","0","1","1","1","1","0","1","4","1","3","2","3","4","4","2","2","2","672546881741520896","陈","162","","","","match","","","","","","","","","","","","","","key","f","16.64734020618513","683","380","f","true","match","img/hexagon.png","六边","六边","ALT1","formal_ALT1_2","","","","","","","","","",""
"null","<span style='color:GreenYellow; font-size: 70px;'>正确! </span>","null","html-keyboard-response","154","265896","0.0-7.0-1.0-4.0-0.0-1.23","4","3","4","3","4","3","3","4","4","4","5","4","5","4","4","5","4","5","5","4","2","2","2","1","2","2","1","4","2","1","0","1","1","0","0","0","1","0","1","1","1","1","0","1","4","1","3","2","3","4","4","2","2","2","672546881741520896","陈","162","","","","","","","","","","","","","","","","","","","","","","","","","","","","","","feedback_test","","","","","","","","","",""
"849","","j","psychophysics","155","267748","0.0-7.0-1.0-4.0-0.0-0.24","4","3","4","3","4","3","3","4","4","4","5","4","5","4","4","5","4","5","5","4","2","2","2","1","2","2","1","4","2","1","0","1","1","0","0","0","1","0","1","1","1","1","0","1","4","1","3","2","3","4","4","2","2","2","672546881741520896","陈","162","","","","nonmatch","","","","","","","","","","","","","","key","j","16.64729090909082","683","380","j","true","nonmatch","img/hexagon.png","三角","六边","ALT1","formal_ALT1_2","","","","","","","","","",""
"null","<span style='color:GreenYellow; font-size: 70px;'>正确! </span>","null","html-keyboard-response","156","268249","0.0-7.0-1.0-4.0-0.0-1.24","4","3","4","3","4","3","3","4","4","4","5","4","5","4","4","5","4","5","5","4","2","2","2","1","2","2","1","4","2","1","0","1","1","0","0","0","1","0","1","1","1","1","0","1","4","1","3","2","3","4","4","2","2","2","672546881741520896","陈","162","","","","","","","","","","","","","","","","","","","","","","","","","","","","","","feedback_test","","","","","","","","","",""
"699","","j","psychophysics","157","269950","0.0-7.0-1.0-4.0-0.0-0.25","4","3","4","3","4","3","3","4","4","4","5","4","5","4","4","5","4","5","5","4","2","2","2","1","2","2","1","4","2","1","0","1","1","0","0","0","1","0","1","1","1","1","0","1","4","1","3","2","3","4","4","2","2","2","672546881741520896","陈","162","","","","nonmatch","","","","","","","","","","","","","","key","j","16.647168316831696","683","380","f","false","match","img/ellipse.png","椭圆","椭圆","ALT1","formal_ALT1_2","","","","","","","","","",""
"null","<span style='color:red; font-size: 70px;'>错误! </span>","null","html-keyboard-response","158","270466","0.0-7.0-1.0-4.0-0.0-1.25","4","3","4","3","4","3","3","4","4","4","5","4","5","4","4","5","4","5","5","4","2","2","2","1","2","2","1","4","2","1","0","1","1","0","0","0","1","0","1","1","1","1","0","1","4","1","3","2","3","4","4","2","2","2","672546881741520896","陈","162","","","","","","","","","","","","","","","","","","","","","","","","","","","","","","feedback_test","","","","","","","","","",""
"748","","j","psychophysics","159","272216","0.0-7.0-1.0-4.0-0.0-0.26","4","3","4","3","4","3","3","4","4","4","5","4","5","4","4","5","4","5","5","4","2","2","2","1","2","2","1","4","2","1","0","1","1","0","0","0","1","0","1","1","1","1","0","1","4","1","3","2","3","4","4","2","2","2","672546881741520896","陈","162","","","","nonmatch","","","","","","","","","","","","","","key","j","16.647278846154222","683","380","j","true","nonmatch","img/ellipse.png","三角","椭圆","ALT1","formal_ALT1_2","","","","","","","","","",""
"null","<span style='color:GreenYellow; font-size: 70px;'>正确! </span>","null","html-keyboard-response","160","272717","0.0-7.0-1.0-4.0-0.0-1.26","4","3","4","3","4","3","3","4","4","4","5","4","5","4","4","5","4","5","5","4","2","2","2","1","2","2","1","4","2","1","0","1","1","0","0","0","1","0","1","1","1","1","0","1","4","1","3","2","3","4","4","2","2","2","672546881741520896","陈","162","","","","","","","","","","","","","","","","","","","","","","","","","","","","","","feedback_test","","","","","","","","","",""
"622","","f","psychophysics","161","274341","0.0-7.0-1.0-4.0-0.0-0.27","4","3","4","3","4","3","3","4","4","4","5","4","5","4","4","5","4","5","5","4","2","2","2","1","2","2","1","4","2","1","0","1","1","0","0","0","1","0","1","1","1","1","0","1","4","1","3","2","3","4","4","2","2","2","672546881741520896","陈","162","","","","match","","","","","","","","","","","","","","key","f","16.64696875000057","683","380","f","true","match","img/triangle.png","三角","三角","ALT1","formal_ALT1_2","","","","","","","","","",""
"null","<span style='color:GreenYellow; font-size: 70px;'>正确! </span>","null","html-keyboard-response","162","274852","0.0-7.0-1.0-4.0-0.0-1.27","4","3","4","3","4","3","3","4","4","4","5","4","5","4","4","5","4","5","5","4","2","2","2","1","2","2","1","4","2","1","0","1","1","0","0","0","1","0","1","1","1","1","0","1","4","1","3","2","3","4","4","2","2","2","672546881741520896","陈","162","","","","","","","","","","","","","","","","","","","","","","","","","","","","","","feedback_test","","","","","","","","","",""
"692","","j","psychophysics","163","276546","0.0-7.0-1.0-4.0-0.0-0.28","4","3","4","3","4","3","3","4","4","4","5","4","5","4","4","5","4","5","5","4","2","2","2","1","2","2","1","4","2","1","0","1","1","0","0","0","1","0","1","1","1","1","0","1","4","1","3","2","3","4","4","2","2","2","672546881741520896","陈","162","","","","nonmatch","","","","","","","","","","","","","","key","j","16.64729702970276","683","380","j","true","nonmatch","img/triangle.png","椭圆","三角","ALT1","formal_ALT1_2","","","","","","","","","",""
"null","<span style='color:GreenYellow; font-size: 70px;'>正确! </span>","null","html-keyboard-response","164","277047","0.0-7.0-1.0-4.0-0.0-1.28","4","3","4","3","4","3","3","4","4","4","5","4","5","4","4","5","4","5","5","4","2","2","2","1","2","2","1","4","2","1","0","1","1","0","0","0","1","0","1","1","1","1","0","1","4","1","3","2","3","4","4","2","2","2","672546881741520896","陈","162","","","","","","","","","","","","","","","","","","","","","","","","","","","","","","feedback_test","","","","","","","","","",""
"618","","j","psychophysics","165","278666","0.0-7.0-1.0-4.0-0.0-0.29","4","3","4","3","4","3","3","4","4","4","5","4","5","4","4","5","4","5","5","4","2","2","2","1","2","2","1","4","2","1","0","1","1","0","0","0","1","0","1","1","1","1","0","1","4","1","3","2","3","4","4","2","2","2","672546881741520896","陈","162","","","","nonmatch","","","","","","","","","","","","","","key","j","16.647437499999796","683","380","j","true","nonmatch","img/hexagon.png","椭圆","六边","ALT1","formal_ALT1_2","","","","","","","","","",""
"null","<span style='color:GreenYellow; font-size: 70px;'>正确! </span>","null","html-keyboard-response","166","279167","0.0-7.0-1.0-4.0-0.0-1.29","4","3","4","3","4","3","3","4","4","4","5","4","5","4","4","5","4","5","5","4","2","2","2","1","2","2","1","4","2","1","0","1","1","0","0","0","1","0","1","1","1","1","0","1","4","1","3","2","3","4","4","2","2","2","672546881741520896","陈","162","","","","","","","","","","","","","","","","","","","","","","","","","","","","","","feedback_test","","","","","","","","","",""
"661","","j","psychophysics","167","280831","0.0-7.0-1.0-4.0-0.0-0.30","4","3","4","3","4","3","3","4","4","4","5","4","5","4","4","5","4","5","5","4","2","2","2","1","2","2","1","4","2","1","0","1","1","0","0","0","1","0","1","1","1","1","0","1","4","1","3","2","3","4","4","2","2","2","672546881741520896","陈","162","","","","nonmatch","","","","","","","","","","","","","","key","j","16.647161616161206","683","380","j","true","nonmatch","img/square.png","三角","方形","ALT1","formal_ALT1_2","","","","","","","","","",""
"null","<span style='color:GreenYellow; font-size: 70px;'>正确! </span>","null","html-keyboard-response","168","281332","0.0-7.0-1.0-4.0-0.0-1.30","4","3","4","3","4","3","3","4","4","4","5","4","5","4","4","5","4","5","5","4","2","2","2","1","2","2","1","4","2","1","0","1","1","0","0","0","1","0","1","1","1","1","0","1","4","1","3","2","3","4","4","2","2","2","672546881741520896","陈","162","","","","","","","","","","","","","","","","","","","","","","","","","","","","","","feedback_test","","","","","","","","","",""
"745","","f","psychophysics","169","283078","0.0-7.0-1.0-4.0-0.0-0.31","4","3","4","3","4","3","3","4","4","4","5","4","5","4","4","5","4","5","5","4","2","2","2","1","2","2","1","4","2","1","0","1","1","0","0","0","1","0","1","1","1","1","0","1","4","1","3","2","3","4","4","2","2","2","672546881741520896","陈","162","","","","match","","","","","","","","","","","","","","key","f","16.647701923076685","683","380","f","true","match","img/square.png","方形","方形","ALT1","formal_ALT1_2","","","","","","","","","",""
"null","<span style='color:GreenYellow; font-size: 70px;'>正确! </span>","null","html-keyboard-response","170","283580","0.0-7.0-1.0-4.0-0.0-1.31","4","3","4","3","4","3","3","4","4","4","5","4","5","4","4","5","4","5","5","4","2","2","2","1","2","2","1","4","2","1","0","1","1","0","0","0","1","0","1","1","1","1","0","1","4","1","3","2","3","4","4","2","2","2","672546881741520896","陈","162","","","","","","","","","","","","","","","","","","","","","","","","","","","","","","feedback_test","","","","","","","","","",""
"592","","j","psychophysics","171","285173","0.0-7.0-1.0-4.0-0.0-0.32","4","3","4","3","4","3","3","4","4","4","5","4","5","4","4","5","4","5","5","4","2","2","2","1","2","2","1","4","2","1","0","1","1","0","0","0","1","0","1","1","1","1","0","1","4","1","3","2","3","4","4","2","2","2","672546881741520896","陈","162","","","","nonmatch","","","","","","","","","","","","","","key","j","16.64675789473664","683","380","j","true","nonmatch","img/ellipse.png","方形","椭圆","ALT1","formal_ALT1_2","","","","","","","","","",""
"null","<span style='color:GreenYellow; font-size: 70px;'>正确! </span>","null","html-keyboard-response","172","285675","0.0-7.0-1.0-4.0-0.0-1.32","4","3","4","3","4","3","3","4","4","4","5","4","5","4","4","5","4","5","5","4","2","2","2","1","2","2","1","4","2","1","0","1","1","0","0","0","1","0","1","1","1","1","0","1","4","1","3","2","3","4","4","2","2","2","672546881741520896","陈","162","","","","","","","","","","","","","","","","","","","","","","","","","","","","","","feedback_test","","","","","","","","","",""
"643","","j","psychophysics","173","287320","0.0-7.0-1.0-4.0-0.0-0.33","4","3","4","3","4","3","3","4","4","4","5","4","5","4","4","5","4","5","5","4","2","2","2","1","2","2","1","4","2","1","0","1","1","0","0","0","1","0","1","1","1","1","0","1","4","1","3","2","3","4","4","2","2","2","672546881741520896","陈","162","","","","nonmatch","","","","","","","","","","","","","","key","j","16.647346938775534","683","380","j","true","nonmatch","img/square.png","椭圆","方形","ALT1","formal_ALT1_2","","","","","","","","","",""
"null","<span style='color:GreenYellow; font-size: 70px;'>正确! </span>","null","html-keyboard-response","174","287822","0.0-7.0-1.0-4.0-0.0-1.33","4","3","4","3","4","3","3","4","4","4","5","4","5","4","4","5","4","5","5","4","2","2","2","1","2","2","1","4","2","1","0","1","1","0","0","0","1","0","1","1","1","1","0","1","4","1","3","2","3","4","4","2","2","2","672546881741520896","陈","162","","","","","","","","","","","","","","","","","","","","","","","","","","","","","","feedback_test","","","","","","","","","",""
"698","","f","psychophysics","175","289522","0.0-7.0-1.0-4.0-0.0-0.34","4","3","4","3","4","3","3","4","4","4","5","4","5","4","4","5","4","5","5","4","2","2","2","1","2","2","1","4","2","1","0","1","1","0","0","0","1","0","1","1","1","1","0","1","4","1","3","2","3","4","4","2","2","2","672546881741520896","陈","162","","","","match","","","","","","","","","","","","","","key","f","16.647960396039778","683","380","f","true","match","img/triangle.png","三角","三角","ALT1","formal_ALT1_2","","","","","","","","","",""
"null","<span style='color:GreenYellow; font-size: 70px;'>正确! </span>","null","html-keyboard-response","176","290025","0.0-7.0-1.0-4.0-0.0-1.34","4","3","4","3","4","3","3","4","4","4","5","4","5","4","4","5","4","5","5","4","2","2","2","1","2","2","1","4","2","1","0","1","1","0","0","0","1","0","1","1","1","1","0","1","4","1","3","2","3","4","4","2","2","2","672546881741520896","陈","162","","","","","","","","","","","","","","","","","","","","","","","","","","","","","","feedback_test","","","","","","","","","",""
"722","","j","psychophysics","177","291748","0.0-7.0-1.0-4.0-0.0-0.35","4","3","4","3","4","3","3","4","4","4","5","4","5","4","4","5","4","5","5","4","2","2","2","1","2","2","1","4","2","1","0","1","1","0","0","0","1","0","1","1","1","1","0","1","4","1","3","2","3","4","4","2","2","2","672546881741520896","陈","162","","","","nonmatch","","","","","","","","","","","","","","key","j","16.647441176470487","683","380","j","true","nonmatch","img/hexagon.png","方形","六边","ALT1","formal_ALT1_2","","","","","","","","","",""
"null","<span style='color:GreenYellow; font-size: 70px;'>正确! </span>","null","html-keyboard-response","178","292249","0.0-7.0-1.0-4.0-0.0-1.35","4","3","4","3","4","3","3","4","4","4","5","4","5","4","4","5","4","5","5","4","2","2","2","1","2","2","1","4","2","1","0","1","1","0","0","0","1","0","1","1","1","1","0","1","4","1","3","2","3","4","4","2","2","2","672546881741520896","陈","162","","","","","","","","","","","","","","","","","","","","","","","","","","","","","","feedback_test","","","","","","","","","",""
"689","","j","psychophysics","179","293939","0.0-7.0-1.0-4.0-0.0-0.36","4","3","4","3","4","3","3","4","4","4","5","4","5","4","4","5","4","5","5","4","2","2","2","1","2","2","1","4","2","1","0","1","1","0","0","0","1","0","1","1","1","1","0","1","4","1","3","2","3","4","4","2","2","2","672546881741520896","陈","162","","","","nonmatch","","","","","","","","","","","","","","key","j","16.647792079207594","683","380","j","true","nonmatch","img/triangle.png","方形","三角","ALT1","formal_ALT1_2","","","","","","","","","",""
"null","<span style='color:GreenYellow; font-size: 70px;'>正确! </span>","null","html-keyboard-response","180","294441","0.0-7.0-1.0-4.0-0.0-1.36","4","3","4","3","4","3","3","4","4","4","5","4","5","4","4","5","4","5","5","4","2","2","2","1","2","2","1","4","2","1","0","1","1","0","0","0","1","0","1","1","1","1","0","1","4","1","3","2","3","4","4","2","2","2","672546881741520896","陈","162","","","","","","","","","","","","","","","","","","","","","","","","","","","","","","feedback_test","","","","","","","","","",""
"1133","","f","psychophysics","181","296576","0.0-7.0-1.0-4.0-0.0-0.37","4","3","4","3","4","3","3","4","4","4","5","4","5","4","4","5","4","5","5","4","2","2","2","1","2","2","1","4","2","1","0","1","1","0","0","0","1","0","1","1","1","1","0","1","4","1","3","2","3","4","4","2","2","2","672546881741520896","陈","162","","","","match","","","","","","","","","","","","","","key","f","16.647393700787266","683","380","f","true","match","img/square.png","方形","方形","ALT1","formal_ALT1_2","","","","","","","","","",""
"null","<span style='color:GreenYellow; font-size: 70px;'>正确! </span>","null","html-keyboard-response","182","297078","0.0-7.0-1.0-4.0-0.0-1.37","4","3","4","3","4","3","3","4","4","4","5","4","5","4","4","5","4","5","5","4","2","2","2","1","2","2","1","4","2","1","0","1","1","0","0","0","1","0","1","1","1","1","0","1","4","1","3","2","3","4","4","2","2","2","672546881741520896","陈","162","","","","","","","","","","","","","","","","","","","","","","","","","","","","","","feedback_test","","","","","","","","","",""
"717","","j","psychophysics","183","298796","0.0-7.0-1.0-4.0-0.0-0.38","4","3","4","3","4","3","3","4","4","4","5","4","5","4","4","5","4","5","5","4","2","2","2","1","2","2","1","4","2","1","0","1","1","0","0","0","1","0","1","1","1","1","0","1","4","1","3","2","3","4","4","2","2","2","672546881741520896","陈","162","","","","nonmatch","","","","","","","","","","","","","","key","j","16.647460784313985","683","380","j","true","nonmatch","img/square.png","六边","方形","ALT1","formal_ALT1_2","","","","","","","","","",""
"null","<span style='color:GreenYellow; font-size: 70px;'>正确! </span>","null","html-keyboard-response","184","299298","0.0-7.0-1.0-4.0-0.0-1.38","4","3","4","3","4","3","3","4","4","4","5","4","5","4","4","5","4","5","5","4","2","2","2","1","2","2","1","4","2","1","0","1","1","0","0","0","1","0","1","1","1","1","0","1","4","1","3","2","3","4","4","2","2","2","672546881741520896","陈","162","","","","","","","","","","","","","","","","","","","","","","","","","","","","","","feedback_test","","","","","","","","","",""
"689","","f","psychophysics","185","300988","0.0-7.0-1.0-4.0-0.0-0.39","4","3","4","3","4","3","3","4","4","4","5","4","5","4","4","5","4","5","5","4","2","2","2","1","2","2","1","4","2","1","0","1","1","0","0","0","1","0","1","1","1","1","0","1","4","1","3","2","3","4","4","2","2","2","672546881741520896","陈","162","","","","match","","","","","","","","","","","","","","key","f","16.647180000000517","683","380","f","true","match","img/hexagon.png","六边","六边","ALT1","formal_ALT1_2","","","","","","","","","",""
