"rt","stimulus","response","trial_type","trial_index","time_elapsed","internal_node_id","swb_1","swb_2","swb_3","swb_4","swb_5","LOT_1","LOT_2","LOT_3","LOT_4","LOT_5","LOT_6","IPC_1","IPC_2","IPC_3","IPC_4","IPC_5","IPC_6","IPC_7","IPC_8","MorIden_1","MorIden_2","MorIden_3","MorIden_4","MorIden_5","MorIden_6","MorIden_7","MorIden_8","MorIden_9","MorIden_10","moralSeImag_1","moralSeImag_2","moralSeImag_3","moralSeImag_4","moralSeImag_5","moralSeImag_6","moralSeImag_7","moralSeImag_8","moralSeImag_9","sde_1","sde_2","sde_3","sde_4","sde_5","sde_6","sde_7","sde_8","sde_9","sde_10","sde_11","sde_12","sde_13","sde_14","sde_15","sde_16","sde_17","sde_18","sde_19","sde_20","IM_1","IM_2","IM_3","IM_4","IM_5","IM_6","IM_7","IM_8","IM_9","IM_10","IM_11","IM_12","IM_13","IM_14","IM_15","IM_16","IM_17","IM_18","IM_19","IM_20","subj_idx","friend_name","ParticipantID","Sex","Word","Word2","value","success","timeout","failed_images","failed_audio","failed_video","user_agent","responses","item_order","radio_event_ids","radio_event_times","key_event_times","mouse_event_times","straightlining","zigzagging","honeypot","view_history","response_type","key_press","avg_frame_time","center_x","center_y","correct_response","correct","identity","Image","word","condition","task_id","screen_id","time_stamp","person","valence","domain","math","status","duration","question_order"
"5312","
   <p><div style='color:white; font-size: 25px'>您好，欢迎参加本次实验。</div></p>
   <p><div style='color:white; font-size: 25px'>为充分保障您的权利，请确保您已经知晓并同意《参与实验同意书》以及《数据公开知情同意书》。</div></p>
   <p><div style='color:white; font-size: 25px'>如果您未见过上述内容，请咨询实验员。</div></p>
   <p style='color:white; font-size: 25px'>如果您选择继续实验，则表示您已经清楚两份知情同意书的内容并同意。</p>
   <p> <div style = ""color: green""><按空格键至下页></div> </p>
   "," ","html-keyboard-response","0","5320","0.0-0.0","5","5","6","3","3","5","1","4","4","5","5","2","0","0","1","0","1","2","1","4","5","4","5","4","5","4","4","5","4","8","7","8","7","5","6","6","7","8","5","2","2","4","5","2","5","2","5","5","5","2","7","1","7","6","5","2","5","5","1","5","2","5","3","7","5","6","6","7","5","6","5","5","2","7","3","6","3","5","598944297026322432","刘","592","Male","[""好他"",""坏他"",""好我"",""坏我""]","[""强他"",""弱他"",""强我"",""弱我""]","","","","","","","","","","","","","","","","","","","","","","","","","","","","","","","","","","","","","",""
"","","","call-function","1","5322","0.0-1.0-0.0","5","5","6","3","3","5","1","4","4","5","5","2","0","0","1","0","1","2","1","4","5","4","5","4","5","4","4","5","4","8","7","8","7","5","6","6","7","8","5","2","2","4","5","2","5","2","5","5","5","2","7","1","7","6","5","2","5","5","1","5","2","5","3","7","5","6","6","7","5","6","5","5","2","7","3","6","3","5","598944297026322432","刘","592","Male","[""好他"",""坏他"",""好我"",""坏我""]","[""强他"",""弱他"",""强我"",""弱我""]","","","","","","","","","","","","","","","","","","","","","","","","","","","","","","","","","","","","","",""
"93115","","[{""name"":""Sex"",""value"":""0""},{""name"":""friend_name"",""value"":""刘""},{""name"":""ParticipantID"",""value"":""592""}]","survey-html-form","2","98442","0.0-1.0-1.0","5","5","6","3","3","5","1","4","4","5","5","2","0","0","1","0","1","2","1","4","5","4","5","4","5","4","4","5","4","8","7","8","7","5","6","6","7","8","5","2","2","4","5","2","5","2","5","5","5","2","7","1","7","6","5","2","5","5","1","5","2","5","3","7","5","6","6","7","5","6","5","5","2","7","3","6","3","5","598944297026322432","刘","592","Male","[""好他"",""坏他"",""好我"",""坏我""]","[""强他"",""弱他"",""强我"",""弱我""]","","","","","","","","","","","","","","","","","","","","","","","","","","","","","","","","","","","","","",""
"","","","preload","3","99310","0.0-2.0","5","5","6","3","3","5","1","4","4","5","5","2","0","0","1","0","1","2","1","4","5","4","5","4","5","4","4","5","4","8","7","8","7","5","6","6","7","8","5","2","2","4","5","2","5","2","5","5","5","2","7","1","7","6","5","2","5","5","1","5","2","5","3","7","5","6","6","7","5","6","5","5","2","7","3","6","3","5","598944297026322432","刘","592","Male","[""好他"",""坏他"",""好我"",""坏我""]","[""强他"",""弱他"",""强我"",""弱我""]","","true","false","[]","[]","[]","","","","","","","","","","","","","","","","","","","","","","","","","","","","","","","",""
"","","","fullscreen","4","101906","0.0-3.0","5","5","6","3","3","5","1","4","4","5","5","2","0","0","1","0","1","2","1","4","5","4","5","4","5","4","4","5","4","8","7","8","7","5","6","6","7","8","5","2","2","4","5","2","5","2","5","5","5","2","7","1","7","6","5","2","5","5","1","5","2","5","3","7","5","6","6","7","5","6","5","5","2","7","3","6","3","5","598944297026322432","刘","592","Male","[""好他"",""坏他"",""好我"",""坏我""]","[""强他"",""弱他"",""强我"",""弱我""]","","true","","","","","{}","","","","","","","","","","","","","","","","","","","","","","","","","","","","","","",""
"10187.699999809265","","{""Q01"":""5"",""Q02"":""5"",""Q03"":""6"",""Q04"":""3"",""Q05"":""3""}","survey-template","5","112101","0.0-4.0","5","5","6","3","3","5","1","4","4","5","5","2","0","0","1","0","1","2","1","4","5","4","5","4","5","4","4","5","4","8","7","8","7","5","6","6","7","8","5","2","2","4","5","2","5","2","5","5","5","2","7","1","7","6","5","2","5","5","1","5","2","5","3","7","5","6","6","7","5","6","5","5","2","7","3","6","3","5","598944297026322432","刘","592","Male","[""好他"",""坏他"",""好我"",""坏我""]","[""强他"",""弱他"",""强我"",""弱我""]","","","","","","","","{""Q01"":""5"",""Q02"":""5"",""Q03"":""6"",""Q04"":""3"",""Q05"":""3""}","[0,1,2,3,4]","[""Q01"",""Q02"",""Q03"",""Q04"",""Q05"",""Q05""]","[1849.5,3641.6000003814697,5105.39999961853,7042.60000038147,8785.300000190735,9227.10000038147]","[]","[1849.5,3225,3641.6000003814697,5105.39999961853,7042.60000038147,8473.89999961853,8785.300000190735,9227.10000038147,10185.300000190735]","0.4","0.25","0","","","","","","","","","","","","","","","","","","","","","",""
"19703","","{""Q01"":""5"",""Q02"":""1"",""Q03"":""4"",""Q04"":""4"",""Q05"":""5"",""Q06"":""5""}","survey-template","6","131810","0.0-5.0","5","5","6","3","3","5","1","4","4","5","5","2","0","0","1","0","1","2","1","4","5","4","5","4","5","4","4","5","4","8","7","8","7","5","6","6","7","8","5","2","2","4","5","2","5","2","5","5","5","2","7","1","7","6","5","2","5","5","1","5","2","5","3","7","5","6","6","7","5","6","5","5","2","7","3","6","3","5","598944297026322432","刘","592","Male","[""好他"",""坏他"",""好我"",""坏我""]","[""强他"",""弱他"",""强我"",""弱我""]","","","","","","","","{""Q01"":""5"",""Q02"":""1"",""Q03"":""4"",""Q04"":""4"",""Q05"":""5"",""Q06"":""5""}","[0,1,2,3,4,5]","[""Q02"",""Q01"",""Q03"",""Q04"",""Q05"",""Q05"",""Q06""]","[6150.400000572205,7086.300000190735,9019.60000038147,12181.900000572205,14029.900000572205,15414,19086.300000190735]","[]","[2014,2509.800000190735,5759.60000038147,6150.400000572205,7086.300000190735,9019.60000038147,12181.900000572205,13462.400000572205,14029.900000572205,15414,17822.900000572205,18414.10000038147,18832.300000190735,19086.300000190735,19702.10000038147]","0.5","0.6","0","","","","","","","","","","","","","","","","","","","","","",""
"16436.300000190735","","{""Q01"":""2"",""Q02"":""0"",""Q03"":""0"",""Q04"":""1"",""Q05"":""0"",""Q06"":""1"",""Q07"":""2"",""Q08"":""1""}","survey-template","7","148251","0.0-6.0","5","5","6","3","3","5","1","4","4","5","5","2","0","0","1","0","1","2","1","4","5","4","5","4","5","4","4","5","4","8","7","8","7","5","6","6","7","8","5","2","2","4","5","2","5","2","5","5","5","2","7","1","7","6","5","2","5","5","1","5","2","5","3","7","5","6","6","7","5","6","5","5","2","7","3","6","3","5","598944297026322432","刘","592","Male","[""好他"",""坏他"",""好我"",""坏我""]","[""强他"",""弱他"",""强我"",""弱我""]","","","","","","","","{""Q01"":""2"",""Q02"":""0"",""Q03"":""0"",""Q04"":""1"",""Q05"":""0"",""Q06"":""1"",""Q07"":""2"",""Q08"":""1""}","[0,1,2,3,4,5,6,7]","[""Q01"",""Q01"",""Q02"",""Q03"",""Q04"",""Q05"",""Q06"",""Q07"",""Q08""]","[2003.1999998092651,2419,4419.099999427795,6658.89999961853,8459,9947.5,11330.699999809265,13611.099999427795,15563.099999427795]","[]","[2003.1999998092651,2419,3826.699999809265,4419.099999427795,6139.800000190735,6658.89999961853,8084,8459,9634.89999961853,9947.5,11123.800000190735,11330.699999809265,13611.099999427795,15186.699999809265,15563.099999427795,16434.89999961853]","0.375","0.7142857142857143","0","","","","","","","","","","","","","","","","","","","","","",""
"11787","","","instructions","8","160041","0.0-7.0","5","5","6","3","3","5","1","4","4","5","5","2","0","0","1","0","1","2","1","4","5","4","5","4","5","4","4","5","4","8","7","8","7","5","6","6","7","8","5","2","2","4","5","2","5","2","5","5","5","2","7","1","7","6","5","2","5","5","1","5","2","5","3","7","5","6","6","7","5","6","5","5","2","7","3","6","3","5","598944297026322432","刘","592","Male","[""好他"",""坏他"",""好我"",""坏我""]","[""强他"",""弱他"",""强我"",""弱我""]","","","","","","","","","","","","","","","","","[{""page_index"":0,""viewing_time"":11786}]","","","","","","","","","","","","","","","","","","","","",""
"19454","","","instructions","9","179497","0.0-8.0-1.0-0.0","5","5","6","3","3","5","1","4","4","5","5","2","0","0","1","0","1","2","1","4","5","4","5","4","5","4","4","5","4","8","7","8","7","5","6","6","7","8","5","2","2","4","5","2","5","2","5","5","5","2","7","1","7","6","5","2","5","5","1","5","2","5","3","7","5","6","6","7","5","6","5","5","2","7","3","6","3","5","598944297026322432","刘","592","Male","[""好他"",""坏他"",""好我"",""坏我""]","[""强他"",""弱他"",""强我"",""弱我""]","","","","","","","","","","","","","","","","","[{""page_index"":0,""viewing_time"":5878},{""page_index"":1,""viewing_time"":11696},{""page_index"":2,""viewing_time"":864},{""page_index"":3,""viewing_time"":1017}]","","","","","","","","","","","","","","","","","","","","",""
"783","","f","psychophysics","10","181301","0.0-8.0-1.0-1.0-0.0-0.0","5","5","6","3","3","5","1","4","4","5","5","2","0","0","1","0","1","2","1","4","5","4","5","4","5","4","4","5","4","8","7","8","7","5","6","6","7","8","5","2","2","4","5","2","5","2","5","5","5","2","7","1","7","6","5","2","5","5","1","5","2","5","3","7","5","6","6","7","5","6","5","5","2","7","3","6","3","5","598944297026322432","刘","592","Male","[""好他"",""坏他"",""好我"",""坏我""]","[""强他"",""弱他"",""强我"",""弱我""]","","","","","","","","match","","","","","","","","","","key","f","18.980340425531935","802.9411539486954","447.0588109897498","f","true","match","img/square.png","强我","强我","prac_ALT2_ability","practice_ability","","","","","","","",""
"null","<span style='color:GreenYellow; font-size: 70px;'>正确! </span>","null","html-keyboard-response","11","181802","0.0-8.0-1.0-1.0-0.0-1.0","5","5","6","3","3","5","1","4","4","5","5","2","0","0","1","0","1","2","1","4","5","4","5","4","5","4","4","5","4","8","7","8","7","5","6","6","7","8","5","2","2","4","5","2","5","2","5","5","5","2","7","1","7","6","5","2","5","5","1","5","2","5","3","7","5","6","6","7","5","6","5","5","2","7","3","6","3","5","598944297026322432","刘","592","Male","[""好他"",""坏他"",""好我"",""坏我""]","[""强他"",""弱他"",""强我"",""弱我""]","","","","","","","","","","","","","","","","","","","","","","","","","","","","","","feedback_test","","","","","","","",""
"848","","j","psychophysics","12","183652","0.0-8.0-1.0-1.0-0.0-0.1","5","5","6","3","3","5","1","4","4","5","5","2","0","0","1","0","1","2","1","4","5","4","5","4","5","4","4","5","4","8","7","8","7","5","6","6","7","8","5","2","2","4","5","2","5","2","5","5","5","2","7","1","7","6","5","2","5","5","1","5","2","5","3","7","5","6","6","7","5","6","5","5","2","7","3","6","3","5","598944297026322432","刘","592","Male","[""好他"",""坏他"",""好我"",""坏我""]","[""强他"",""弱他"",""强我"",""弱我""]","","","","","","","","nonmatch","","","","","","","","","","key","j","16.676854545454525","802.9411539486954","447.0588109897498","j","true","nonmatch","img/triangle.png","强我","弱他","prac_ALT2_ability","practice_ability","","","","","","","",""
"null","<span style='color:GreenYellow; font-size: 70px;'>正确! </span>","null","html-keyboard-response","13","184153","0.0-8.0-1.0-1.0-0.0-1.1","5","5","6","3","3","5","1","4","4","5","5","2","0","0","1","0","1","2","1","4","5","4","5","4","5","4","4","5","4","8","7","8","7","5","6","6","7","8","5","2","2","4","5","2","5","2","5","5","5","2","7","1","7","6","5","2","5","5","1","5","2","5","3","7","5","6","6","7","5","6","5","5","2","7","3","6","3","5","598944297026322432","刘","592","Male","[""好他"",""坏他"",""好我"",""坏我""]","[""强他"",""弱他"",""强我"",""弱我""]","","","","","","","","","","","","","","","","","","","","","","","","","","","","","","feedback_test","","","","","","","",""
"988","","f","psychophysics","14","186148","0.0-8.0-1.0-1.0-0.0-0.2","5","5","6","3","3","5","1","4","4","5","5","2","0","0","1","0","1","2","1","4","5","4","5","4","5","4","4","5","4","8","7","8","7","5","6","6","7","8","5","2","2","4","5","2","5","2","5","5","5","2","7","1","7","6","5","2","5","5","1","5","2","5","3","7","5","6","6","7","5","6","5","5","2","7","3","6","3","5","598944297026322432","刘","592","Male","[""好他"",""坏他"",""好我"",""坏我""]","[""强他"",""弱他"",""强我"",""弱我""]","","","","","","","","match","","","","","","","","","","key","f","16.674756302521025","802.9411539486954","447.0588109897498","j","false","nonmatch","img/ellipse.png","弱他","弱我","prac_ALT2_ability","practice_ability","","","","","","","",""
"null","<span style='color:red; font-size: 70px;'>错误! </span>","null","html-keyboard-response","15","186654","0.0-8.0-1.0-1.0-0.0-1.2","5","5","6","3","3","5","1","4","4","5","5","2","0","0","1","0","1","2","1","4","5","4","5","4","5","4","4","5","4","8","7","8","7","5","6","6","7","8","5","2","2","4","5","2","5","2","5","5","5","2","7","1","7","6","5","2","5","5","1","5","2","5","3","7","5","6","6","7","5","6","5","5","2","7","3","6","3","5","598944297026322432","刘","592","Male","[""好他"",""坏他"",""好我"",""坏我""]","[""强他"",""弱他"",""强我"",""弱我""]","","","","","","","","","","","","","","","","","","","","","","","","","","","","","","feedback_test","","","","","","","",""
"734","","f","psychophysics","16","188390","0.0-8.0-1.0-1.0-0.0-0.3","5","5","6","3","3","5","1","4","4","5","5","2","0","0","1","0","1","2","1","4","5","4","5","4","5","4","4","5","4","8","7","8","7","5","6","6","7","8","5","2","2","4","5","2","5","2","5","5","5","2","7","1","7","6","5","2","5","5","1","5","2","5","3","7","5","6","6","7","5","6","5","5","2","7","3","6","3","5","598944297026322432","刘","592","Male","[""好他"",""坏他"",""好我"",""坏我""]","[""强他"",""弱他"",""强我"",""弱我""]","","","","","","","","match","","","","","","","","","","key","f","16.674718446601794","802.9411539486954","447.0588109897498","f","true","match","img/ellipse.png","弱我","弱我","prac_ALT2_ability","practice_ability","","","","","","","",""
"null","<span style='color:GreenYellow; font-size: 70px;'>正确! </span>","null","html-keyboard-response","17","188890","0.0-8.0-1.0-1.0-0.0-1.3","5","5","6","3","3","5","1","4","4","5","5","2","0","0","1","0","1","2","1","4","5","4","5","4","5","4","4","5","4","8","7","8","7","5","6","6","7","8","5","2","2","4","5","2","5","2","5","5","5","2","7","1","7","6","5","2","5","5","1","5","2","5","3","7","5","6","6","7","5","6","5","5","2","7","3","6","3","5","598944297026322432","刘","592","Male","[""好他"",""坏他"",""好我"",""坏我""]","[""强他"",""弱他"",""强我"",""弱我""]","","","","","","","","","","","","","","","","","","","","","","","","","","","","","","feedback_test","","","","","","","",""
"754","","j","psychophysics","18","190645","0.0-8.0-1.0-1.0-0.0-0.4","5","5","6","3","3","5","1","4","4","5","5","2","0","0","1","0","1","2","1","4","5","4","5","4","5","4","4","5","4","8","7","8","7","5","6","6","7","8","5","2","2","4","5","2","5","2","5","5","5","2","7","1","7","6","5","2","5","5","1","5","2","5","3","7","5","6","6","7","5","6","5","5","2","7","3","6","3","5","598944297026322432","刘","592","Male","[""好他"",""坏他"",""好我"",""坏我""]","[""强他"",""弱他"",""强我"",""弱我""]","","","","","","","","nonmatch","","","","","","","","","","key","j","16.674571428571305","802.9411539486954","447.0588109897498","j","true","nonmatch","img/hexagon.png","弱他","强他","prac_ALT2_ability","practice_ability","","","","","","","",""
"null","<span style='color:GreenYellow; font-size: 70px;'>正确! </span>","null","html-keyboard-response","19","191148","0.0-8.0-1.0-1.0-0.0-1.4","5","5","6","3","3","5","1","4","4","5","5","2","0","0","1","0","1","2","1","4","5","4","5","4","5","4","4","5","4","8","7","8","7","5","6","6","7","8","5","2","2","4","5","2","5","2","5","5","5","2","7","1","7","6","5","2","5","5","1","5","2","5","3","7","5","6","6","7","5","6","5","5","2","7","3","6","3","5","598944297026322432","刘","592","Male","[""好他"",""坏他"",""好我"",""坏我""]","[""强他"",""弱他"",""强我"",""弱我""]","","","","","","","","","","","","","","","","","","","","","","","","","","","","","","feedback_test","","","","","","","",""
"823","","j","psychophysics","20","192973","0.0-8.0-1.0-1.0-0.0-0.5","5","5","6","3","3","5","1","4","4","5","5","2","0","0","1","0","1","2","1","4","5","4","5","4","5","4","4","5","4","8","7","8","7","5","6","6","7","8","5","2","2","4","5","2","5","2","5","5","5","2","7","1","7","6","5","2","5","5","1","5","2","5","3","7","5","6","6","7","5","6","5","5","2","7","3","6","3","5","598944297026322432","刘","592","Male","[""好他"",""坏他"",""好我"",""坏我""]","[""强他"",""弱他"",""强我"",""弱我""]","","","","","","","","nonmatch","","","","","","","","","","key","j","16.676675925925707","802.9411539486954","447.0588109897498","f","false","match","img/triangle.png","弱他","弱他","prac_ALT2_ability","practice_ability","","","","","","","",""
"null","<span style='color:red; font-size: 70px;'>错误! </span>","null","html-keyboard-response","21","193474","0.0-8.0-1.0-1.0-0.0-1.5","5","5","6","3","3","5","1","4","4","5","5","2","0","0","1","0","1","2","1","4","5","4","5","4","5","4","4","5","4","8","7","8","7","5","6","6","7","8","5","2","2","4","5","2","5","2","5","5","5","2","7","1","7","6","5","2","5","5","1","5","2","5","3","7","5","6","6","7","5","6","5","5","2","7","3","6","3","5","598944297026322432","刘","592","Male","[""好他"",""坏他"",""好我"",""坏我""]","[""强他"",""弱他"",""强我"",""弱我""]","","","","","","","","","","","","","","","","","","","","","","","","","","","","","","feedback_test","","","","","","","",""
"863","","f","psychophysics","22","195339","0.0-8.0-1.0-1.0-0.0-0.6","5","5","6","3","3","5","1","4","4","5","5","2","0","0","1","0","1","2","1","4","5","4","5","4","5","4","4","5","4","8","7","8","7","5","6","6","7","8","5","2","2","4","5","2","5","2","5","5","5","2","7","1","7","6","5","2","5","5","1","5","2","5","3","7","5","6","6","7","5","6","5","5","2","7","3","6","3","5","598944297026322432","刘","592","Male","[""好他"",""坏他"",""好我"",""坏我""]","[""强他"",""弱他"",""强我"",""弱我""]","","","","","","","","match","","","","","","","","","","key","f","16.67603603603611","802.9411539486954","447.0588109897498","j","false","nonmatch","img/triangle.png","强他","弱他","prac_ALT2_ability","practice_ability","","","","","","","",""
"null","<span style='color:red; font-size: 70px;'>错误! </span>","null","html-keyboard-response","23","195841","0.0-8.0-1.0-1.0-0.0-1.6","5","5","6","3","3","5","1","4","4","5","5","2","0","0","1","0","1","2","1","4","5","4","5","4","5","4","4","5","4","8","7","8","7","5","6","6","7","8","5","2","2","4","5","2","5","2","5","5","5","2","7","1","7","6","5","2","5","5","1","5","2","5","3","7","5","6","6","7","5","6","5","5","2","7","3","6","3","5","598944297026322432","刘","592","Male","[""好他"",""坏他"",""好我"",""坏我""]","[""强他"",""弱他"",""强我"",""弱我""]","","","","","","","","","","","","","","","","","","","","","","","","","","","","","","feedback_test","","","","","","","",""
"949","","j","psychophysics","24","197791","0.0-8.0-1.0-1.0-0.0-0.7","5","5","6","3","3","5","1","4","4","5","5","2","0","0","1","0","1","2","1","4","5","4","5","4","5","4","4","5","4","8","7","8","7","5","6","6","7","8","5","2","2","4","5","2","5","2","5","5","5","2","7","1","7","6","5","2","5","5","1","5","2","5","3","7","5","6","6","7","5","6","5","5","2","7","3","6","3","5","598944297026322432","刘","592","Male","[""好他"",""坏他"",""好我"",""坏我""]","[""强他"",""弱他"",""强我"",""弱我""]","","","","","","","","nonmatch","","","","","","","","","","key","j","16.678224137931025","802.9411539486954","447.0588109897498","j","true","nonmatch","img/hexagon.png","弱我","强他","prac_ALT2_ability","practice_ability","","","","","","","",""
"null","<span style='color:GreenYellow; font-size: 70px;'>正确! </span>","null","html-keyboard-response","25","198293","0.0-8.0-1.0-1.0-0.0-1.7","5","5","6","3","3","5","1","4","4","5","5","2","0","0","1","0","1","2","1","4","5","4","5","4","5","4","4","5","4","8","7","8","7","5","6","6","7","8","5","2","2","4","5","2","5","2","5","5","5","2","7","1","7","6","5","2","5","5","1","5","2","5","3","7","5","6","6","7","5","6","5","5","2","7","3","6","3","5","598944297026322432","刘","592","Male","[""好他"",""坏他"",""好我"",""坏我""]","[""强他"",""弱他"",""强我"",""弱我""]","","","","","","","","","","","","","","","","","","","","","","","","","","","","","","feedback_test","","","","","","","",""
"790","","f","psychophysics","26","200085","0.0-8.0-1.0-1.0-0.0-0.8","5","5","6","3","3","5","1","4","4","5","5","2","0","0","1","0","1","2","1","4","5","4","5","4","5","4","4","5","4","8","7","8","7","5","6","6","7","8","5","2","2","4","5","2","5","2","5","5","5","2","7","1","7","6","5","2","5","5","1","5","2","5","3","7","5","6","6","7","5","6","5","5","2","7","3","6","3","5","598944297026322432","刘","592","Male","[""好他"",""坏他"",""好我"",""坏我""]","[""强他"",""弱他"",""强我"",""弱我""]","","","","","","","","match","","","","","","","","","","key","f","16.674766355140296","802.9411539486954","447.0588109897498","f","true","match","img/ellipse.png","弱我","弱我","prac_ALT2_ability","practice_ability","","","","","","","",""
"null","<span style='color:GreenYellow; font-size: 70px;'>正确! </span>","null","html-keyboard-response","27","200587","0.0-8.0-1.0-1.0-0.0-1.8","5","5","6","3","3","5","1","4","4","5","5","2","0","0","1","0","1","2","1","4","5","4","5","4","5","4","4","5","4","8","7","8","7","5","6","6","7","8","5","2","2","4","5","2","5","2","5","5","5","2","7","1","7","6","5","2","5","5","1","5","2","5","3","7","5","6","6","7","5","6","5","5","2","7","3","6","3","5","598944297026322432","刘","592","Male","[""好他"",""坏他"",""好我"",""坏我""]","[""强他"",""弱他"",""强我"",""弱我""]","","","","","","","","","","","","","","","","","","","","","","","","","","","","","","feedback_test","","","","","","","",""
"718","","f","psychophysics","28","202308","0.0-8.0-1.0-1.0-0.0-0.9","5","5","6","3","3","5","1","4","4","5","5","2","0","0","1","0","1","2","1","4","5","4","5","4","5","4","4","5","4","8","7","8","7","5","6","6","7","8","5","2","2","4","5","2","5","2","5","5","5","2","7","1","7","6","5","2","5","5","1","5","2","5","3","7","5","6","6","7","5","6","5","5","2","7","3","6","3","5","598944297026322432","刘","592","Male","[""好他"",""坏他"",""好我"",""坏我""]","[""强他"",""弱他"",""强我"",""弱我""]","","","","","","","","match","","","","","","","","","","key","f","16.67426470588258","802.9411539486954","447.0588109897498","f","true","match","img/hexagon.png","强他","强他","prac_ALT2_ability","practice_ability","","","","","","","",""
"null","<span style='color:GreenYellow; font-size: 70px;'>正确! </span>","null","html-keyboard-response","29","202810","0.0-8.0-1.0-1.0-0.0-1.9","5","5","6","3","3","5","1","4","4","5","5","2","0","0","1","0","1","2","1","4","5","4","5","4","5","4","4","5","4","8","7","8","7","5","6","6","7","8","5","2","2","4","5","2","5","2","5","5","5","2","7","1","7","6","5","2","5","5","1","5","2","5","3","7","5","6","6","7","5","6","5","5","2","7","3","6","3","5","598944297026322432","刘","592","Male","[""好他"",""坏他"",""好我"",""坏我""]","[""强他"",""弱他"",""强我"",""弱我""]","","","","","","","","","","","","","","","","","","","","","","","","","","","","","","feedback_test","","","","","","","",""
"753","","j","psychophysics","30","204564","0.0-8.0-1.0-1.0-0.0-0.10","5","5","6","3","3","5","1","4","4","5","5","2","0","0","1","0","1","2","1","4","5","4","5","4","5","4","4","5","4","8","7","8","7","5","6","6","7","8","5","2","2","4","5","2","5","2","5","5","5","2","7","1","7","6","5","2","5","5","1","5","2","5","3","7","5","6","6","7","5","6","5","5","2","7","3","6","3","5","598944297026322432","刘","592","Male","[""好他"",""坏他"",""好我"",""坏我""]","[""强他"",""弱他"",""强我"",""弱我""]","","","","","","","","nonmatch","","","","","","","","","","key","j","16.674548076922992","802.9411539486954","447.0588109897498","j","true","nonmatch","img/hexagon.png","强我","强他","prac_ALT2_ability","practice_ability","","","","","","","",""
"null","<span style='color:GreenYellow; font-size: 70px;'>正确! </span>","null","html-keyboard-response","31","205066","0.0-8.0-1.0-1.0-0.0-1.10","5","5","6","3","3","5","1","4","4","5","5","2","0","0","1","0","1","2","1","4","5","4","5","4","5","4","4","5","4","8","7","8","7","5","6","6","7","8","5","2","2","4","5","2","5","2","5","5","5","2","7","1","7","6","5","2","5","5","1","5","2","5","3","7","5","6","6","7","5","6","5","5","2","7","3","6","3","5","598944297026322432","刘","592","Male","[""好他"",""坏他"",""好我"",""坏我""]","[""强他"",""弱他"",""强我"",""弱我""]","","","","","","","","","","","","","","","","","","","","","","","","","","","","","","feedback_test","","","","","","","",""
"931","","f","psychophysics","32","207002","0.0-8.0-1.0-1.0-0.0-0.11","5","5","6","3","3","5","1","4","4","5","5","2","0","0","1","0","1","2","1","4","5","4","5","4","5","4","4","5","4","8","7","8","7","5","6","6","7","8","5","2","2","4","5","2","5","2","5","5","5","2","7","1","7","6","5","2","5","5","1","5","2","5","3","7","5","6","6","7","5","6","5","5","2","7","3","6","3","5","598944297026322432","刘","592","Male","[""好他"",""坏他"",""好我"",""坏我""]","[""强他"",""弱他"",""强我"",""弱我""]","","","","","","","","match","","","","","","","","","","key","f","16.674660869565308","802.9411539486954","447.0588109897498","j","false","nonmatch","img/ellipse.png","强他","弱我","prac_ALT2_ability","practice_ability","","","","","","","",""
"null","<span style='color:red; font-size: 70px;'>错误! </span>","null","html-keyboard-response","33","207516","0.0-8.0-1.0-1.0-0.0-1.11","5","5","6","3","3","5","1","4","4","5","5","2","0","0","1","0","1","2","1","4","5","4","5","4","5","4","4","5","4","8","7","8","7","5","6","6","7","8","5","2","2","4","5","2","5","2","5","5","5","2","7","1","7","6","5","2","5","5","1","5","2","5","3","7","5","6","6","7","5","6","5","5","2","7","3","6","3","5","598944297026322432","刘","592","Male","[""好他"",""坏他"",""好我"",""坏我""]","[""强他"",""弱他"",""强我"",""弱我""]","","","","","","","","","","","","","","","","","","","","","","","","","","","","","","feedback_test","","","","","","","",""
"1039","","f","psychophysics","34","209563","0.0-8.0-1.0-1.0-0.0-0.12","5","5","6","3","3","5","1","4","4","5","5","2","0","0","1","0","1","2","1","4","5","4","5","4","5","4","4","5","4","8","7","8","7","5","6","6","7","8","5","2","2","4","5","2","5","2","5","5","5","2","7","1","7","6","5","2","5","5","1","5","2","5","3","7","5","6","6","7","5","6","5","5","2","7","3","6","3","5","598944297026322432","刘","592","Male","[""好他"",""坏他"",""好我"",""坏我""]","[""强他"",""弱他"",""强我"",""弱我""]","","","","","","","","match","","","","","","","","","","key","f","16.674827868852443","802.9411539486954","447.0588109897498","f","true","match","img/ellipse.png","弱我","弱我","prac_ALT2_ability","practice_ability","","","","","","","",""
"null","<span style='color:GreenYellow; font-size: 70px;'>正确! </span>","null","html-keyboard-response","35","210065","0.0-8.0-1.0-1.0-0.0-1.12","5","5","6","3","3","5","1","4","4","5","5","2","0","0","1","0","1","2","1","4","5","4","5","4","5","4","4","5","4","8","7","8","7","5","6","6","7","8","5","2","2","4","5","2","5","2","5","5","5","2","7","1","7","6","5","2","5","5","1","5","2","5","3","7","5","6","6","7","5","6","5","5","2","7","3","6","3","5","598944297026322432","刘","592","Male","[""好他"",""坏他"",""好我"",""坏我""]","[""强他"",""弱他"",""强我"",""弱我""]","","","","","","","","","","","","","","","","","","","","","","","","","","","","","","feedback_test","","","","","","","",""
"776","","j","psychophysics","36","211843","0.0-8.0-1.0-1.0-0.0-0.13","5","5","6","3","3","5","1","4","4","5","5","2","0","0","1","0","1","2","1","4","5","4","5","4","5","4","4","5","4","8","7","8","7","5","6","6","7","8","5","2","2","4","5","2","5","2","5","5","5","2","7","1","7","6","5","2","5","5","1","5","2","5","3","7","5","6","6","7","5","6","5","5","2","7","3","6","3","5","598944297026322432","刘","592","Male","[""好他"",""坏他"",""好我"",""坏我""]","[""强他"",""弱他"",""强我"",""弱我""]","","","","","","","","nonmatch","","","","","","","","","","key","j","16.674132075471547","802.9411539486954","447.0588109897498","j","true","nonmatch","img/triangle.png","弱我","弱他","prac_ALT2_ability","practice_ability","","","","","","","",""
"null","<span style='color:GreenYellow; font-size: 70px;'>正确! </span>","null","html-keyboard-response","37","212344","0.0-8.0-1.0-1.0-0.0-1.13","5","5","6","3","3","5","1","4","4","5","5","2","0","0","1","0","1","2","1","4","5","4","5","4","5","4","4","5","4","8","7","8","7","5","6","6","7","8","5","2","2","4","5","2","5","2","5","5","5","2","7","1","7","6","5","2","5","5","1","5","2","5","3","7","5","6","6","7","5","6","5","5","2","7","3","6","3","5","598944297026322432","刘","592","Male","[""好他"",""坏他"",""好我"",""坏我""]","[""强他"",""弱他"",""强我"",""弱我""]","","","","","","","","","","","","","","","","","","","","","","","","","","","","","","feedback_test","","","","","","","",""
"1068","","f","psychophysics","38","214413","0.0-8.0-1.0-1.0-0.0-0.14","5","5","6","3","3","5","1","4","4","5","5","2","0","0","1","0","1","2","1","4","5","4","5","4","5","4","4","5","4","8","7","8","7","5","6","6","7","8","5","2","2","4","5","2","5","2","5","5","5","2","7","1","7","6","5","2","5","5","1","5","2","5","3","7","5","6","6","7","5","6","5","5","2","7","3","6","3","5","598944297026322432","刘","592","Male","[""好他"",""坏他"",""好我"",""坏我""]","[""强他"",""弱他"",""强我"",""弱我""]","","","","","","","","match","","","","","","","","","","key","f","16.673780487804876","802.9411539486954","447.0588109897498","f","true","match","img/triangle.png","弱他","弱他","prac_ALT2_ability","practice_ability","","","","","","","",""
"null","<span style='color:GreenYellow; font-size: 70px;'>正确! </span>","null","html-keyboard-response","39","214915","0.0-8.0-1.0-1.0-0.0-1.14","5","5","6","3","3","5","1","4","4","5","5","2","0","0","1","0","1","2","1","4","5","4","5","4","5","4","4","5","4","8","7","8","7","5","6","6","7","8","5","2","2","4","5","2","5","2","5","5","5","2","7","1","7","6","5","2","5","5","1","5","2","5","3","7","5","6","6","7","5","6","5","5","2","7","3","6","3","5","598944297026322432","刘","592","Male","[""好他"",""坏他"",""好我"",""坏我""]","[""强他"",""弱他"",""强我"",""弱我""]","","","","","","","","","","","","","","","","","","","","","","","","","","","","","","feedback_test","","","","","","","",""
"1069","","j","psychophysics","40","216985","0.0-8.0-1.0-1.0-0.0-0.15","5","5","6","3","3","5","1","4","4","5","5","2","0","0","1","0","1","2","1","4","5","4","5","4","5","4","4","5","4","8","7","8","7","5","6","6","7","8","5","2","2","4","5","2","5","2","5","5","5","2","7","1","7","6","5","2","5","5","1","5","2","5","3","7","5","6","6","7","5","6","5","5","2","7","3","6","3","5","598944297026322432","刘","592","Male","[""好他"",""坏他"",""好我"",""坏我""]","[""强他"",""弱他"",""强我"",""弱我""]","","","","","","","","nonmatch","","","","","","","","","","key","j","16.67636585365853","802.9411539486954","447.0588109897498","j","true","nonmatch","img/square.png","弱他","强我","prac_ALT2_ability","practice_ability","","","","","","","",""
"null","<span style='color:GreenYellow; font-size: 70px;'>正确! </span>","null","html-keyboard-response","41","217487","0.0-8.0-1.0-1.0-0.0-1.15","5","5","6","3","3","5","1","4","4","5","5","2","0","0","1","0","1","2","1","4","5","4","5","4","5","4","4","5","4","8","7","8","7","5","6","6","7","8","5","2","2","4","5","2","5","2","5","5","5","2","7","1","7","6","5","2","5","5","1","5","2","5","3","7","5","6","6","7","5","6","5","5","2","7","3","6","3","5","598944297026322432","刘","592","Male","[""好他"",""坏他"",""好我"",""坏我""]","[""强他"",""弱他"",""强我"",""弱我""]","","","","","","","","","","","","","","","","","","","","","","","","","","","","","","feedback_test","","","","","","","",""
"737","","f","psychophysics","42","219226","0.0-8.0-1.0-1.0-0.0-0.16","5","5","6","3","3","5","1","4","4","5","5","2","0","0","1","0","1","2","1","4","5","4","5","4","5","4","4","5","4","8","7","8","7","5","6","6","7","8","5","2","2","4","5","2","5","2","5","5","5","2","7","1","7","6","5","2","5","5","1","5","2","5","3","7","5","6","6","7","5","6","5","5","2","7","3","6","3","5","598944297026322432","刘","592","Male","[""好他"",""坏他"",""好我"",""坏我""]","[""强他"",""弱他"",""强我"",""弱我""]","","","","","","","","match","","","","","","","","","","key","f","16.675009708737985","802.9411539486954","447.0588109897498","f","true","match","img/square.png","强我","强我","prac_ALT2_ability","practice_ability","","","","","","","",""
"null","<span style='color:GreenYellow; font-size: 70px;'>正确! </span>","null","html-keyboard-response","43","219728","0.0-8.0-1.0-1.0-0.0-1.16","5","5","6","3","3","5","1","4","4","5","5","2","0","0","1","0","1","2","1","4","5","4","5","4","5","4","4","5","4","8","7","8","7","5","6","6","7","8","5","2","2","4","5","2","5","2","5","5","5","2","7","1","7","6","5","2","5","5","1","5","2","5","3","7","5","6","6","7","5","6","5","5","2","7","3","6","3","5","598944297026322432","刘","592","Male","[""好他"",""坏他"",""好我"",""坏我""]","[""强他"",""弱他"",""强我"",""弱我""]","","","","","","","","","","","","","","","","","","","","","","","","","","","","","","feedback_test","","","","","","","",""
"850","","j","psychophysics","44","221580","0.0-8.0-1.0-1.0-0.0-0.17","5","5","6","3","3","5","1","4","4","5","5","2","0","0","1","0","1","2","1","4","5","4","5","4","5","4","4","5","4","8","7","8","7","5","6","6","7","8","5","2","2","4","5","2","5","2","5","5","5","2","7","1","7","6","5","2","5","5","1","5","2","5","3","7","5","6","6","7","5","6","5","5","2","7","3","6","3","5","598944297026322432","刘","592","Male","[""好他"",""坏他"",""好我"",""坏我""]","[""强他"",""弱他"",""强我"",""弱我""]","","","","","","","","nonmatch","","","","","","","","","","key","j","16.67433636363633","802.9411539486954","447.0588109897498","f","false","match","img/triangle.png","弱他","弱他","prac_ALT2_ability","practice_ability","","","","","","","",""
"null","<span style='color:red; font-size: 70px;'>错误! </span>","null","html-keyboard-response","45","222082","0.0-8.0-1.0-1.0-0.0-1.17","5","5","6","3","3","5","1","4","4","5","5","2","0","0","1","0","1","2","1","4","5","4","5","4","5","4","4","5","4","8","7","8","7","5","6","6","7","8","5","2","2","4","5","2","5","2","5","5","5","2","7","1","7","6","5","2","5","5","1","5","2","5","3","7","5","6","6","7","5","6","5","5","2","7","3","6","3","5","598944297026322432","刘","592","Male","[""好他"",""坏他"",""好我"",""坏我""]","[""强他"",""弱他"",""强我"",""弱我""]","","","","","","","","","","","","","","","","","","","","","","","","","","","","","","feedback_test","","","","","","","",""
"946","","j","psychophysics","46","224029","0.0-8.0-1.0-1.0-0.0-0.18","5","5","6","3","3","5","1","4","4","5","5","2","0","0","1","0","1","2","1","4","5","4","5","4","5","4","4","5","4","8","7","8","7","5","6","6","7","8","5","2","2","4","5","2","5","2","5","5","5","2","7","1","7","6","5","2","5","5","1","5","2","5","3","7","5","6","6","7","5","6","5","5","2","7","3","6","3","5","598944297026322432","刘","592","Male","[""好他"",""坏他"",""好我"",""坏我""]","[""强他"",""弱他"",""强我"",""弱我""]","","","","","","","","nonmatch","","","","","","","","","","key","j","16.676775862069164","802.9411539486954","447.0588109897498","j","true","nonmatch","img/square.png","强他","强我","prac_ALT2_ability","practice_ability","","","","","","","",""
"null","<span style='color:GreenYellow; font-size: 70px;'>正确! </span>","null","html-keyboard-response","47","224533","0.0-8.0-1.0-1.0-0.0-1.18","5","5","6","3","3","5","1","4","4","5","5","2","0","0","1","0","1","2","1","4","5","4","5","4","5","4","4","5","4","8","7","8","7","5","6","6","7","8","5","2","2","4","5","2","5","2","5","5","5","2","7","1","7","6","5","2","5","5","1","5","2","5","3","7","5","6","6","7","5","6","5","5","2","7","3","6","3","5","598944297026322432","刘","592","Male","[""好他"",""坏他"",""好我"",""坏我""]","[""强他"",""弱他"",""强我"",""弱我""]","","","","","","","","","","","","","","","","","","","","","","","","","","","","","","feedback_test","","","","","","","",""
"914","","f","psychophysics","48","226449","0.0-8.0-1.0-1.0-0.0-0.19","5","5","6","3","3","5","1","4","4","5","5","2","0","0","1","0","1","2","1","4","5","4","5","4","5","4","4","5","4","8","7","8","7","5","6","6","7","8","5","2","2","4","5","2","5","2","5","5","5","2","7","1","7","6","5","2","5","5","1","5","2","5","3","7","5","6","6","7","5","6","5","5","2","7","3","6","3","5","598944297026322432","刘","592","Male","[""好他"",""坏他"",""好我"",""坏我""]","[""强他"",""弱他"",""强我"",""弱我""]","","","","","","","","match","","","","","","","","","","key","f","16.673675438596483","802.9411539486954","447.0588109897498","f","true","match","img/hexagon.png","强他","强他","prac_ALT2_ability","practice_ability","","","","","","","",""
"null","<span style='color:GreenYellow; font-size: 70px;'>正确! </span>","null","html-keyboard-response","49","226950","0.0-8.0-1.0-1.0-0.0-1.19","5","5","6","3","3","5","1","4","4","5","5","2","0","0","1","0","1","2","1","4","5","4","5","4","5","4","4","5","4","8","7","8","7","5","6","6","7","8","5","2","2","4","5","2","5","2","5","5","5","2","7","1","7","6","5","2","5","5","1","5","2","5","3","7","5","6","6","7","5","6","5","5","2","7","3","6","3","5","598944297026322432","刘","592","Male","[""好他"",""坏他"",""好我"",""坏我""]","[""强他"",""弱他"",""强我"",""弱我""]","","","","","","","","","","","","","","","","","","","","","","","","","","","","","","feedback_test","","","","","","","",""
"958","","f","psychophysics","50","228910","0.0-8.0-1.0-1.0-0.0-0.20","5","5","6","3","3","5","1","4","4","5","5","2","0","0","1","0","1","2","1","4","5","4","5","4","5","4","4","5","4","8","7","8","7","5","6","6","7","8","5","2","2","4","5","2","5","2","5","5","5","2","7","1","7","6","5","2","5","5","1","5","2","5","3","7","5","6","6","7","5","6","5","5","2","7","3","6","3","5","598944297026322432","刘","592","Male","[""好他"",""坏他"",""好我"",""坏我""]","[""强他"",""弱他"",""强我"",""弱我""]","","","","","","","","match","","","","","","","","","","key","f","16.67618965517237","802.9411539486954","447.0588109897498","f","true","match","img/hexagon.png","强他","强他","prac_ALT2_ability","practice_ability","","","","","","","",""
"null","<span style='color:GreenYellow; font-size: 70px;'>正确! </span>","null","html-keyboard-response","51","229411","0.0-8.0-1.0-1.0-0.0-1.20","5","5","6","3","3","5","1","4","4","5","5","2","0","0","1","0","1","2","1","4","5","4","5","4","5","4","4","5","4","8","7","8","7","5","6","6","7","8","5","2","2","4","5","2","5","2","5","5","5","2","7","1","7","6","5","2","5","5","1","5","2","5","3","7","5","6","6","7","5","6","5","5","2","7","3","6","3","5","598944297026322432","刘","592","Male","[""好他"",""坏他"",""好我"",""坏我""]","[""强他"",""弱他"",""强我"",""弱我""]","","","","","","","","","","","","","","","","","","","","","","","","","","","","","","feedback_test","","","","","","","",""
"1038","","j","psychophysics","52","231451","0.0-8.0-1.0-1.0-0.0-0.21","5","5","6","3","3","5","1","4","4","5","5","2","0","0","1","0","1","2","1","4","5","4","5","4","5","4","4","5","4","8","7","8","7","5","6","6","7","8","5","2","2","4","5","2","5","2","5","5","5","2","7","1","7","6","5","2","5","5","1","5","2","5","3","7","5","6","6","7","5","6","5","5","2","7","3","6","3","5","598944297026322432","刘","592","Male","[""好他"",""坏他"",""好我"",""坏我""]","[""强他"",""弱他"",""强我"",""弱我""]","","","","","","","","nonmatch","","","","","","","","","","key","j","16.675371900826455","802.9411539486954","447.0588109897498","j","true","nonmatch","img/ellipse.png","强我","弱我","prac_ALT2_ability","practice_ability","","","","","","","",""
"null","<span style='color:GreenYellow; font-size: 70px;'>正确! </span>","null","html-keyboard-response","53","231952","0.0-8.0-1.0-1.0-0.0-1.21","5","5","6","3","3","5","1","4","4","5","5","2","0","0","1","0","1","2","1","4","5","4","5","4","5","4","4","5","4","8","7","8","7","5","6","6","7","8","5","2","2","4","5","2","5","2","5","5","5","2","7","1","7","6","5","2","5","5","1","5","2","5","3","7","5","6","6","7","5","6","5","5","2","7","3","6","3","5","598944297026322432","刘","592","Male","[""好他"",""坏他"",""好我"",""坏我""]","[""强他"",""弱他"",""强我"",""弱我""]","","","","","","","","","","","","","","","","","","","","","","","","","","","","","","feedback_test","","","","","","","",""
"759","","f","psychophysics","54","233713","0.0-8.0-1.0-1.0-0.0-0.22","5","5","6","3","3","5","1","4","4","5","5","2","0","0","1","0","1","2","1","4","5","4","5","4","5","4","4","5","4","8","7","8","7","5","6","6","7","8","5","2","2","4","5","2","5","2","5","5","5","2","7","1","7","6","5","2","5","5","1","5","2","5","3","7","5","6","6","7","5","6","5","5","2","7","3","6","3","5","598944297026322432","刘","592","Male","[""好他"",""坏他"",""好我"",""坏我""]","[""强他"",""弱他"",""强我"",""弱我""]","","","","","","","","match","","","","","","","","","","key","f","16.67671153846151","802.9411539486954","447.0588109897498","f","true","match","img/square.png","强我","强我","prac_ALT2_ability","practice_ability","","","","","","","",""
"null","<span style='color:GreenYellow; font-size: 70px;'>正确! </span>","null","html-keyboard-response","55","234215","0.0-8.0-1.0-1.0-0.0-1.22","5","5","6","3","3","5","1","4","4","5","5","2","0","0","1","0","1","2","1","4","5","4","5","4","5","4","4","5","4","8","7","8","7","5","6","6","7","8","5","2","2","4","5","2","5","2","5","5","5","2","7","1","7","6","5","2","5","5","1","5","2","5","3","7","5","6","6","7","5","6","5","5","2","7","3","6","3","5","598944297026322432","刘","592","Male","[""好他"",""坏他"",""好我"",""坏我""]","[""强他"",""弱他"",""强我"",""弱我""]","","","","","","","","","","","","","","","","","","","","","","","","","","","","","","feedback_test","","","","","","","",""
"752","","j","psychophysics","56","235968","0.0-8.0-1.0-1.0-0.0-0.23","5","5","6","3","3","5","1","4","4","5","5","2","0","0","1","0","1","2","1","4","5","4","5","4","5","4","4","5","4","8","7","8","7","5","6","6","7","8","5","2","2","4","5","2","5","2","5","5","5","2","7","1","7","6","5","2","5","5","1","5","2","5","3","7","5","6","6","7","5","6","5","5","2","7","3","6","3","5","598944297026322432","刘","592","Male","[""好他"",""坏他"",""好我"",""坏我""]","[""强他"",""弱他"",""强我"",""弱我""]","","","","","","","","nonmatch","","","","","","","","","","key","j","16.674278846153847","802.9411539486954","447.0588109897498","j","true","nonmatch","img/square.png","弱我","强我","prac_ALT2_ability","practice_ability","","","","","","","",""
"null","<span style='color:GreenYellow; font-size: 70px;'>正确! </span>","null","html-keyboard-response","57","236470","0.0-8.0-1.0-1.0-0.0-1.23","5","5","6","3","3","5","1","4","4","5","5","2","0","0","1","0","1","2","1","4","5","4","5","4","5","4","4","5","4","8","7","8","7","5","6","6","7","8","5","2","2","4","5","2","5","2","5","5","5","2","7","1","7","6","5","2","5","5","1","5","2","5","3","7","5","6","6","7","5","6","5","5","2","7","3","6","3","5","598944297026322432","刘","592","Male","[""好他"",""坏他"",""好我"",""坏我""]","[""强他"",""弱他"",""强我"",""弱我""]","","","","","","","","","","","","","","","","","","","","","","","","","","","","","","feedback_test","","","","","","","",""
"887","","f","psychophysics","58","238361","0.0-8.0-1.0-1.0-0.0-0.24","5","5","6","3","3","5","1","4","4","5","5","2","0","0","1","0","1","2","1","4","5","4","5","4","5","4","4","5","4","8","7","8","7","5","6","6","7","8","5","2","2","4","5","2","5","2","5","5","5","2","7","1","7","6","5","2","5","5","1","5","2","5","3","7","5","6","6","7","5","6","5","5","2","7","3","6","3","5","598944297026322432","刘","592","Male","[""好他"",""坏他"",""好我"",""坏我""]","[""强他"",""弱他"",""强我"",""弱我""]","","","","","","","","match","","","","","","","","","","key","f","16.674276785714287","802.9411539486954","447.0588109897498","f","true","match","img/square.png","强我","强我","prac_ALT2_ability","practice_ability","","","","","","","",""
"null","<span style='color:GreenYellow; font-size: 70px;'>正确! </span>","null","html-keyboard-response","59","238863","0.0-8.0-1.0-1.0-0.0-1.24","5","5","6","3","3","5","1","4","4","5","5","2","0","0","1","0","1","2","1","4","5","4","5","4","5","4","4","5","4","8","7","8","7","5","6","6","7","8","5","2","2","4","5","2","5","2","5","5","5","2","7","1","7","6","5","2","5","5","1","5","2","5","3","7","5","6","6","7","5","6","5","5","2","7","3","6","3","5","598944297026322432","刘","592","Male","[""好他"",""坏他"",""好我"",""坏我""]","[""强他"",""弱他"",""强我"",""弱我""]","","","","","","","","","","","","","","","","","","","","","","","","","","","","","","feedback_test","","","","","","","",""
"1044","","j","psychophysics","60","240914","0.0-8.0-1.0-1.0-0.0-0.25","5","5","6","3","3","5","1","4","4","5","5","2","0","0","1","0","1","2","1","4","5","4","5","4","5","4","4","5","4","8","7","8","7","5","6","6","7","8","5","2","2","4","5","2","5","2","5","5","5","2","7","1","7","6","5","2","5","5","1","5","2","5","3","7","5","6","6","7","5","6","5","5","2","7","3","6","3","5","598944297026322432","刘","592","Male","[""好他"",""坏他"",""好我"",""坏我""]","[""强他"",""弱他"",""强我"",""弱我""]","","","","","","","","nonmatch","","","","","","","","","","key","j","16.675065573770553","802.9411539486954","447.0588109897498","j","true","nonmatch","img/hexagon.png","强我","强他","prac_ALT2_ability","practice_ability","","","","","","","",""
"null","<span style='color:GreenYellow; font-size: 70px;'>正确! </span>","null","html-keyboard-response","61","241415","0.0-8.0-1.0-1.0-0.0-1.25","5","5","6","3","3","5","1","4","4","5","5","2","0","0","1","0","1","2","1","4","5","4","5","4","5","4","4","5","4","8","7","8","7","5","6","6","7","8","5","2","2","4","5","2","5","2","5","5","5","2","7","1","7","6","5","2","5","5","1","5","2","5","3","7","5","6","6","7","5","6","5","5","2","7","3","6","3","5","598944297026322432","刘","592","Male","[""好他"",""坏他"",""好我"",""坏我""]","[""强他"",""弱他"",""强我"",""弱我""]","","","","","","","","","","","","","","","","","","","","","","","","","","","","","","feedback_test","","","","","","","",""
"720","","j","psychophysics","62","243137","0.0-8.0-1.0-1.0-0.0-0.26","5","5","6","3","3","5","1","4","4","5","5","2","0","0","1","0","1","2","1","4","5","4","5","4","5","4","4","5","4","8","7","8","7","5","6","6","7","8","5","2","2","4","5","2","5","2","5","5","5","2","7","1","7","6","5","2","5","5","1","5","2","5","3","7","5","6","6","7","5","6","5","5","2","7","3","6","3","5","598944297026322432","刘","592","Male","[""好他"",""坏他"",""好我"",""坏我""]","[""强他"",""弱他"",""强我"",""弱我""]","","","","","","","","nonmatch","","","","","","","","","","key","j","16.676274509804024","802.9411539486954","447.0588109897498","j","true","nonmatch","img/square.png","弱我","强我","prac_ALT2_ability","practice_ability","","","","","","","",""
"null","<span style='color:GreenYellow; font-size: 70px;'>正确! </span>","null","html-keyboard-response","63","243639","0.0-8.0-1.0-1.0-0.0-1.26","5","5","6","3","3","5","1","4","4","5","5","2","0","0","1","0","1","2","1","4","5","4","5","4","5","4","4","5","4","8","7","8","7","5","6","6","7","8","5","2","2","4","5","2","5","2","5","5","5","2","7","1","7","6","5","2","5","5","1","5","2","5","3","7","5","6","6","7","5","6","5","5","2","7","3","6","3","5","598944297026322432","刘","592","Male","[""好他"",""坏他"",""好我"",""坏我""]","[""强他"",""弱他"",""强我"",""弱我""]","","","","","","","","","","","","","","","","","","","","","","","","","","","","","","feedback_test","","","","","","","",""
"809","","f","psychophysics","64","245451","0.0-8.0-1.0-1.0-0.0-0.27","5","5","6","3","3","5","1","4","4","5","5","2","0","0","1","0","1","2","1","4","5","4","5","4","5","4","4","5","4","8","7","8","7","5","6","6","7","8","5","2","2","4","5","2","5","2","5","5","5","2","7","1","7","6","5","2","5","5","1","5","2","5","3","7","5","6","6","7","5","6","5","5","2","7","3","6","3","5","598944297026322432","刘","592","Male","[""好他"",""坏他"",""好我"",""坏我""]","[""强他"",""弱他"",""强我"",""弱我""]","","","","","","","","match","","","","","","","","","","key","f","16.67646728971947","802.9411539486954","447.0588109897498","f","true","match","img/hexagon.png","强他","强他","prac_ALT2_ability","practice_ability","","","","","","","",""
"null","<span style='color:GreenYellow; font-size: 70px;'>正确! </span>","null","html-keyboard-response","65","245952","0.0-8.0-1.0-1.0-0.0-1.27","5","5","6","3","3","5","1","4","4","5","5","2","0","0","1","0","1","2","1","4","5","4","5","4","5","4","4","5","4","8","7","8","7","5","6","6","7","8","5","2","2","4","5","2","5","2","5","5","5","2","7","1","7","6","5","2","5","5","1","5","2","5","3","7","5","6","6","7","5","6","5","5","2","7","3","6","3","5","598944297026322432","刘","592","Male","[""好他"",""坏他"",""好我"",""坏我""]","[""强他"",""弱他"",""强我"",""弱我""]","","","","","","","","","","","","","","","","","","","","","","","","","","","","","","feedback_test","","","","","","","",""
"829","","f","psychophysics","66","247783","0.0-8.0-1.0-1.0-0.0-0.28","5","5","6","3","3","5","1","4","4","5","5","2","0","0","1","0","1","2","1","4","5","4","5","4","5","4","4","5","4","8","7","8","7","5","6","6","7","8","5","2","2","4","5","2","5","2","5","5","5","2","7","1","7","6","5","2","5","5","1","5","2","5","3","7","5","6","6","7","5","6","5","5","2","7","3","6","3","5","598944297026322432","刘","592","Male","[""好他"",""坏他"",""好我"",""坏我""]","[""强他"",""弱他"",""强我"",""弱我""]","","","","","","","","match","","","","","","","","","","key","f","16.67284259259247","802.9411539486954","447.0588109897498","f","true","match","img/square.png","强我","强我","prac_ALT2_ability","practice_ability","","","","","","","",""
"null","<span style='color:GreenYellow; font-size: 70px;'>正确! </span>","null","html-keyboard-response","67","248285","0.0-8.0-1.0-1.0-0.0-1.28","5","5","6","3","3","5","1","4","4","5","5","2","0","0","1","0","1","2","1","4","5","4","5","4","5","4","4","5","4","8","7","8","7","5","6","6","7","8","5","2","2","4","5","2","5","2","5","5","5","2","7","1","7","6","5","2","5","5","1","5","2","5","3","7","5","6","6","7","5","6","5","5","2","7","3","6","3","5","598944297026322432","刘","592","Male","[""好他"",""坏他"",""好我"",""坏我""]","[""强他"",""弱他"",""强我"",""弱我""]","","","","","","","","","","","","","","","","","","","","","","","","","","","","","","feedback_test","","","","","","","",""
"758","","j","psychophysics","68","250046","0.0-8.0-1.0-1.0-0.0-0.29","5","5","6","3","3","5","1","4","4","5","5","2","0","0","1","0","1","2","1","4","5","4","5","4","5","4","4","5","4","8","7","8","7","5","6","6","7","8","5","2","2","4","5","2","5","2","5","5","5","2","7","1","7","6","5","2","5","5","1","5","2","5","3","7","5","6","6","7","5","6","5","5","2","7","3","6","3","5","598944297026322432","刘","592","Male","[""好他"",""坏他"",""好我"",""坏我""]","[""强他"",""弱他"",""强我"",""弱我""]","","","","","","","","nonmatch","","","","","","","","","","key","j","16.674704761904874","802.9411539486954","447.0588109897498","j","true","nonmatch","img/hexagon.png","弱我","强他","prac_ALT2_ability","practice_ability","","","","","","","",""
"null","<span style='color:GreenYellow; font-size: 70px;'>正确! </span>","null","html-keyboard-response","69","250547","0.0-8.0-1.0-1.0-0.0-1.29","5","5","6","3","3","5","1","4","4","5","5","2","0","0","1","0","1","2","1","4","5","4","5","4","5","4","4","5","4","8","7","8","7","5","6","6","7","8","5","2","2","4","5","2","5","2","5","5","5","2","7","1","7","6","5","2","5","5","1","5","2","5","3","7","5","6","6","7","5","6","5","5","2","7","3","6","3","5","598944297026322432","刘","592","Male","[""好他"",""坏他"",""好我"",""坏我""]","[""强他"",""弱他"",""强我"",""弱我""]","","","","","","","","","","","","","","","","","","","","","","","","","","","","","","feedback_test","","","","","","","",""
"892","","j","psychophysics","70","252442","0.0-8.0-1.0-1.0-0.0-0.30","5","5","6","3","3","5","1","4","4","5","5","2","0","0","1","0","1","2","1","4","5","4","5","4","5","4","4","5","4","8","7","8","7","5","6","6","7","8","5","2","2","4","5","2","5","2","5","5","5","2","7","1","7","6","5","2","5","5","1","5","2","5","3","7","5","6","6","7","5","6","5","5","2","7","3","6","3","5","598944297026322432","刘","592","Male","[""好他"",""坏他"",""好我"",""坏我""]","[""强他"",""弱他"",""强我"",""弱我""]","","","","","","","","nonmatch","","","","","","","","","","key","j","16.674743362831723","802.9411539486954","447.0588109897498","j","true","nonmatch","img/ellipse.png","强他","弱我","prac_ALT2_ability","practice_ability","","","","","","","",""
"null","<span style='color:GreenYellow; font-size: 70px;'>正确! </span>","null","html-keyboard-response","71","252945","0.0-8.0-1.0-1.0-0.0-1.30","5","5","6","3","3","5","1","4","4","5","5","2","0","0","1","0","1","2","1","4","5","4","5","4","5","4","4","5","4","8","7","8","7","5","6","6","7","8","5","2","2","4","5","2","5","2","5","5","5","2","7","1","7","6","5","2","5","5","1","5","2","5","3","7","5","6","6","7","5","6","5","5","2","7","3","6","3","5","598944297026322432","刘","592","Male","[""好他"",""坏他"",""好我"",""坏我""]","[""强他"",""弱他"",""强我"",""弱我""]","","","","","","","","","","","","","","","","","","","","","","","","","","","","","","feedback_test","","","","","","","",""
"1169","","j","psychophysics","72","255115","0.0-8.0-1.0-1.0-0.0-0.31","5","5","6","3","3","5","1","4","4","5","5","2","0","0","1","0","1","2","1","4","5","4","5","4","5","4","4","5","4","8","7","8","7","5","6","6","7","8","5","2","2","4","5","2","5","2","5","5","5","2","7","1","7","6","5","2","5","5","1","5","2","5","3","7","5","6","6","7","5","6","5","5","2","7","3","6","3","5","598944297026322432","刘","592","Male","[""好他"",""坏他"",""好我"",""坏我""]","[""强他"",""弱他"",""强我"",""弱我""]","","","","","","","","nonmatch","","","","","","","","","","key","j","16.675418604651057","802.9411539486954","447.0588109897498","j","true","nonmatch","img/triangle.png","弱我","弱他","prac_ALT2_ability","practice_ability","","","","","","","",""
"null","<span style='color:GreenYellow; font-size: 70px;'>正确! </span>","null","html-keyboard-response","73","255615","0.0-8.0-1.0-1.0-0.0-1.31","5","5","6","3","3","5","1","4","4","5","5","2","0","0","1","0","1","2","1","4","5","4","5","4","5","4","4","5","4","8","7","8","7","5","6","6","7","8","5","2","2","4","5","2","5","2","5","5","5","2","7","1","7","6","5","2","5","5","1","5","2","5","3","7","5","6","6","7","5","6","5","5","2","7","3","6","3","5","598944297026322432","刘","592","Male","[""好他"",""坏他"",""好我"",""坏我""]","[""强他"",""弱他"",""强我"",""弱我""]","","","","","","","","","","","","","","","","","","","","","","","","","","","","","","feedback_test","","","","","","","",""
"758","","f","psychophysics","74","257376","0.0-8.0-1.0-1.0-0.0-0.32","5","5","6","3","3","5","1","4","4","5","5","2","0","0","1","0","1","2","1","4","5","4","5","4","5","4","4","5","4","8","7","8","7","5","6","6","7","8","5","2","2","4","5","2","5","2","5","5","5","2","7","1","7","6","5","2","5","5","1","5","2","5","3","7","5","6","6","7","5","6","5","5","2","7","3","6","3","5","598944297026322432","刘","592","Male","[""好他"",""坏他"",""好我"",""坏我""]","[""强他"",""弱他"",""强我"",""弱我""]","","","","","","","","match","","","","","","","","","","key","f","16.674932692307685","802.9411539486954","447.0588109897498","j","false","nonmatch","img/ellipse.png","弱他","弱我","prac_ALT2_ability","practice_ability","","","","","","","",""
"null","<span style='color:red; font-size: 70px;'>错误! </span>","null","html-keyboard-response","75","257876","0.0-8.0-1.0-1.0-0.0-1.32","5","5","6","3","3","5","1","4","4","5","5","2","0","0","1","0","1","2","1","4","5","4","5","4","5","4","4","5","4","8","7","8","7","5","6","6","7","8","5","2","2","4","5","2","5","2","5","5","5","2","7","1","7","6","5","2","5","5","1","5","2","5","3","7","5","6","6","7","5","6","5","5","2","7","3","6","3","5","598944297026322432","刘","592","Male","[""好他"",""坏他"",""好我"",""坏我""]","[""强他"",""弱他"",""强我"",""弱我""]","","","","","","","","","","","","","","","","","","","","","","","","","","","","","","feedback_test","","","","","","","",""
"773","","f","psychophysics","76","259652","0.0-8.0-1.0-1.0-0.0-0.33","5","5","6","3","3","5","1","4","4","5","5","2","0","0","1","0","1","2","1","4","5","4","5","4","5","4","4","5","4","8","7","8","7","5","6","6","7","8","5","2","2","4","5","2","5","2","5","5","5","2","7","1","7","6","5","2","5","5","1","5","2","5","3","7","5","6","6","7","5","6","5","5","2","7","3","6","3","5","598944297026322432","刘","592","Male","[""好他"",""坏他"",""好我"",""坏我""]","[""强他"",""弱他"",""强我"",""弱我""]","","","","","","","","match","","","","","","","","","","key","f","16.67438095238093","802.9411539486954","447.0588109897498","f","true","match","img/ellipse.png","弱我","弱我","prac_ALT2_ability","practice_ability","","","","","","","",""
"null","<span style='color:GreenYellow; font-size: 70px;'>正确! </span>","null","html-keyboard-response","77","260153","0.0-8.0-1.0-1.0-0.0-1.33","5","5","6","3","3","5","1","4","4","5","5","2","0","0","1","0","1","2","1","4","5","4","5","4","5","4","4","5","4","8","7","8","7","5","6","6","7","8","5","2","2","4","5","2","5","2","5","5","5","2","7","1","7","6","5","2","5","5","1","5","2","5","3","7","5","6","6","7","5","6","5","5","2","7","3","6","3","5","598944297026322432","刘","592","Male","[""好他"",""坏他"",""好我"",""坏我""]","[""强他"",""弱他"",""强我"",""弱我""]","","","","","","","","","","","","","","","","","","","","","","","","","","","","","","feedback_test","","","","","","","",""
"866","","j","psychophysics","78","262022","0.0-8.0-1.0-1.0-0.0-0.34","5","5","6","3","3","5","1","4","4","5","5","2","0","0","1","0","1","2","1","4","5","4","5","4","5","4","4","5","4","8","7","8","7","5","6","6","7","8","5","2","2","4","5","2","5","2","5","5","5","2","7","1","7","6","5","2","5","5","1","5","2","5","3","7","5","6","6","7","5","6","5","5","2","7","3","6","3","5","598944297026322432","刘","592","Male","[""好他"",""坏他"",""好我"",""坏我""]","[""强他"",""弱他"",""强我"",""弱我""]","","","","","","","","nonmatch","","","","","","","","","","key","j","16.674054054054118","802.9411539486954","447.0588109897498","j","true","nonmatch","img/square.png","弱他","强我","prac_ALT2_ability","practice_ability","","","","","","","",""
"null","<span style='color:GreenYellow; font-size: 70px;'>正确! </span>","null","html-keyboard-response","79","262523","0.0-8.0-1.0-1.0-0.0-1.34","5","5","6","3","3","5","1","4","4","5","5","2","0","0","1","0","1","2","1","4","5","4","5","4","5","4","4","5","4","8","7","8","7","5","6","6","7","8","5","2","2","4","5","2","5","2","5","5","5","2","7","1","7","6","5","2","5","5","1","5","2","5","3","7","5","6","6","7","5","6","5","5","2","7","3","6","3","5","598944297026322432","刘","592","Male","[""好他"",""坏他"",""好我"",""坏我""]","[""强他"",""弱他"",""强我"",""弱我""]","","","","","","","","","","","","","","","","","","","","","","","","","","","","","","feedback_test","","","","","","","",""
"807","","f","psychophysics","80","264331","0.0-8.0-1.0-1.0-0.0-0.35","5","5","6","3","3","5","1","4","4","5","5","2","0","0","1","0","1","2","1","4","5","4","5","4","5","4","4","5","4","8","7","8","7","5","6","6","7","8","5","2","2","4","5","2","5","2","5","5","5","2","7","1","7","6","5","2","5","5","1","5","2","5","3","7","5","6","6","7","5","6","5","5","2","7","3","6","3","5","598944297026322432","刘","592","Male","[""好他"",""坏他"",""好我"",""坏我""]","[""强他"",""弱他"",""强我"",""弱我""]","","","","","","","","match","","","","","","","","","","key","f","16.67464814814836","802.9411539486954","447.0588109897498","j","false","nonmatch","img/ellipse.png","强我","弱我","prac_ALT2_ability","practice_ability","","","","","","","",""
"null","<span style='color:red; font-size: 70px;'>错误! </span>","null","html-keyboard-response","81","264834","0.0-8.0-1.0-1.0-0.0-1.35","5","5","6","3","3","5","1","4","4","5","5","2","0","0","1","0","1","2","1","4","5","4","5","4","5","4","4","5","4","8","7","8","7","5","6","6","7","8","5","2","2","4","5","2","5","2","5","5","5","2","7","1","7","6","5","2","5","5","1","5","2","5","3","7","5","6","6","7","5","6","5","5","2","7","3","6","3","5","598944297026322432","刘","592","Male","[""好他"",""坏他"",""好我"",""坏我""]","[""强他"",""弱他"",""强我"",""弱我""]","","","","","","","","","","","","","","","","","","","","","","","","","","","","","","feedback_test","","","","","","","",""
"1120","","j","psychophysics","82","266955","0.0-8.0-1.0-1.0-0.0-0.36","5","5","6","3","3","5","1","4","4","5","5","2","0","0","1","0","1","2","1","4","5","4","5","4","5","4","4","5","4","8","7","8","7","5","6","6","7","8","5","2","2","4","5","2","5","2","5","5","5","2","7","1","7","6","5","2","5","5","1","5","2","5","3","7","5","6","6","7","5","6","5","5","2","7","3","6","3","5","598944297026322432","刘","592","Male","[""好他"",""坏他"",""好我"",""坏我""]","[""强他"",""弱他"",""强我"",""弱我""]","","","","","","","","nonmatch","","","","","","","","","","key","j","16.67643650793674","802.9411539486954","447.0588109897498","j","true","nonmatch","img/triangle.png","强我","弱他","prac_ALT2_ability","practice_ability","","","","","","","",""
"null","<span style='color:GreenYellow; font-size: 70px;'>正确! </span>","null","html-keyboard-response","83","267456","0.0-8.0-1.0-1.0-0.0-1.36","5","5","6","3","3","5","1","4","4","5","5","2","0","0","1","0","1","2","1","4","5","4","5","4","5","4","4","5","4","8","7","8","7","5","6","6","7","8","5","2","2","4","5","2","5","2","5","5","5","2","7","1","7","6","5","2","5","5","1","5","2","5","3","7","5","6","6","7","5","6","5","5","2","7","3","6","3","5","598944297026322432","刘","592","Male","[""好他"",""坏他"",""好我"",""坏我""]","[""强他"",""弱他"",""强我"",""弱我""]","","","","","","","","","","","","","","","","","","","","","","","","","","","","","","feedback_test","","","","","","","",""
"862","","f","psychophysics","84","269319","0.0-8.0-1.0-1.0-0.0-0.37","5","5","6","3","3","5","1","4","4","5","5","2","0","0","1","0","1","2","1","4","5","4","5","4","5","4","4","5","4","8","7","8","7","5","6","6","7","8","5","2","2","4","5","2","5","2","5","5","5","2","7","1","7","6","5","2","5","5","1","5","2","5","3","7","5","6","6","7","5","6","5","5","2","7","3","6","3","5","598944297026322432","刘","592","Male","[""好他"",""坏他"",""好我"",""坏我""]","[""强他"",""弱他"",""强我"",""弱我""]","","","","","","","","match","","","","","","","","","","key","f","16.674657657658074","802.9411539486954","447.0588109897498","f","true","match","img/hexagon.png","强他","强他","prac_ALT2_ability","practice_ability","","","","","","","",""
"null","<span style='color:GreenYellow; font-size: 70px;'>正确! </span>","null","html-keyboard-response","85","269820","0.0-8.0-1.0-1.0-0.0-1.37","5","5","6","3","3","5","1","4","4","5","5","2","0","0","1","0","1","2","1","4","5","4","5","4","5","4","4","5","4","8","7","8","7","5","6","6","7","8","5","2","2","4","5","2","5","2","5","5","5","2","7","1","7","6","5","2","5","5","1","5","2","5","3","7","5","6","6","7","5","6","5","5","2","7","3","6","3","5","598944297026322432","刘","592","Male","[""好他"",""坏他"",""好我"",""坏我""]","[""强他"",""弱他"",""强我"",""弱我""]","","","","","","","","","","","","","","","","","","","","","","","","","","","","","","feedback_test","","","","","","","",""
"887","","f","psychophysics","86","271709","0.0-8.0-1.0-1.0-0.0-0.38","5","5","6","3","3","5","1","4","4","5","5","2","0","0","1","0","1","2","1","4","5","4","5","4","5","4","4","5","4","8","7","8","7","5","6","6","7","8","5","2","2","4","5","2","5","2","5","5","5","2","7","1","7","6","5","2","5","5","1","5","2","5","3","7","5","6","6","7","5","6","5","5","2","7","3","6","3","5","598944297026322432","刘","592","Male","[""好他"",""坏他"",""好我"",""坏我""]","[""强他"",""弱他"",""强我"",""弱我""]","","","","","","","","match","","","","","","","","","","key","f","16.67650892857169","802.9411539486954","447.0588109897498","f","true","match","img/triangle.png","弱他","弱他","prac_ALT2_ability","practice_ability","","","","","","","",""
"null","<span style='color:GreenYellow; font-size: 70px;'>正确! </span>","null","html-keyboard-response","87","272210","0.0-8.0-1.0-1.0-0.0-1.38","5","5","6","3","3","5","1","4","4","5","5","2","0","0","1","0","1","2","1","4","5","4","5","4","5","4","4","5","4","8","7","8","7","5","6","6","7","8","5","2","2","4","5","2","5","2","5","5","5","2","7","1","7","6","5","2","5","5","1","5","2","5","3","7","5","6","6","7","5","6","5","5","2","7","3","6","3","5","598944297026322432","刘","592","Male","[""好他"",""坏他"",""好我"",""坏我""]","[""强他"",""弱他"",""强我"",""弱我""]","","","","","","","","","","","","","","","","","","","","","","","","","","","","","","feedback_test","","","","","","","",""
"880","","j","psychophysics","88","274092","0.0-8.0-1.0-1.0-0.0-0.39","5","5","6","3","3","5","1","4","4","5","5","2","0","0","1","0","1","2","1","4","5","4","5","4","5","4","4","5","4","8","7","8","7","5","6","6","7","8","5","2","2","4","5","2","5","2","5","5","5","2","7","1","7","6","5","2","5","5","1","5","2","5","3","7","5","6","6","7","5","6","5","5","2","7","3","6","3","5","598944297026322432","刘","592","Male","[""好他"",""坏他"",""好我"",""坏我""]","[""强他"",""弱他"",""强我"",""弱我""]","","","","","","","","nonmatch","","","","","","","","","","key","j","16.67662499999954","802.9411539486954","447.0588109897498","j","true","nonmatch","img/triangle.png","强他","弱他","prac_ALT2_ability","practice_ability","","","","","","","",""
"null","<span style='color:GreenYellow; font-size: 70px;'>正确! </span>","null","html-keyboard-response","89","274594","0.0-8.0-1.0-1.0-0.0-1.39","5","5","6","3","3","5","1","4","4","5","5","2","0","0","1","0","1","2","1","4","5","4","5","4","5","4","4","5","4","8","7","8","7","5","6","6","7","8","5","2","2","4","5","2","5","2","5","5","5","2","7","1","7","6","5","2","5","5","1","5","2","5","3","7","5","6","6","7","5","6","5","5","2","7","3","6","3","5","598944297026322432","刘","592","Male","[""好他"",""坏他"",""好我"",""坏我""]","[""强他"",""弱他"",""强我"",""弱我""]","","","","","","","","","","","","","","","","","","","","","","","","","","","","","","feedback_test","","","","","","","",""
"null","","null","psychophysics","90","276803","0.0-8.0-1.0-1.0-0.0-0.40","5","5","6","3","3","5","1","4","4","5","5","2","0","0","1","0","1","2","1","4","5","4","5","4","5","4","4","5","4","8","7","8","7","5","6","6","7","8","5","2","2","4","5","2","5","2","5","5","5","2","7","1","7","6","5","2","5","5","1","5","2","5","3","7","5","6","6","7","5","6","5","5","2","7","3","6","3","5","598944297026322432","刘","592","Male","[""好他"",""坏他"",""好我"",""坏我""]","[""强他"",""弱他"",""强我"",""弱我""]","","","","","","","","null","","","","","","","","","","key","null","16.67618181818177","802.9411539486954","447.0588109897498","f","false","match","img/ellipse.png","弱我","弱我","prac_ALT2_ability","practice_ability","","","","","","","",""
"null","<span class='add_' style='color:yellow; font-size: 70px;'> 太慢! </span>","null","html-keyboard-response","91","277304","0.0-8.0-1.0-1.0-0.0-1.40","5","5","6","3","3","5","1","4","4","5","5","2","0","0","1","0","1","2","1","4","5","4","5","4","5","4","4","5","4","8","7","8","7","5","6","6","7","8","5","2","2","4","5","2","5","2","5","5","5","2","7","1","7","6","5","2","5","5","1","5","2","5","3","7","5","6","6","7","5","6","5","5","2","7","3","6","3","5","598944297026322432","刘","592","Male","[""好他"",""坏他"",""好我"",""坏我""]","[""强他"",""弱他"",""强我"",""弱我""]","","","","","","","","","","","","","","","","","","","","","","","","","","","","","","feedback_test","","","","","","","",""
"1115","","j","psychophysics","92","279423","0.0-8.0-1.0-1.0-0.0-0.41","5","5","6","3","3","5","1","4","4","5","5","2","0","0","1","0","1","2","1","4","5","4","5","4","5","4","4","5","4","8","7","8","7","5","6","6","7","8","5","2","2","4","5","2","5","2","5","5","5","2","7","1","7","6","5","2","5","5","1","5","2","5","3","7","5","6","6","7","5","6","5","5","2","7","3","6","3","5","598944297026322432","刘","592","Male","[""好他"",""坏他"",""好我"",""坏我""]","[""强他"",""弱他"",""强我"",""弱我""]","","","","","","","","nonmatch","","","","","","","","","","key","j","16.67436507936532","802.9411539486954","447.0588109897498","f","false","match","img/square.png","强我","强我","prac_ALT2_ability","practice_ability","","","","","","","",""
"null","<span style='color:red; font-size: 70px;'>错误! </span>","null","html-keyboard-response","93","279926","0.0-8.0-1.0-1.0-0.0-1.41","5","5","6","3","3","5","1","4","4","5","5","2","0","0","1","0","1","2","1","4","5","4","5","4","5","4","4","5","4","8","7","8","7","5","6","6","7","8","5","2","2","4","5","2","5","2","5","5","5","2","7","1","7","6","5","2","5","5","1","5","2","5","3","7","5","6","6","7","5","6","5","5","2","7","3","6","3","5","598944297026322432","刘","592","Male","[""好他"",""坏他"",""好我"",""坏我""]","[""强他"",""弱他"",""强我"",""弱我""]","","","","","","","","","","","","","","","","","","","","","","","","","","","","","","feedback_test","","","","","","","",""
"835","","j","psychophysics","94","281762","0.0-8.0-1.0-1.0-0.0-0.42","5","5","6","3","3","5","1","4","4","5","5","2","0","0","1","0","1","2","1","4","5","4","5","4","5","4","4","5","4","8","7","8","7","5","6","6","7","8","5","2","2","4","5","2","5","2","5","5","5","2","7","1","7","6","5","2","5","5","1","5","2","5","3","7","5","6","6","7","5","6","5","5","2","7","3","6","3","5","598944297026322432","刘","592","Male","[""好他"",""坏他"",""好我"",""坏我""]","[""强他"",""弱他"",""强我"",""弱我""]","","","","","","","","nonmatch","","","","","","","","","","key","j","16.674146788990992","802.9411539486954","447.0588109897498","f","false","match","img/hexagon.png","强他","强他","prac_ALT2_ability","practice_ability","","","","","","","",""
"null","<span style='color:red; font-size: 70px;'>错误! </span>","null","html-keyboard-response","95","282263","0.0-8.0-1.0-1.0-0.0-1.42","5","5","6","3","3","5","1","4","4","5","5","2","0","0","1","0","1","2","1","4","5","4","5","4","5","4","4","5","4","8","7","8","7","5","6","6","7","8","5","2","2","4","5","2","5","2","5","5","5","2","7","1","7","6","5","2","5","5","1","5","2","5","3","7","5","6","6","7","5","6","5","5","2","7","3","6","3","5","598944297026322432","刘","592","Male","[""好他"",""坏他"",""好我"",""坏我""]","[""强他"",""弱他"",""强我"",""弱我""]","","","","","","","","","","","","","","","","","","","","","","","","","","","","","","feedback_test","","","","","","","",""
"876","","f","psychophysics","96","284142","0.0-8.0-1.0-1.0-0.0-0.43","5","5","6","3","3","5","1","4","4","5","5","2","0","0","1","0","1","2","1","4","5","4","5","4","5","4","4","5","4","8","7","8","7","5","6","6","7","8","5","2","2","4","5","2","5","2","5","5","5","2","7","1","7","6","5","2","5","5","1","5","2","5","3","7","5","6","6","7","5","6","5","5","2","7","3","6","3","5","598944297026322432","刘","592","Male","[""好他"",""坏他"",""好我"",""坏我""]","[""强他"",""弱他"",""强我"",""弱我""]","","","","","","","","match","","","","","","","","","","key","f","16.67496428571446","802.9411539486954","447.0588109897498","f","true","match","img/triangle.png","弱他","弱他","prac_ALT2_ability","practice_ability","","","","","","","",""
"null","<span style='color:GreenYellow; font-size: 70px;'>正确! </span>","null","html-keyboard-response","97","284647","0.0-8.0-1.0-1.0-0.0-1.43","5","5","6","3","3","5","1","4","4","5","5","2","0","0","1","0","1","2","1","4","5","4","5","4","5","4","4","5","4","8","7","8","7","5","6","6","7","8","5","2","2","4","5","2","5","2","5","5","5","2","7","1","7","6","5","2","5","5","1","5","2","5","3","7","5","6","6","7","5","6","5","5","2","7","3","6","3","5","598944297026322432","刘","592","Male","[""好他"",""坏他"",""好我"",""坏我""]","[""强他"",""弱他"",""强我"",""弱我""]","","","","","","","","","","","","","","","","","","","","","","","","","","","","","","feedback_test","","","","","","","",""
"895","","f","psychophysics","98","286545","0.0-8.0-1.0-1.0-0.0-0.44","5","5","6","3","3","5","1","4","4","5","5","2","0","0","1","0","1","2","1","4","5","4","5","4","5","4","4","5","4","8","7","8","7","5","6","6","7","8","5","2","2","4","5","2","5","2","5","5","5","2","7","1","7","6","5","2","5","5","1","5","2","5","3","7","5","6","6","7","5","6","5","5","2","7","3","6","3","5","598944297026322432","刘","592","Male","[""好他"",""坏他"",""好我"",""坏我""]","[""强他"",""弱他"",""强我"",""弱我""]","","","","","","","","match","","","","","","","","","","key","f","16.675265486725603","802.9411539486954","447.0588109897498","j","false","nonmatch","img/square.png","强他","强我","prac_ALT2_ability","practice_ability","","","","","","","",""
"null","<span style='color:red; font-size: 70px;'>错误! </span>","null","html-keyboard-response","99","287046","0.0-8.0-1.0-1.0-0.0-1.44","5","5","6","3","3","5","1","4","4","5","5","2","0","0","1","0","1","2","1","4","5","4","5","4","5","4","4","5","4","8","7","8","7","5","6","6","7","8","5","2","2","4","5","2","5","2","5","5","5","2","7","1","7","6","5","2","5","5","1","5","2","5","3","7","5","6","6","7","5","6","5","5","2","7","3","6","3","5","598944297026322432","刘","592","Male","[""好他"",""坏他"",""好我"",""坏我""]","[""强他"",""弱他"",""强我"",""弱我""]","","","","","","","","","","","","","","","","","","","","","","","","","","","","","","feedback_test","","","","","","","",""
"768","","f","psychophysics","100","288816","0.0-8.0-1.0-1.0-0.0-0.45","5","5","6","3","3","5","1","4","4","5","5","2","0","0","1","0","1","2","1","4","5","4","5","4","5","4","4","5","4","8","7","8","7","5","6","6","7","8","5","2","2","4","5","2","5","2","5","5","5","2","7","1","7","6","5","2","5","5","1","5","2","5","3","7","5","6","6","7","5","6","5","5","2","7","3","6","3","5","598944297026322432","刘","592","Male","[""好他"",""坏他"",""好我"",""坏我""]","[""强他"",""弱他"",""强我"",""弱我""]","","","","","","","","match","","","","","","","","","","key","f","16.676542857142962","802.9411539486954","447.0588109897498","f","true","match","img/triangle.png","弱他","弱他","prac_ALT2_ability","practice_ability","","","","","","","",""
"null","<span style='color:GreenYellow; font-size: 70px;'>正确! </span>","null","html-keyboard-response","101","289317","0.0-8.0-1.0-1.0-0.0-1.45","5","5","6","3","3","5","1","4","4","5","5","2","0","0","1","0","1","2","1","4","5","4","5","4","5","4","4","5","4","8","7","8","7","5","6","6","7","8","5","2","2","4","5","2","5","2","5","5","5","2","7","1","7","6","5","2","5","5","1","5","2","5","3","7","5","6","6","7","5","6","5","5","2","7","3","6","3","5","598944297026322432","刘","592","Male","[""好他"",""坏他"",""好我"",""坏我""]","[""强他"",""弱他"",""强我"",""弱我""]","","","","","","","","","","","","","","","","","","","","","","","","","","","","","","feedback_test","","","","","","","",""
"836","","f","psychophysics","102","291155","0.0-8.0-1.0-1.0-0.0-0.46","5","5","6","3","3","5","1","4","4","5","5","2","0","0","1","0","1","2","1","4","5","4","5","4","5","4","4","5","4","8","7","8","7","5","6","6","7","8","5","2","2","4","5","2","5","2","5","5","5","2","7","1","7","6","5","2","5","5","1","5","2","5","3","7","5","6","6","7","5","6","5","5","2","7","3","6","3","5","598944297026322432","刘","592","Male","[""好他"",""坏他"",""好我"",""坏我""]","[""强他"",""弱他"",""强我"",""弱我""]","","","","","","","","match","","","","","","","","","","key","f","16.674899082568928","802.9411539486954","447.0588109897498","f","true","match","img/ellipse.png","弱我","弱我","prac_ALT2_ability","practice_ability","","","","","","","",""
"null","<span style='color:GreenYellow; font-size: 70px;'>正确! </span>","null","html-keyboard-response","103","291656","0.0-8.0-1.0-1.0-0.0-1.46","5","5","6","3","3","5","1","4","4","5","5","2","0","0","1","0","1","2","1","4","5","4","5","4","5","4","4","5","4","8","7","8","7","5","6","6","7","8","5","2","2","4","5","2","5","2","5","5","5","2","7","1","7","6","5","2","5","5","1","5","2","5","3","7","5","6","6","7","5","6","5","5","2","7","3","6","3","5","598944297026322432","刘","592","Male","[""好他"",""坏他"",""好我"",""坏我""]","[""强他"",""弱他"",""强我"",""弱我""]","","","","","","","","","","","","","","","","","","","","","","","","","","","","","","feedback_test","","","","","","","",""
"740","","f","psychophysics","104","293399","0.0-8.0-1.0-1.0-0.0-0.47","5","5","6","3","3","5","1","4","4","5","5","2","0","0","1","0","1","2","1","4","5","4","5","4","5","4","4","5","4","8","7","8","7","5","6","6","7","8","5","2","2","4","5","2","5","2","5","5","5","2","7","1","7","6","5","2","5","5","1","5","2","5","3","7","5","6","6","7","5","6","5","5","2","7","3","6","3","5","598944297026322432","刘","592","Male","[""好他"",""坏他"",""好我"",""坏我""]","[""强他"",""弱他"",""强我"",""弱我""]","","","","","","","","match","","","","","","","","","","key","f","16.605427184465988","802.9411539486954","447.0588109897498","j","false","nonmatch","img/hexagon.png","弱他","强他","prac_ALT2_ability","practice_ability","","","","","","","",""
"null","<span style='color:red; font-size: 70px;'>错误! </span>","null","html-keyboard-response","105","293901","0.0-8.0-1.0-1.0-0.0-1.47","5","5","6","3","3","5","1","4","4","5","5","2","0","0","1","0","1","2","1","4","5","4","5","4","5","4","4","5","4","8","7","8","7","5","6","6","7","8","5","2","2","4","5","2","5","2","5","5","5","2","7","1","7","6","5","2","5","5","1","5","2","5","3","7","5","6","6","7","5","6","5","5","2","7","3","6","3","5","598944297026322432","刘","592","Male","[""好他"",""坏他"",""好我"",""坏我""]","[""强他"",""弱他"",""强我"",""弱我""]","","","","","","","","","","","","","","","","","","","","","","","","","","","","","","feedback_test","","","","","","","",""
"16226","<style>.context{color:white; font-size: 35px; line-height:40px}</style>                          <div><p class='context'>您正确回答了75% 的试次。</p><p class='context'>您的平均反应时为871毫秒。</p><p class='context'>恭喜您完成练习。按空格键进入正式实验。</p><p class='footer' style='color:white;font-size: 35px; line-height:40px;'>请在进入正式实验实验之前将您的<span style='color: lightgreen;'>食指</span>放在电脑键盘的相应键位上进行按键。</p>"," ","html-keyboard-response","106","310129","0.0-8.0-1.0-2.0","5","5","6","3","3","5","1","4","4","5","5","2","0","0","1","0","1","2","1","4","5","4","5","4","5","4","4","5","4","8","7","8","7","5","6","6","7","8","5","2","2","4","5","2","5","2","5","5","5","2","7","1","7","6","5","2","5","5","1","5","2","5","3","7","5","6","6","7","5","6","5","5","2","7","3","6","3","5","598944297026322432","刘","592","Male","[""好他"",""坏他"",""好我"",""坏我""]","[""强他"",""弱他"",""强我"",""弱我""]","","","","","","","","","","","","","","","","","","","","","","","","","","","","","","","","","","","","","",""
"1687","
  <p style='color: white; font-size: 22px'>请您将手指放在按键上，准备进入正式的匹配任务。</p>
  <p> <div style = ""color: green""><按空格键进入下一阶段的匹配任务></div></p>
  "," ","html-keyboard-response","107","311822","0.0-8.0-1.0-3.0","5","5","6","3","3","5","1","4","4","5","5","2","0","0","1","0","1","2","1","4","5","4","5","4","5","4","4","5","4","8","7","8","7","5","6","6","7","8","5","2","2","4","5","2","5","2","5","5","5","2","7","1","7","6","5","2","5","5","1","5","2","5","3","7","5","6","6","7","5","6","5","5","2","7","3","6","3","5","598944297026322432","刘","592","Male","[""好他"",""坏他"",""好我"",""坏我""]","[""强他"",""弱他"",""强我"",""弱我""]","","","","","","","","","","","","","","","","","","","","","","","","","","","","","","","","","","","","","",""
"984","","j","psychophysics","108","313807","0.0-8.0-1.0-4.0-0.0-0.0","5","5","6","3","3","5","1","4","4","5","5","2","0","0","1","0","1","2","1","4","5","4","5","4","5","4","4","5","4","8","7","8","7","5","6","6","7","8","5","2","2","4","5","2","5","2","5","5","5","2","7","1","7","6","5","2","5","5","1","5","2","5","3","7","5","6","6","7","5","6","5","5","2","7","3","6","3","5","598944297026322432","刘","592","Male","[""好他"",""坏他"",""好我"",""坏我""]","[""强他"",""弱他"",""强我"",""弱我""]","","","","","","","","nonmatch","","","","","","","","","","key","j","16.676703389830713","802.9411539486954","447.0588109897498","j","true","nonmatch","img/ellipse.png","弱他","弱我","ALT2","ability","","","","","","","",""
"null","<span style='color:GreenYellow; font-size: 70px;'>正确! </span>","null","html-keyboard-response","109","314308","0.0-8.0-1.0-4.0-0.0-1.0","5","5","6","3","3","5","1","4","4","5","5","2","0","0","1","0","1","2","1","4","5","4","5","4","5","4","4","5","4","8","7","8","7","5","6","6","7","8","5","2","2","4","5","2","5","2","5","5","5","2","7","1","7","6","5","2","5","5","1","5","2","5","3","7","5","6","6","7","5","6","5","5","2","7","3","6","3","5","598944297026322432","刘","592","Male","[""好他"",""坏他"",""好我"",""坏我""]","[""强他"",""弱他"",""强我"",""弱我""]","","","","","","","","","","","","","","","","","","","","","","","","","","","","","","feedback_test","","","","","","","",""
"615","","f","psychophysics","110","315924","0.0-8.0-1.0-4.0-0.0-0.1","5","5","6","3","3","5","1","4","4","5","5","2","0","0","1","0","1","2","1","4","5","4","5","4","5","4","4","5","4","8","7","8","7","5","6","6","7","8","5","2","2","4","5","2","5","2","5","5","5","2","7","1","7","6","5","2","5","5","1","5","2","5","3","7","5","6","6","7","5","6","5","5","2","7","3","6","3","5","598944297026322432","刘","592","Male","[""好他"",""坏他"",""好我"",""坏我""]","[""强他"",""弱他"",""强我"",""弱我""]","","","","","","","","match","","","","","","","","","","key","f","16.67418750000009","802.9411539486954","447.0588109897498","f","true","match","img/square.png","强我","强我","ALT2","ability","","","","","","","",""
"null","<span style='color:GreenYellow; font-size: 70px;'>正确! </span>","null","html-keyboard-response","111","316439","0.0-8.0-1.0-4.0-0.0-1.1","5","5","6","3","3","5","1","4","4","5","5","2","0","0","1","0","1","2","1","4","5","4","5","4","5","4","4","5","4","8","7","8","7","5","6","6","7","8","5","2","2","4","5","2","5","2","5","5","5","2","7","1","7","6","5","2","5","5","1","5","2","5","3","7","5","6","6","7","5","6","5","5","2","7","3","6","3","5","598944297026322432","刘","592","Male","[""好他"",""坏他"",""好我"",""坏我""]","[""强他"",""弱他"",""强我"",""弱我""]","","","","","","","","","","","","","","","","","","","","","","","","","","","","","","feedback_test","","","","","","","",""
"901","","f","psychophysics","112","318342","0.0-8.0-1.0-4.0-0.0-0.2","5","5","6","3","3","5","1","4","4","5","5","2","0","0","1","0","1","2","1","4","5","4","5","4","5","4","4","5","4","8","7","8","7","5","6","6","7","8","5","2","2","4","5","2","5","2","5","5","5","2","7","1","7","6","5","2","5","5","1","5","2","5","3","7","5","6","6","7","5","6","5","5","2","7","3","6","3","5","598944297026322432","刘","592","Male","[""好他"",""坏他"",""好我"",""坏我""]","[""强他"",""弱他"",""强我"",""弱我""]","","","","","","","","match","","","","","","","","","","key","f","16.67531858407068","802.9411539486954","447.0588109897498","f","true","match","img/hexagon.png","强他","强他","ALT2","ability","","","","","","","",""
"null","<span style='color:GreenYellow; font-size: 70px;'>正确! </span>","null","html-keyboard-response","113","318843","0.0-8.0-1.0-4.0-0.0-1.2","5","5","6","3","3","5","1","4","4","5","5","2","0","0","1","0","1","2","1","4","5","4","5","4","5","4","4","5","4","8","7","8","7","5","6","6","7","8","5","2","2","4","5","2","5","2","5","5","5","2","7","1","7","6","5","2","5","5","1","5","2","5","3","7","5","6","6","7","5","6","5","5","2","7","3","6","3","5","598944297026322432","刘","592","Male","[""好他"",""坏他"",""好我"",""坏我""]","[""强他"",""弱他"",""强我"",""弱我""]","","","","","","","","","","","","","","","","","","","","","","","","","","","","","","feedback_test","","","","","","","",""
"806","","j","psychophysics","114","320652","0.0-8.0-1.0-4.0-0.0-0.3","5","5","6","3","3","5","1","4","4","5","5","2","0","0","1","0","1","2","1","4","5","4","5","4","5","4","4","5","4","8","7","8","7","5","6","6","7","8","5","2","2","4","5","2","5","2","5","5","5","2","7","1","7","6","5","2","5","5","1","5","2","5","3","7","5","6","6","7","5","6","5","5","2","7","3","6","3","5","598944297026322432","刘","592","Male","[""好他"",""坏他"",""好我"",""坏我""]","[""强他"",""弱他"",""强我"",""弱我""]","","","","","","","","nonmatch","","","","","","","","","","key","j","16.677626168224243","802.9411539486954","447.0588109897498","f","false","match","img/triangle.png","弱他","弱他","ALT2","ability","","","","","","","",""
"null","<span style='color:red; font-size: 70px;'>错误! </span>","null","html-keyboard-response","115","321153","0.0-8.0-1.0-4.0-0.0-1.3","5","5","6","3","3","5","1","4","4","5","5","2","0","0","1","0","1","2","1","4","5","4","5","4","5","4","4","5","4","8","7","8","7","5","6","6","7","8","5","2","2","4","5","2","5","2","5","5","5","2","7","1","7","6","5","2","5","5","1","5","2","5","3","7","5","6","6","7","5","6","5","5","2","7","3","6","3","5","598944297026322432","刘","592","Male","[""好他"",""坏他"",""好我"",""坏我""]","[""强他"",""弱他"",""强我"",""弱我""]","","","","","","","","","","","","","","","","","","","","","","","","","","","","","","feedback_test","","","","","","","",""
"1034","","j","psychophysics","116","323189","0.0-8.0-1.0-4.0-0.0-0.4","5","5","6","3","3","5","1","4","4","5","5","2","0","0","1","0","1","2","1","4","5","4","5","4","5","4","4","5","4","8","7","8","7","5","6","6","7","8","5","2","2","4","5","2","5","2","5","5","5","2","7","1","7","6","5","2","5","5","1","5","2","5","3","7","5","6","6","7","5","6","5","5","2","7","3","6","3","5","598944297026322432","刘","592","Male","[""好他"",""坏他"",""好我"",""坏我""]","[""强他"",""弱他"",""强我"",""弱我""]","","","","","","","","nonmatch","","","","","","","","","","key","j","16.674495867768606","802.9411539486954","447.0588109897498","j","true","nonmatch","img/triangle.png","弱我","弱他","ALT2","ability","","","","","","","",""
"null","<span style='color:GreenYellow; font-size: 70px;'>正确! </span>","null","html-keyboard-response","117","323691","0.0-8.0-1.0-4.0-0.0-1.4","5","5","6","3","3","5","1","4","4","5","5","2","0","0","1","0","1","2","1","4","5","4","5","4","5","4","4","5","4","8","7","8","7","5","6","6","7","8","5","2","2","4","5","2","5","2","5","5","5","2","7","1","7","6","5","2","5","5","1","5","2","5","3","7","5","6","6","7","5","6","5","5","2","7","3","6","3","5","598944297026322432","刘","592","Male","[""好他"",""坏他"",""好我"",""坏我""]","[""强他"",""弱他"",""强我"",""弱我""]","","","","","","","","","","","","","","","","","","","","","","","","","","","","","","feedback_test","","","","","","","",""
"819","","f","psychophysics","118","325512","0.0-8.0-1.0-4.0-0.0-0.5","5","5","6","3","3","5","1","4","4","5","5","2","0","0","1","0","1","2","1","4","5","4","5","4","5","4","4","5","4","8","7","8","7","5","6","6","7","8","5","2","2","4","5","2","5","2","5","5","5","2","7","1","7","6","5","2","5","5","1","5","2","5","3","7","5","6","6","7","5","6","5","5","2","7","3","6","3","5","598944297026322432","刘","592","Male","[""好他"",""坏他"",""好我"",""坏我""]","[""强他"",""弱他"",""强我"",""弱我""]","","","","","","","","match","","","","","","","","","","key","f","16.674166666666647","802.9411539486954","447.0588109897498","f","true","match","img/ellipse.png","弱我","弱我","ALT2","ability","","","","","","","",""
"null","<span style='color:GreenYellow; font-size: 70px;'>正确! </span>","null","html-keyboard-response","119","326020","0.0-8.0-1.0-4.0-0.0-1.5","5","5","6","3","3","5","1","4","4","5","5","2","0","0","1","0","1","2","1","4","5","4","5","4","5","4","4","5","4","8","7","8","7","5","6","6","7","8","5","2","2","4","5","2","5","2","5","5","5","2","7","1","7","6","5","2","5","5","1","5","2","5","3","7","5","6","6","7","5","6","5","5","2","7","3","6","3","5","598944297026322432","刘","592","Male","[""好他"",""坏他"",""好我"",""坏我""]","[""强他"",""弱他"",""强我"",""弱我""]","","","","","","","","","","","","","","","","","","","","","","","","","","","","","","feedback_test","","","","","","","",""
"728","","f","psychophysics","120","327752","0.0-8.0-1.0-4.0-0.0-0.6","5","5","6","3","3","5","1","4","4","5","5","2","0","0","1","0","1","2","1","4","5","4","5","4","5","4","4","5","4","8","7","8","7","5","6","6","7","8","5","2","2","4","5","2","5","2","5","5","5","2","7","1","7","6","5","2","5","5","1","5","2","5","3","7","5","6","6","7","5","6","5","5","2","7","3","6","3","5","598944297026322432","刘","592","Male","[""好他"",""坏他"",""好我"",""坏我""]","[""强他"",""弱他"",""强我"",""弱我""]","","","","","","","","match","","","","","","","","","","key","f","16.605598039215764","802.9411539486954","447.0588109897498","f","true","match","img/square.png","强我","强我","ALT2","ability","","","","","","","",""
"null","<span style='color:GreenYellow; font-size: 70px;'>正确! </span>","null","html-keyboard-response","121","328254","0.0-8.0-1.0-4.0-0.0-1.6","5","5","6","3","3","5","1","4","4","5","5","2","0","0","1","0","1","2","1","4","5","4","5","4","5","4","4","5","4","8","7","8","7","5","6","6","7","8","5","2","2","4","5","2","5","2","5","5","5","2","7","1","7","6","5","2","5","5","1","5","2","5","3","7","5","6","6","7","5","6","5","5","2","7","3","6","3","5","598944297026322432","刘","592","Male","[""好他"",""坏他"",""好我"",""坏我""]","[""强他"",""弱他"",""强我"",""弱我""]","","","","","","","","","","","","","","","","","","","","","","","","","","","","","","feedback_test","","","","","","","",""
"877","","j","psychophysics","122","330132","0.0-8.0-1.0-4.0-0.0-0.7","5","5","6","3","3","5","1","4","4","5","5","2","0","0","1","0","1","2","1","4","5","4","5","4","5","4","4","5","4","8","7","8","7","5","6","6","7","8","5","2","2","4","5","2","5","2","5","5","5","2","7","1","7","6","5","2","5","5","1","5","2","5","3","7","5","6","6","7","5","6","5","5","2","7","3","6","3","5","598944297026322432","刘","592","Male","[""好他"",""坏他"",""好我"",""坏我""]","[""强他"",""弱他"",""强我"",""弱我""]","","","","","","","","nonmatch","","","","","","","","","","key","j","16.67474107142854","802.9411539486954","447.0588109897498","j","true","nonmatch","img/square.png","强他","强我","ALT2","ability","","","","","","","",""
"null","<span style='color:GreenYellow; font-size: 70px;'>正确! </span>","null","html-keyboard-response","123","330645","0.0-8.0-1.0-4.0-0.0-1.7","5","5","6","3","3","5","1","4","4","5","5","2","0","0","1","0","1","2","1","4","5","4","5","4","5","4","4","5","4","8","7","8","7","5","6","6","7","8","5","2","2","4","5","2","5","2","5","5","5","2","7","1","7","6","5","2","5","5","1","5","2","5","3","7","5","6","6","7","5","6","5","5","2","7","3","6","3","5","598944297026322432","刘","592","Male","[""好他"",""坏他"",""好我"",""坏我""]","[""强他"",""弱他"",""强我"",""弱我""]","","","","","","","","","","","","","","","","","","","","","","","","","","","","","","feedback_test","","","","","","","",""
"772","","j","psychophysics","124","332418","0.0-8.0-1.0-4.0-0.0-0.8","5","5","6","3","3","5","1","4","4","5","5","2","0","0","1","0","1","2","1","4","5","4","5","4","5","4","4","5","4","8","7","8","7","5","6","6","7","8","5","2","2","4","5","2","5","2","5","5","5","2","7","1","7","6","5","2","5","5","1","5","2","5","3","7","5","6","6","7","5","6","5","5","2","7","3","6","3","5","598944297026322432","刘","592","Male","[""好他"",""坏他"",""好我"",""坏我""]","[""强他"",""弱他"",""强我"",""弱我""]","","","","","","","","nonmatch","","","","","","","","","","key","j","16.674228571428518","802.9411539486954","447.0588109897498","j","true","nonmatch","img/square.png","弱他","强我","ALT2","ability","","","","","","","",""
"null","<span style='color:GreenYellow; font-size: 70px;'>正确! </span>","null","html-keyboard-response","125","332921","0.0-8.0-1.0-4.0-0.0-1.8","5","5","6","3","3","5","1","4","4","5","5","2","0","0","1","0","1","2","1","4","5","4","5","4","5","4","4","5","4","8","7","8","7","5","6","6","7","8","5","2","2","4","5","2","5","2","5","5","5","2","7","1","7","6","5","2","5","5","1","5","2","5","3","7","5","6","6","7","5","6","5","5","2","7","3","6","3","5","598944297026322432","刘","592","Male","[""好他"",""坏他"",""好我"",""坏我""]","[""强他"",""弱他"",""强我"",""弱我""]","","","","","","","","","","","","","","","","","","","","","","","","","","","","","","feedback_test","","","","","","","",""
"1115","","j","psychophysics","126","335037","0.0-8.0-1.0-4.0-0.0-0.9","5","5","6","3","3","5","1","4","4","5","5","2","0","0","1","0","1","2","1","4","5","4","5","4","5","4","4","5","4","8","7","8","7","5","6","6","7","8","5","2","2","4","5","2","5","2","5","5","5","2","7","1","7","6","5","2","5","5","1","5","2","5","3","7","5","6","6","7","5","6","5","5","2","7","3","6","3","5","598944297026322432","刘","592","Male","[""好他"",""坏他"",""好我"",""坏我""]","[""强他"",""弱他"",""强我"",""弱我""]","","","","","","","","nonmatch","","","","","","","","","","key","j","16.67663492063487","802.9411539486954","447.0588109897498","j","true","nonmatch","img/hexagon.png","弱他","强他","ALT2","ability","","","","","","","",""
"null","<span style='color:GreenYellow; font-size: 70px;'>正确! </span>","null","html-keyboard-response","127","335539","0.0-8.0-1.0-4.0-0.0-1.9","5","5","6","3","3","5","1","4","4","5","5","2","0","0","1","0","1","2","1","4","5","4","5","4","5","4","4","5","4","8","7","8","7","5","6","6","7","8","5","2","2","4","5","2","5","2","5","5","5","2","7","1","7","6","5","2","5","5","1","5","2","5","3","7","5","6","6","7","5","6","5","5","2","7","3","6","3","5","598944297026322432","刘","592","Male","[""好他"",""坏他"",""好我"",""坏我""]","[""强他"",""弱他"",""强我"",""弱我""]","","","","","","","","","","","","","","","","","","","","","","","","","","","","","","feedback_test","","","","","","","",""
"773","","f","psychophysics","128","337314","0.0-8.0-1.0-4.0-0.0-0.10","5","5","6","3","3","5","1","4","4","5","5","2","0","0","1","0","1","2","1","4","5","4","5","4","5","4","4","5","4","8","7","8","7","5","6","6","7","8","5","2","2","4","5","2","5","2","5","5","5","2","7","1","7","6","5","2","5","5","1","5","2","5","3","7","5","6","6","7","5","6","5","5","2","7","3","6","3","5","598944297026322432","刘","592","Male","[""好他"",""坏他"",""好我"",""坏我""]","[""强他"",""弱他"",""强我"",""弱我""]","","","","","","","","match","","","","","","","","","","key","f","16.674471698113265","802.9411539486954","447.0588109897498","f","true","match","img/ellipse.png","弱我","弱我","ALT2","ability","","","","","","","",""
"null","<span style='color:GreenYellow; font-size: 70px;'>正确! </span>","null","html-keyboard-response","129","337815","0.0-8.0-1.0-4.0-0.0-1.10","5","5","6","3","3","5","1","4","4","5","5","2","0","0","1","0","1","2","1","4","5","4","5","4","5","4","4","5","4","8","7","8","7","5","6","6","7","8","5","2","2","4","5","2","5","2","5","5","5","2","7","1","7","6","5","2","5","5","1","5","2","5","3","7","5","6","6","7","5","6","5","5","2","7","3","6","3","5","598944297026322432","刘","592","Male","[""好他"",""坏他"",""好我"",""坏我""]","[""强他"",""弱他"",""强我"",""弱我""]","","","","","","","","","","","","","","","","","","","","","","","","","","","","","","feedback_test","","","","","","","",""
"954","","j","psychophysics","130","339770","0.0-8.0-1.0-4.0-0.0-0.11","5","5","6","3","3","5","1","4","4","5","5","2","0","0","1","0","1","2","1","4","5","4","5","4","5","4","4","5","4","8","7","8","7","5","6","6","7","8","5","2","2","4","5","2","5","2","5","5","5","2","7","1","7","6","5","2","5","5","1","5","2","5","3","7","5","6","6","7","5","6","5","5","2","7","3","6","3","5","598944297026322432","刘","592","Male","[""好他"",""坏他"",""好我"",""坏我""]","[""强他"",""弱他"",""强我"",""弱我""]","","","","","","","","nonmatch","","","","","","","","","","key","j","16.674646551723807","802.9411539486954","447.0588109897498","f","false","match","img/square.png","强我","强我","ALT2","ability","","","","","","","",""
"null","<span style='color:red; font-size: 70px;'>错误! </span>","null","html-keyboard-response","131","340272","0.0-8.0-1.0-4.0-0.0-1.11","5","5","6","3","3","5","1","4","4","5","5","2","0","0","1","0","1","2","1","4","5","4","5","4","5","4","4","5","4","8","7","8","7","5","6","6","7","8","5","2","2","4","5","2","5","2","5","5","5","2","7","1","7","6","5","2","5","5","1","5","2","5","3","7","5","6","6","7","5","6","5","5","2","7","3","6","3","5","598944297026322432","刘","592","Male","[""好他"",""坏他"",""好我"",""坏我""]","[""强他"",""弱他"",""强我"",""弱我""]","","","","","","","","","","","","","","","","","","","","","","","","","","","","","","feedback_test","","","","","","","",""
"804","","f","psychophysics","132","342077","0.0-8.0-1.0-4.0-0.0-0.12","5","5","6","3","3","5","1","4","4","5","5","2","0","0","1","0","1","2","1","4","5","4","5","4","5","4","4","5","4","8","7","8","7","5","6","6","7","8","5","2","2","4","5","2","5","2","5","5","5","2","7","1","7","6","5","2","5","5","1","5","2","5","3","7","5","6","6","7","5","6","5","5","2","7","3","6","3","5","598944297026322432","刘","592","Male","[""好他"",""坏他"",""好我"",""坏我""]","[""强他"",""弱他"",""强我"",""弱我""]","","","","","","","","match","","","","","","","","","","key","f","16.67463551401857","802.9411539486954","447.0588109897498","j","false","nonmatch","img/hexagon.png","强我","强他","ALT2","ability","","","","","","","",""
"null","<span style='color:red; font-size: 70px;'>错误! </span>","null","html-keyboard-response","133","342578","0.0-8.0-1.0-4.0-0.0-1.12","5","5","6","3","3","5","1","4","4","5","5","2","0","0","1","0","1","2","1","4","5","4","5","4","5","4","4","5","4","8","7","8","7","5","6","6","7","8","5","2","2","4","5","2","5","2","5","5","5","2","7","1","7","6","5","2","5","5","1","5","2","5","3","7","5","6","6","7","5","6","5","5","2","7","3","6","3","5","598944297026322432","刘","592","Male","[""好他"",""坏他"",""好我"",""坏我""]","[""强他"",""弱他"",""强我"",""弱我""]","","","","","","","","","","","","","","","","","","","","","","","","","","","","","","feedback_test","","","","","","","",""
"953","","j","psychophysics","134","344537","0.0-8.0-1.0-4.0-0.0-0.13","5","5","6","3","3","5","1","4","4","5","5","2","0","0","1","0","1","2","1","4","5","4","5","4","5","4","4","5","4","8","7","8","7","5","6","6","7","8","5","2","2","4","5","2","5","2","5","5","5","2","7","1","7","6","5","2","5","5","1","5","2","5","3","7","5","6","6","7","5","6","5","5","2","7","3","6","3","5","598944297026322432","刘","592","Male","[""好他"",""坏他"",""好我"",""坏我""]","[""强他"",""弱他"",""强我"",""弱我""]","","","","","","","","nonmatch","","","","","","","","","","key","j","16.67752136752103","802.9411539486954","447.0588109897498","j","true","nonmatch","img/triangle.png","强我","弱他","ALT2","ability","","","","","","","",""
"null","<span style='color:GreenYellow; font-size: 70px;'>正确! </span>","null","html-keyboard-response","135","345039","0.0-8.0-1.0-4.0-0.0-1.13","5","5","6","3","3","5","1","4","4","5","5","2","0","0","1","0","1","2","1","4","5","4","5","4","5","4","4","5","4","8","7","8","7","5","6","6","7","8","5","2","2","4","5","2","5","2","5","5","5","2","7","1","7","6","5","2","5","5","1","5","2","5","3","7","5","6","6","7","5","6","5","5","2","7","3","6","3","5","598944297026322432","刘","592","Male","[""好他"",""坏他"",""好我"",""坏我""]","[""强他"",""弱他"",""强我"",""弱我""]","","","","","","","","","","","","","","","","","","","","","","","","","","","","","","feedback_test","","","","","","","",""
"821","","j","psychophysics","136","346861","0.0-8.0-1.0-4.0-0.0-0.14","5","5","6","3","3","5","1","4","4","5","5","2","0","0","1","0","1","2","1","4","5","4","5","4","5","4","4","5","4","8","7","8","7","5","6","6","7","8","5","2","2","4","5","2","5","2","5","5","5","2","7","1","7","6","5","2","5","5","1","5","2","5","3","7","5","6","6","7","5","6","5","5","2","7","3","6","3","5","598944297026322432","刘","592","Male","[""好他"",""坏他"",""好我"",""坏我""]","[""强他"",""弱他"",""强我"",""弱我""]","","","","","","","","nonmatch","","","","","","","","","","key","j","16.674148148148326","802.9411539486954","447.0588109897498","j","true","nonmatch","img/square.png","弱我","强我","ALT2","ability","","","","","","","",""
"null","<span style='color:GreenYellow; font-size: 70px;'>正确! </span>","null","html-keyboard-response","137","347362","0.0-8.0-1.0-4.0-0.0-1.14","5","5","6","3","3","5","1","4","4","5","5","2","0","0","1","0","1","2","1","4","5","4","5","4","5","4","4","5","4","8","7","8","7","5","6","6","7","8","5","2","2","4","5","2","5","2","5","5","5","2","7","1","7","6","5","2","5","5","1","5","2","5","3","7","5","6","6","7","5","6","5","5","2","7","3","6","3","5","598944297026322432","刘","592","Male","[""好他"",""坏他"",""好我"",""坏我""]","[""强他"",""弱他"",""强我"",""弱我""]","","","","","","","","","","","","","","","","","","","","","","","","","","","","","","feedback_test","","","","","","","",""
