"rt","stimulus","response","trial_type","trial_index","time_elapsed","internal_node_id","swb_1","swb_2","swb_3","swb_4","swb_5","LOT_1","LOT_2","LOT_3","LOT_4","LOT_5","LOT_6","IPC_1","IPC_2","IPC_3","IPC_4","IPC_5","IPC_6","IPC_7","IPC_8","MorIden_1","MorIden_2","MorIden_3","MorIden_4","MorIden_5","MorIden_6","MorIden_7","MorIden_8","MorIden_9","MorIden_10","moralSeImag_1","moralSeImag_2","moralSeImag_3","moralSeImag_4","moralSeImag_5","moralSeImag_6","moralSeImag_7","moralSeImag_8","moralSeImag_9","sde_1","sde_2","sde_3","sde_4","sde_5","sde_6","sde_7","sde_8","sde_9","sde_10","sde_11","sde_12","sde_13","sde_14","sde_15","sde_16","sde_17","sde_18","sde_19","sde_20","IM_1","IM_2","IM_3","IM_4","IM_5","IM_6","IM_7","IM_8","IM_9","IM_10","IM_11","IM_12","IM_13","IM_14","IM_15","IM_16","IM_17","IM_18","IM_19","IM_20","subj_idx","friend_name","ParticipantID","Sex","Word","Word2","value","success","timeout","failed_images","failed_audio","failed_video","user_agent","responses","item_order","radio_event_ids","radio_event_times","key_event_times","mouse_event_times","straightlining","zigzagging","honeypot","task_id","screen_id","time_stamp","response_type","key_press","avg_frame_time","center_x","center_y","person","word","valence","domain","math","correct_response","correct","status","identity","view_history","duration","Image","condition","question_order"
"4905","
   <p><div style='color:white; font-size: 25px'>您好，欢迎参加本次实验。</div></p>
   <p><div style='color:white; font-size: 25px'>为充分保障您的权利，请确保您已经知晓并同意《参与实验同意书》以及《数据公开知情同意书》。</div></p>
   <p><div style='color:white; font-size: 25px'>如果您未见过上述内容，请咨询实验员。</div></p>
   <p style='color:white; font-size: 25px'>如果您选择继续实验，则表示您已经清楚两份知情同意书的内容并同意。</p>
   <p> <div style = ""color: green""><按空格键至下页></div> </p>
   "," ","html-keyboard-response","0","4908","0.0-0.0","4","3","4","5","3","4","3","4","4","4","5","1","0","1","2","-1","1","1","2","4","5","5","5","5","4","4","5","4","5","6","5","3","3","2","4","7","6","7","6","2","3","6","6","3","4","1","4","3","3","2","6","3","1","4","3","4","5","2","3","4","2","1","2","5","3","7","3","7","4","2","4","1","2","5","2","4","3","3","729263916630413313","王","693","Female","[""坏她"",""坏我"",""好她"",""好我""]","[""弱她"",""弱我"",""强她"",""强我""]","","","","","","","","","","","","","","","","","","","","","","","","","","","","","","","","","","","","","",""
"","","","call-function","1","4908","0.0-1.0-0.0","4","3","4","5","3","4","3","4","4","4","5","1","0","1","2","-1","1","1","2","4","5","5","5","5","4","4","5","4","5","6","5","3","3","2","4","7","6","7","6","2","3","6","6","3","4","1","4","3","3","2","6","3","1","4","3","4","5","2","3","4","2","1","2","5","3","7","3","7","4","2","4","1","2","5","2","4","3","3","729263916630413313","王","693","Female","[""坏她"",""坏我"",""好她"",""好我""]","[""弱她"",""弱我"",""强她"",""强我""]","","","","","","","","","","","","","","","","","","","","","","","","","","","","","","","","","","","","","",""
"18491","","[{""name"":""Sex"",""value"":""1""},{""name"":""friend_name"",""value"":""王""},{""name"":""ParticipantID"",""value"":""693""}]","survey-html-form","2","23401","0.0-1.0-1.0","4","3","4","5","3","4","3","4","4","4","5","1","0","1","2","-1","1","1","2","4","5","5","5","5","4","4","5","4","5","6","5","3","3","2","4","7","6","7","6","2","3","6","6","3","4","1","4","3","3","2","6","3","1","4","3","4","5","2","3","4","2","1","2","5","3","7","3","7","4","2","4","1","2","5","2","4","3","3","729263916630413313","王","693","Female","[""坏她"",""坏我"",""好她"",""好我""]","[""弱她"",""弱我"",""强她"",""强我""]","","","","","","","","","","","","","","","","","","","","","","","","","","","","","","","","","","","","","",""
"","","","preload","3","24097","0.0-2.0","4","3","4","5","3","4","3","4","4","4","5","1","0","1","2","-1","1","1","2","4","5","5","5","5","4","4","5","4","5","6","5","3","3","2","4","7","6","7","6","2","3","6","6","3","4","1","4","3","3","2","6","3","1","4","3","4","5","2","3","4","2","1","2","5","3","7","3","7","4","2","4","1","2","5","2","4","3","3","729263916630413313","王","693","Female","[""坏她"",""坏我"",""好她"",""好我""]","[""弱她"",""弱我"",""强她"",""强我""]","","true","false","[]","[]","[]","","","","","","","","","","","","","","","","","","","","","","","","","","","","","","","",""
"","","","fullscreen","4","26181","0.0-3.0","4","3","4","5","3","4","3","4","4","4","5","1","0","1","2","-1","1","1","2","4","5","5","5","5","4","4","5","4","5","6","5","3","3","2","4","7","6","7","6","2","3","6","6","3","4","1","4","3","3","2","6","3","1","4","3","4","5","2","3","4","2","1","2","5","3","7","3","7","4","2","4","1","2","5","2","4","3","3","729263916630413313","王","693","Female","[""坏她"",""坏我"",""好她"",""好我""]","[""弱她"",""弱我"",""强她"",""强我""]","","true","","","","","{}","","","","","","","","","","","","","","","","","","","","","","","","","","","","","","",""
"17686.69999998808","","{""Q01"":""4"",""Q02"":""3"",""Q03"":""4"",""Q04"":""5"",""Q05"":""3""}","survey-template","5","43870","0.0-4.0","4","3","4","5","3","4","3","4","4","4","5","1","0","1","2","-1","1","1","2","4","5","5","5","5","4","4","5","4","5","6","5","3","3","2","4","7","6","7","6","2","3","6","6","3","4","1","4","3","3","2","6","3","1","4","3","4","5","2","3","4","2","1","2","5","3","7","3","7","4","2","4","1","2","5","2","4","3","3","729263916630413313","王","693","Female","[""坏她"",""坏我"",""好她"",""好我""]","[""弱她"",""弱我"",""强她"",""强我""]","","","","","","","","{""Q01"":""4"",""Q02"":""3"",""Q03"":""4"",""Q04"":""5"",""Q05"":""3""}","[0,1,2,3,4]","[""Q01"",""Q02"",""Q03"",""Q04"",""Q05""]","[7687.800000011921,9747.699999988079,10973.600000023842,15677.699999988079,16801.400000035763]","[]","[6308.100000023842,7687.800000011921,9747.699999988079,10973.600000023842,14278.100000023842,15677.699999988079,16801.400000035763,17685.5]","0.4","0.75","0","","","","","","","","","","","","","","","","","","","","","",""
"19852.600000023842","","{""Q01"":""4"",""Q02"":""3"",""Q03"":""4"",""Q04"":""4"",""Q05"":""4"",""Q06"":""5""}","survey-template","6","63728","0.0-5.0","4","3","4","5","3","4","3","4","4","4","5","1","0","1","2","-1","1","1","2","4","5","5","5","5","4","4","5","4","5","6","5","3","3","2","4","7","6","7","6","2","3","6","6","3","4","1","4","3","3","2","6","3","1","4","3","4","5","2","3","4","2","1","2","5","3","7","3","7","4","2","4","1","2","5","2","4","3","3","729263916630413313","王","693","Female","[""坏她"",""坏我"",""好她"",""好我""]","[""弱她"",""弱我"",""强她"",""强我""]","","","","","","","","{""Q01"":""4"",""Q02"":""3"",""Q03"":""4"",""Q04"":""4"",""Q05"":""4"",""Q06"":""5""}","[0,1,2,3,4,5]","[""Q01"",""Q02"",""Q03"",""Q04"",""Q05"",""Q06"",""Q06""]","[3612.100000023842,8006.100000023842,9614.100000023842,12458,14101.600000023842,17879.80000001192,18748.100000023842]","[]","[3072,3612.100000023842,8006.100000023842,9614.100000023842,12458,14101.600000023842,17879.80000001192,18748.100000023842,19851.80000001192]","0.3333333333333333","0.4","0","","","","","","","","","","","","","","","","","","","","","",""
"50362.30000001192","","{""Q01"":""1"",""Q02"":""0"",""Q03"":""1"",""Q04"":""2"",""Q05"":""-1"",""Q06"":""1"",""Q07"":""1"",""Q08"":""2""}","survey-template","7","114095","0.0-6.0","4","3","4","5","3","4","3","4","4","4","5","1","0","1","2","-1","1","1","2","4","5","5","5","5","4","4","5","4","5","6","5","3","3","2","4","7","6","7","6","2","3","6","6","3","4","1","4","3","3","2","6","3","1","4","3","4","5","2","3","4","2","1","2","5","3","7","3","7","4","2","4","1","2","5","2","4","3","3","729263916630413313","王","693","Female","[""坏她"",""坏我"",""好她"",""好我""]","[""弱她"",""弱我"",""强她"",""强我""]","","","","","","","","{""Q01"":""1"",""Q02"":""0"",""Q03"":""1"",""Q04"":""2"",""Q05"":""-1"",""Q06"":""1"",""Q07"":""1"",""Q08"":""2""}","[0,1,2,3,4,5,6,7]","[""Q01"",""Q02"",""Q02"",""Q03"",""Q04"",""Q05"",""Q05"",""Q06"",""Q07"",""Q08""]","[5677,7280.800000011921,9176.5,34152.80000001192,37596.90000003576,40386.80000001192,42814.5,44890.69999998808,47840.80000001192,49632.5]","[]","[3548.600000023842,4748.800000011921,5677,7280.800000011921,9176.5,32816.60000002384,33512.80000001192,34152.80000001192,37596.90000003576,40386.80000001192,42014.5,42814.5,44890.69999998808,47840.80000001192,49632.5,50361]","0.5","0.5714285714285714","0","","","","","","","","","","","","","","","","","","","","","",""
"10341","
    <p><div style='color:white;font-size:35px; line-height:20px;'>词汇评估任务</div></p><br>
    <p><div style='color:white;font-size:25px; line-height:20px;'>请再次回忆该亲密的朋友，你们至少2年前就认识了，并且最近2年经常见面。</div></p>
    <p><div style='color:white;font-size:25px; line-height:20px;'>在本实验中，您将会看到一些形容词。</div></p>
    <p><div style='color:yellow;font-size:25px; line-height:20px;'>您的任务是判断这些形容词是否符合对您自己或您的朋友的描述。</div></p><p style='font-size:35px'>符合按<span style=""color:lightgreen""> j 键</span>，不符合按<span style=""color:red""> f 键</span></p>","0","html-button-response","8","124439","0.0-7.0-0.0","4","3","4","5","3","4","3","4","4","4","5","1","0","1","2","-1","1","1","2","4","5","5","5","5","4","4","5","4","5","6","5","3","3","2","4","7","6","7","6","2","3","6","6","3","4","1","4","3","3","2","6","3","1","4","3","4","5","2","3","4","2","1","2","5","3","7","3","7","4","2","4","1","2","5","2","4","3","3","729263916630413313","王","693","Female","[""坏她"",""坏我"",""好她"",""好我""]","[""弱她"",""弱我"",""强她"",""强我""]","","","","","","","","","","","","","","","","","SRET_EW","EW_instructions","Tue Oct 17 2023 22:25:49 GMT+0800 (中国标准时间)","","","","","","","","","","","","","","","","","","",""
"2049","","j","psychophysics","9","127495","0.0-7.0-1.0-0.0","4","3","4","5","3","4","3","4","4","4","5","1","0","1","2","-1","1","1","2","4","5","5","5","5","4","4","5","4","5","6","5","3","3","2","4","7","6","7","6","2","3","6","6","3","4","1","4","3","3","2","6","3","1","4","3","4","5","2","3","4","2","1","2","5","3","7","3","7","4","2","4","1","2","5","2","4","3","3","729263916630413313","王","693","Female","[""坏她"",""坏我"",""好她"",""好我""]","[""弱她"",""弱我"",""强她"",""强我""]","","","","","","","","yes","","","","","","","","","SRET_EW","EW_practice","","key","j","16.665907103825162","768","428","自己","严谨","Positive","ability","","","","","","","","","",""
"1423","","f","psychophysics","10","129923","0.0-7.0-1.0-0.1","4","3","4","5","3","4","3","4","4","4","5","1","0","1","2","-1","1","1","2","4","5","5","5","5","4","4","5","4","5","6","5","3","3","2","4","7","6","7","6","2","3","6","6","3","4","1","4","3","3","2","6","3","1","4","3","4","5","2","3","4","2","1","2","5","3","7","3","7","4","2","4","1","2","5","2","4","3","3","729263916630413313","王","693","Female","[""坏她"",""坏我"",""好她"",""好我""]","[""弱她"",""弱我"",""强她"",""强我""]","","","","","","","","no","","","","","","","","","SRET_EW","EW_practice","","key","f","16.666586206896543","768","428","自己","刻板","Negative","ability","","","","","","","","","",""
"959","","f","psychophysics","11","131888","0.0-7.0-1.0-0.2","4","3","4","5","3","4","3","4","4","4","5","1","0","1","2","-1","1","1","2","4","5","5","5","5","4","4","5","4","5","6","5","3","3","2","4","7","6","7","6","2","3","6","6","3","4","1","4","3","3","2","6","3","1","4","3","4","5","2","3","4","2","1","2","5","3","7","3","7","4","2","4","1","2","5","2","4","3","3","729263916630413313","王","693","Female","[""坏她"",""坏我"",""好她"",""好我""]","[""弱她"",""弱我"",""强她"",""强我""]","","","","","","","","no","","","","","","","","","SRET_EW","EW_practice","","key","f","16.6674957264958","768","428","朋友","徇私","Negative","morality","","","","","","","","","",""
"645","","j","psychophysics","12","133535","0.0-7.0-1.0-0.3","4","3","4","5","3","4","3","4","4","4","5","1","0","1","2","-1","1","1","2","4","5","5","5","5","4","4","5","4","5","6","5","3","3","2","4","7","6","7","6","2","3","6","6","3","4","1","4","3","3","2","6","3","1","4","3","4","5","2","3","4","2","1","2","5","3","7","3","7","4","2","4","1","2","5","2","4","3","3","729263916630413313","王","693","Female","[""坏她"",""坏我"",""好她"",""好我""]","[""弱她"",""弱我"",""强她"",""强我""]","","","","","","","","yes","","","","","","","","","SRET_EW","EW_practice","","key","j","16.667265306122374","768","428","朋友","忠实","Positive","morality","","","","","","","","","",""
"5430","
    <p><div style='color:white;font-size:35px; line-height:20px;'>请您再次阅读实验要求</div></p><br>
    <p><div style='color:white;font-size:25px; line-height:20px;'>请回忆某一个亲密的朋友，你们至少2年前就认识了，并且最近2年经常见面。</div></p>
    <p><div style='color:white;font-size:25px; line-height:20px;'>在本实验中，您将会看到一些形容词。</div></p>
    <p><div style='color:yellow;font-size:25px; line-height:20px;'>您的任务是判断这些形容词是否符合对您自己或您的朋友的描述。</div></p>
    <p><div class='footer' style='font-size:25px; line-height:20px;'>如果对本实验还有不清楚之处，请立即向实验员咨询。</p><p style='font-size:25px; line-height:20px;'>如果您明白了规则：</p><p style='font-size:22px; line-height:20px;'>请按 继续 进入正式实验</p>
    </div>
    <p style='font-size:35px'>符合按<span style=""color:lightgreen""> j 键</span>，不符合按<span style=""color:red""> f 键</span></p>","0","html-button-response","13","138967","0.0-7.0-2.0","4","3","4","5","3","4","3","4","4","4","5","1","0","1","2","-1","1","1","2","4","5","5","5","5","4","4","5","4","5","6","5","3","3","2","4","7","6","7","6","2","3","6","6","3","4","1","4","3","3","2","6","3","1","4","3","4","5","2","3","4","2","1","2","5","3","7","3","7","4","2","4","1","2","5","2","4","3","3","729263916630413313","王","693","Female","[""坏她"",""坏我"",""好她"",""好我""]","[""弱她"",""弱我"",""强她"",""强我""]","","","","","","","","","","","","","","","","","SRET_EW","prac_instructions","Tue Oct 17 2023 22:25:49 GMT+0800 (中国标准时间)","","","","","","","","","","","","","","","","","","",""
"696","","j","psychophysics","14","140667","0.0-7.0-3.0-0.0","4","3","4","5","3","4","3","4","4","4","5","1","0","1","2","-1","1","1","2","4","5","5","5","5","4","4","5","4","5","6","5","3","3","2","4","7","6","7","6","2","3","6","6","3","4","1","4","3","3","2","6","3","1","4","3","4","5","2","3","4","2","1","2","5","3","7","3","7","4","2","4","1","2","5","2","4","3","3","729263916630413313","王","693","Female","[""坏她"",""坏我"",""好她"",""好我""]","[""弱她"",""弱我"",""强她"",""强我""]","","","","","","","","yes","","","","","","","","","SRET","EW_formal","","key","j","16.66422549019626","768","428","朋友","务实","Positive","ability","","","","","","","","","",""
"465","","j","psychophysics","15","142138","0.0-7.0-3.0-0.1","4","3","4","5","3","4","3","4","4","4","5","1","0","1","2","-1","1","1","2","4","5","5","5","5","4","4","5","4","5","6","5","3","3","2","4","7","6","7","6","2","3","6","6","3","4","1","4","3","3","2","6","3","1","4","3","4","5","2","3","4","2","1","2","5","3","7","3","7","4","2","4","1","2","5","2","4","3","3","729263916630413313","王","693","Female","[""坏她"",""坏我"",""好她"",""好我""]","[""弱她"",""弱我"",""强她"",""强我""]","","","","","","","","yes","","","","","","","","","SRET","EW_formal","","key","j","16.666758620689674","768","428","自己","坚贞","Positive","morality","","","","","","","","","",""
"1119","","f","psychophysics","16","144263","0.0-7.0-3.0-0.2","4","3","4","5","3","4","3","4","4","4","5","1","0","1","2","-1","1","1","2","4","5","5","5","5","4","4","5","4","5","6","5","3","3","2","4","7","6","7","6","2","3","6","6","3","4","1","4","3","3","2","6","3","1","4","3","4","5","2","3","4","2","1","2","5","3","7","3","7","4","2","4","1","2","5","2","4","3","3","729263916630413313","王","693","Female","[""坏她"",""坏我"",""好她"",""好我""]","[""弱她"",""弱我"",""强她"",""强我""]","","","","","","","","no","","","","","","","","","SRET","EW_formal","","key","f","16.66540157480333","768","428","自己","说谎","Negative","morality","","","","","","","","","",""
"893","","j","psychophysics","17","146159","0.0-7.0-3.0-0.3","4","3","4","5","3","4","3","4","4","4","5","1","0","1","2","-1","1","1","2","4","5","5","5","5","4","4","5","4","5","6","5","3","3","2","4","7","6","7","6","2","3","6","6","3","4","1","4","3","3","2","6","3","1","4","3","4","5","2","3","4","2","1","2","5","3","7","3","7","4","2","4","1","2","5","2","4","3","3","729263916630413313","王","693","Female","[""坏她"",""坏我"",""好她"",""好我""]","[""弱她"",""弱我"",""强她"",""强我""]","","","","","","","","yes","","","","","","","","","SRET","EW_formal","","key","j","16.666723214285803","768","428","朋友","迷糊","Negative","ability","","","","","","","","","",""
"733","","j","psychophysics","18","147895","0.0-7.0-3.0-0.4","4","3","4","5","3","4","3","4","4","4","5","1","0","1","2","-1","1","1","2","4","5","5","5","5","4","4","5","4","5","6","5","3","3","2","4","7","6","7","6","2","3","6","6","3","4","1","4","3","3","2","6","3","1","4","3","4","5","2","3","4","2","1","2","5","3","7","3","7","4","2","4","1","2","5","2","4","3","3","729263916630413313","王","693","Female","[""坏她"",""坏我"",""好她"",""好我""]","[""弱她"",""弱我"",""强她"",""强我""]","","","","","","","","yes","","","","","","","","","SRET","EW_formal","","key","j","16.66613461538453","768","428","自己","智慧","Positive","ability","","","","","","","","","",""
"522","","j","psychophysics","19","149419","0.0-7.0-3.0-0.5","4","3","4","5","3","4","3","4","4","4","5","1","0","1","2","-1","1","1","2","4","5","5","5","5","4","4","5","4","5","6","5","3","3","2","4","7","6","7","6","2","3","6","6","3","4","1","4","3","3","2","6","3","1","4","3","4","5","2","3","4","2","1","2","5","3","7","3","7","4","2","4","1","2","5","2","4","3","3","729263916630413313","王","693","Female","[""坏她"",""坏我"",""好她"",""好我""]","[""弱她"",""弱我"",""强她"",""强我""]","","","","","","","","yes","","","","","","","","","SRET","EW_formal","","key","j","16.66595555555541","768","428","朋友","勤奋","Positive","ability","","","","","","","","","",""
"1773","","j","psychophysics","20","152199","0.0-7.0-3.0-0.6","4","3","4","5","3","4","3","4","4","4","5","1","0","1","2","-1","1","1","2","4","5","5","5","5","4","4","5","4","5","6","5","3","3","2","4","7","6","7","6","2","3","6","6","3","4","1","4","3","3","2","6","3","1","4","3","4","5","2","3","4","2","1","2","5","3","7","3","7","4","2","4","1","2","5","2","4","3","3","729263916630413313","王","693","Female","[""坏她"",""坏我"",""好她"",""好我""]","[""弱她"",""弱我"",""强她"",""强我""]","","","","","","","","yes","","","","","","","","","SRET","EW_formal","","key","j","16.667108433734885","768","428","朋友","逞强","Negative","ability","","","","","","","","","",""
"721","","j","psychophysics","21","153923","0.0-7.0-3.0-0.7","4","3","4","5","3","4","3","4","4","4","5","1","0","1","2","-1","1","1","2","4","5","5","5","5","4","4","5","4","5","6","5","3","3","2","4","7","6","7","6","2","3","6","6","3","4","1","4","3","3","2","6","3","1","4","3","4","5","2","3","4","2","1","2","5","3","7","3","7","4","2","4","1","2","5","2","4","3","3","729263916630413313","王","693","Female","[""坏她"",""坏我"",""好她"",""好我""]","[""弱她"",""弱我"",""强她"",""强我""]","","","","","","","","yes","","","","","","","","","SRET","EW_formal","","key","j","16.667549019607808","768","428","自己","侠义","Positive","morality","","","","","","","","","",""
"795","","f","psychophysics","22","155722","0.0-7.0-3.0-0.8","4","3","4","5","3","4","3","4","4","4","5","1","0","1","2","-1","1","1","2","4","5","5","5","5","4","4","5","4","5","6","5","3","3","2","4","7","6","7","6","2","3","6","6","3","4","1","4","3","3","2","6","3","1","4","3","4","5","2","3","4","2","1","2","5","3","7","3","7","4","2","4","1","2","5","2","4","3","3","729263916630413313","王","693","Female","[""坏她"",""坏我"",""好她"",""好我""]","[""弱她"",""弱我"",""强她"",""强我""]","","","","","","","","no","","","","","","","","","SRET","EW_formal","","key","f","16.66553271028037","768","428","自己","浅薄","Negative","ability","","","","","","","","","",""
"1231","","j","psychophysics","23","157959","0.0-7.0-3.0-0.9","4","3","4","5","3","4","3","4","4","4","5","1","0","1","2","-1","1","1","2","4","5","5","5","5","4","4","5","4","5","6","5","3","3","2","4","7","6","7","6","2","3","6","6","3","4","1","4","3","3","2","6","3","1","4","3","4","5","2","3","4","2","1","2","5","3","7","3","7","4","2","4","1","2","5","2","4","3","3","729263916630413313","王","693","Female","[""坏她"",""坏我"",""好她"",""好我""]","[""弱她"",""弱我"",""强她"",""强我""]","","","","","","","","yes","","","","","","","","","SRET","EW_formal","","key","j","16.66675187969936","768","428","自己","畏难","Negative","ability","","","","","","","","","",""
"658","","j","psychophysics","24","159618","0.0-7.0-3.0-0.10","4","3","4","5","3","4","3","4","4","4","5","1","0","1","2","-1","1","1","2","4","5","5","5","5","4","4","5","4","5","6","5","3","3","2","4","7","6","7","6","2","3","6","6","3","4","1","4","3","3","2","6","3","1","4","3","4","5","2","3","4","2","1","2","5","3","7","3","7","4","2","4","1","2","5","2","4","3","3","729263916630413313","王","693","Female","[""坏她"",""坏我"",""好她"",""好我""]","[""弱她"",""弱我"",""强她"",""强我""]","","","","","","","","yes","","","","","","","","","SRET","EW_formal","","key","j","16.66547474747487","768","428","自己","无私","Positive","morality","","","","","","","","","",""
"517","","j","psychophysics","25","161143","0.0-7.0-3.0-0.11","4","3","4","5","3","4","3","4","4","4","5","1","0","1","2","-1","1","1","2","4","5","5","5","5","4","4","5","4","5","6","5","3","3","2","4","7","6","7","6","2","3","6","6","3","4","1","4","3","3","2","6","3","1","4","3","4","5","2","3","4","2","1","2","5","3","7","3","7","4","2","4","1","2","5","2","4","3","3","729263916630413313","王","693","Female","[""坏她"",""坏我"",""好她"",""好我""]","[""弱她"",""弱我"",""强她"",""强我""]","","","","","","","","yes","","","","","","","","","SRET","EW_formal","","key","j","16.665466666666585","768","428","自己","周到","Positive","ability","","","","","","","","","",""
"1180","","f","psychophysics","26","163327","0.0-7.0-3.0-0.12","4","3","4","5","3","4","3","4","4","4","5","1","0","1","2","-1","1","1","2","4","5","5","5","5","4","4","5","4","5","6","5","3","3","2","4","7","6","7","6","2","3","6","6","3","4","1","4","3","3","2","6","3","1","4","3","4","5","2","3","4","2","1","2","5","3","7","3","7","4","2","4","1","2","5","2","4","3","3","729263916630413313","王","693","Female","[""坏她"",""坏我"",""好她"",""好我""]","[""弱她"",""弱我"",""强她"",""强我""]","","","","","","","","no","","","","","","","","","SRET","EW_formal","","key","f","16.665282442747884","768","428","自己","外行","Negative","ability","","","","","","","","","",""
"1189","","f","psychophysics","27","165518","0.0-7.0-3.0-0.13","4","3","4","5","3","4","3","4","4","4","5","1","0","1","2","-1","1","1","2","4","5","5","5","5","4","4","5","4","5","6","5","3","3","2","4","7","6","7","6","2","3","6","6","3","4","1","4","3","3","2","6","3","1","4","3","4","5","2","3","4","2","1","2","5","3","7","3","7","4","2","4","1","2","5","2","4","3","3","729263916630413313","王","693","Female","[""坏她"",""坏我"",""好她"",""好我""]","[""弱她"",""弱我"",""强她"",""强我""]","","","","","","","","no","","","","","","","","","SRET","EW_formal","","key","f","16.665953846153794","768","428","朋友","邪恶","Negative","morality","","","","","","","","","",""
"617","","f","psychophysics","28","167139","0.0-7.0-3.0-0.14","4","3","4","5","3","4","3","4","4","4","5","1","0","1","2","-1","1","1","2","4","5","5","5","5","4","4","5","4","5","6","5","3","3","2","4","7","6","7","6","2","3","6","6","3","4","1","4","3","3","2","6","3","1","4","3","4","5","2","3","4","2","1","2","5","3","7","3","7","4","2","4","1","2","5","2","4","3","3","729263916630413313","王","693","Female","[""坏她"",""坏我"",""好她"",""好我""]","[""弱她"",""弱我"",""强她"",""强我""]","","","","","","","","no","","","","","","","","","SRET","EW_formal","","key","f","16.665114583333587","768","428","朋友","虚伪","Negative","morality","","","","","","","","","",""
"487","","j","psychophysics","29","168630","0.0-7.0-3.0-0.15","4","3","4","5","3","4","3","4","4","4","5","1","0","1","2","-1","1","1","2","4","5","5","5","5","4","4","5","4","5","6","5","3","3","2","4","7","6","7","6","2","3","6","6","3","4","1","4","3","3","2","6","3","1","4","3","4","5","2","3","4","2","1","2","5","3","7","3","7","4","2","4","1","2","5","2","4","3","3","729263916630413313","王","693","Female","[""坏她"",""坏我"",""好她"",""好我""]","[""弱她"",""弱我"",""强她"",""强我""]","","","","","","","","yes","","","","","","","","","SRET","EW_formal","","key","j","16.66743820224721","768","428","朋友","忠诚","Positive","morality","","","","","","","","","",""
"673","","f","psychophysics","30","170307","0.0-7.0-3.0-0.16","4","3","4","5","3","4","3","4","4","4","5","1","0","1","2","-1","1","1","2","4","5","5","5","5","4","4","5","4","5","6","5","3","3","2","4","7","6","7","6","2","3","6","6","3","4","1","4","3","3","2","6","3","1","4","3","4","5","2","3","4","2","1","2","5","3","7","3","7","4","2","4","1","2","5","2","4","3","3","729263916630413313","王","693","Female","[""坏她"",""坏我"",""好她"",""好我""]","[""弱她"",""弱我"",""强她"",""强我""]","","","","","","","","no","","","","","","","","","SRET","EW_formal","","key","f","16.665464646464585","768","428","朋友","无知","Negative","ability","","","","","","","","","",""
"632","","f","psychophysics","31","171943","0.0-7.0-3.0-0.17","4","3","4","5","3","4","3","4","4","4","5","1","0","1","2","-1","1","1","2","4","5","5","5","5","4","4","5","4","5","6","5","3","3","2","4","7","6","7","6","2","3","6","6","3","4","1","4","3","3","2","6","3","1","4","3","4","5","2","3","4","2","1","2","5","3","7","3","7","4","2","4","1","2","5","2","4","3","3","729263916630413313","王","693","Female","[""坏她"",""坏我"",""好她"",""好我""]","[""弱她"",""弱我"",""强她"",""强我""]","","","","","","","","no","","","","","","","","","SRET","EW_formal","","key","f","16.666360824742142","768","428","朋友","无为","Negative","ability","","","","","","","","","",""
"474","","j","psychophysics","32","173418","0.0-7.0-3.0-0.18","4","3","4","5","3","4","3","4","4","4","5","1","0","1","2","-1","1","1","2","4","5","5","5","5","4","4","5","4","5","6","5","3","3","2","4","7","6","7","6","2","3","6","6","3","4","1","4","3","3","2","6","3","1","4","3","4","5","2","3","4","2","1","2","5","3","7","3","7","4","2","4","1","2","5","2","4","3","3","729263916630413313","王","693","Female","[""坏她"",""坏我"",""好她"",""好我""]","[""弱她"",""弱我"",""强她"",""强我""]","","","","","","","","yes","","","","","","","","","SRET","EW_formal","","key","j","16.6669659090909","768","428","朋友","忠良","Positive","morality","","","","","","","","","",""
"653","","f","psychophysics","33","175079","0.0-7.0-3.0-0.19","4","3","4","5","3","4","3","4","4","4","5","1","0","1","2","-1","1","1","2","4","5","5","5","5","4","4","5","4","5","6","5","3","3","2","4","7","6","7","6","2","3","6","6","3","4","1","4","3","3","2","6","3","1","4","3","4","5","2","3","4","2","1","2","5","3","7","3","7","4","2","4","1","2","5","2","4","3","3","729263916630413313","王","693","Female","[""坏她"",""坏我"",""好她"",""好我""]","[""弱她"",""弱我"",""强她"",""强我""]","","","","","","","","no","","","","","","","","","SRET","EW_formal","","key","f","16.6660909090909","768","428","自己","不端","Negative","morality","","","","","","","","","",""
"561","","f","psychophysics","34","176642","0.0-7.0-3.0-0.20","4","3","4","5","3","4","3","4","4","4","5","1","0","1","2","-1","1","1","2","4","5","5","5","5","4","4","5","4","5","6","5","3","3","2","4","7","6","7","6","2","3","6","6","3","4","1","4","3","3","2","6","3","1","4","3","4","5","2","3","4","2","1","2","5","3","7","3","7","4","2","4","1","2","5","2","4","3","3","729263916630413313","王","693","Female","[""坏她"",""坏我"",""好她"",""好我""]","[""弱她"",""弱我"",""强她"",""强我""]","","","","","","","","no","","","","","","","","","SRET","EW_formal","","key","f","16.66445652173918","768","428","自己","拙笨","Negative","ability","","","","","","","","","",""
"851","","f","psychophysics","35","178495","0.0-7.0-3.0-0.21","4","3","4","5","3","4","3","4","4","4","5","1","0","1","2","-1","1","1","2","4","5","5","5","5","4","4","5","4","5","6","5","3","3","2","4","7","6","7","6","2","3","6","6","3","4","1","4","3","3","2","6","3","1","4","3","4","5","2","3","4","2","1","2","5","3","7","3","7","4","2","4","1","2","5","2","4","3","3","729263916630413313","王","693","Female","[""坏她"",""坏我"",""好她"",""好我""]","[""弱她"",""弱我"",""强她"",""强我""]","","","","","","","","no","","","","","","","","","SRET","EW_formal","","key","f","16.665702702702802","768","428","自己","弱智","Negative","ability","","","","","","","","","",""
"496","","j","psychophysics","36","179994","0.0-7.0-3.0-0.22","4","3","4","5","3","4","3","4","4","4","5","1","0","1","2","-1","1","1","2","4","5","5","5","5","4","4","5","4","5","6","5","3","3","2","4","7","6","7","6","2","3","6","6","3","4","1","4","3","3","2","6","3","1","4","3","4","5","2","3","4","2","1","2","5","3","7","3","7","4","2","4","1","2","5","2","4","3","3","729263916630413313","王","693","Female","[""坏她"",""坏我"",""好她"",""好我""]","[""弱她"",""弱我"",""强她"",""强我""]","","","","","","","","yes","","","","","","","","","SRET","EW_formal","","key","j","16.66280898876427","768","428","自己","毅力","Positive","ability","","","","","","","","","",""
"400","","j","psychophysics","37","181394","0.0-7.0-3.0-0.23","4","3","4","5","3","4","3","4","4","4","5","1","0","1","2","-1","1","1","2","4","5","5","5","5","4","4","5","4","5","6","5","3","3","2","4","7","6","7","6","2","3","6","6","3","4","1","4","3","3","2","6","3","1","4","3","4","5","2","3","4","2","1","2","5","3","7","3","7","4","2","4","1","2","5","2","4","3","3","729263916630413313","王","693","Female","[""坏她"",""坏我"",""好她"",""好我""]","[""弱她"",""弱我"",""强她"",""强我""]","","","","","","","","yes","","","","","","","","","SRET","EW_formal","","key","j","16.664795180723065","768","428","自己","果断","Positive","ability","","","","","","","","","",""
"596","","j","psychophysics","38","182998","0.0-7.0-3.0-0.24","4","3","4","5","3","4","3","4","4","4","5","1","0","1","2","-1","1","1","2","4","5","5","5","5","4","4","5","4","5","6","5","3","3","2","4","7","6","7","6","2","3","6","6","3","4","1","4","3","3","2","6","3","1","4","3","4","5","2","3","4","2","1","2","5","3","7","3","7","4","2","4","1","2","5","2","4","3","3","729263916630413313","王","693","Female","[""坏她"",""坏我"",""好她"",""好我""]","[""弱她"",""弱我"",""强她"",""强我""]","","","","","","","","yes","","","","","","","","","SRET","EW_formal","","key","j","16.664189473684193","768","428","朋友","慷慨","Positive","morality","","","","","","","","","",""
"444","","j","psychophysics","39","184446","0.0-7.0-3.0-0.25","4","3","4","5","3","4","3","4","4","4","5","1","0","1","2","-1","1","1","2","4","5","5","5","5","4","4","5","4","5","6","5","3","3","2","4","7","6","7","6","2","3","6","6","3","4","1","4","3","3","2","6","3","1","4","3","4","5","2","3","4","2","1","2","5","3","7","3","7","4","2","4","1","2","5","2","4","3","3","729263916630413313","王","693","Female","[""坏她"",""坏我"",""好她"",""好我""]","[""弱她"",""弱我"",""强她"",""强我""]","","","","","","","","yes","","","","","","","","","SRET","EW_formal","","key","j","16.66559302325592","768","428","朋友","专注","Positive","ability","","","","","","","","","",""
"504","","f","psychophysics","40","185954","0.0-7.0-3.0-0.26","4","3","4","5","3","4","3","4","4","4","5","1","0","1","2","-1","1","1","2","4","5","5","5","5","4","4","5","4","5","6","5","3","3","2","4","7","6","7","6","2","3","6","6","3","4","1","4","3","3","2","6","3","1","4","3","4","5","2","3","4","2","1","2","5","3","7","3","7","4","2","4","1","2","5","2","4","3","3","729263916630413313","王","693","Female","[""坏她"",""坏我"",""好她"",""好我""]","[""弱她"",""弱我"",""强她"",""强我""]","","","","","","","","no","","","","","","","","","SRET","EW_formal","","key","f","16.66467415730324","768","428","朋友","黑心","Negative","morality","","","","","","","","","",""
"407","","j","psychophysics","41","187367","0.0-7.0-3.0-0.27","4","3","4","5","3","4","3","4","4","4","5","1","0","1","2","-1","1","1","2","4","5","5","5","5","4","4","5","4","5","6","5","3","3","2","4","7","6","7","6","2","3","6","6","3","4","1","4","3","3","2","6","3","1","4","3","4","5","2","3","4","2","1","2","5","3","7","3","7","4","2","4","1","2","5","2","4","3","3","729263916630413313","王","693","Female","[""坏她"",""坏我"",""好她"",""好我""]","[""弱她"",""弱我"",""强她"",""强我""]","","","","","","","","yes","","","","","","","","","SRET","EW_formal","","key","j","16.666750000000146","768","428","朋友","全才","Positive","ability","","","","","","","","","",""
"416","","j","psychophysics","42","188786","0.0-7.0-3.0-0.28","4","3","4","5","3","4","3","4","4","4","5","1","0","1","2","-1","1","1","2","4","5","5","5","5","4","4","5","4","5","6","5","3","3","2","4","7","6","7","6","2","3","6","6","3","4","1","4","3","3","2","6","3","1","4","3","4","5","2","3","4","2","1","2","5","3","7","3","7","4","2","4","1","2","5","2","4","3","3","729263916630413313","王","693","Female","[""坏她"",""坏我"",""好她"",""好我""]","[""弱她"",""弱我"",""强她"",""强我""]","","","","","","","","yes","","","","","","","","","SRET","EW_formal","","key","j","16.666023809523764","768","428","朋友","聪明","Positive","ability","","","","","","","","","",""
"590","","f","psychophysics","43","190382","0.0-7.0-3.0-0.29","4","3","4","5","3","4","3","4","4","4","5","1","0","1","2","-1","1","1","2","4","5","5","5","5","4","4","5","4","5","6","5","3","3","2","4","7","6","7","6","2","3","6","6","3","4","1","4","3","3","2","6","3","1","4","3","4","5","2","3","4","2","1","2","5","3","7","3","7","4","2","4","1","2","5","2","4","3","3","729263916630413313","王","693","Female","[""坏她"",""坏我"",""好她"",""好我""]","[""弱她"",""弱我"",""强她"",""强我""]","","","","","","","","no","","","","","","","","","SRET","EW_formal","","key","f","16.66672631578955","768","428","朋友","不仁","Negative","morality","","","","","","","","","",""
"1169","","j","psychophysics","44","192554","0.0-7.0-3.0-0.30","4","3","4","5","3","4","3","4","4","4","5","1","0","1","2","-1","1","1","2","4","5","5","5","5","4","4","5","4","5","6","5","3","3","2","4","7","6","7","6","2","3","6","6","3","4","1","4","3","3","2","6","3","1","4","3","4","5","2","3","4","2","1","2","5","3","7","3","7","4","2","4","1","2","5","2","4","3","3","729263916630413313","王","693","Female","[""坏她"",""坏我"",""好她"",""好我""]","[""弱她"",""弱我"",""强她"",""强我""]","","","","","","","","yes","","","","","","","","","SRET","EW_formal","","key","j","16.665697674418606","768","428","朋友","善心","Positive","morality","","","","","","","","","",""
"484","","f","psychophysics","45","194042","0.0-7.0-3.0-0.31","4","3","4","5","3","4","3","4","4","4","5","1","0","1","2","-1","1","1","2","4","5","5","5","5","4","4","5","4","5","6","5","3","3","2","4","7","6","7","6","2","3","6","6","3","4","1","4","3","3","2","6","3","1","4","3","4","5","2","3","4","2","1","2","5","3","7","3","7","4","2","4","1","2","5","2","4","3","3","729263916630413313","王","693","Female","[""坏她"",""坏我"",""好她"",""好我""]","[""弱她"",""弱我"",""强她"",""强我""]","","","","","","","","no","","","","","","","","","SRET","EW_formal","","key","f","16.663179775281073","768","428","自己","伪善","Negative","morality","","","","","","","","","",""
"517","","j","psychophysics","46","195566","0.0-7.0-3.0-0.32","4","3","4","5","3","4","3","4","4","4","5","1","0","1","2","-1","1","1","2","4","5","5","5","5","4","4","5","4","5","6","5","3","3","2","4","7","6","7","6","2","3","6","6","3","4","1","4","3","3","2","6","3","1","4","3","4","5","2","3","4","2","1","2","5","3","7","3","7","4","2","4","1","2","5","2","4","3","3","729263916630413313","王","693","Female","[""坏她"",""坏我"",""好她"",""好我""]","[""弱她"",""弱我"",""强她"",""强我""]","","","","","","","","yes","","","","","","","","","SRET","EW_formal","","key","j","16.663944444444496","768","428","自己","守时","Positive","morality","","","","","","","","","",""
"552","","f","psychophysics","47","197122","0.0-7.0-3.0-0.33","4","3","4","5","3","4","3","4","4","4","5","1","0","1","2","-1","1","1","2","4","5","5","5","5","4","4","5","4","5","6","5","3","3","2","4","7","6","7","6","2","3","6","6","3","4","1","4","3","3","2","6","3","1","4","3","4","5","2","3","4","2","1","2","5","3","7","3","7","4","2","4","1","2","5","2","4","3","3","729263916630413313","王","693","Female","[""坏她"",""坏我"",""好她"",""好我""]","[""弱她"",""弱我"",""强她"",""强我""]","","","","","","","","no","","","","","","","","","SRET","EW_formal","","key","f","16.667304347826008","768","428","朋友","马虎","Negative","ability","","","","","","","","","",""
"818","","f","psychophysics","48","198942","0.0-7.0-3.0-0.34","4","3","4","5","3","4","3","4","4","4","5","1","0","1","2","-1","1","1","2","4","5","5","5","5","4","4","5","4","5","6","5","3","3","2","4","7","6","7","6","2","3","6","6","3","4","1","4","3","3","2","6","3","1","4","3","4","5","2","3","4","2","1","2","5","3","7","3","7","4","2","4","1","2","5","2","4","3","3","729263916630413313","王","693","Female","[""坏她"",""坏我"",""好她"",""好我""]","[""弱她"",""弱我"",""强她"",""强我""]","","","","","","","","no","","","","","","","","","SRET","EW_formal","","key","f","16.666284403669724","768","428","自己","新手","Negative","ability","","","","","","","","","",""
"840","","j","psychophysics","49","200786","0.0-7.0-3.0-0.35","4","3","4","5","3","4","3","4","4","4","5","1","0","1","2","-1","1","1","2","4","5","5","5","5","4","4","5","4","5","6","5","3","3","2","4","7","6","7","6","2","3","6","6","3","4","1","4","3","3","2","6","3","1","4","3","4","5","2","3","4","2","1","2","5","3","7","3","7","4","2","4","1","2","5","2","4","3","3","729263916630413313","王","693","Female","[""坏她"",""坏我"",""好她"",""好我""]","[""弱她"",""弱我"",""强她"",""强我""]","","","","","","","","yes","","","","","","","","","SRET","EW_formal","","key","j","16.665238532110077","768","428","自己","独立","Positive","ability","","","","","","","","","",""
"586","","f","psychophysics","50","202378","0.0-7.0-3.0-0.36","4","3","4","5","3","4","3","4","4","4","5","1","0","1","2","-1","1","1","2","4","5","5","5","5","4","4","5","4","5","6","5","3","3","2","4","7","6","7","6","2","3","6","6","3","4","1","4","3","3","2","6","3","1","4","3","4","5","2","3","4","2","1","2","5","3","7","3","7","4","2","4","1","2","5","2","4","3","3","729263916630413313","王","693","Female","[""坏她"",""坏我"",""好她"",""好我""]","[""弱她"",""弱我"",""强她"",""强我""]","","","","","","","","no","","","","","","","","","SRET","EW_formal","","key","f","16.66467368421053","768","428","朋友","愚蠢","Negative","ability","","","","","","","","","",""
"493","","f","psychophysics","51","203878","0.0-7.0-3.0-0.37","4","3","4","5","3","4","3","4","4","4","5","1","0","1","2","-1","1","1","2","4","5","5","5","5","4","4","5","4","5","6","5","3","3","2","4","7","6","7","6","2","3","6","6","3","4","1","4","3","3","2","6","3","1","4","3","4","5","2","3","4","2","1","2","5","3","7","3","7","4","2","4","1","2","5","2","4","3","3","729263916630413313","王","693","Female","[""坏她"",""坏我"",""好她"",""好我""]","[""弱她"",""弱我"",""强她"",""强我""]","","","","","","","","no","","","","","","","","","SRET","EW_formal","","key","f","16.66729213483141","768","428","自己","阴毒","Negative","morality","","","","","","","","","",""
"713","","j","psychophysics","52","205593","0.0-7.0-3.0-0.38","4","3","4","5","3","4","3","4","4","4","5","1","0","1","2","-1","1","1","2","4","5","5","5","5","4","4","5","4","5","6","5","3","3","2","4","7","6","7","6","2","3","6","6","3","4","1","4","3","3","2","6","3","1","4","3","4","5","2","3","4","2","1","2","5","3","7","3","7","4","2","4","1","2","5","2","4","3","3","729263916630413313","王","693","Female","[""坏她"",""坏我"",""好她"",""好我""]","[""弱她"",""弱我"",""强她"",""强我""]","","","","","","","","yes","","","","","","","","","SRET","EW_formal","","key","j","16.66628431372559","768","428","自己","拖延","Negative","ability","","","","","","","","","",""
"625","","f","psychophysics","53","207226","0.0-7.0-3.0-0.39","4","3","4","5","3","4","3","4","4","4","5","1","0","1","2","-1","1","1","2","4","5","5","5","5","4","4","5","4","5","6","5","3","3","2","4","7","6","7","6","2","3","6","6","3","4","1","4","3","3","2","6","3","1","4","3","4","5","2","3","4","2","1","2","5","3","7","3","7","4","2","4","1","2","5","2","4","3","3","729263916630413313","王","693","Female","[""坏她"",""坏我"",""好她"",""好我""]","[""弱她"",""弱我"",""强她"",""强我""]","","","","","","","","no","","","","","","","","","SRET","EW_formal","","key","f","16.66538144329883","768","428","自己","贪污","Negative","morality","","","","","","","","","",""
"457","","f","psychophysics","54","208690","0.0-7.0-3.0-0.40","4","3","4","5","3","4","3","4","4","4","5","1","0","1","2","-1","1","1","2","4","5","5","5","5","4","4","5","4","5","6","5","3","3","2","4","7","6","7","6","2","3","6","6","3","4","1","4","3","3","2","6","3","1","4","3","4","5","2","3","4","2","1","2","5","3","7","3","7","4","2","4","1","2","5","2","4","3","3","729263916630413313","王","693","Female","[""坏她"",""坏我"",""好她"",""好我""]","[""弱她"",""弱我"",""强她"",""强我""]","","","","","","","","no","","","","","","","","","SRET","EW_formal","","key","f","16.664186046511574","768","428","朋友","无耻","Negative","morality","","","","","","","","","",""
"499","","j","psychophysics","55","210190","0.0-7.0-3.0-0.41","4","3","4","5","3","4","3","4","4","4","5","1","0","1","2","-1","1","1","2","4","5","5","5","5","4","4","5","4","5","6","5","3","3","2","4","7","6","7","6","2","3","6","6","3","4","1","4","3","3","2","6","3","1","4","3","4","5","2","3","4","2","1","2","5","3","7","3","7","4","2","4","1","2","5","2","4","3","3","729263916630413313","王","693","Female","[""坏她"",""坏我"",""好她"",""好我""]","[""弱她"",""弱我"",""强她"",""强我""]","","","","","","","","yes","","","","","","","","","SRET","EW_formal","","key","j","16.665101123595377","768","428","朋友","扎实","Positive","ability","","","","","","","","","",""
"500","","j","psychophysics","56","211695","0.0-7.0-3.0-0.42","4","3","4","5","3","4","3","4","4","4","5","1","0","1","2","-1","1","1","2","4","5","5","5","5","4","4","5","4","5","6","5","3","3","2","4","7","6","7","6","2","3","6","6","3","4","1","4","3","3","2","6","3","1","4","3","4","5","2","3","4","2","1","2","5","3","7","3","7","4","2","4","1","2","5","2","4","3","3","729263916630413313","王","693","Female","[""坏她"",""坏我"",""好她"",""好我""]","[""弱她"",""弱我"",""强她"",""强我""]","","","","","","","","yes","","","","","","","","","SRET","EW_formal","","key","j","16.666866666666788","768","428","自己","厚道","Positive","morality","","","","","","","","","",""
"457","","j","psychophysics","57","213154","0.0-7.0-3.0-0.43","4","3","4","5","3","4","3","4","4","4","5","1","0","1","2","-1","1","1","2","4","5","5","5","5","4","4","5","4","5","6","5","3","3","2","4","7","6","7","6","2","3","6","6","3","4","1","4","3","3","2","6","3","1","4","3","4","5","2","3","4","2","1","2","5","3","7","3","7","4","2","4","1","2","5","2","4","3","3","729263916630413313","王","693","Female","[""坏她"",""坏我"",""好她"",""好我""]","[""弱她"",""弱我"",""强她"",""强我""]","","","","","","","","yes","","","","","","","","","SRET","EW_formal","","key","j","16.666069767441936","768","428","自己","奉献","Positive","morality","","","","","","","","","",""
"520","","f","psychophysics","58","214678","0.0-7.0-3.0-0.44","4","3","4","5","3","4","3","4","4","4","5","1","0","1","2","-1","1","1","2","4","5","5","5","5","4","4","5","4","5","6","5","3","3","2","4","7","6","7","6","2","3","6","6","3","4","1","4","3","3","2","6","3","1","4","3","4","5","2","3","4","2","1","2","5","3","7","3","7","4","2","4","1","2","5","2","4","3","3","729263916630413313","王","693","Female","[""坏她"",""坏我"",""好她"",""好我""]","[""弱她"",""弱我"",""强她"",""强我""]","","","","","","","","no","","","","","","","","","SRET","EW_formal","","key","f","16.666604395604317","768","428","朋友","混账","Negative","morality","","","","","","","","","",""
"525","","j","psychophysics","59","216206","0.0-7.0-3.0-0.45","4","3","4","5","3","4","3","4","4","4","5","1","0","1","2","-1","1","1","2","4","5","5","5","5","4","4","5","4","5","6","5","3","3","2","4","7","6","7","6","2","3","6","6","3","4","1","4","3","3","2","6","3","1","4","3","4","5","2","3","4","2","1","2","5","3","7","3","7","4","2","4","1","2","5","2","4","3","3","729263916630413313","王","693","Female","[""坏她"",""坏我"",""好她"",""好我""]","[""弱她"",""弱我"",""强她"",""强我""]","","","","","","","","yes","","","","","","","","","SRET","EW_formal","","key","j","16.664166666666603","768","428","朋友","君子","Positive","morality","","","","","","","","","",""
"658","","j","psychophysics","60","217865","0.0-7.0-3.0-0.46","4","3","4","5","3","4","3","4","4","4","5","1","0","1","2","-1","1","1","2","4","5","5","5","5","4","4","5","4","5","6","5","3","3","2","4","7","6","7","6","2","3","6","6","3","4","1","4","3","3","2","6","3","1","4","3","4","5","2","3","4","2","1","2","5","3","7","3","7","4","2","4","1","2","5","2","4","3","3","729263916630413313","王","693","Female","[""坏她"",""坏我"",""好她"",""好我""]","[""弱她"",""弱我"",""强她"",""强我""]","","","","","","","","yes","","","","","","","","","SRET","EW_formal","","key","j","16.66584848484843","768","428","自己","变通","Positive","ability","","","","","","","","","",""
"524","","j","psychophysics","61","219397","0.0-7.0-3.0-0.47","4","3","4","5","3","4","3","4","4","4","5","1","0","1","2","-1","1","1","2","4","5","5","5","5","4","4","5","4","5","6","5","3","3","2","4","7","6","7","6","2","3","6","6","3","4","1","4","3","3","2","6","3","1","4","3","4","5","2","3","4","2","1","2","5","3","7","3","7","4","2","4","1","2","5","2","4","3","3","729263916630413313","王","693","Female","[""坏她"",""坏我"",""好她"",""好我""]","[""弱她"",""弱我"",""强她"",""强我""]","","","","","","","","yes","","","","","","","","","SRET","EW_formal","","key","j","16.66503296703309","768","428","朋友","思辨","Positive","ability","","","","","","","","","",""
"464","","f","psychophysics","62","220865","0.0-7.0-3.0-0.48","4","3","4","5","3","4","3","4","4","4","5","1","0","1","2","-1","1","1","2","4","5","5","5","5","4","4","5","4","5","6","5","3","3","2","4","7","6","7","6","2","3","6","6","3","4","1","4","3","3","2","6","3","1","4","3","4","5","2","3","4","2","1","2","5","3","7","3","7","4","2","4","1","2","5","2","4","3","3","729263916630413313","王","693","Female","[""坏她"",""坏我"",""好她"",""好我""]","[""弱她"",""弱我"",""强她"",""强我""]","","","","","","","","no","","","","","","","","","SRET","EW_formal","","key","f","16.664643678160843","768","428","自己","差生","Negative","ability","","","","","","","","","",""
"597","","f","psychophysics","63","222470","0.0-7.0-3.0-0.49","4","3","4","5","3","4","3","4","4","4","5","1","0","1","2","-1","1","1","2","4","5","5","5","5","4","4","5","4","5","6","5","3","3","2","4","7","6","7","6","2","3","6","6","3","4","1","4","3","3","2","6","3","1","4","3","4","5","2","3","4","2","1","2","5","3","7","3","7","4","2","4","1","2","5","2","4","3","3","729263916630413313","王","693","Female","[""坏她"",""坏我"",""好她"",""好我""]","[""弱她"",""弱我"",""强她"",""强我""]","","","","","","","","no","","","","","","","","","SRET","EW_formal","","key","f","16.664263157894847","768","428","自己","刻薄","Negative","morality","","","","","","","","","",""
"640","","f","psychophysics","64","224113","0.0-7.0-3.0-0.50","4","3","4","5","3","4","3","4","4","4","5","1","0","1","2","-1","1","1","2","4","5","5","5","5","4","4","5","4","5","6","5","3","3","2","4","7","6","7","6","2","3","6","6","3","4","1","4","3","3","2","6","3","1","4","3","4","5","2","3","4","2","1","2","5","3","7","3","7","4","2","4","1","2","5","2","4","3","3","729263916630413313","王","693","Female","[""坏她"",""坏我"",""好她"",""好我""]","[""弱她"",""弱我"",""强她"",""强我""]","","","","","","","","no","","","","","","","","","SRET","EW_formal","","key","f","16.666061224489845","768","428","自己","无助","Negative","ability","","","","","","","","","",""
"600","","f","psychophysics","65","225722","0.0-7.0-3.0-0.51","4","3","4","5","3","4","3","4","4","4","5","1","0","1","2","-1","1","1","2","4","5","5","5","5","4","4","5","4","5","6","5","3","3","2","4","7","6","7","6","2","3","6","6","3","4","1","4","3","3","2","6","3","1","4","3","4","5","2","3","4","2","1","2","5","3","7","3","7","4","2","4","1","2","5","2","4","3","3","729263916630413313","王","693","Female","[""坏她"",""坏我"",""好她"",""好我""]","[""弱她"",""弱我"",""强她"",""强我""]","","","","","","","","no","","","","","","","","","SRET","EW_formal","","key","f","16.664863157894853","768","428","朋友","短视","Negative","ability","","","","","","","","","",""
"547","","f","psychophysics","66","227270","0.0-7.0-3.0-0.52","4","3","4","5","3","4","3","4","4","4","5","1","0","1","2","-1","1","1","2","4","5","5","5","5","4","4","5","4","5","6","5","3","3","2","4","7","6","7","6","2","3","6","6","3","4","1","4","3","3","2","6","3","1","4","3","4","5","2","3","4","2","1","2","5","3","7","3","7","4","2","4","1","2","5","2","4","3","3","729263916630413313","王","693","Female","[""坏她"",""坏我"",""好她"",""好我""]","[""弱她"",""弱我"",""强她"",""强我""]","","","","","","","","no","","","","","","","","","SRET","EW_formal","","key","f","16.66508695652168","768","428","自己","窝囊","Negative","ability","","","","","","","","","",""
"733","","f","psychophysics","67","229006","0.0-7.0-3.0-0.53","4","3","4","5","3","4","3","4","4","4","5","1","0","1","2","-1","1","1","2","4","5","5","5","5","4","4","5","4","5","6","5","3","3","2","4","7","6","7","6","2","3","6","6","3","4","1","4","3","3","2","6","3","1","4","3","4","5","2","3","4","2","1","2","5","3","7","3","7","4","2","4","1","2","5","2","4","3","3","729263916630413313","王","693","Female","[""坏她"",""坏我"",""好她"",""好我""]","[""弱她"",""弱我"",""强她"",""强我""]","","","","","","","","no","","","","","","","","","SRET","EW_formal","","key","f","16.66577669902924","768","428","朋友","狡狯","Negative","morality","","","","","","","","","",""
"519","","j","psychophysics","68","230527","0.0-7.0-3.0-0.54","4","3","4","5","3","4","3","4","4","4","5","1","0","1","2","-1","1","1","2","4","5","5","5","5","4","4","5","4","5","6","5","3","3","2","4","7","6","7","6","2","3","6","6","3","4","1","4","3","3","2","6","3","1","4","3","4","5","2","3","4","2","1","2","5","3","7","3","7","4","2","4","1","2","5","2","4","3","3","729263916630413313","王","693","Female","[""坏她"",""坏我"",""好她"",""好我""]","[""弱她"",""弱我"",""强她"",""强我""]","","","","","","","","yes","","","","","","","","","SRET","EW_formal","","key","j","16.666010989011188","768","428","自己","清廉","Positive","morality","","","","","","","","","",""
"533","","f","psychophysics","69","232062","0.0-7.0-3.0-0.55","4","3","4","5","3","4","3","4","4","4","5","1","0","1","2","-1","1","1","2","4","5","5","5","5","4","4","5","4","5","6","5","3","3","2","4","7","6","7","6","2","3","6","6","3","4","1","4","3","3","2","6","3","1","4","3","4","5","2","3","4","2","1","2","5","3","7","3","7","4","2","4","1","2","5","2","4","3","3","729263916630413313","王","693","Female","[""坏她"",""坏我"",""好她"",""好我""]","[""弱她"",""弱我"",""强她"",""强我""]","","","","","","","","no","","","","","","","","","SRET","EW_formal","","key","f","16.664120879120855","768","428","朋友","贪腐","Negative","morality","","","","","","","","","",""
"436","","j","psychophysics","70","233502","0.0-7.0-3.0-0.56","4","3","4","5","3","4","3","4","4","4","5","1","0","1","2","-1","1","1","2","4","5","5","5","5","4","4","5","4","5","6","5","3","3","2","4","7","6","7","6","2","3","6","6","3","4","1","4","3","3","2","6","3","1","4","3","4","5","2","3","4","2","1","2","5","3","7","3","7","4","2","4","1","2","5","2","4","3","3","729263916630413313","王","693","Female","[""坏她"",""坏我"",""好她"",""好我""]","[""弱她"",""弱我"",""强她"",""强我""]","","","","","","","","yes","","","","","","","","","SRET","EW_formal","","key","j","16.664094117647107","768","428","自己","忠勇","Positive","morality","","","","","","","","","",""
"449","","j","psychophysics","71","234953","0.0-7.0-3.0-0.57","4","3","4","5","3","4","3","4","4","4","5","1","0","1","2","-1","1","1","2","4","5","5","5","5","4","4","5","4","5","6","5","3","3","2","4","7","6","7","6","2","3","6","6","3","4","1","4","3","3","2","6","3","1","4","3","4","5","2","3","4","2","1","2","5","3","7","3","7","4","2","4","1","2","5","2","4","3","3","729263916630413313","王","693","Female","[""坏她"",""坏我"",""好她"",""好我""]","[""弱她"",""弱我"",""强她"",""强我""]","","","","","","","","yes","","","","","","","","","SRET","EW_formal","","key","j","16.666046511627894","768","428","朋友","沉着","Positive","ability","","","","","","","","","",""
"363","","j","psychophysics","72","236322","0.0-7.0-3.0-0.58","4","3","4","5","3","4","3","4","4","4","5","1","0","1","2","-1","1","1","2","4","5","5","5","5","4","4","5","4","5","6","5","3","3","2","4","7","6","7","6","2","3","6","6","3","4","1","4","3","3","2","6","3","1","4","3","4","5","2","3","4","2","1","2","5","3","7","3","7","4","2","4","1","2","5","2","4","3","3","729263916630413313","王","693","Female","[""坏她"",""坏我"",""好她"",""好我""]","[""弱她"",""弱我"",""强她"",""强我""]","","","","","","","","yes","","","","","","","","","SRET","EW_formal","","key","j","16.666740740741027","768","428","朋友","勤恳","Positive","morality","","","","","","","","","",""
"583","","f","psychophysics","73","237907","0.0-7.0-3.0-0.59","4","3","4","5","3","4","3","4","4","4","5","1","0","1","2","-1","1","1","2","4","5","5","5","5","4","4","5","4","5","6","5","3","3","2","4","7","6","7","6","2","3","6","6","3","4","1","4","3","3","2","6","3","1","4","3","4","5","2","3","4","2","1","2","5","3","7","3","7","4","2","4","1","2","5","2","4","3","3","729263916630413313","王","693","Female","[""坏她"",""坏我"",""好她"",""好我""]","[""弱她"",""弱我"",""强她"",""强我""]","","","","","","","","no","","","","","","","","","SRET","EW_formal","","key","f","16.66539999999988","768","428","自己","偏私","Negative","morality","","","","","","","","","",""
"462","","j","psychophysics","74","239370","0.0-7.0-3.0-0.60","4","3","4","5","3","4","3","4","4","4","5","1","0","1","2","-1","1","1","2","4","5","5","5","5","4","4","5","4","5","6","5","3","3","2","4","7","6","7","6","2","3","6","6","3","4","1","4","3","3","2","6","3","1","4","3","4","5","2","3","4","2","1","2","5","3","7","3","7","4","2","4","1","2","5","2","4","3","3","729263916630413313","王","693","Female","[""坏她"",""坏我"",""好她"",""好我""]","[""弱她"",""弱我"",""强她"",""强我""]","","","","","","","","yes","","","","","","","","","SRET","EW_formal","","key","j","16.665069767442155","768","428","朋友","孝顺","Positive","morality","","","","","","","","","",""
"433","","j","psychophysics","75","240806","0.0-7.0-3.0-0.61","4","3","4","5","3","4","3","4","4","4","5","1","0","1","2","-1","1","1","2","4","5","5","5","5","4","4","5","4","5","6","5","3","3","2","4","7","6","7","6","2","3","6","6","3","4","1","4","3","3","2","6","3","1","4","3","4","5","2","3","4","2","1","2","5","3","7","3","7","4","2","4","1","2","5","2","4","3","3","729263916630413313","王","693","Female","[""坏她"",""坏我"",""好她"",""好我""]","[""弱她"",""弱我"",""强她"",""强我""]","","","","","","","","yes","","","","","","","","","SRET","EW_formal","","key","j","16.665211764705944","768","428","自己","好心","Positive","morality","","","","","","","","","",""
"580","","f","psychophysics","76","242387","0.0-7.0-3.0-0.62","4","3","4","5","3","4","3","4","4","4","5","1","0","1","2","-1","1","1","2","4","5","5","5","5","4","4","5","4","5","6","5","3","3","2","4","7","6","7","6","2","3","6","6","3","4","1","4","3","3","2","6","3","1","4","3","4","5","2","3","4","2","1","2","5","3","7","3","7","4","2","4","1","2","5","2","4","3","3","729263916630413313","王","693","Female","[""坏她"",""坏我"",""好她"",""好我""]","[""弱她"",""弱我"",""强她"",""强我""]","","","","","","","","no","","","","","","","","","SRET","EW_formal","","key","f","16.668531914893663","768","428","朋友","低劣","Negative","morality","","","","","","","","","",""
"472","","j","psychophysics","77","243862","0.0-7.0-3.0-0.63","4","3","4","5","3","4","3","4","4","4","5","1","0","1","2","-1","1","1","2","4","5","5","5","5","4","4","5","4","5","6","5","3","3","2","4","7","6","7","6","2","3","6","6","3","4","1","4","3","3","2","6","3","1","4","3","4","5","2","3","4","2","1","2","5","3","7","3","7","4","2","4","1","2","5","2","4","3","3","729263916630413313","王","693","Female","[""坏她"",""坏我"",""好她"",""好我""]","[""弱她"",""弱我"",""强她"",""强我""]","","","","","","","","yes","","","","","","","","","SRET","EW_formal","","key","j","16.665988636363842","768","428","自己","坚持","Positive","ability","","","","","","","","","",""
"744","","j","psychophysics","78","245610","0.0-7.0-3.0-0.64","4","3","4","5","3","4","3","4","4","4","5","1","0","1","2","-1","1","1","2","4","5","5","5","5","4","4","5","4","5","6","5","3","3","2","4","7","6","7","6","2","3","6","6","3","4","1","4","3","3","2","6","3","1","4","3","4","5","2","3","4","2","1","2","5","3","7","3","7","4","2","4","1","2","5","2","4","3","3","729263916630413313","王","693","Female","[""坏她"",""坏我"",""好她"",""好我""]","[""弱她"",""弱我"",""强她"",""强我""]","","","","","","","","yes","","","","","","","","","SRET","EW_formal","","key","j","16.666230769230772","768","428","朋友","依靠","Negative","ability","","","","","","","","","",""
"422","","j","psychophysics","79","247040","0.0-7.0-3.0-0.65","4","3","4","5","3","4","3","4","4","4","5","1","0","1","2","-1","1","1","2","4","5","5","5","5","4","4","5","4","5","6","5","3","3","2","4","7","6","7","6","2","3","6","6","3","4","1","4","3","3","2","6","3","1","4","3","4","5","2","3","4","2","1","2","5","3","7","3","7","4","2","4","1","2","5","2","4","3","3","729263916630413313","王","693","Female","[""坏她"",""坏我"",""好她"",""好我""]","[""弱她"",""弱我"",""强她"",""强我""]","","","","","","","","yes","","","","","","","","","SRET","EW_formal","","key","j","16.666797619047603","768","428","自己","细心","Positive","ability","","","","","","","","","",""
"517","","f","psychophysics","80","248559","0.0-7.0-3.0-0.66","4","3","4","5","3","4","3","4","4","4","5","1","0","1","2","-1","1","1","2","4","5","5","5","5","4","4","5","4","5","6","5","3","3","2","4","7","6","7","6","2","3","6","6","3","4","1","4","3","3","2","6","3","1","4","3","4","5","2","3","4","2","1","2","5","3","7","3","7","4","2","4","1","2","5","2","4","3","3","729263916630413313","王","693","Female","[""坏她"",""坏我"",""好她"",""好我""]","[""弱她"",""弱我"",""强她"",""强我""]","","","","","","","","no","","","","","","","","","SRET","EW_formal","","key","f","16.66558241758241","768","428","自己","蛇蝎","Negative","morality","","","","","","","","","",""
"421","","f","psychophysics","81","249982","0.0-7.0-3.0-0.67","4","3","4","5","3","4","3","4","4","4","5","1","0","1","2","-1","1","1","2","4","5","5","5","5","4","4","5","4","5","6","5","3","3","2","4","7","6","7","6","2","3","6","6","3","4","1","4","3","3","2","6","3","1","4","3","4","5","2","3","4","2","1","2","5","3","7","3","7","4","2","4","1","2","5","2","4","3","3","729263916630413313","王","693","Female","[""坏她"",""坏我"",""好她"",""好我""]","[""弱她"",""弱我"",""强她"",""强我""]","","","","","","","","no","","","","","","","","","SRET","EW_formal","","key","f","16.66651190476183","768","428","自己","腐败","Negative","morality","","","","","","","","","",""
"574","","j","psychophysics","82","251559","0.0-7.0-3.0-0.68","4","3","4","5","3","4","3","4","4","4","5","1","0","1","2","-1","1","1","2","4","5","5","5","5","4","4","5","4","5","6","5","3","3","2","4","7","6","7","6","2","3","6","6","3","4","1","4","3","3","2","6","3","1","4","3","4","5","2","3","4","2","1","2","5","3","7","3","7","4","2","4","1","2","5","2","4","3","3","729263916630413313","王","693","Female","[""坏她"",""坏我"",""好她"",""好我""]","[""弱她"",""弱我"",""强她"",""强我""]","","","","","","","","yes","","","","","","","","","SRET","EW_formal","","key","j","16.845741935483975","768","428","朋友","刚正","Positive","morality","","","","","","","","","",""
"581","","j","psychophysics","83","253142","0.0-7.0-3.0-0.69","4","3","4","5","3","4","3","4","4","4","5","1","0","1","2","-1","1","1","2","4","5","5","5","5","4","4","5","4","5","6","5","3","3","2","4","7","6","7","6","2","3","6","6","3","4","1","4","3","3","2","6","3","1","4","3","4","5","2","3","4","2","1","2","5","3","7","3","7","4","2","4","1","2","5","2","4","3","3","729263916630413313","王","693","Female","[""坏她"",""坏我"",""好她"",""好我""]","[""弱她"",""弱我"",""强她"",""强我""]","","","","","","","","yes","","","","","","","","","SRET","EW_formal","","key","j","16.666627659574473","768","428","朋友","敏捷","Positive","ability","","","","","","","","","",""
"517","","j","psychophysics","84","254663","0.0-7.0-3.0-0.70","4","3","4","5","3","4","3","4","4","4","5","1","0","1","2","-1","1","1","2","4","5","5","5","5","4","4","5","4","5","6","5","3","3","2","4","7","6","7","6","2","3","6","6","3","4","1","4","3","3","2","6","3","1","4","3","4","5","2","3","4","2","1","2","5","3","7","3","7","4","2","4","1","2","5","2","4","3","3","729263916630413313","王","693","Female","[""坏她"",""坏我"",""好她"",""好我""]","[""弱她"",""弱我"",""强她"",""强我""]","","","","","","","","yes","","","","","","","","","SRET","EW_formal","","key","j","16.667255555555393","768","428","自己","义气","Positive","morality","","","","","","","","","",""
"518","","f","psychophysics","85","256184","0.0-7.0-3.0-0.71","4","3","4","5","3","4","3","4","4","4","5","1","0","1","2","-1","1","1","2","4","5","5","5","5","4","4","5","4","5","6","5","3","3","2","4","7","6","7","6","2","3","6","6","3","4","1","4","3","3","2","6","3","1","4","3","4","5","2","3","4","2","1","2","5","3","7","3","7","4","2","4","1","2","5","2","4","3","3","729263916630413313","王","693","Female","[""坏她"",""坏我"",""好她"",""好我""]","[""弱她"",""弱我"",""强她"",""强我""]","","","","","","","","no","","","","","","","","","SRET","EW_formal","","key","f","16.66750000000013","768","428","自己","恶劣","Negative","morality","","","","","","","","","",""
"417","","j","psychophysics","86","257603","0.0-7.0-3.0-0.72","4","3","4","5","3","4","3","4","4","4","5","1","0","1","2","-1","1","1","2","4","5","5","5","5","4","4","5","4","5","6","5","3","3","2","4","7","6","7","6","2","3","6","6","3","4","1","4","3","3","2","6","3","1","4","3","4","5","2","3","4","2","1","2","5","3","7","3","7","4","2","4","1","2","5","2","4","3","3","729263916630413313","王","693","Female","[""坏她"",""坏我"",""好她"",""好我""]","[""弱她"",""弱我"",""强她"",""强我""]","","","","","","","","yes","","","","","","","","","SRET","EW_formal","","key","j","16.667345238095248","768","428","自己","忠义","Positive","morality","","","","","","","","","",""
"535","","j","psychophysics","87","259142","0.0-7.0-3.0-0.73","4","3","4","5","3","4","3","4","4","4","5","1","0","1","2","-1","1","1","2","4","5","5","5","5","4","4","5","4","5","6","5","3","3","2","4","7","6","7","6","2","3","6","6","3","4","1","4","3","3","2","6","3","1","4","3","4","5","2","3","4","2","1","2","5","3","7","3","7","4","2","4","1","2","5","2","4","3","3","729263916630413313","王","693","Female","[""坏她"",""坏我"",""好她"",""好我""]","[""弱她"",""弱我"",""强她"",""强我""]","","","","","","","","yes","","","","","","","","","SRET","EW_formal","","key","j","16.66534782608695","768","428","朋友","才尽","Negative","ability","","","","","","","","","",""
"589","","j","psychophysics","88","260735","0.0-7.0-3.0-0.74","4","3","4","5","3","4","3","4","4","4","5","1","0","1","2","-1","1","1","2","4","5","5","5","5","4","4","5","4","5","6","5","3","3","2","4","7","6","7","6","2","3","6","6","3","4","1","4","3","3","2","6","3","1","4","3","4","5","2","3","4","2","1","2","5","3","7","3","7","4","2","4","1","2","5","2","4","3","3","729263916630413313","王","693","Female","[""坏她"",""坏我"",""好她"",""好我""]","[""弱她"",""弱我"",""强她"",""强我""]","","","","","","","","yes","","","","","","","","","SRET","EW_formal","","key","j","16.664893617021278","768","428","自己","上进","Positive","ability","","","","","","","","","",""
"571","","j","psychophysics","89","262308","0.0-7.0-3.0-0.75","4","3","4","5","3","4","3","4","4","4","5","1","0","1","2","-1","1","1","2","4","5","5","5","5","4","4","5","4","5","6","5","3","3","2","4","7","6","7","6","2","3","6","6","3","4","1","4","3","3","2","6","3","1","4","3","4","5","2","3","4","2","1","2","5","3","7","3","7","4","2","4","1","2","5","2","4","3","3","729263916630413313","王","693","Female","[""坏她"",""坏我"",""好她"",""好我""]","[""弱她"",""弱我"",""强她"",""强我""]","","","","","","","","yes","","","","","","","","","SRET","EW_formal","","key","j","16.66499999999948","768","428","朋友","高尚","Positive","morality","","","","","","","","","",""
"558","","j","psychophysics","90","263871","0.0-7.0-3.0-0.76","4","3","4","5","3","4","3","4","4","4","5","1","0","1","2","-1","1","1","2","4","5","5","5","5","4","4","5","4","5","6","5","3","3","2","4","7","6","7","6","2","3","6","6","3","4","1","4","3","3","2","6","3","1","4","3","4","5","2","3","4","2","1","2","5","3","7","3","7","4","2","4","1","2","5","2","4","3","3","729263916630413313","王","693","Female","[""坏她"",""坏我"",""好她"",""好我""]","[""弱她"",""弱我"",""强她"",""强我""]","","","","","","","","yes","","","","","","","","","SRET","EW_formal","","key","j","16.668608695652043","768","428","朋友","干练","Positive","ability","","","","","","","","","",""
"583","","f","psychophysics","91","265455","0.0-7.0-3.0-0.77","4","3","4","5","3","4","3","4","4","4","5","1","0","1","2","-1","1","1","2","4","5","5","5","5","4","4","5","4","5","6","5","3","3","2","4","7","6","7","6","2","3","6","6","3","4","1","4","3","3","2","6","3","1","4","3","4","5","2","3","4","2","1","2","5","3","7","3","7","4","2","4","1","2","5","2","4","3","3","729263916630413313","王","693","Female","[""坏她"",""坏我"",""好她"",""好我""]","[""弱她"",""弱我"",""强她"",""强我""]","","","","","","","","no","","","","","","","","","SRET","EW_formal","","key","f","16.6650000000001","768","428","朋友","笨蛋","Negative","ability","","","","","","","","","",""
"529","","j","psychophysics","92","266987","0.0-7.0-3.0-0.78","4","3","4","5","3","4","3","4","4","4","5","1","0","1","2","-1","1","1","2","4","5","5","5","5","4","4","5","4","5","6","5","3","3","2","4","7","6","7","6","2","3","6","6","3","4","1","4","3","3","2","6","3","1","4","3","4","5","2","3","4","2","1","2","5","3","7","3","7","4","2","4","1","2","5","2","4","3","3","729263916630413313","王","693","Female","[""坏她"",""坏我"",""好她"",""好我""]","[""弱她"",""弱我"",""强她"",""强我""]","","","","","","","","yes","","","","","","","","","SRET","EW_formal","","key","j","16.667549450549803","768","428","自己","拜金","Negative","morality","","","","","","","","","",""
"618","","f","psychophysics","93","268607","0.0-7.0-3.0-0.79","4","3","4","5","3","4","3","4","4","4","5","1","0","1","2","-1","1","1","2","4","5","5","5","5","4","4","5","4","5","6","5","3","3","2","4","7","6","7","6","2","3","6","6","3","4","1","4","3","3","2","6","3","1","4","3","4","5","2","3","4","2","1","2","5","3","7","3","7","4","2","4","1","2","5","2","4","3","3","729263916630413313","王","693","Female","[""坏她"",""坏我"",""好她"",""好我""]","[""弱她"",""弱我"",""强她"",""强我""]","","","","","","","","no","","","","","","","","","SRET","EW_formal","","key","f","16.66605154639194","768","428","朋友","怠惰","Negative","ability","","","","","","","","","",""
"629","","j","psychophysics","94","270239","0.0-7.0-3.0-0.80","4","3","4","5","3","4","3","4","4","4","5","1","0","1","2","-1","1","1","2","4","5","5","5","5","4","4","5","4","5","6","5","3","3","2","4","7","6","7","6","2","3","6","6","3","4","1","4","3","3","2","6","3","1","4","3","4","5","2","3","4","2","1","2","5","3","7","3","7","4","2","4","1","2","5","2","4","3","3","729263916630413313","王","693","Female","[""坏她"",""坏我"",""好她"",""好我""]","[""弱她"",""弱我"",""强她"",""强我""]","","","","","","","","yes","","","","","","","","","SRET","EW_formal","","key","j","16.664701030928086","768","428","自己","骁勇","Positive","ability","","","","","","","","","",""
"491","","j","psychophysics","95","271731","0.0-7.0-3.0-0.81","4","3","4","5","3","4","3","4","4","4","5","1","0","1","2","-1","1","1","2","4","5","5","5","5","4","4","5","4","5","6","5","3","3","2","4","7","6","7","6","2","3","6","6","3","4","1","4","3","3","2","6","3","1","4","3","4","5","2","3","4","2","1","2","5","3","7","3","7","4","2","4","1","2","5","2","4","3","3","729263916630413313","王","693","Female","[""坏她"",""坏我"",""好她"",""好我""]","[""弱她"",""弱我"",""强她"",""强我""]","","","","","","","","yes","","","","","","","","","SRET","EW_formal","","key","j","16.667079545454314","768","428","朋友","高洁","Positive","morality","","","","","","","","","",""
"408","","j","psychophysics","96","273146","0.0-7.0-3.0-0.82","4","3","4","5","3","4","3","4","4","4","5","1","0","1","2","-1","1","1","2","4","5","5","5","5","4","4","5","4","5","6","5","3","3","2","4","7","6","7","6","2","3","6","6","3","4","1","4","3","3","2","6","3","1","4","3","4","5","2","3","4","2","1","2","5","3","7","3","7","4","2","4","1","2","5","2","4","3","3","729263916630413313","王","693","Female","[""坏她"",""坏我"",""好她"",""好我""]","[""弱她"",""弱我"",""强她"",""强我""]","","","","","","","","yes","","","","","","","","","SRET","EW_formal","","key","j","16.664404761904734","768","428","朋友","无敌","Positive","ability","","","","","","","","","",""
"689","","f","psychophysics","97","274843","0.0-7.0-3.0-0.83","4","3","4","5","3","4","3","4","4","4","5","1","0","1","2","-1","1","1","2","4","5","5","5","5","4","4","5","4","5","6","5","3","3","2","4","7","6","7","6","2","3","6","6","3","4","1","4","3","3","2","6","3","1","4","3","4","5","2","3","4","2","1","2","5","3","7","3","7","4","2","4","1","2","5","2","4","3","3","729263916630413313","王","693","Female","[""坏她"",""坏我"",""好她"",""好我""]","[""弱她"",""弱我"",""强她"",""强我""]","","","","","","","","no","","","","","","","","","SRET","EW_formal","","key","f","16.667653465346724","768","428","朋友","不良","Negative","morality","","","","","","","","","",""
"501","","f","psychophysics","98","276351","0.0-7.0-3.0-0.84","4","3","4","5","3","4","3","4","4","4","5","1","0","1","2","-1","1","1","2","4","5","5","5","5","4","4","5","4","5","6","5","3","3","2","4","7","6","7","6","2","3","6","6","3","4","1","4","3","3","2","6","3","1","4","3","4","5","2","3","4","2","1","2","5","3","7","3","7","4","2","4","1","2","5","2","4","3","3","729263916630413313","王","693","Female","[""坏她"",""坏我"",""好她"",""好我""]","[""弱她"",""弱我"",""强她"",""强我""]","","","","","","","","no","","","","","","","","","SRET","EW_formal","","key","f","16.664966292134512","768","428","朋友","低俗","Negative","morality","","","","","","","","","",""
"561","","j","psychophysics","99","277915","0.0-7.0-3.0-0.85","4","3","4","5","3","4","3","4","4","4","5","1","0","1","2","-1","1","1","2","4","5","5","5","5","4","4","5","4","5","6","5","3","3","2","4","7","6","7","6","2","3","6","6","3","4","1","4","3","3","2","6","3","1","4","3","4","5","2","3","4","2","1","2","5","3","7","3","7","4","2","4","1","2","5","2","4","3","3","729263916630413313","王","693","Female","[""坏她"",""坏我"",""好她"",""好我""]","[""弱她"",""弱我"",""强她"",""强我""]","","","","","","","","yes","","","","","","","","","SRET","EW_formal","","key","j","16.666451612903025","768","428","自己","主见","Positive","ability","","","","","","","","","",""
"606","","j","psychophysics","100","279527","0.0-7.0-3.0-0.86","4","3","4","5","3","4","3","4","4","4","5","1","0","1","2","-1","1","1","2","4","5","5","5","5","4","4","5","4","5","6","5","3","3","2","4","7","6","7","6","2","3","6","6","3","4","1","4","3","3","2","6","3","1","4","3","4","5","2","3","4","2","1","2","5","3","7","3","7","4","2","4","1","2","5","2","4","3","3","729263916630413313","王","693","Female","[""坏她"",""坏我"",""好她"",""好我""]","[""弱她"",""弱我"",""强她"",""强我""]","","","","","","","","yes","","","","","","","","","SRET","EW_formal","","key","j","16.665333333333063","768","428","朋友","素养","Positive","morality","","","","","","","","","",""
"626","","f","psychophysics","101","281156","0.0-7.0-3.0-0.87","4","3","4","5","3","4","3","4","4","4","5","1","0","1","2","-1","1","1","2","4","5","5","5","5","4","4","5","4","5","6","5","3","3","2","4","7","6","7","6","2","3","6","6","3","4","1","4","3","3","2","6","3","1","4","3","4","5","2","3","4","2","1","2","5","3","7","3","7","4","2","4","1","2","5","2","4","3","3","729263916630413313","王","693","Female","[""坏她"",""坏我"",""好她"",""好我""]","[""弱她"",""弱我"",""强她"",""强我""]","","","","","","","","no","","","","","","","","","SRET","EW_formal","","key","f","16.665463917526253","768","428","自己","缓慢","Negative","ability","","","","","","","","","",""
"4473","
    <p><div style='color:white;font-size:35px; line-height:20px;'>计算任务</div></p><br>
    <p><div style='color:red;font-size:25px; line-height:20px;'>接下来，您将看到一些四则运算题，<b>请从键盘选择 0-9 进行反应。</b></div></p>
    <p><div class='footer' style='color:white;font-size:25px; line-height:20px;'>如果对本实验还有不清楚之处，请立即向实验员咨询。</p><p style='color:white;font-size:25px; line-height:20px;'>如果您明白了规则：</p><p style='color:white;font-size:22px; line-height:20px;'>请按 继续 进入练习</p>
    </div>
    ","0","html-button-response","102","285631","0.0-7.0-4.0","4","3","4","5","3","4","3","4","4","4","5","1","0","1","2","-1","1","1","2","4","5","5","5","5","4","4","5","4","5","6","5","3","3","2","4","7","6","7","6","2","3","6","6","3","4","1","4","3","3","2","6","3","1","4","3","4","5","2","3","4","2","1","2","5","3","7","3","7","4","2","4","1","2","5","2","4","3","3","729263916630413313","王","693","Female","[""坏她"",""坏我"",""好她"",""好我""]","[""弱她"",""弱我"",""强她"",""强我""]","","","","","","","","","","","","","","","","","SRET_math","math_instructions","Tue Oct 17 2023 22:25:49 GMT+0800 (中国标准时间)","","","","","","","","","","","","","","","","","","",""
"3169","","5","psychophysics","103","288802","0.0-7.0-5.0-0.0","4","3","4","5","3","4","3","4","4","4","5","1","0","1","2","-1","1","1","2","4","5","5","5","5","4","4","5","4","5","6","5","3","3","2","4","7","6","7","6","2","3","6","6","3","4","1","4","3","3","2","6","3","1","4","3","4","5","2","3","4","2","1","2","5","3","7","3","7","4","2","4","1","2","5","2","4","3","3","729263916630413313","王","693","Female","[""坏她"",""坏我"",""好她"",""好我""]","[""弱她"",""弱我"",""强她"",""强我""]","","","","","","","","5","","","","","","","","","SRET","SRET_math_calculate","","key","5","16.66557894736853","768","428","","","","","17-12= ? ","5","1","","","","","","",""
"3021","","6","psychophysics","104","291826","0.0-7.0-5.0-0.1","4","3","4","5","3","4","3","4","4","4","5","1","0","1","2","-1","1","1","2","4","5","5","5","5","4","4","5","4","5","6","5","3","3","2","4","7","6","7","6","2","3","6","6","3","4","1","4","3","3","2","6","3","1","4","3","4","5","2","3","4","2","1","2","5","3","7","3","7","4","2","4","1","2","5","2","4","3","3","729263916630413313","王","693","Female","[""坏她"",""坏我"",""好她"",""好我""]","[""弱她"",""弱我"",""强她"",""强我""]","","","","","","","","6","","","","","","","","","SRET","SRET_math_calculate","","key","6","16.66630386740345","768","428","","","","","2*3= ?","6","1","","","","","","",""
"2383","","8","psychophysics","105","294211","0.0-7.0-5.0-0.2","4","3","4","5","3","4","3","4","4","4","5","1","0","1","2","-1","1","1","2","4","5","5","5","5","4","4","5","4","5","6","5","3","3","2","4","7","6","7","6","2","3","6","6","3","4","1","4","3","3","2","6","3","1","4","3","4","5","2","3","4","2","1","2","5","3","7","3","7","4","2","4","1","2","5","2","4","3","3","729263916630413313","王","693","Female","[""坏她"",""坏我"",""好她"",""好我""]","[""弱她"",""弱我"",""强她"",""强我""]","","","","","","","","8","","","","","","","","","SRET","SRET_math_calculate","","key","8","16.665936619718476","768","428","","","","","5+3= ?","8","1","","","","","","",""
"2130","","7","psychophysics","106","296342","0.0-7.0-5.0-0.3","4","3","4","5","3","4","3","4","4","4","5","1","0","1","2","-1","1","1","2","4","5","5","5","5","4","4","5","4","5","6","5","3","3","2","4","7","6","7","6","2","3","6","6","3","4","1","4","3","3","2","6","3","1","4","3","4","5","2","3","4","2","1","2","5","3","7","3","7","4","2","4","1","2","5","2","4","3","3","729263916630413313","王","693","Female","[""坏她"",""坏我"",""好她"",""好我""]","[""弱她"",""弱我"",""强她"",""强我""]","","","","","","","","7","","","","","","","","","SRET","SRET_math_calculate","","key","7","16.666803149606366","768","428","","","","","8-1= ?","7","1","","","","","","",""
"2455","","3","psychophysics","107","298799","0.0-7.0-5.0-0.4","4","3","4","5","3","4","3","4","4","4","5","1","0","1","2","-1","1","1","2","4","5","5","5","5","4","4","5","4","5","6","5","3","3","2","4","7","6","7","6","2","3","6","6","3","4","1","4","3","3","2","6","3","1","4","3","4","5","2","3","4","2","1","2","5","3","7","3","7","4","2","4","1","2","5","2","4","3","3","729263916630413313","王","693","Female","[""坏她"",""坏我"",""好她"",""好我""]","[""弱她"",""弱我"",""强她"",""强我""]","","","","","","","","3","","","","","","","","","SRET","SRET_math_calculate","","key","3","16.666417808219318","768","428","","","","","6/2= ?","3","1","","","","","","",""
"4091","","7","psychophysics","108","302891","0.0-7.0-5.0-0.5","4","3","4","5","3","4","3","4","4","4","5","1","0","1","2","-1","1","1","2","4","5","5","5","5","4","4","5","4","5","6","5","3","3","2","4","7","6","7","6","2","3","6","6","3","4","1","4","3","3","2","6","3","1","4","3","4","5","2","3","4","2","1","2","5","3","7","3","7","4","2","4","1","2","5","2","4","3","3","729263916630413313","王","693","Female","[""坏她"",""坏我"",""好她"",""好我""]","[""弱她"",""弱我"",""强她"",""强我""]","","","","","","","","7","","","","","","","","","SRET","SRET_math_calculate","","key","7","16.666812244897983","768","428","","","","","49/7 = ?","7","1","","","","","","",""
"2626","","9","psychophysics","109","305519","0.0-7.0-5.0-0.6","4","3","4","5","3","4","3","4","4","4","5","1","0","1","2","-1","1","1","2","4","5","5","5","5","4","4","5","4","5","6","5","3","3","2","4","7","6","7","6","2","3","6","6","3","4","1","4","3","3","2","6","3","1","4","3","4","5","2","3","4","2","1","2","5","3","7","3","7","4","2","4","1","2","5","2","4","3","3","729263916630413313","王","693","Female","[""坏她"",""坏我"",""好她"",""好我""]","[""弱她"",""弱我"",""强她"",""强我""]","","","","","","","","9","","","","","","","","","SRET","SRET_math_calculate","","key","9","16.667243589743755","768","428","","","","","3*3= ?","9","1","","","","","","",""
"2294","","0","psychophysics","110","307816","0.0-7.0-5.0-0.7","4","3","4","5","3","4","3","4","4","4","5","1","0","1","2","-1","1","1","2","4","5","5","5","5","4","4","5","4","5","6","5","3","3","2","4","7","6","7","6","2","3","6","6","3","4","1","4","3","3","2","6","3","1","4","3","4","5","2","3","4","2","1","2","5","3","7","3","7","4","2","4","1","2","5","2","4","3","3","729263916630413313","王","693","Female","[""坏她"",""坏我"",""好她"",""好我""]","[""弱她"",""弱我"",""强她"",""强我""]","","","","","","","","0","","","","","","","","","SRET","SRET_math_calculate","","key","0","16.66615328467179","768","428","","","","","9-9= ?","0","1","","","","","","",""
"3110","","2","psychophysics","111","310927","0.0-7.0-5.0-0.8","4","3","4","5","3","4","3","4","4","4","5","1","0","1","2","-1","1","1","2","4","5","5","5","5","4","4","5","4","5","6","5","3","3","2","4","7","6","7","6","2","3","6","6","3","4","1","4","3","3","2","6","3","1","4","3","4","5","2","3","4","2","1","2","5","3","7","3","7","4","2","4","1","2","5","2","4","3","3","729263916630413313","王","693","Female","[""坏她"",""坏我"",""好她"",""好我""]","[""弱她"",""弱我"",""强她"",""强我""]","","","","","","","","2","","","","","","","","","SRET","SRET_math_calculate","","key","2","16.66617741935476","768","428","","","","","90/45= ?","2","1","","","","","","",""
"2698","","8","psychophysics","112","313627","0.0-7.0-5.0-0.9","4","3","4","5","3","4","3","4","4","4","5","1","0","1","2","-1","1","1","2","4","5","5","5","5","4","4","5","4","5","6","5","3","3","2","4","7","6","7","6","2","3","6","6","3","4","1","4","3","3","2","6","3","1","4","3","4","5","2","3","4","2","1","2","5","3","7","3","7","4","2","4","1","2","5","2","4","3","3","729263916630413313","王","693","Female","[""坏她"",""坏我"",""好她"",""好我""]","[""弱她"",""弱我"",""强她"",""强我""]","","","","","","","","8","","","","","","","","","SRET","SRET_math_calculate","","key","8","16.66606211180109","768","428","","","","","3+5= ?","8","1","","","","","","",""
"2435","","0","psychophysics","113","316063","0.0-7.0-5.0-0.10","4","3","4","5","3","4","3","4","4","4","5","1","0","1","2","-1","1","1","2","4","5","5","5","5","4","4","5","4","5","6","5","3","3","2","4","7","6","7","6","2","3","6","6","3","4","1","4","3","3","2","6","3","1","4","3","4","5","2","3","4","2","1","2","5","3","7","3","7","4","2","4","1","2","5","2","4","3","3","729263916630413313","王","693","Female","[""坏她"",""坏我"",""好她"",""好我""]","[""弱她"",""弱我"",""强她"",""强我""]","","","","","","","","0","","","","","","","","","SRET","SRET_math_calculate","","key","0","16.66702758620678","768","428","","","","","22-22= ?","0","1","","","","","","",""
"4083","","5","psychophysics","114","320147","0.0-7.0-5.0-0.11","4","3","4","5","3","4","3","4","4","4","5","1","0","1","2","-1","1","1","2","4","5","5","5","5","4","4","5","4","5","6","5","3","3","2","4","7","6","7","6","2","3","6","6","3","4","1","4","3","3","2","6","3","1","4","3","4","5","2","3","4","2","1","2","5","3","7","3","7","4","2","4","1","2","5","2","4","3","3","729263916630413313","王","693","Female","[""坏她"",""坏我"",""好她"",""好我""]","[""弱她"",""弱我"",""强她"",""强我""]","","","","","","","","5","","","","","","","","","SRET","SRET_math_calculate","","key","5","16.66619672131158","768","428","","","","","14-9= ?","5","1","","","","","","",""
"2203","","5","psychophysics","115","322352","0.0-7.0-5.0-0.12","4","3","4","5","3","4","3","4","4","4","5","1","0","1","2","-1","1","1","2","4","5","5","5","5","4","4","5","4","5","6","5","3","3","2","4","7","6","7","6","2","3","6","6","3","4","1","4","3","3","2","6","3","1","4","3","4","5","2","3","4","2","1","2","5","3","7","3","7","4","2","4","1","2","5","2","4","3","3","729263916630413313","王","693","Female","[""坏她"",""坏我"",""好她"",""好我""]","[""弱她"",""弱我"",""强她"",""强我""]","","","","","","","","5","","","","","","","","","SRET","SRET_math_calculate","","key","5","16.666847328244412","768","428","","","","","2+3= ?","5","1","","","","","","",""
"2378","","7","psychophysics","116","324731","0.0-7.0-5.0-0.13","4","3","4","5","3","4","3","4","4","4","5","1","0","1","2","-1","1","1","2","4","5","5","5","5","4","4","5","4","5","6","5","3","3","2","4","7","6","7","6","2","3","6","6","3","4","1","4","3","3","2","6","3","1","4","3","4","5","2","3","4","2","1","2","5","3","7","3","7","4","2","4","1","2","5","2","4","3","3","729263916630413313","王","693","Female","[""坏她"",""坏我"",""好她"",""好我""]","[""弱她"",""弱我"",""强她"",""强我""]","","","","","","","","7","","","","","","","","","SRET","SRET_math_calculate","","key","7","16.66588732394395","768","428","","","","","1+6= ?","7","1","","","","","","",""
"2523","","8","psychophysics","117","327255","0.0-7.0-5.0-0.14","4","3","4","5","3","4","3","4","4","4","5","1","0","1","2","-1","1","1","2","4","5","5","5","5","4","4","5","4","5","6","5","3","3","2","4","7","6","7","6","2","3","6","6","3","4","1","4","3","3","2","6","3","1","4","3","4","5","2","3","4","2","1","2","5","3","7","3","7","4","2","4","1","2","5","2","4","3","3","729263916630413313","王","693","Female","[""坏她"",""坏我"",""好她"",""好我""]","[""弱她"",""弱我"",""强她"",""强我""]","","","","","","","","8","","","","","","","","","SRET","SRET_math_calculate","","key","8","16.66794039735097","768","428","","","","","8*1= ?","8","1","","","","","","",""
"2434","","3","psychophysics","118","329691","0.0-7.0-5.0-0.15","4","3","4","5","3","4","3","4","4","4","5","1","0","1","2","-1","1","1","2","4","5","5","5","5","4","4","5","4","5","6","5","3","3","2","4","7","6","7","6","2","3","6","6","3","4","1","4","3","3","2","6","3","1","4","3","4","5","2","3","4","2","1","2","5","3","7","3","7","4","2","4","1","2","5","2","4","3","3","729263916630413313","王","693","Female","[""坏她"",""坏我"",""好她"",""好我""]","[""弱她"",""弱我"",""强她"",""强我""]","","","","","","","","3","","","","","","","","","SRET","SRET_math_calculate","","key","3","16.666724137930956","768","428","","","","","9/3= ?","3","1","","","","","","",""
"2362","","6","psychophysics","119","332054","0.0-7.0-5.0-0.16","4","3","4","5","3","4","3","4","4","4","5","1","0","1","2","-1","1","1","2","4","5","5","5","5","4","4","5","4","5","6","5","3","3","2","4","7","6","7","6","2","3","6","6","3","4","1","4","3","3","2","6","3","1","4","3","4","5","2","3","4","2","1","2","5","3","7","3","7","4","2","4","1","2","5","2","4","3","3","729263916630413313","王","693","Female","[""坏她"",""坏我"",""好她"",""好我""]","[""弱她"",""弱我"",""强她"",""强我""]","","","","","","","","6","","","","","","","","","SRET","SRET_math_calculate","","key","6","16.665063829787062","768","428","","","","","3*2= ?","6","1","","","","","","",""
"2043","","7","psychophysics","120","334100","0.0-7.0-5.0-0.17","4","3","4","5","3","4","3","4","4","4","5","1","0","1","2","-1","1","1","2","4","5","5","5","5","4","4","5","4","5","6","5","3","3","2","4","7","6","7","6","2","3","6","6","3","4","1","4","3","3","2","6","3","1","4","3","4","5","2","3","4","2","1","2","5","3","7","3","7","4","2","4","1","2","5","2","4","3","3","729263916630413313","王","693","Female","[""坏她"",""坏我"",""好她"",""好我""]","[""弱她"",""弱我"",""强她"",""强我""]","","","","","","","","7","","","","","","","","","SRET","SRET_math_calculate","","key","7","16.66778512396667","768","428","","","","","6+1= ?","7","1","","","","","","",""
"2106","","9","psychophysics","121","336207","0.0-7.0-5.0-0.18","4","3","4","5","3","4","3","4","4","4","5","1","0","1","2","-1","1","1","2","4","5","5","5","5","4","4","5","4","5","6","5","3","3","2","4","7","6","7","6","2","3","6","6","3","4","1","4","3","3","2","6","3","1","4","3","4","5","2","3","4","2","1","2","5","3","7","3","7","4","2","4","1","2","5","2","4","3","3","729263916630413313","王","693","Female","[""坏她"",""坏我"",""好她"",""好我""]","[""弱她"",""弱我"",""强她"",""强我""]","","","","","","","","9","","","","","","","","","SRET","SRET_math_calculate","","key","9","16.666801587301528","768","428","","","","","8+1= ?","9","1","","","","","","",""
"2766","","7","psychophysics","122","338975","0.0-7.0-5.0-0.19","4","3","4","5","3","4","3","4","4","4","5","1","0","1","2","-1","1","1","2","4","5","5","5","5","4","4","5","4","5","6","5","3","3","2","4","7","6","7","6","2","3","6","6","3","4","1","4","3","3","2","6","3","1","4","3","4","5","2","3","4","2","1","2","5","3","7","3","7","4","2","4","1","2","5","2","4","3","3","729263916630413313","王","693","Female","[""坏她"",""坏我"",""好她"",""好我""]","[""弱她"",""弱我"",""强她"",""强我""]","","","","","","","","7","","","","","","","","","SRET","SRET_math_calculate","","key","7","16.6655757575758","768","428","","","","","12-5= ?","7","1","","","","","","",""
"2350","","0","psychophysics","123","341327","0.0-7.0-5.0-0.20","4","3","4","5","3","4","3","4","4","4","5","1","0","1","2","-1","1","1","2","4","5","5","5","5","4","4","5","4","5","6","5","3","3","2","4","7","6","7","6","2","3","6","6","3","4","1","4","3","3","2","6","3","1","4","3","4","5","2","3","4","2","1","2","5","3","7","3","7","4","2","4","1","2","5","2","4","3","3","729263916630413313","王","693","Female","[""坏她"",""坏我"",""好她"",""好我""]","[""弱她"",""弱我"",""强她"",""强我""]","","","","","","","","0","","","","","","","","","SRET","SRET_math_calculate","","key","0","16.666800000000098","768","428","","","","","1-1= ?","0","1","","","","","","",""
"2192","","7","psychophysics","124","343520","0.0-7.0-5.0-0.21","4","3","4","5","3","4","3","4","4","4","5","1","0","1","2","-1","1","1","2","4","5","5","5","5","4","4","5","4","5","6","5","3","3","2","4","7","6","7","6","2","3","6","6","3","4","1","4","3","3","2","6","3","1","4","3","4","5","2","3","4","2","1","2","5","3","7","3","7","4","2","4","1","2","5","2","4","3","3","729263916630413313","王","693","Female","[""坏她"",""坏我"",""好她"",""好我""]","[""弱她"",""弱我"",""强她"",""强我""]","","","","","","","","7","","","","","","","","","SRET","SRET_math_calculate","","key","7","16.667656488549532","768","428","","","","","9-2= ?","7","1","","","","","","",""
"2282","","1","psychophysics","125","345804","0.0-7.0-5.0-0.22","4","3","4","5","3","4","3","4","4","4","5","1","0","1","2","-1","1","1","2","4","5","5","5","5","4","4","5","4","5","6","5","3","3","2","4","7","6","7","6","2","3","6","6","3","4","1","4","3","3","2","6","3","1","4","3","4","5","2","3","4","2","1","2","5","3","7","3","7","4","2","4","1","2","5","2","4","3","3","729263916630413313","王","693","Female","[""坏她"",""坏我"",""好她"",""好我""]","[""弱她"",""弱我"",""强她"",""强我""]","","","","","","","","1","","","","","","","","","SRET","SRET_math_calculate","","key","1","16.666367647058745","768","428","","","","","9-8= ?","1","1","","","","","","",""
"2394","","8","psychophysics","126","348200","0.0-7.0-5.0-0.23","4","3","4","5","3","4","3","4","4","4","5","1","0","1","2","-1","1","1","2","4","5","5","5","5","4","4","5","4","5","6","5","3","3","2","4","7","6","7","6","2","3","6","6","3","4","1","4","3","3","2","6","3","1","4","3","4","5","2","3","4","2","1","2","5","3","7","3","7","4","2","4","1","2","5","2","4","3","3","729263916630413313","王","693","Female","[""坏她"",""坏我"",""好她"",""好我""]","[""弱她"",""弱我"",""强她"",""强我""]","","","","","","","","8","","","","","","","","","SRET","SRET_math_calculate","","key","8","16.66627464788715","768","428","","","","","2*4= ?","8","1","","","","","","",""
"2250","","0","psychophysics","127","350452","0.0-7.0-5.0-0.24","4","3","4","5","3","4","3","4","4","4","5","1","0","1","2","-1","1","1","2","4","5","5","5","5","4","4","5","4","5","6","5","3","3","2","4","7","6","7","6","2","3","6","6","3","4","1","4","3","3","2","6","3","1","4","3","4","5","2","3","4","2","1","2","5","3","7","3","7","4","2","4","1","2","5","2","4","3","3","729263916630413313","王","693","Female","[""坏她"",""坏我"",""好她"",""好我""]","[""弱她"",""弱我"",""强她"",""强我""]","","","","","","","","0","","","","","","","","","SRET","SRET_math_calculate","","key","0","16.666111940298656","768","428","","","","","5*0= ?","0","1","","","","","","",""
"2284","","5","psychophysics","128","352739","0.0-7.0-5.0-0.25","4","3","4","5","3","4","3","4","4","4","5","1","0","1","2","-1","1","1","2","4","5","5","5","5","4","4","5","4","5","6","5","3","3","2","4","7","6","7","6","2","3","6","6","3","4","1","4","3","3","2","6","3","1","4","3","4","5","2","3","4","2","1","2","5","3","7","3","7","4","2","4","1","2","5","2","4","3","3","729263916630413313","王","693","Female","[""坏她"",""坏我"",""好她"",""好我""]","[""弱她"",""弱我"",""强她"",""强我""]","","","","","","","","5","","","","","","","","","SRET","SRET_math_calculate","","key","5","16.665284671533062","768","428","","","","","8-3= ? ","5","1","","","","","","",""
"2211","","4","psychophysics","129","354952","0.0-7.0-5.0-0.26","4","3","4","5","3","4","3","4","4","4","5","1","0","1","2","-1","1","1","2","4","5","5","5","5","4","4","5","4","5","6","5","3","3","2","4","7","6","7","6","2","3","6","6","3","4","1","4","3","3","2","6","3","1","4","3","4","5","2","3","4","2","1","2","5","3","7","3","7","4","2","4","1","2","5","2","4","3","3","729263916630413313","王","693","Female","[""坏她"",""坏我"",""好她"",""好我""]","[""弱她"",""弱我"",""强她"",""强我""]","","","","","","","","4","","","","","","","","","SRET","SRET_math_calculate","","key","4","16.666229007633685","768","428","","","","","2+2= ?","4","1","","","","","","",""
"2205","","2","psychophysics","130","357159","0.0-7.0-5.0-0.27","4","3","4","5","3","4","3","4","4","4","5","1","0","1","2","-1","1","1","2","4","5","5","5","5","4","4","5","4","5","6","5","3","3","2","4","7","6","7","6","2","3","6","6","3","4","1","4","3","3","2","6","3","1","4","3","4","5","2","3","4","2","1","2","5","3","7","3","7","4","2","4","1","2","5","2","4","3","3","729263916630413313","王","693","Female","[""坏她"",""坏我"",""好她"",""好我""]","[""弱她"",""弱我"",""强她"",""强我""]","","","","","","","","2","","","","","","","","","SRET","SRET_math_calculate","","key","2","16.66615151515174","768","428","","","","","22/11= ?","2","1","","","","","","",""
"3043","","3","psychophysics","131","360203","0.0-7.0-5.0-0.28","4","3","4","5","3","4","3","4","4","4","5","1","0","1","2","-1","1","1","2","4","5","5","5","5","4","4","5","4","5","6","5","3","3","2","4","7","6","7","6","2","3","6","6","3","4","1","4","3","3","2","6","3","1","4","3","4","5","2","3","4","2","1","2","5","3","7","3","7","4","2","4","1","2","5","2","4","3","3","729263916630413313","王","693","Female","[""坏她"",""坏我"",""好她"",""好我""]","[""弱她"",""弱我"",""强她"",""强我""]","","","","","","","","3","","","","","","","","","SRET","SRET_math_calculate","","key","3","16.66670329670344","768","428","","","","","11-8= ?","3","1","","","","","","",""
"2558","","9","psychophysics","132","362763","0.0-7.0-5.0-0.29","4","3","4","5","3","4","3","4","4","4","5","1","0","1","2","-1","1","1","2","4","5","5","5","5","4","4","5","4","5","6","5","3","3","2","4","7","6","7","6","2","3","6","6","3","4","1","4","3","3","2","6","3","1","4","3","4","5","2","3","4","2","1","2","5","3","7","3","7","4","2","4","1","2","5","2","4","3","3","729263916630413313","王","693","Female","[""坏她"",""坏我"",""好她"",""好我""]","[""弱她"",""弱我"",""强她"",""强我""]","","","","","","","","9","","","","","","","","","SRET","SRET_math_calculate","","key","9","16.666796052631597","768","428","","","","","43-34= ?","9","1","","","","","","",""
"2039","","9","psychophysics","133","364803","0.0-7.0-5.0-0.30","4","3","4","5","3","4","3","4","4","4","5","1","0","1","2","-1","1","1","2","4","5","5","5","5","4","4","5","4","5","6","5","3","3","2","4","7","6","7","6","2","3","6","6","3","4","1","4","3","3","2","6","3","1","4","3","4","5","2","3","4","2","1","2","5","3","7","3","7","4","2","4","1","2","5","2","4","3","3","729263916630413313","王","693","Female","[""坏她"",""坏我"",""好她"",""好我""]","[""弱她"",""弱我"",""强她"",""强我""]","","","","","","","","9","","","","","","","","","SRET","SRET_math_calculate","","key","9","16.667827868852747","768","428","","","","","1+8= ?","9","1","","","","","","",""
"2209","","1","psychophysics","134","367014","0.0-7.0-5.0-0.31","4","3","4","5","3","4","3","4","4","4","5","1","0","1","2","-1","1","1","2","4","5","5","5","5","4","4","5","4","5","6","5","3","3","2","4","7","6","7","6","2","3","6","6","3","4","1","4","3","3","2","6","3","1","4","3","4","5","2","3","4","2","1","2","5","3","7","3","7","4","2","4","1","2","5","2","4","3","3","729263916630413313","王","693","Female","[""坏她"",""坏我"",""好她"",""好我""]","[""弱她"",""弱我"",""强她"",""强我""]","","","","","","","","1","","","","","","","","","SRET","SRET_math_calculate","","key","1","16.666114503816782","768","428","","","","","4/4= ?","1","1","","","","","","",""
"3175","","4","psychophysics","135","370190","0.0-7.0-5.0-0.32","4","3","4","5","3","4","3","4","4","4","5","1","0","1","2","-1","1","1","2","4","5","5","5","5","4","4","5","4","5","6","5","3","3","2","4","7","6","7","6","2","3","6","6","3","4","1","4","3","3","2","6","3","1","4","3","4","5","2","3","4","2","1","2","5","3","7","3","7","4","2","4","1","2","5","2","4","3","3","729263916630413313","王","693","Female","[""坏她"",""坏我"",""好她"",""好我""]","[""弱她"",""弱我"",""强她"",""强我""]","","","","","","","","4","","","","","","","","","SRET","SRET_math_calculate","","key","4","16.667300000000058","768","428","","","","","9-5= ?","4","1","","","","","","",""
"4175","","8","psychophysics","136","374367","0.0-7.0-5.0-0.33","4","3","4","5","3","4","3","4","4","4","5","1","0","1","2","-1","1","1","2","4","5","5","5","5","4","4","5","4","5","6","5","3","3","2","4","7","6","7","6","2","3","6","6","3","4","1","4","3","3","2","6","3","1","4","3","4","5","2","3","4","2","1","2","5","3","7","3","7","4","2","4","1","2","5","2","4","3","3","729263916630413313","王","693","Female","[""坏她"",""坏我"",""好她"",""好我""]","[""弱她"",""弱我"",""强她"",""强我""]","","","","","","","","8","","","","","","","","","SRET","SRET_math_calculate","","key","8","16.66661044176697","768","428","","","","","56/7= ?","8","1","","","","","","",""
"2302","","4","psychophysics","137","376671","0.0-7.0-5.0-0.34","4","3","4","5","3","4","3","4","4","4","5","1","0","1","2","-1","1","1","2","4","5","5","5","5","4","4","5","4","5","6","5","3","3","2","4","7","6","7","6","2","3","6","6","3","4","1","4","3","3","2","6","3","1","4","3","4","5","2","3","4","2","1","2","5","3","7","3","7","4","2","4","1","2","5","2","4","3","3","729263916630413313","王","693","Female","[""坏她"",""坏我"",""好她"",""好我""]","[""弱她"",""弱我"",""强她"",""强我""]","","","","","","","","4","","","","","","","","","SRET","SRET_math_calculate","","key","4","16.66591304347832","768","428","","","","","8-4= ?","4","1","","","","","","",""
"2095","","8","psychophysics","138","378767","0.0-7.0-5.0-0.35","4","3","4","5","3","4","3","4","4","4","5","1","0","1","2","-1","1","1","2","4","5","5","5","5","4","4","5","4","5","6","5","3","3","2","4","7","6","7","6","2","3","6","6","3","4","1","4","3","3","2","6","3","1","4","3","4","5","2","3","4","2","1","2","5","3","7","3","7","4","2","4","1","2","5","2","4","3","3","729263916630413313","王","693","Female","[""坏她"",""坏我"",""好她"",""好我""]","[""弱她"",""弱我"",""强她"",""强我""]","","","","","","","","8","","","","","","","","","SRET","SRET_math_calculate","","key","8","16.665814516128926","768","428","","","","","9-1= ?","8","1","","","","","","",""
"2365","","2","psychophysics","139","381135","0.0-7.0-5.0-0.36","4","3","4","5","3","4","3","4","4","4","5","1","0","1","2","-1","1","1","2","4","5","5","5","5","4","4","5","4","5","6","5","3","3","2","4","7","6","7","6","2","3","6","6","3","4","1","4","3","3","2","6","3","1","4","3","4","5","2","3","4","2","1","2","5","3","7","3","7","4","2","4","1","2","5","2","4","3","3","729263916630413313","王","693","Female","[""坏她"",""坏我"",""好她"",""好我""]","[""弱她"",""弱我"",""强她"",""强我""]","","","","","","","","2","","","","","","","","","SRET","SRET_math_calculate","","key","2","16.665563380281757","768","428","","","","","18/9= ?","2","1","","","","","","",""
"2325","","7","psychophysics","140","383463","0.0-7.0-5.0-0.37","4","3","4","5","3","4","3","4","4","4","5","1","0","1","2","-1","1","1","2","4","5","5","5","5","4","4","5","4","5","6","5","3","3","2","4","7","6","7","6","2","3","6","6","3","4","1","4","3","3","2","6","3","1","4","3","4","5","2","3","4","2","1","2","5","3","7","3","7","4","2","4","1","2","5","2","4","3","3","729263916630413313","王","693","Female","[""坏她"",""坏我"",""好她"",""好我""]","[""弱她"",""弱我"",""强她"",""强我""]","","","","","","","","7","","","","","","","","","SRET","SRET_math_calculate","","key","7","16.66677536231852","768","428","","","","","21/3= ? ","7","1","","","","","","",""
"2919","","8","psychophysics","141","386383","0.0-7.0-5.0-0.38","4","3","4","5","3","4","3","4","4","4","5","1","0","1","2","-1","1","1","2","4","5","5","5","5","4","4","5","4","5","6","5","3","3","2","4","7","6","7","6","2","3","6","6","3","4","1","4","3","3","2","6","3","1","4","3","4","5","2","3","4","2","1","2","5","3","7","3","7","4","2","4","1","2","5","2","4","3","3","729263916630413313","王","693","Female","[""坏她"",""坏我"",""好她"",""好我""]","[""弱她"",""弱我"",""强她"",""强我""]","","","","","","","","8","","","","","","","","","SRET","SRET_math_calculate","","key","8","16.667120689655327","768","428","","","","","11-3= ?","8","1","","","","","","",""
"2169","","8","psychophysics","142","388555","0.0-7.0-5.0-0.39","4","3","4","5","3","4","3","4","4","4","5","1","0","1","2","-1","1","1","2","4","5","5","5","5","4","4","5","4","5","6","5","3","3","2","4","7","6","7","6","2","3","6","6","3","4","1","4","3","3","2","6","3","1","4","3","4","5","2","3","4","2","1","2","5","3","7","3","7","4","2","4","1","2","5","2","4","3","3","729263916630413313","王","693","Female","[""坏她"",""坏我"",""好她"",""好我""]","[""弱她"",""弱我"",""强她"",""强我""]","","","","","","","","8","","","","","","","","","SRET","SRET_math_calculate","","key","8","16.66658461538475","768","428","","","","","1*8= ?","8","1","","","","","","",""
"2207","","6","psychophysics","143","390764","0.0-7.0-5.0-0.40","4","3","4","5","3","4","3","4","4","4","5","1","0","1","2","-1","1","1","2","4","5","5","5","5","4","4","5","4","5","6","5","3","3","2","4","7","6","7","6","2","3","6","6","3","4","1","4","3","3","2","6","3","1","4","3","4","5","2","3","4","2","1","2","5","3","7","3","7","4","2","4","1","2","5","2","4","3","3","729263916630413313","王","693","Female","[""坏她"",""坏我"",""好她"",""好我""]","[""弱她"",""弱我"",""强她"",""强我""]","","","","","","","","6","","","","","","","","","SRET","SRET_math_calculate","","key","6","16.667534351144926","768","428","","","","","4+2= ?","6","1","","","","","","",""
"2441","","3","psychophysics","144","393206","0.0-7.0-5.0-0.41","4","3","4","5","3","4","3","4","4","4","5","1","0","1","2","-1","1","1","2","4","5","5","5","5","4","4","5","4","5","6","5","3","3","2","4","7","6","7","6","2","3","6","6","3","4","1","4","3","3","2","6","3","1","4","3","4","5","2","3","4","2","1","2","5","3","7","3","7","4","2","4","1","2","5","2","4","3","3","729263916630413313","王","693","Female","[""坏她"",""坏我"",""好她"",""好我""]","[""弱她"",""弱我"",""强她"",""强我""]","","","","","","","","3","","","","","","","","","SRET","SRET_math_calculate","","key","3","16.667082191780626","768","428","","","","","8-5= ?","3","1","","","","","","",""
