"rt","stimulus","response","trial_type","trial_index","time_elapsed","internal_node_id","swb_1","swb_2","swb_3","swb_4","swb_5","LOT_1","LOT_2","LOT_3","LOT_4","LOT_5","LOT_6","IPC_1","IPC_2","IPC_3","IPC_4","IPC_5","IPC_6","IPC_7","IPC_8","MorIden_1","MorIden_2","MorIden_3","MorIden_4","MorIden_5","MorIden_6","MorIden_7","MorIden_8","MorIden_9","MorIden_10","moralSeImag_1","moralSeImag_2","moralSeImag_3","moralSeImag_4","moralSeImag_5","moralSeImag_6","moralSeImag_7","moralSeImag_8","moralSeImag_9","sde_1","sde_2","sde_3","sde_4","sde_5","sde_6","sde_7","sde_8","sde_9","sde_10","sde_11","sde_12","sde_13","sde_14","sde_15","sde_16","sde_17","sde_18","sde_19","sde_20","IM_1","IM_2","IM_3","IM_4","IM_5","IM_6","IM_7","IM_8","IM_9","IM_10","IM_11","IM_12","IM_13","IM_14","IM_15","IM_16","IM_17","IM_18","IM_19","IM_20","subj_idx","friend_name","ParticipantID","Sex","Word","Word2","value","success","timeout","failed_images","failed_audio","failed_video","user_agent","responses","item_order","radio_event_ids","radio_event_times","key_event_times","mouse_event_times","straightlining","zigzagging","honeypot","view_history","response_type","key_press","avg_frame_time","center_x","center_y","correct_response","correct","identity","Image","word","condition","task_id","screen_id","time_stamp","person","valence","domain","math","status","duration","question_order"
"3015","
   <p><div style='color:white; font-size: 25px'>您好，欢迎参加本次实验。</div></p>
   <p><div style='color:white; font-size: 25px'>为充分保障您的权利，请确保您已经知晓并同意《参与实验同意书》以及《数据公开知情同意书》。</div></p>
   <p><div style='color:white; font-size: 25px'>如果您未见过上述内容，请咨询实验员。</div></p>
   <p style='color:white; font-size: 25px'>如果您选择继续实验，则表示您已经清楚两份知情同意书的内容并同意。</p>
   <p> <div style = ""color: green""><按空格键至下页></div> </p>
   "," ","html-keyboard-response","0","3016","0.0-0.0","5","6","7","5","5","5","5","5","5","5","5","2","2","1","2","2","2","2","2","5","5","5","5","5","4","4","4","5","4","7","7","8","8","7","8","7","8","8","6","7","4","7","7","7","7","7","7","7","6","7","7","6","6","7","7","7","5","7","7","7","7","7","7","7","7","7","7","7","7","7","7","7","6","7","7","7","7","7","590521239097835520","李","145","Male","[""好我"",""坏我"",""坏他"",""好他""]","[""强我"",""弱我"",""弱他"",""强他""]","","","","","","","","","","","","","","","","","","","","","","","","","","","","","","","","","","","","","",""
"","","","call-function","1","3017","0.0-1.0-0.0","5","6","7","5","5","5","5","5","5","5","5","2","2","1","2","2","2","2","2","5","5","5","5","5","4","4","4","5","4","7","7","8","8","7","8","7","8","8","6","7","4","7","7","7","7","7","7","7","6","7","7","6","6","7","7","7","5","7","7","7","7","7","7","7","7","7","7","7","7","7","7","7","6","7","7","7","7","7","590521239097835520","李","145","Male","[""好我"",""坏我"",""坏他"",""好他""]","[""强我"",""弱我"",""弱他"",""强他""]","","","","","","","","","","","","","","","","","","","","","","","","","","","","","","","","","","","","","",""
"65552","","[{""name"":""Sex"",""value"":""0""},{""name"":""friend_name"",""value"":""李""},{""name"":""ParticipantID"",""value"":""145""}]","survey-html-form","2","68568","0.0-1.0-1.0","5","6","7","5","5","5","5","5","5","5","5","2","2","1","2","2","2","2","2","5","5","5","5","5","4","4","4","5","4","7","7","8","8","7","8","7","8","8","6","7","4","7","7","7","7","7","7","7","6","7","7","6","6","7","7","7","5","7","7","7","7","7","7","7","7","7","7","7","7","7","7","7","6","7","7","7","7","7","590521239097835520","李","145","Male","[""好我"",""坏我"",""坏他"",""好他""]","[""强我"",""弱我"",""弱他"",""强他""]","","","","","","","","","","","","","","","","","","","","","","","","","","","","","","","","","","","","","",""
"","","","preload","3","68649","0.0-2.0","5","6","7","5","5","5","5","5","5","5","5","2","2","1","2","2","2","2","2","5","5","5","5","5","4","4","4","5","4","7","7","8","8","7","8","7","8","8","6","7","4","7","7","7","7","7","7","7","6","7","7","6","6","7","7","7","5","7","7","7","7","7","7","7","7","7","7","7","7","7","7","7","6","7","7","7","7","7","590521239097835520","李","145","Male","[""好我"",""坏我"",""坏他"",""好他""]","[""强我"",""弱我"",""弱他"",""强他""]","","true","false","[]","[]","[]","","","","","","","","","","","","","","","","","","","","","","","","","","","","","","","",""
"","","","fullscreen","4","75190","0.0-3.0","5","6","7","5","5","5","5","5","5","5","5","2","2","1","2","2","2","2","2","5","5","5","5","5","4","4","4","5","4","7","7","8","8","7","8","7","8","8","6","7","4","7","7","7","7","7","7","7","6","7","7","6","6","7","7","7","5","7","7","7","7","7","7","7","7","7","7","7","7","7","7","7","6","7","7","7","7","7","590521239097835520","李","145","Male","[""好我"",""坏我"",""坏他"",""好他""]","[""强我"",""弱我"",""弱他"",""强他""]","","true","","","","","{}","","","","","","","","","","","","","","","","","","","","","","","","","","","","","","",""
"9225.29999999702","","{""Q01"":""5"",""Q02"":""6"",""Q03"":""7"",""Q04"":""5"",""Q05"":""5""}","survey-template","5","84417","0.0-4.0","5","6","7","5","5","5","5","5","5","5","5","2","2","1","2","2","2","2","2","5","5","5","5","5","4","4","4","5","4","7","7","8","8","7","8","7","8","8","6","7","4","7","7","7","7","7","7","7","6","7","7","6","6","7","7","7","5","7","7","7","7","7","7","7","7","7","7","7","7","7","7","7","6","7","7","7","7","7","590521239097835520","李","145","Male","[""好我"",""坏我"",""坏他"",""好他""]","[""强我"",""弱我"",""弱他"",""强他""]","","","","","","","","{""Q01"":""5"",""Q02"":""6"",""Q03"":""7"",""Q04"":""5"",""Q05"":""5""}","[0,1,2,3,4]","[""Q01"",""Q03"",""Q02"",""Q04"",""Q05""]","[2256.5999999940395,4296.399999991059,5232.699999988079,6280.699999988079,7824.5]","[]","[2256.5999999940395,3225.2999999970198,4296.399999991059,5232.699999988079,6280.699999988079,7096.399999991059,7824.5,9224.699999988079]","0.6","0.5","0","","","","","","","","","","","","","","","","","","","","","",""
"22265.5","","{""Q01"":""5"",""Q02"":""5"",""Q03"":""5"",""Q04"":""5"",""Q05"":""5"",""Q06"":""5""}","survey-template","6","106684","0.0-5.0","5","6","7","5","5","5","5","5","5","5","5","2","2","1","2","2","2","2","2","5","5","5","5","5","4","4","4","5","4","7","7","8","8","7","8","7","8","8","6","7","4","7","7","7","7","7","7","7","6","7","7","6","6","7","7","7","5","7","7","7","7","7","7","7","7","7","7","7","7","7","7","7","6","7","7","7","7","7","590521239097835520","李","145","Male","[""好我"",""坏我"",""坏他"",""好他""]","[""强我"",""弱我"",""弱他"",""强他""]","","","","","","","","{""Q01"":""5"",""Q02"":""5"",""Q03"":""5"",""Q04"":""5"",""Q05"":""5"",""Q06"":""5""}","[0,1,2,3,4,5]","[""Q01"",""Q02"",""Q03"",""Q04"",""Q05"",""Q06""]","[2169.0999999940395,5685.29999999702,7205.20000000298,10537.29999999702,11516.79999999702,12545]","[]","[2169.0999999940395,5685.29999999702,7205.20000000298,10537.29999999702,11516.79999999702,12545,22265.09999999404]","0.5","0.8","0","","","","","","","","","","","","","","","","","","","","","",""
"28086.79999999702","","{""Q01"":""2"",""Q02"":""2"",""Q03"":""1"",""Q04"":""2"",""Q05"":""2"",""Q06"":""2"",""Q07"":""2"",""Q08"":""2""}","survey-template","7","134774","0.0-6.0","5","6","7","5","5","5","5","5","5","5","5","2","2","1","2","2","2","2","2","5","5","5","5","5","4","4","4","5","4","7","7","8","8","7","8","7","8","8","6","7","4","7","7","7","7","7","7","7","6","7","7","6","6","7","7","7","5","7","7","7","7","7","7","7","7","7","7","7","7","7","7","7","6","7","7","7","7","7","590521239097835520","李","145","Male","[""好我"",""坏我"",""坏他"",""好他""]","[""强我"",""弱我"",""弱他"",""强他""]","","","","","","","","{""Q01"":""2"",""Q02"":""2"",""Q03"":""1"",""Q04"":""2"",""Q05"":""2"",""Q06"":""2"",""Q07"":""2"",""Q08"":""2""}","[0,1,2,3,4,5,6,7]","[""Q01"",""Q02"",""Q03"",""Q04"",""Q05"",""Q06"",""Q07"",""Q08""]","[2549.7000000029802,8181.899999991059,11501.70000000298,16197.59999999404,19581.59999999404,20733.79999999702,22477.89999999106,23701.89999999106]","[]","[2549.7000000029802,8181.899999991059,11501.70000000298,16197.59999999404,17287.20000000298,18677.59999999404,19581.59999999404,20733.79999999702,21733.89999999106,22477.89999999106,23701.89999999106,28085.89999999106]","0.875","0.2857142857142857","0","","","","","","","","","","","","","","","","","","","","","",""
"8645","","","instructions","8","143420","0.0-7.0","5","6","7","5","5","5","5","5","5","5","5","2","2","1","2","2","2","2","2","5","5","5","5","5","4","4","4","5","4","7","7","8","8","7","8","7","8","8","6","7","4","7","7","7","7","7","7","7","6","7","7","6","6","7","7","7","5","7","7","7","7","7","7","7","7","7","7","7","7","7","7","7","6","7","7","7","7","7","590521239097835520","李","145","Male","[""好我"",""坏我"",""坏他"",""好他""]","[""强我"",""弱我"",""弱他"",""强他""]","","","","","","","","","","","","","","","","","[{""page_index"":0,""viewing_time"":8645}]","","","","","","","","","","","","","","","","","","","","",""
"88830","","","instructions","9","232252","0.0-8.0-0.0-0.0","5","6","7","5","5","5","5","5","5","5","5","2","2","1","2","2","2","2","2","5","5","5","5","5","4","4","4","5","4","7","7","8","8","7","8","7","8","8","6","7","4","7","7","7","7","7","7","7","6","7","7","6","6","7","7","7","5","7","7","7","7","7","7","7","7","7","7","7","7","7","7","7","6","7","7","7","7","7","590521239097835520","李","145","Male","[""好我"",""坏我"",""坏他"",""好他""]","[""强我"",""弱我"",""弱他"",""强他""]","","","","","","","","","","","","","","","","","[{""page_index"":0,""viewing_time"":9047},{""page_index"":1,""viewing_time"":76280},{""page_index"":2,""viewing_time"":2280},{""page_index"":3,""viewing_time"":1224}]","","","","","","","","","","","","","","","","","","","","",""
"1154","","f","psychophysics","10","234409","0.0-8.0-0.0-1.0-0.0-0.0","5","6","7","5","5","5","5","5","5","5","5","2","2","1","2","2","2","2","2","5","5","5","5","5","4","4","4","5","4","7","7","8","8","7","8","7","8","8","6","7","4","7","7","7","7","7","7","7","6","7","7","6","6","7","7","7","5","7","7","7","7","7","7","7","7","7","7","7","7","7","7","7","6","7","7","7","7","7","590521239097835520","李","145","Male","[""好我"",""坏我"",""坏他"",""好他""]","[""强我"",""弱我"",""弱他"",""强他""]","","","","","","","","nonmatch","","","","","","","","","","key","f","8.333365758754818","853.3333333333334","476","f","true","nonmatch","img/square.png","好我","坏他","prac_ALT2_moral","practice_moral","","","","","","","",""
"null","<span style='color:GreenYellow; font-size: 70px;'>正确! </span>","null","html-keyboard-response","11","234918","0.0-8.0-0.0-1.0-0.0-1.0","5","6","7","5","5","5","5","5","5","5","5","2","2","1","2","2","2","2","2","5","5","5","5","5","4","4","4","5","4","7","7","8","8","7","8","7","8","8","6","7","4","7","7","7","7","7","7","7","6","7","7","6","6","7","7","7","5","7","7","7","7","7","7","7","7","7","7","7","7","7","7","7","6","7","7","7","7","7","590521239097835520","李","145","Male","[""好我"",""坏我"",""坏他"",""好他""]","[""强我"",""弱我"",""弱他"",""强他""]","","","","","","","","","","","","","","","","","","","","","","","","","","","","","","feedback_test","","","","","","","",""
"945","","j","psychophysics","12","236864","0.0-8.0-0.0-1.0-0.0-0.1","5","6","7","5","5","5","5","5","5","5","5","2","2","1","2","2","2","2","2","5","5","5","5","5","4","4","4","5","4","7","7","8","8","7","8","7","8","8","6","7","4","7","7","7","7","7","7","7","6","7","7","6","6","7","7","7","5","7","7","7","7","7","7","7","7","7","7","7","7","7","7","7","6","7","7","7","7","7","590521239097835520","李","145","Male","[""好我"",""坏我"",""坏他"",""好他""]","[""强我"",""弱我"",""弱他"",""强他""]","","","","","","","","match","","","","","","","","","","key","j","8.33410344827581","853.3333333333334","476","j","true","match","img/trapezoid.png","坏我","坏我","prac_ALT2_moral","practice_moral","","","","","","","",""
"null","<span style='color:GreenYellow; font-size: 70px;'>正确! </span>","null","html-keyboard-response","13","237370","0.0-8.0-0.0-1.0-0.0-1.1","5","6","7","5","5","5","5","5","5","5","5","2","2","1","2","2","2","2","2","5","5","5","5","5","4","4","4","5","4","7","7","8","8","7","8","7","8","8","6","7","4","7","7","7","7","7","7","7","6","7","7","6","6","7","7","7","5","7","7","7","7","7","7","7","7","7","7","7","7","7","7","7","6","7","7","7","7","7","590521239097835520","李","145","Male","[""好我"",""坏我"",""坏他"",""好他""]","[""强我"",""弱我"",""弱他"",""强他""]","","","","","","","","","","","","","","","","","","","","","","","","","","","","","","feedback_test","","","","","","","",""
"708","","f","psychophysics","14","239080","0.0-8.0-0.0-1.0-0.0-0.2","5","6","7","5","5","5","5","5","5","5","5","2","2","1","2","2","2","2","2","5","5","5","5","5","4","4","4","5","4","7","7","8","8","7","8","7","8","8","6","7","4","7","7","7","7","7","7","7","6","7","7","6","6","7","7","7","5","7","7","7","7","7","7","7","7","7","7","7","7","7","7","7","6","7","7","7","7","7","590521239097835520","李","145","Male","[""好我"",""坏我"",""坏他"",""好他""]","[""强我"",""弱我"",""弱他"",""强他""]","","","","","","","","nonmatch","","","","","","","","","","key","f","8.333656862745057","853.3333333333334","476","f","true","nonmatch","img/circle.png","好他","好我","prac_ALT2_moral","practice_moral","","","","","","","",""
"null","<span style='color:GreenYellow; font-size: 70px;'>正确! </span>","null","html-keyboard-response","15","239586","0.0-8.0-0.0-1.0-0.0-1.2","5","6","7","5","5","5","5","5","5","5","5","2","2","1","2","2","2","2","2","5","5","5","5","5","4","4","4","5","4","7","7","8","8","7","8","7","8","8","6","7","4","7","7","7","7","7","7","7","6","7","7","6","6","7","7","7","5","7","7","7","7","7","7","7","7","7","7","7","7","7","7","7","6","7","7","7","7","7","590521239097835520","李","145","Male","[""好我"",""坏我"",""坏他"",""好他""]","[""强我"",""弱我"",""弱他"",""强他""]","","","","","","","","","","","","","","","","","","","","","","","","","","","","","","feedback_test","","","","","","","",""
"null","","null","psychophysics","16","241789","0.0-8.0-0.0-1.0-0.0-0.3","5","6","7","5","5","5","5","5","5","5","5","2","2","1","2","2","2","2","2","5","5","5","5","5","4","4","4","5","4","7","7","8","8","7","8","7","8","8","6","7","4","7","7","7","7","7","7","7","6","7","7","6","6","7","7","7","5","7","7","7","7","7","7","7","7","7","7","7","7","7","7","7","6","7","7","7","7","7","590521239097835520","李","145","Male","[""好我"",""坏我"",""坏他"",""好他""]","[""强我"",""弱我"",""弱他"",""强他""]","","","","","","","","null","","","","","","","","","","key","null","8.33245627376432","853.3333333333334","476","j","false","match","img/square.png","坏他","坏他","prac_ALT2_moral","practice_moral","","","","","","","",""
"null","<span class='add_' style='color:yellow; font-size: 70px;'> 太慢! </span>","null","html-keyboard-response","17","242295","0.0-8.0-0.0-1.0-0.0-1.3","5","6","7","5","5","5","5","5","5","5","5","2","2","1","2","2","2","2","2","5","5","5","5","5","4","4","4","5","4","7","7","8","8","7","8","7","8","8","6","7","4","7","7","7","7","7","7","7","6","7","7","6","6","7","7","7","5","7","7","7","7","7","7","7","7","7","7","7","7","7","7","7","6","7","7","7","7","7","590521239097835520","李","145","Male","[""好我"",""坏我"",""坏他"",""好他""]","[""强我"",""弱我"",""弱他"",""强他""]","","","","","","","","","","","","","","","","","","","","","","","","","","","","","","feedback_test","","","","","","","",""
"null","","null","psychophysics","18","244497","0.0-8.0-0.0-1.0-0.0-0.4","5","6","7","5","5","5","5","5","5","5","5","2","2","1","2","2","2","2","2","5","5","5","5","5","4","4","4","5","4","7","7","8","8","7","8","7","8","8","6","7","4","7","7","7","7","7","7","7","6","7","7","6","6","7","7","7","5","7","7","7","7","7","7","7","7","7","7","7","7","7","7","7","6","7","7","7","7","7","590521239097835520","李","145","Male","[""好我"",""坏我"",""坏他"",""好他""]","[""强我"",""弱我"",""弱他"",""强他""]","","","","","","","","null","","","","","","","","","","key","null","8.33369581749056","853.3333333333334","476","f","false","nonmatch","img/pentagon.png","坏他","好他","prac_ALT2_moral","practice_moral","","","","","","","",""
"null","<span class='add_' style='color:yellow; font-size: 70px;'> 太慢! </span>","null","html-keyboard-response","19","245004","0.0-8.0-0.0-1.0-0.0-1.4","5","6","7","5","5","5","5","5","5","5","5","2","2","1","2","2","2","2","2","5","5","5","5","5","4","4","4","5","4","7","7","8","8","7","8","7","8","8","6","7","4","7","7","7","7","7","7","7","6","7","7","6","6","7","7","7","5","7","7","7","7","7","7","7","7","7","7","7","7","7","7","7","6","7","7","7","7","7","590521239097835520","李","145","Male","[""好我"",""坏我"",""坏他"",""好他""]","[""强我"",""弱我"",""弱他"",""强他""]","","","","","","","","","","","","","","","","","","","","","","","","","","","","","","feedback_test","","","","","","","",""
"762","","j","psychophysics","20","246767","0.0-8.0-0.0-1.0-0.0-0.5","5","6","7","5","5","5","5","5","5","5","5","2","2","1","2","2","2","2","2","5","5","5","5","5","4","4","4","5","4","7","7","8","8","7","8","7","8","8","6","7","4","7","7","7","7","7","7","7","6","7","7","6","6","7","7","7","5","7","7","7","7","7","7","7","7","7","7","7","7","7","7","7","6","7","7","7","7","7","590521239097835520","李","145","Male","[""好我"",""坏我"",""坏他"",""好他""]","[""强我"",""弱我"",""弱他"",""强他""]","","","","","","","","match","","","","","","","","","","key","j","8.332809523809452","853.3333333333334","476","j","true","match","img/trapezoid.png","坏我","坏我","prac_ALT2_moral","practice_moral","","","","","","","",""
"null","<span style='color:GreenYellow; font-size: 70px;'>正确! </span>","null","html-keyboard-response","21","247275","0.0-8.0-0.0-1.0-0.0-1.5","5","6","7","5","5","5","5","5","5","5","5","2","2","1","2","2","2","2","2","5","5","5","5","5","4","4","4","5","4","7","7","8","8","7","8","7","8","8","6","7","4","7","7","7","7","7","7","7","6","7","7","6","6","7","7","7","5","7","7","7","7","7","7","7","7","7","7","7","7","7","7","7","6","7","7","7","7","7","590521239097835520","李","145","Male","[""好我"",""坏我"",""坏他"",""好他""]","[""强我"",""弱我"",""弱他"",""强他""]","","","","","","","","","","","","","","","","","","","","","","","","","","","","","","feedback_test","","","","","","","",""
"1116","","j","psychophysics","22","249392","0.0-8.0-0.0-1.0-0.0-0.6","5","6","7","5","5","5","5","5","5","5","5","2","2","1","2","2","2","2","2","5","5","5","5","5","4","4","4","5","4","7","7","8","8","7","8","7","8","8","6","7","4","7","7","7","7","7","7","7","6","7","7","6","6","7","7","7","5","7","7","7","7","7","7","7","7","7","7","7","7","7","7","7","6","7","7","7","7","7","590521239097835520","李","145","Male","[""好我"",""坏我"",""坏他"",""好他""]","[""强我"",""弱我"",""弱他"",""强他""]","","","","","","","","match","","","","","","","","","","key","j","8.33371825396829","853.3333333333334","476","j","true","match","img/trapezoid.png","坏我","坏我","prac_ALT2_moral","practice_moral","","","","","","","",""
"null","<span style='color:GreenYellow; font-size: 70px;'>正确! </span>","null","html-keyboard-response","23","249899","0.0-8.0-0.0-1.0-0.0-1.6","5","6","7","5","5","5","5","5","5","5","5","2","2","1","2","2","2","2","2","5","5","5","5","5","4","4","4","5","4","7","7","8","8","7","8","7","8","8","6","7","4","7","7","7","7","7","7","7","6","7","7","6","6","7","7","7","5","7","7","7","7","7","7","7","7","7","7","7","7","7","7","7","6","7","7","7","7","7","590521239097835520","李","145","Male","[""好我"",""坏我"",""坏他"",""好他""]","[""强我"",""弱我"",""弱他"",""强他""]","","","","","","","","","","","","","","","","","","","","","","","","","","","","","","feedback_test","","","","","","","",""
"931","","f","psychophysics","24","251832","0.0-8.0-0.0-1.0-0.0-0.7","5","6","7","5","5","5","5","5","5","5","5","2","2","1","2","2","2","2","2","5","5","5","5","5","4","4","4","5","4","7","7","8","8","7","8","7","8","8","6","7","4","7","7","7","7","7","7","7","6","7","7","6","6","7","7","7","5","7","7","7","7","7","7","7","7","7","7","7","7","7","7","7","6","7","7","7","7","7","590521239097835520","李","145","Male","[""好我"",""坏我"",""坏他"",""好他""]","[""强我"",""弱我"",""弱他"",""强他""]","","","","","","","","nonmatch","","","","","","","","","","key","f","8.334138528138471","853.3333333333334","476","f","true","nonmatch","img/pentagon.png","坏我","好他","prac_ALT2_moral","practice_moral","","","","","","","",""
"null","<span style='color:GreenYellow; font-size: 70px;'>正确! </span>","null","html-keyboard-response","25","252337","0.0-8.0-0.0-1.0-0.0-1.7","5","6","7","5","5","5","5","5","5","5","5","2","2","1","2","2","2","2","2","5","5","5","5","5","4","4","4","5","4","7","7","8","8","7","8","7","8","8","6","7","4","7","7","7","7","7","7","7","6","7","7","6","6","7","7","7","5","7","7","7","7","7","7","7","7","7","7","7","7","7","7","7","6","7","7","7","7","7","590521239097835520","李","145","Male","[""好我"",""坏我"",""坏他"",""好他""]","[""强我"",""弱我"",""弱他"",""强他""]","","","","","","","","","","","","","","","","","","","","","","","","","","","","","","feedback_test","","","","","","","",""
"918","","j","psychophysics","26","254256","0.0-8.0-0.0-1.0-0.0-0.8","5","6","7","5","5","5","5","5","5","5","5","2","2","1","2","2","2","2","2","5","5","5","5","5","4","4","4","5","4","7","7","8","8","7","8","7","8","8","6","7","4","7","7","7","7","7","7","7","6","7","7","6","6","7","7","7","5","7","7","7","7","7","7","7","7","7","7","7","7","7","7","7","6","7","7","7","7","7","590521239097835520","李","145","Male","[""好我"",""坏我"",""坏他"",""好他""]","[""强我"",""弱我"",""弱他"",""强他""]","","","","","","","","match","","","","","","","","","","key","j","8.333456140350838","853.3333333333334","476","j","true","match","img/pentagon.png","好他","好他","prac_ALT2_moral","practice_moral","","","","","","","",""
"null","<span style='color:GreenYellow; font-size: 70px;'>正确! </span>","null","html-keyboard-response","27","254764","0.0-8.0-0.0-1.0-0.0-1.8","5","6","7","5","5","5","5","5","5","5","5","2","2","1","2","2","2","2","2","5","5","5","5","5","4","4","4","5","4","7","7","8","8","7","8","7","8","8","6","7","4","7","7","7","7","7","7","7","6","7","7","6","6","7","7","7","5","7","7","7","7","7","7","7","7","7","7","7","7","7","7","7","6","7","7","7","7","7","590521239097835520","李","145","Male","[""好我"",""坏我"",""坏他"",""好他""]","[""强我"",""弱我"",""弱他"",""强他""]","","","","","","","","","","","","","","","","","","","","","","","","","","","","","","feedback_test","","","","","","","",""
"467","","j","psychophysics","28","256232","0.0-8.0-0.0-1.0-0.0-0.9","5","6","7","5","5","5","5","5","5","5","5","2","2","1","2","2","2","2","2","5","5","5","5","5","4","4","4","5","4","7","7","8","8","7","8","7","8","8","6","7","4","7","7","7","7","7","7","7","6","7","7","6","6","7","7","7","5","7","7","7","7","7","7","7","7","7","7","7","7","7","7","7","6","7","7","7","7","7","590521239097835520","李","145","Male","[""好我"",""坏我"",""坏他"",""好他""]","[""强我"",""弱我"",""弱他"",""强他""]","","","","","","","","match","","","","","","","","","","key","j","8.334131428571418","853.3333333333334","476","j","true","match","img/circle.png","好我","好我","prac_ALT2_moral","practice_moral","","","","","","","",""
"null","<span style='color:GreenYellow; font-size: 70px;'>正确! </span>","null","html-keyboard-response","29","256739","0.0-8.0-0.0-1.0-0.0-1.9","5","6","7","5","5","5","5","5","5","5","5","2","2","1","2","2","2","2","2","5","5","5","5","5","4","4","4","5","4","7","7","8","8","7","8","7","8","8","6","7","4","7","7","7","7","7","7","7","6","7","7","6","6","7","7","7","5","7","7","7","7","7","7","7","7","7","7","7","7","7","7","7","6","7","7","7","7","7","590521239097835520","李","145","Male","[""好我"",""坏我"",""坏他"",""好他""]","[""强我"",""弱我"",""弱他"",""强他""]","","","","","","","","","","","","","","","","","","","","","","","","","","","","","","feedback_test","","","","","","","",""
"731","","j","psychophysics","30","258472","0.0-8.0-0.0-1.0-0.0-0.10","5","6","7","5","5","5","5","5","5","5","5","2","2","1","2","2","2","2","2","5","5","5","5","5","4","4","4","5","4","7","7","8","8","7","8","7","8","8","6","7","4","7","7","7","7","7","7","7","6","7","7","6","6","7","7","7","5","7","7","7","7","7","7","7","7","7","7","7","7","7","7","7","6","7","7","7","7","7","590521239097835520","李","145","Male","[""好我"",""坏我"",""坏他"",""好他""]","[""强我"",""弱我"",""弱他"",""强他""]","","","","","","","","match","","","","","","","","","","key","j","8.334252427184465","853.3333333333334","476","f","false","nonmatch","img/trapezoid.png","好我","坏我","prac_ALT2_moral","practice_moral","","","","","","","",""
"null","<span style='color:red; font-size: 70px;'>错误! </span>","null","html-keyboard-response","31","258978","0.0-8.0-0.0-1.0-0.0-1.10","5","6","7","5","5","5","5","5","5","5","5","2","2","1","2","2","2","2","2","5","5","5","5","5","4","4","4","5","4","7","7","8","8","7","8","7","8","8","6","7","4","7","7","7","7","7","7","7","6","7","7","6","6","7","7","7","5","7","7","7","7","7","7","7","7","7","7","7","7","7","7","7","6","7","7","7","7","7","590521239097835520","李","145","Male","[""好我"",""坏我"",""坏他"",""好他""]","[""强我"",""弱我"",""弱他"",""强他""]","","","","","","","","","","","","","","","","","","","","","","","","","","","","","","feedback_test","","","","","","","",""
"756","","j","psychophysics","32","260736","0.0-8.0-0.0-1.0-0.0-0.11","5","6","7","5","5","5","5","5","5","5","5","2","2","1","2","2","2","2","2","5","5","5","5","5","4","4","4","5","4","7","7","8","8","7","8","7","8","8","6","7","4","7","7","7","7","7","7","7","6","7","7","6","6","7","7","7","5","7","7","7","7","7","7","7","7","7","7","7","7","7","7","7","6","7","7","7","7","7","590521239097835520","李","145","Male","[""好我"",""坏我"",""坏他"",""好他""]","[""强我"",""弱我"",""弱他"",""强他""]","","","","","","","","match","","","","","","","","","","key","j","8.333052631578983","853.3333333333334","476","j","true","match","img/square.png","坏他","坏他","prac_ALT2_moral","practice_moral","","","","","","","",""
"null","<span style='color:GreenYellow; font-size: 70px;'>正确! </span>","null","html-keyboard-response","33","261242","0.0-8.0-0.0-1.0-0.0-1.11","5","6","7","5","5","5","5","5","5","5","5","2","2","1","2","2","2","2","2","5","5","5","5","5","4","4","4","5","4","7","7","8","8","7","8","7","8","8","6","7","4","7","7","7","7","7","7","7","6","7","7","6","6","7","7","7","5","7","7","7","7","7","7","7","7","7","7","7","7","7","7","7","6","7","7","7","7","7","590521239097835520","李","145","Male","[""好我"",""坏我"",""坏他"",""好他""]","[""强我"",""弱我"",""弱他"",""强他""]","","","","","","","","","","","","","","","","","","","","","","","","","","","","","","feedback_test","","","","","","","",""
"852","","j","psychophysics","34","263095","0.0-8.0-0.0-1.0-0.0-0.12","5","6","7","5","5","5","5","5","5","5","5","2","2","1","2","2","2","2","2","5","5","5","5","5","4","4","4","5","4","7","7","8","8","7","8","7","8","8","6","7","4","7","7","7","7","7","7","7","6","7","7","6","6","7","7","7","5","7","7","7","7","7","7","7","7","7","7","7","7","7","7","7","6","7","7","7","7","7","590521239097835520","李","145","Male","[""好我"",""坏我"",""坏他"",""好他""]","[""强我"",""弱我"",""弱他"",""强他""]","","","","","","","","match","","","","","","","","","","key","j","8.332692307692282","853.3333333333334","476","j","true","match","img/pentagon.png","好他","好他","prac_ALT2_moral","practice_moral","","","","","","","",""
"null","<span style='color:GreenYellow; font-size: 70px;'>正确! </span>","null","html-keyboard-response","35","263602","0.0-8.0-0.0-1.0-0.0-1.12","5","6","7","5","5","5","5","5","5","5","5","2","2","1","2","2","2","2","2","5","5","5","5","5","4","4","4","5","4","7","7","8","8","7","8","7","8","8","6","7","4","7","7","7","7","7","7","7","6","7","7","6","6","7","7","7","5","7","7","7","7","7","7","7","7","7","7","7","7","7","7","7","6","7","7","7","7","7","590521239097835520","李","145","Male","[""好我"",""坏我"",""坏他"",""好他""]","[""强我"",""弱我"",""弱他"",""强他""]","","","","","","","","","","","","","","","","","","","","","","","","","","","","","","feedback_test","","","","","","","",""
"837","","f","psychophysics","36","265440","0.0-8.0-0.0-1.0-0.0-0.13","5","6","7","5","5","5","5","5","5","5","5","2","2","1","2","2","2","2","2","5","5","5","5","5","4","4","4","5","4","7","7","8","8","7","8","7","8","8","6","7","4","7","7","7","7","7","7","7","6","7","7","6","6","7","7","7","5","7","7","7","7","7","7","7","7","7","7","7","7","7","7","7","6","7","7","7","7","7","590521239097835520","李","145","Male","[""好我"",""坏我"",""坏他"",""好他""]","[""强我"",""弱我"",""弱他"",""强他""]","","","","","","","","nonmatch","","","","","","","","","","key","f","8.334246575342252","853.3333333333334","476","j","false","match","img/square.png","坏他","坏他","prac_ALT2_moral","practice_moral","","","","","","","",""
"null","<span style='color:red; font-size: 70px;'>错误! </span>","null","html-keyboard-response","37","265960","0.0-8.0-0.0-1.0-0.0-1.13","5","6","7","5","5","5","5","5","5","5","5","2","2","1","2","2","2","2","2","5","5","5","5","5","4","4","4","5","4","7","7","8","8","7","8","7","8","8","6","7","4","7","7","7","7","7","7","7","6","7","7","6","6","7","7","7","5","7","7","7","7","7","7","7","7","7","7","7","7","7","7","7","6","7","7","7","7","7","590521239097835520","李","145","Male","[""好我"",""坏我"",""坏他"",""好他""]","[""强我"",""弱我"",""弱他"",""强他""]","","","","","","","","","","","","","","","","","","","","","","","","","","","","","","feedback_test","","","","","","","",""
"894","","f","psychophysics","38","267855","0.0-8.0-0.0-1.0-0.0-0.14","5","6","7","5","5","5","5","5","5","5","5","2","2","1","2","2","2","2","2","5","5","5","5","5","4","4","4","5","4","7","7","8","8","7","8","7","8","8","6","7","4","7","7","7","7","7","7","7","6","7","7","6","6","7","7","7","5","7","7","7","7","7","7","7","7","7","7","7","7","7","7","7","6","7","7","7","7","7","590521239097835520","李","145","Male","[""好我"",""坏我"",""坏他"",""好他""]","[""强我"",""弱我"",""弱他"",""强他""]","","","","","","","","nonmatch","","","","","","","","","","key","f","8.33462389380531","853.3333333333334","476","f","true","nonmatch","img/trapezoid.png","好他","坏我","prac_ALT2_moral","practice_moral","","","","","","","",""
"null","<span style='color:GreenYellow; font-size: 70px;'>正确! </span>","null","html-keyboard-response","39","268363","0.0-8.0-0.0-1.0-0.0-1.14","5","6","7","5","5","5","5","5","5","5","5","2","2","1","2","2","2","2","2","5","5","5","5","5","4","4","4","5","4","7","7","8","8","7","8","7","8","8","6","7","4","7","7","7","7","7","7","7","6","7","7","6","6","7","7","7","5","7","7","7","7","7","7","7","7","7","7","7","7","7","7","7","6","7","7","7","7","7","590521239097835520","李","145","Male","[""好我"",""坏我"",""坏他"",""好他""]","[""强我"",""弱我"",""弱他"",""强他""]","","","","","","","","","","","","","","","","","","","","","","","","","","","","","","feedback_test","","","","","","","",""
"900","","f","psychophysics","40","270263","0.0-8.0-0.0-1.0-0.0-0.15","5","6","7","5","5","5","5","5","5","5","5","2","2","1","2","2","2","2","2","5","5","5","5","5","4","4","4","5","4","7","7","8","8","7","8","7","8","8","6","7","4","7","7","7","7","7","7","7","6","7","7","6","6","7","7","7","5","7","7","7","7","7","7","7","7","7","7","7","7","7","7","7","6","7","7","7","7","7","590521239097835520","李","145","Male","[""好我"",""坏我"",""坏他"",""好他""]","[""强我"",""弱我"",""弱他"",""强他""]","","","","","","","","nonmatch","","","","","","","","","","key","f","8.334964601769869","853.3333333333334","476","f","true","nonmatch","img/square.png","坏我","坏他","prac_ALT2_moral","practice_moral","","","","","","","",""
"null","<span style='color:GreenYellow; font-size: 70px;'>正确! </span>","null","html-keyboard-response","41","270770","0.0-8.0-0.0-1.0-0.0-1.15","5","6","7","5","5","5","5","5","5","5","5","2","2","1","2","2","2","2","2","5","5","5","5","5","4","4","4","5","4","7","7","8","8","7","8","7","8","8","6","7","4","7","7","7","7","7","7","7","6","7","7","6","6","7","7","7","5","7","7","7","7","7","7","7","7","7","7","7","7","7","7","7","6","7","7","7","7","7","590521239097835520","李","145","Male","[""好我"",""坏我"",""坏他"",""好他""]","[""强我"",""弱我"",""弱他"",""强他""]","","","","","","","","","","","","","","","","","","","","","","","","","","","","","","feedback_test","","","","","","","",""
"1028","","f","psychophysics","42","272800","0.0-8.0-0.0-1.0-0.0-0.16","5","6","7","5","5","5","5","5","5","5","5","2","2","1","2","2","2","2","2","5","5","5","5","5","4","4","4","5","4","7","7","8","8","7","8","7","8","8","6","7","4","7","7","7","7","7","7","7","6","7","7","6","6","7","7","7","5","7","7","7","7","7","7","7","7","7","7","7","7","7","7","7","6","7","7","7","7","7","590521239097835520","李","145","Male","[""好我"",""坏我"",""坏他"",""好他""]","[""强我"",""弱我"",""弱他"",""强他""]","","","","","","","","nonmatch","","","","","","","","","","key","f","8.333727272727224","853.3333333333334","476","f","true","nonmatch","img/trapezoid.png","坏他","坏我","prac_ALT2_moral","practice_moral","","","","","","","",""
"null","<span style='color:GreenYellow; font-size: 70px;'>正确! </span>","null","html-keyboard-response","43","273307","0.0-8.0-0.0-1.0-0.0-1.16","5","6","7","5","5","5","5","5","5","5","5","2","2","1","2","2","2","2","2","5","5","5","5","5","4","4","4","5","4","7","7","8","8","7","8","7","8","8","6","7","4","7","7","7","7","7","7","7","6","7","7","6","6","7","7","7","5","7","7","7","7","7","7","7","7","7","7","7","7","7","7","7","6","7","7","7","7","7","590521239097835520","李","145","Male","[""好我"",""坏我"",""坏他"",""好他""]","[""强我"",""弱我"",""弱他"",""强他""]","","","","","","","","","","","","","","","","","","","","","","","","","","","","","","feedback_test","","","","","","","",""
"740","","j","psychophysics","44","275047","0.0-8.0-0.0-1.0-0.0-0.17","5","6","7","5","5","5","5","5","5","5","5","2","2","1","2","2","2","2","2","5","5","5","5","5","4","4","4","5","4","7","7","8","8","7","8","7","8","8","6","7","4","7","7","7","7","7","7","7","6","7","7","6","6","7","7","7","5","7","7","7","7","7","7","7","7","7","7","7","7","7","7","7","6","7","7","7","7","7","590521239097835520","李","145","Male","[""好我"",""坏我"",""坏他"",""好他""]","[""强我"",""弱我"",""弱他"",""强他""]","","","","","","","","match","","","","","","","","","","key","j","8.333371980676196","853.3333333333334","476","j","true","match","img/pentagon.png","好他","好他","prac_ALT2_moral","practice_moral","","","","","","","",""
"null","<span style='color:GreenYellow; font-size: 70px;'>正确! </span>","null","html-keyboard-response","45","275555","0.0-8.0-0.0-1.0-0.0-1.17","5","6","7","5","5","5","5","5","5","5","5","2","2","1","2","2","2","2","2","5","5","5","5","5","4","4","4","5","4","7","7","8","8","7","8","7","8","8","6","7","4","7","7","7","7","7","7","7","6","7","7","6","6","7","7","7","5","7","7","7","7","7","7","7","7","7","7","7","7","7","7","7","6","7","7","7","7","7","590521239097835520","李","145","Male","[""好我"",""坏我"",""坏他"",""好他""]","[""强我"",""弱我"",""弱他"",""强他""]","","","","","","","","","","","","","","","","","","","","","","","","","","","","","","feedback_test","","","","","","","",""
"900","","f","psychophysics","46","277456","0.0-8.0-0.0-1.0-0.0-0.18","5","6","7","5","5","5","5","5","5","5","5","2","2","1","2","2","2","2","2","5","5","5","5","5","4","4","4","5","4","7","7","8","8","7","8","7","8","8","6","7","4","7","7","7","7","7","7","7","6","7","7","6","6","7","7","7","5","7","7","7","7","7","7","7","7","7","7","7","7","7","7","7","6","7","7","7","7","7","590521239097835520","李","145","Male","[""好我"",""坏我"",""坏他"",""好他""]","[""强我"",""弱我"",""弱他"",""强他""]","","","","","","","","nonmatch","","","","","","","","","","key","f","8.331273127753402","853.3333333333334","476","f","true","nonmatch","img/circle.png","坏我","好我","prac_ALT2_moral","practice_moral","","","","","","","",""
"null","<span style='color:GreenYellow; font-size: 70px;'>正确! </span>","null","html-keyboard-response","47","277963","0.0-8.0-0.0-1.0-0.0-1.18","5","6","7","5","5","5","5","5","5","5","5","2","2","1","2","2","2","2","2","5","5","5","5","5","4","4","4","5","4","7","7","8","8","7","8","7","8","8","6","7","4","7","7","7","7","7","7","7","6","7","7","6","6","7","7","7","5","7","7","7","7","7","7","7","7","7","7","7","7","7","7","7","6","7","7","7","7","7","590521239097835520","李","145","Male","[""好我"",""坏我"",""坏他"",""好他""]","[""强我"",""弱我"",""弱他"",""强他""]","","","","","","","","","","","","","","","","","","","","","","","","","","","","","","feedback_test","","","","","","","",""
"563","","j","psychophysics","48","279528","0.0-8.0-0.0-1.0-0.0-0.19","5","6","7","5","5","5","5","5","5","5","5","2","2","1","2","2","2","2","2","5","5","5","5","5","4","4","4","5","4","7","7","8","8","7","8","7","8","8","6","7","4","7","7","7","7","7","7","7","6","7","7","6","6","7","7","7","5","7","7","7","7","7","7","7","7","7","7","7","7","7","7","7","6","7","7","7","7","7","590521239097835520","李","145","Male","[""好我"",""坏我"",""坏他"",""好他""]","[""强我"",""弱我"",""弱他"",""强他""]","","","","","","","","match","","","","","","","","","","key","j","8.330279569892634","853.3333333333334","476","j","true","match","img/circle.png","好我","好我","prac_ALT2_moral","practice_moral","","","","","","","",""
"null","<span style='color:GreenYellow; font-size: 70px;'>正确! </span>","null","html-keyboard-response","49","280035","0.0-8.0-0.0-1.0-0.0-1.19","5","6","7","5","5","5","5","5","5","5","5","2","2","1","2","2","2","2","2","5","5","5","5","5","4","4","4","5","4","7","7","8","8","7","8","7","8","8","6","7","4","7","7","7","7","7","7","7","6","7","7","6","6","7","7","7","5","7","7","7","7","7","7","7","7","7","7","7","7","7","7","7","6","7","7","7","7","7","590521239097835520","李","145","Male","[""好我"",""坏我"",""坏他"",""好他""]","[""强我"",""弱我"",""弱他"",""强他""]","","","","","","","","","","","","","","","","","","","","","","","","","","","","","","feedback_test","","","","","","","",""
"965","","f","psychophysics","50","282000","0.0-8.0-0.0-1.0-0.0-0.20","5","6","7","5","5","5","5","5","5","5","5","2","2","1","2","2","2","2","2","5","5","5","5","5","4","4","4","5","4","7","7","8","8","7","8","7","8","8","6","7","4","7","7","7","7","7","7","7","6","7","7","6","6","7","7","7","5","7","7","7","7","7","7","7","7","7","7","7","7","7","7","7","6","7","7","7","7","7","590521239097835520","李","145","Male","[""好我"",""坏我"",""坏他"",""好他""]","[""强我"",""弱我"",""弱他"",""强他""]","","","","","","","","nonmatch","","","","","","","","","","key","f","8.333598290598438","853.3333333333334","476","f","true","nonmatch","img/square.png","好他","坏他","prac_ALT2_moral","practice_moral","","","","","","","",""
"null","<span style='color:GreenYellow; font-size: 70px;'>正确! </span>","null","html-keyboard-response","51","282507","0.0-8.0-0.0-1.0-0.0-1.20","5","6","7","5","5","5","5","5","5","5","5","2","2","1","2","2","2","2","2","5","5","5","5","5","4","4","4","5","4","7","7","8","8","7","8","7","8","8","6","7","4","7","7","7","7","7","7","7","6","7","7","6","6","7","7","7","5","7","7","7","7","7","7","7","7","7","7","7","7","7","7","7","6","7","7","7","7","7","590521239097835520","李","145","Male","[""好我"",""坏我"",""坏他"",""好他""]","[""强我"",""弱我"",""弱他"",""强他""]","","","","","","","","","","","","","","","","","","","","","","","","","","","","","","feedback_test","","","","","","","",""
"1076","","f","psychophysics","52","284584","0.0-8.0-0.0-1.0-0.0-0.21","5","6","7","5","5","5","5","5","5","5","5","2","2","1","2","2","2","2","2","5","5","5","5","5","4","4","4","5","4","7","7","8","8","7","8","7","8","8","6","7","4","7","7","7","7","7","7","7","6","7","7","6","6","7","7","7","5","7","7","7","7","7","7","7","7","7","7","7","7","7","7","7","6","7","7","7","7","7","590521239097835520","李","145","Male","[""好我"",""坏我"",""坏他"",""好他""]","[""强我"",""弱我"",""弱他"",""强他""]","","","","","","","","nonmatch","","","","","","","","","","key","f","8.332096774193726","853.3333333333334","476","f","true","nonmatch","img/pentagon.png","好我","好他","prac_ALT2_moral","practice_moral","","","","","","","",""
"null","<span style='color:GreenYellow; font-size: 70px;'>正确! </span>","null","html-keyboard-response","53","285093","0.0-8.0-0.0-1.0-0.0-1.21","5","6","7","5","5","5","5","5","5","5","5","2","2","1","2","2","2","2","2","5","5","5","5","5","4","4","4","5","4","7","7","8","8","7","8","7","8","8","6","7","4","7","7","7","7","7","7","7","6","7","7","6","6","7","7","7","5","7","7","7","7","7","7","7","7","7","7","7","7","7","7","7","6","7","7","7","7","7","590521239097835520","李","145","Male","[""好我"",""坏我"",""坏他"",""好他""]","[""强我"",""弱我"",""弱他"",""强他""]","","","","","","","","","","","","","","","","","","","","","","","","","","","","","","feedback_test","","","","","","","",""
"634","","j","psychophysics","54","286728","0.0-8.0-0.0-1.0-0.0-0.22","5","6","7","5","5","5","5","5","5","5","5","2","2","1","2","2","2","2","2","5","5","5","5","5","4","4","4","5","4","7","7","8","8","7","8","7","8","8","6","7","4","7","7","7","7","7","7","7","6","7","7","6","6","7","7","7","5","7","7","7","7","7","7","7","7","7","7","7","7","7","7","7","6","7","7","7","7","7","590521239097835520","李","145","Male","[""好我"",""坏我"",""坏他"",""好他""]","[""强我"",""弱我"",""弱他"",""强他""]","","","","","","","","match","","","","","","","","","","key","j","8.33447179487184","853.3333333333334","476","j","true","match","img/circle.png","好我","好我","prac_ALT2_moral","practice_moral","","","","","","","",""
"null","<span style='color:GreenYellow; font-size: 70px;'>正确! </span>","null","html-keyboard-response","55","287236","0.0-8.0-0.0-1.0-0.0-1.22","5","6","7","5","5","5","5","5","5","5","5","2","2","1","2","2","2","2","2","5","5","5","5","5","4","4","4","5","4","7","7","8","8","7","8","7","8","8","6","7","4","7","7","7","7","7","7","7","6","7","7","6","6","7","7","7","5","7","7","7","7","7","7","7","7","7","7","7","7","7","7","7","6","7","7","7","7","7","590521239097835520","李","145","Male","[""好我"",""坏我"",""坏他"",""好他""]","[""强我"",""弱我"",""弱他"",""强他""]","","","","","","","","","","","","","","","","","","","","","","","","","","","","","","feedback_test","","","","","","","",""
"1052","","f","psychophysics","56","289288","0.0-8.0-0.0-1.0-0.0-0.23","5","6","7","5","5","5","5","5","5","5","5","2","2","1","2","2","2","2","2","5","5","5","5","5","4","4","4","5","4","7","7","8","8","7","8","7","8","8","6","7","4","7","7","7","7","7","7","7","6","7","7","6","6","7","7","7","5","7","7","7","7","7","7","7","7","7","7","7","7","7","7","7","6","7","7","7","7","7","590521239097835520","李","145","Male","[""好我"",""坏我"",""坏他"",""好他""]","[""强我"",""弱我"",""弱他"",""强他""]","","","","","","","","nonmatch","","","","","","","","","","key","f","8.33433061224475","853.3333333333334","476","f","true","nonmatch","img/circle.png","坏他","好我","prac_ALT2_moral","practice_moral","","","","","","","",""
"null","<span style='color:GreenYellow; font-size: 70px;'>正确! </span>","null","html-keyboard-response","57","289795","0.0-8.0-0.0-1.0-0.0-1.23","5","6","7","5","5","5","5","5","5","5","5","2","2","1","2","2","2","2","2","5","5","5","5","5","4","4","4","5","4","7","7","8","8","7","8","7","8","8","6","7","4","7","7","7","7","7","7","7","6","7","7","6","6","7","7","7","5","7","7","7","7","7","7","7","7","7","7","7","7","7","7","7","6","7","7","7","7","7","590521239097835520","李","145","Male","[""好我"",""坏我"",""坏他"",""好他""]","[""强我"",""弱我"",""弱他"",""强他""]","","","","","","","","","","","","","","","","","","","","","","","","","","","","","","feedback_test","","","","","","","",""
"716","","j","psychophysics","58","291512","0.0-8.0-0.0-1.0-0.0-0.24","5","6","7","5","5","5","5","5","5","5","5","2","2","1","2","2","2","2","2","5","5","5","5","5","4","4","4","5","4","7","7","8","8","7","8","7","8","8","6","7","4","7","7","7","7","7","7","7","6","7","7","6","6","7","7","7","5","7","7","7","7","7","7","7","7","7","7","7","7","7","7","7","6","7","7","7","7","7","590521239097835520","李","145","Male","[""好我"",""坏我"",""坏他"",""好他""]","[""强我"",""弱我"",""弱他"",""强他""]","","","","","","","","match","","","","","","","","","","key","j","8.33438235294107","853.3333333333334","476","j","true","match","img/trapezoid.png","坏我","坏我","prac_ALT2_moral","practice_moral","","","","","","","",""
"null","<span style='color:GreenYellow; font-size: 70px;'>正确! </span>","null","html-keyboard-response","59","292019","0.0-8.0-0.0-1.0-0.0-1.24","5","6","7","5","5","5","5","5","5","5","5","2","2","1","2","2","2","2","2","5","5","5","5","5","4","4","4","5","4","7","7","8","8","7","8","7","8","8","6","7","4","7","7","7","7","7","7","7","6","7","7","6","6","7","7","7","5","7","7","7","7","7","7","7","7","7","7","7","7","7","7","7","6","7","7","7","7","7","590521239097835520","李","145","Male","[""好我"",""坏我"",""坏他"",""好他""]","[""强我"",""弱我"",""弱他"",""强他""]","","","","","","","","","","","","","","","","","","","","","","","","","","","","","","feedback_test","","","","","","","",""
"948","","f","psychophysics","60","293968","0.0-8.0-0.0-1.0-0.0-0.25","5","6","7","5","5","5","5","5","5","5","5","2","2","1","2","2","2","2","2","5","5","5","5","5","4","4","4","5","4","7","7","8","8","7","8","7","8","8","6","7","4","7","7","7","7","7","7","7","6","7","7","6","6","7","7","7","5","7","7","7","7","7","7","7","7","7","7","7","7","7","7","7","6","7","7","7","7","7","590521239097835520","李","145","Male","[""好我"",""坏我"",""坏他"",""好他""]","[""强我"",""弱我"",""弱他"",""强他""]","","","","","","","","nonmatch","","","","","","","","","","key","f","8.333883620689699","853.3333333333334","476","f","true","nonmatch","img/trapezoid.png","坏他","坏我","prac_ALT2_moral","practice_moral","","","","","","","",""
"null","<span style='color:GreenYellow; font-size: 70px;'>正确! </span>","null","html-keyboard-response","61","294476","0.0-8.0-0.0-1.0-0.0-1.25","5","6","7","5","5","5","5","5","5","5","5","2","2","1","2","2","2","2","2","5","5","5","5","5","4","4","4","5","4","7","7","8","8","7","8","7","8","8","6","7","4","7","7","7","7","7","7","7","6","7","7","6","6","7","7","7","5","7","7","7","7","7","7","7","7","7","7","7","7","7","7","7","6","7","7","7","7","7","590521239097835520","李","145","Male","[""好我"",""坏我"",""坏他"",""好他""]","[""强我"",""弱我"",""弱他"",""强他""]","","","","","","","","","","","","","","","","","","","","","","","","","","","","","","feedback_test","","","","","","","",""
"546","","j","psychophysics","62","296024","0.0-8.0-0.0-1.0-0.0-0.26","5","6","7","5","5","5","5","5","5","5","5","2","2","1","2","2","2","2","2","5","5","5","5","5","4","4","4","5","4","7","7","8","8","7","8","7","8","8","6","7","4","7","7","7","7","7","7","7","6","7","7","6","6","7","7","7","5","7","7","7","7","7","7","7","7","7","7","7","7","7","7","7","6","7","7","7","7","7","590521239097835520","李","145","Male","[""好我"",""坏我"",""坏他"",""好他""]","[""强我"",""弱我"",""弱他"",""强他""]","","","","","","","","match","","","","","","","","","","key","j","8.332603260869687","853.3333333333334","476","j","true","match","img/square.png","坏他","坏他","prac_ALT2_moral","practice_moral","","","","","","","",""
"null","<span style='color:GreenYellow; font-size: 70px;'>正确! </span>","null","html-keyboard-response","63","296532","0.0-8.0-0.0-1.0-0.0-1.26","5","6","7","5","5","5","5","5","5","5","5","2","2","1","2","2","2","2","2","5","5","5","5","5","4","4","4","5","4","7","7","8","8","7","8","7","8","8","6","7","4","7","7","7","7","7","7","7","6","7","7","6","6","7","7","7","5","7","7","7","7","7","7","7","7","7","7","7","7","7","7","7","6","7","7","7","7","7","590521239097835520","李","145","Male","[""好我"",""坏我"",""坏他"",""好他""]","[""强我"",""弱我"",""弱他"",""强他""]","","","","","","","","","","","","","","","","","","","","","","","","","","","","","","feedback_test","","","","","","","",""
"1011","","j","psychophysics","64","298544","0.0-8.0-0.0-1.0-0.0-0.27","5","6","7","5","5","5","5","5","5","5","5","2","2","1","2","2","2","2","2","5","5","5","5","5","4","4","4","5","4","7","7","8","8","7","8","7","8","8","6","7","4","7","7","7","7","7","7","7","6","7","7","6","6","7","7","7","5","7","7","7","7","7","7","7","7","7","7","7","7","7","7","7","6","7","7","7","7","7","590521239097835520","李","145","Male","[""好我"",""坏我"",""坏他"",""好他""]","[""强我"",""弱我"",""弱他"",""强他""]","","","","","","","","match","","","","","","","","","","key","j","8.332254166666583","853.3333333333334","476","j","true","match","img/circle.png","好我","好我","prac_ALT2_moral","practice_moral","","","","","","","",""
"null","<span style='color:GreenYellow; font-size: 70px;'>正确! </span>","null","html-keyboard-response","65","299051","0.0-8.0-0.0-1.0-0.0-1.27","5","6","7","5","5","5","5","5","5","5","5","2","2","1","2","2","2","2","2","5","5","5","5","5","4","4","4","5","4","7","7","8","8","7","8","7","8","8","6","7","4","7","7","7","7","7","7","7","6","7","7","6","6","7","7","7","5","7","7","7","7","7","7","7","7","7","7","7","7","7","7","7","6","7","7","7","7","7","590521239097835520","李","145","Male","[""好我"",""坏我"",""坏他"",""好他""]","[""强我"",""弱我"",""弱他"",""强他""]","","","","","","","","","","","","","","","","","","","","","","","","","","","","","","feedback_test","","","","","","","",""
"819","","f","psychophysics","66","300872","0.0-8.0-0.0-1.0-0.0-0.28","5","6","7","5","5","5","5","5","5","5","5","2","2","1","2","2","2","2","2","5","5","5","5","5","4","4","4","5","4","7","7","8","8","7","8","7","8","8","6","7","4","7","7","7","7","7","7","7","6","7","7","6","6","7","7","7","5","7","7","7","7","7","7","7","7","7","7","7","7","7","7","7","6","7","7","7","7","7","590521239097835520","李","145","Male","[""好我"",""坏我"",""坏他"",""好他""]","[""强我"",""弱我"",""弱他"",""强他""]","","","","","","","","nonmatch","","","","","","","","","","key","f","8.334760368663511","853.3333333333334","476","f","true","nonmatch","img/circle.png","坏我","好我","prac_ALT2_moral","practice_moral","","","","","","","",""
"null","<span style='color:GreenYellow; font-size: 70px;'>正确! </span>","null","html-keyboard-response","67","301378","0.0-8.0-0.0-1.0-0.0-1.28","5","6","7","5","5","5","5","5","5","5","5","2","2","1","2","2","2","2","2","5","5","5","5","5","4","4","4","5","4","7","7","8","8","7","8","7","8","8","6","7","4","7","7","7","7","7","7","7","6","7","7","6","6","7","7","7","5","7","7","7","7","7","7","7","7","7","7","7","7","7","7","7","6","7","7","7","7","7","590521239097835520","李","145","Male","[""好我"",""坏我"",""坏他"",""好他""]","[""强我"",""弱我"",""弱他"",""强他""]","","","","","","","","","","","","","","","","","","","","","","","","","","","","","","feedback_test","","","","","","","",""
"1085","","f","psychophysics","68","303464","0.0-8.0-0.0-1.0-0.0-0.29","5","6","7","5","5","5","5","5","5","5","5","2","2","1","2","2","2","2","2","5","5","5","5","5","4","4","4","5","4","7","7","8","8","7","8","7","8","8","6","7","4","7","7","7","7","7","7","7","6","7","7","6","6","7","7","7","5","7","7","7","7","7","7","7","7","7","7","7","7","7","7","7","6","7","7","7","7","7","590521239097835520","李","145","Male","[""好我"",""坏我"",""坏他"",""好他""]","[""强我"",""弱我"",""弱他"",""强他""]","","","","","","","","nonmatch","","","","","","","","","","key","f","8.334409638554144","853.3333333333334","476","f","true","nonmatch","img/pentagon.png","坏他","好他","prac_ALT2_moral","practice_moral","","","","","","","",""
"null","<span style='color:GreenYellow; font-size: 70px;'>正确! </span>","null","html-keyboard-response","69","303973","0.0-8.0-0.0-1.0-0.0-1.29","5","6","7","5","5","5","5","5","5","5","5","2","2","1","2","2","2","2","2","5","5","5","5","5","4","4","4","5","4","7","7","8","8","7","8","7","8","8","6","7","4","7","7","7","7","7","7","7","6","7","7","6","6","7","7","7","5","7","7","7","7","7","7","7","7","7","7","7","7","7","7","7","6","7","7","7","7","7","590521239097835520","李","145","Male","[""好我"",""坏我"",""坏他"",""好他""]","[""强我"",""弱我"",""弱他"",""强他""]","","","","","","","","","","","","","","","","","","","","","","","","","","","","","","feedback_test","","","","","","","",""
"867","","j","psychophysics","70","305840","0.0-8.0-0.0-1.0-0.0-0.30","5","6","7","5","5","5","5","5","5","5","5","2","2","1","2","2","2","2","2","5","5","5","5","5","4","4","4","5","4","7","7","8","8","7","8","7","8","8","6","7","4","7","7","7","7","7","7","7","6","7","7","6","6","7","7","7","5","7","7","7","7","7","7","7","7","7","7","7","7","7","7","7","6","7","7","7","7","7","590521239097835520","李","145","Male","[""好我"",""坏我"",""坏他"",""好他""]","[""强我"",""弱我"",""弱他"",""强他""]","","","","","","","","match","","","","","","","","","","key","j","8.333477477477507","853.3333333333334","476","j","true","match","img/trapezoid.png","坏我","坏我","prac_ALT2_moral","practice_moral","","","","","","","",""
"null","<span style='color:GreenYellow; font-size: 70px;'>正确! </span>","null","html-keyboard-response","71","306347","0.0-8.0-0.0-1.0-0.0-1.30","5","6","7","5","5","5","5","5","5","5","5","2","2","1","2","2","2","2","2","5","5","5","5","5","4","4","4","5","4","7","7","8","8","7","8","7","8","8","6","7","4","7","7","7","7","7","7","7","6","7","7","6","6","7","7","7","5","7","7","7","7","7","7","7","7","7","7","7","7","7","7","7","6","7","7","7","7","7","590521239097835520","李","145","Male","[""好我"",""坏我"",""坏他"",""好他""]","[""强我"",""弱我"",""弱他"",""强他""]","","","","","","","","","","","","","","","","","","","","","","","","","","","","","","feedback_test","","","","","","","",""
"860","","j","psychophysics","72","308208","0.0-8.0-0.0-1.0-0.0-0.31","5","6","7","5","5","5","5","5","5","5","5","2","2","1","2","2","2","2","2","5","5","5","5","5","4","4","4","5","4","7","7","8","8","7","8","7","8","8","6","7","4","7","7","7","7","7","7","7","6","7","7","6","6","7","7","7","5","7","7","7","7","7","7","7","7","7","7","7","7","7","7","7","6","7","7","7","7","7","590521239097835520","李","145","Male","[""好我"",""坏我"",""坏他"",""好他""]","[""强我"",""弱我"",""弱他"",""强他""]","","","","","","","","match","","","","","","","","","","key","j","8.334522522522633","853.3333333333334","476","f","false","nonmatch","img/square.png","坏我","坏他","prac_ALT2_moral","practice_moral","","","","","","","",""
"null","<span style='color:red; font-size: 70px;'>错误! </span>","null","html-keyboard-response","73","308716","0.0-8.0-0.0-1.0-0.0-1.31","5","6","7","5","5","5","5","5","5","5","5","2","2","1","2","2","2","2","2","5","5","5","5","5","4","4","4","5","4","7","7","8","8","7","8","7","8","8","6","7","4","7","7","7","7","7","7","7","6","7","7","6","6","7","7","7","5","7","7","7","7","7","7","7","7","7","7","7","7","7","7","7","6","7","7","7","7","7","590521239097835520","李","145","Male","[""好我"",""坏我"",""坏他"",""好他""]","[""强我"",""弱我"",""弱他"",""强他""]","","","","","","","","","","","","","","","","","","","","","","","","","","","","","","feedback_test","","","","","","","",""
"875","","f","psychophysics","74","310592","0.0-8.0-0.0-1.0-0.0-0.32","5","6","7","5","5","5","5","5","5","5","5","2","2","1","2","2","2","2","2","5","5","5","5","5","4","4","4","5","4","7","7","8","8","7","8","7","8","8","6","7","4","7","7","7","7","7","7","7","6","7","7","6","6","7","7","7","5","7","7","7","7","7","7","7","7","7","7","7","7","7","7","7","6","7","7","7","7","7","590521239097835520","李","145","Male","[""好我"",""坏我"",""坏他"",""好他""]","[""强我"",""弱我"",""弱他"",""强他""]","","","","","","","","nonmatch","","","","","","","","","","key","f","8.332206278026883","853.3333333333334","476","f","true","nonmatch","img/pentagon.png","坏我","好他","prac_ALT2_moral","practice_moral","","","","","","","",""
"null","<span style='color:GreenYellow; font-size: 70px;'>正确! </span>","null","html-keyboard-response","75","311098","0.0-8.0-0.0-1.0-0.0-1.32","5","6","7","5","5","5","5","5","5","5","5","2","2","1","2","2","2","2","2","5","5","5","5","5","4","4","4","5","4","7","7","8","8","7","8","7","8","8","6","7","4","7","7","7","7","7","7","7","6","7","7","6","6","7","7","7","5","7","7","7","7","7","7","7","7","7","7","7","7","7","7","7","6","7","7","7","7","7","590521239097835520","李","145","Male","[""好我"",""坏我"",""坏他"",""好他""]","[""强我"",""弱我"",""弱他"",""强他""]","","","","","","","","","","","","","","","","","","","","","","","","","","","","","","feedback_test","","","","","","","",""
"685","","j","psychophysics","76","312784","0.0-8.0-0.0-1.0-0.0-0.33","5","6","7","5","5","5","5","5","5","5","5","2","2","1","2","2","2","2","2","5","5","5","5","5","4","4","4","5","4","7","7","8","8","7","8","7","8","8","6","7","4","7","7","7","7","7","7","7","6","7","7","6","6","7","7","7","5","7","7","7","7","7","7","7","7","7","7","7","7","7","7","7","6","7","7","7","7","7","590521239097835520","李","145","Male","[""好我"",""坏我"",""坏他"",""好他""]","[""强我"",""弱我"",""弱他"",""强他""]","","","","","","","","match","","","","","","","","","","key","j","8.333756218905577","853.3333333333334","476","j","true","match","img/circle.png","好我","好我","prac_ALT2_moral","practice_moral","","","","","","","",""
"null","<span style='color:GreenYellow; font-size: 70px;'>正确! </span>","null","html-keyboard-response","77","313288","0.0-8.0-0.0-1.0-0.0-1.33","5","6","7","5","5","5","5","5","5","5","5","2","2","1","2","2","2","2","2","5","5","5","5","5","4","4","4","5","4","7","7","8","8","7","8","7","8","8","6","7","4","7","7","7","7","7","7","7","6","7","7","6","6","7","7","7","5","7","7","7","7","7","7","7","7","7","7","7","7","7","7","7","6","7","7","7","7","7","590521239097835520","李","145","Male","[""好我"",""坏我"",""坏他"",""好他""]","[""强我"",""弱我"",""弱他"",""强他""]","","","","","","","","","","","","","","","","","","","","","","","","","","","","","","feedback_test","","","","","","","",""
"822","","f","psychophysics","78","315112","0.0-8.0-0.0-1.0-0.0-0.34","5","6","7","5","5","5","5","5","5","5","5","2","2","1","2","2","2","2","2","5","5","5","5","5","4","4","4","5","4","7","7","8","8","7","8","7","8","8","6","7","4","7","7","7","7","7","7","7","6","7","7","6","6","7","7","7","5","7","7","7","7","7","7","7","7","7","7","7","7","7","7","7","6","7","7","7","7","7","590521239097835520","李","145","Male","[""好我"",""坏我"",""坏他"",""好他""]","[""强我"",""弱我"",""弱他"",""强他""]","","","","","","","","nonmatch","","","","","","","","","","key","f","8.335156682027613","853.3333333333334","476","f","true","nonmatch","img/square.png","好他","坏他","prac_ALT2_moral","practice_moral","","","","","","","",""
"null","<span style='color:GreenYellow; font-size: 70px;'>正确! </span>","null","html-keyboard-response","79","315618","0.0-8.0-0.0-1.0-0.0-1.34","5","6","7","5","5","5","5","5","5","5","5","2","2","1","2","2","2","2","2","5","5","5","5","5","4","4","4","5","4","7","7","8","8","7","8","7","8","8","6","7","4","7","7","7","7","7","7","7","6","7","7","6","6","7","7","7","5","7","7","7","7","7","7","7","7","7","7","7","7","7","7","7","6","7","7","7","7","7","590521239097835520","李","145","Male","[""好我"",""坏我"",""坏他"",""好他""]","[""强我"",""弱我"",""弱他"",""强他""]","","","","","","","","","","","","","","","","","","","","","","","","","","","","","","feedback_test","","","","","","","",""
"908","","j","psychophysics","80","317528","0.0-8.0-0.0-1.0-0.0-0.35","5","6","7","5","5","5","5","5","5","5","5","2","2","1","2","2","2","2","2","5","5","5","5","5","4","4","4","5","4","7","7","8","8","7","8","7","8","8","6","7","4","7","7","7","7","7","7","7","6","7","7","6","6","7","7","7","5","7","7","7","7","7","7","7","7","7","7","7","7","7","7","7","6","7","7","7","7","7","590521239097835520","李","145","Male","[""好我"",""坏我"",""坏他"",""好他""]","[""强我"",""弱我"",""弱他"",""强他""]","","","","","","","","match","","","","","","","","","","key","j","8.334581497797151","853.3333333333334","476","j","true","match","img/square.png","坏他","坏他","prac_ALT2_moral","practice_moral","","","","","","","",""
"null","<span style='color:GreenYellow; font-size: 70px;'>正确! </span>","null","html-keyboard-response","81","318034","0.0-8.0-0.0-1.0-0.0-1.35","5","6","7","5","5","5","5","5","5","5","5","2","2","1","2","2","2","2","2","5","5","5","5","5","4","4","4","5","4","7","7","8","8","7","8","7","8","8","6","7","4","7","7","7","7","7","7","7","6","7","7","6","6","7","7","7","5","7","7","7","7","7","7","7","7","7","7","7","7","7","7","7","6","7","7","7","7","7","590521239097835520","李","145","Male","[""好我"",""坏我"",""坏他"",""好他""]","[""强我"",""弱我"",""弱他"",""强他""]","","","","","","","","","","","","","","","","","","","","","","","","","","","","","","feedback_test","","","","","","","",""
"1165","","f","psychophysics","82","320200","0.0-8.0-0.0-1.0-0.0-0.36","5","6","7","5","5","5","5","5","5","5","5","2","2","1","2","2","2","2","2","5","5","5","5","5","4","4","4","5","4","7","7","8","8","7","8","7","8","8","6","7","4","7","7","7","7","7","7","7","6","7","7","6","6","7","7","7","5","7","7","7","7","7","7","7","7","7","7","7","7","7","7","7","6","7","7","7","7","7","590521239097835520","李","145","Male","[""好我"",""坏我"",""坏他"",""好他""]","[""强我"",""弱我"",""弱他"",""强他""]","","","","","","","","nonmatch","","","","","","","","","","key","f","8.334771317829398","853.3333333333334","476","f","true","nonmatch","img/circle.png","好他","好我","prac_ALT2_moral","practice_moral","","","","","","","",""
"null","<span style='color:GreenYellow; font-size: 70px;'>正确! </span>","null","html-keyboard-response","83","320708","0.0-8.0-0.0-1.0-0.0-1.36","5","6","7","5","5","5","5","5","5","5","5","2","2","1","2","2","2","2","2","5","5","5","5","5","4","4","4","5","4","7","7","8","8","7","8","7","8","8","6","7","4","7","7","7","7","7","7","7","6","7","7","6","6","7","7","7","5","7","7","7","7","7","7","7","7","7","7","7","7","7","7","7","6","7","7","7","7","7","590521239097835520","李","145","Male","[""好我"",""坏我"",""坏他"",""好他""]","[""强我"",""弱我"",""弱他"",""强他""]","","","","","","","","","","","","","","","","","","","","","","","","","","","","","","feedback_test","","","","","","","",""
"786","","j","psychophysics","84","322495","0.0-8.0-0.0-1.0-0.0-0.37","5","6","7","5","5","5","5","5","5","5","5","2","2","1","2","2","2","2","2","5","5","5","5","5","4","4","4","5","4","7","7","8","8","7","8","7","8","8","6","7","4","7","7","7","7","7","7","7","6","7","7","6","6","7","7","7","5","7","7","7","7","7","7","7","7","7","7","7","7","7","7","7","6","7","7","7","7","7","590521239097835520","李","145","Male","[""好我"",""坏我"",""坏他"",""好他""]","[""强我"",""弱我"",""弱他"",""强他""]","","","","","","","","match","","","","","","","","","","key","j","8.333300469483374","853.3333333333334","476","j","true","match","img/pentagon.png","好他","好他","prac_ALT2_moral","practice_moral","","","","","","","",""
"null","<span style='color:GreenYellow; font-size: 70px;'>正确! </span>","null","html-keyboard-response","85","323002","0.0-8.0-0.0-1.0-0.0-1.37","5","6","7","5","5","5","5","5","5","5","5","2","2","1","2","2","2","2","2","5","5","5","5","5","4","4","4","5","4","7","7","8","8","7","8","7","8","8","6","7","4","7","7","7","7","7","7","7","6","7","7","6","6","7","7","7","5","7","7","7","7","7","7","7","7","7","7","7","7","7","7","7","6","7","7","7","7","7","590521239097835520","李","145","Male","[""好我"",""坏我"",""坏他"",""好他""]","[""强我"",""弱我"",""弱他"",""强他""]","","","","","","","","","","","","","","","","","","","","","","","","","","","","","","feedback_test","","","","","","","",""
"1100","","f","psychophysics","86","325103","0.0-8.0-0.0-1.0-0.0-0.38","5","6","7","5","5","5","5","5","5","5","5","2","2","1","2","2","2","2","2","5","5","5","5","5","4","4","4","5","4","7","7","8","8","7","8","7","8","8","6","7","4","7","7","7","7","7","7","7","6","7","7","6","6","7","7","7","5","7","7","7","7","7","7","7","7","7","7","7","7","7","7","7","6","7","7","7","7","7","590521239097835520","李","145","Male","[""好我"",""坏我"",""坏他"",""好他""]","[""强我"",""弱我"",""弱他"",""强他""]","","","","","","","","nonmatch","","","","","","","","","","key","f","8.333199999999954","853.3333333333334","476","f","true","nonmatch","img/circle.png","坏他","好我","prac_ALT2_moral","practice_moral","","","","","","","",""
"null","<span style='color:GreenYellow; font-size: 70px;'>正确! </span>","null","html-keyboard-response","87","325610","0.0-8.0-0.0-1.0-0.0-1.38","5","6","7","5","5","5","5","5","5","5","5","2","2","1","2","2","2","2","2","5","5","5","5","5","4","4","4","5","4","7","7","8","8","7","8","7","8","8","6","7","4","7","7","7","7","7","7","7","6","7","7","6","6","7","7","7","5","7","7","7","7","7","7","7","7","7","7","7","7","7","7","7","6","7","7","7","7","7","590521239097835520","李","145","Male","[""好我"",""坏我"",""坏他"",""好他""]","[""强我"",""弱我"",""弱他"",""强他""]","","","","","","","","","","","","","","","","","","","","","","","","","","","","","","feedback_test","","","","","","","",""
"867","","f","psychophysics","88","327480","0.0-8.0-0.0-1.0-0.0-0.39","5","6","7","5","5","5","5","5","5","5","5","2","2","1","2","2","2","2","2","5","5","5","5","5","4","4","4","5","4","7","7","8","8","7","8","7","8","8","6","7","4","7","7","7","7","7","7","7","6","7","7","6","6","7","7","7","5","7","7","7","7","7","7","7","7","7","7","7","7","7","7","7","6","7","7","7","7","7","590521239097835520","李","145","Male","[""好我"",""坏我"",""坏他"",""好他""]","[""强我"",""弱我"",""弱他"",""强他""]","","","","","","","","nonmatch","","","","","","","","","","key","f","8.33508071748878","853.3333333333334","476","f","true","nonmatch","img/trapezoid.png","好我","坏我","prac_ALT2_moral","practice_moral","","","","","","","",""
"null","<span style='color:GreenYellow; font-size: 70px;'>正确! </span>","null","html-keyboard-response","89","327987","0.0-8.0-0.0-1.0-0.0-1.39","5","6","7","5","5","5","5","5","5","5","5","2","2","1","2","2","2","2","2","5","5","5","5","5","4","4","4","5","4","7","7","8","8","7","8","7","8","8","6","7","4","7","7","7","7","7","7","7","6","7","7","6","6","7","7","7","5","7","7","7","7","7","7","7","7","7","7","7","7","7","7","7","6","7","7","7","7","7","590521239097835520","李","145","Male","[""好我"",""坏我"",""坏他"",""好他""]","[""强我"",""弱我"",""弱他"",""强他""]","","","","","","","","","","","","","","","","","","","","","","","","","","","","","","feedback_test","","","","","","","",""
"852","","j","psychophysics","90","329840","0.0-8.0-0.0-1.0-0.0-0.40","5","6","7","5","5","5","5","5","5","5","5","2","2","1","2","2","2","2","2","5","5","5","5","5","4","4","4","5","4","7","7","8","8","7","8","7","8","8","6","7","4","7","7","7","7","7","7","7","6","7","7","6","6","7","7","7","5","7","7","7","7","7","7","7","7","7","7","7","7","7","7","7","6","7","7","7","7","7","590521239097835520","李","145","Male","[""好我"",""坏我"",""坏他"",""好他""]","[""强我"",""弱我"",""弱他"",""强他""]","","","","","","","","match","","","","","","","","","","key","j","8.334791855203626","853.3333333333334","476","j","true","match","img/pentagon.png","好他","好他","prac_ALT2_moral","practice_moral","","","","","","","",""
"null","<span style='color:GreenYellow; font-size: 70px;'>正确! </span>","null","html-keyboard-response","91","330347","0.0-8.0-0.0-1.0-0.0-1.40","5","6","7","5","5","5","5","5","5","5","5","2","2","1","2","2","2","2","2","5","5","5","5","5","4","4","4","5","4","7","7","8","8","7","8","7","8","8","6","7","4","7","7","7","7","7","7","7","6","7","7","6","6","7","7","7","5","7","7","7","7","7","7","7","7","7","7","7","7","7","7","7","6","7","7","7","7","7","590521239097835520","李","145","Male","[""好我"",""坏我"",""坏他"",""好他""]","[""强我"",""弱我"",""弱他"",""强他""]","","","","","","","","","","","","","","","","","","","","","","","","","","","","","","feedback_test","","","","","","","",""
"780","","j","psychophysics","92","332128","0.0-8.0-0.0-1.0-0.0-0.41","5","6","7","5","5","5","5","5","5","5","5","2","2","1","2","2","2","2","2","5","5","5","5","5","4","4","4","5","4","7","7","8","8","7","8","7","8","8","6","7","4","7","7","7","7","7","7","7","6","7","7","6","6","7","7","7","5","7","7","7","7","7","7","7","7","7","7","7","7","7","7","7","6","7","7","7","7","7","590521239097835520","李","145","Male","[""好我"",""坏我"",""坏他"",""好他""]","[""强我"",""弱我"",""弱他"",""强他""]","","","","","","","","match","","","","","","","","","","key","j","8.334863207547075","853.3333333333334","476","j","true","match","img/trapezoid.png","坏我","坏我","prac_ALT2_moral","practice_moral","","","","","","","",""
"null","<span style='color:GreenYellow; font-size: 70px;'>正确! </span>","null","html-keyboard-response","93","332629","0.0-8.0-0.0-1.0-0.0-1.41","5","6","7","5","5","5","5","5","5","5","5","2","2","1","2","2","2","2","2","5","5","5","5","5","4","4","4","5","4","7","7","8","8","7","8","7","8","8","6","7","4","7","7","7","7","7","7","7","6","7","7","6","6","7","7","7","5","7","7","7","7","7","7","7","7","7","7","7","7","7","7","7","6","7","7","7","7","7","590521239097835520","李","145","Male","[""好我"",""坏我"",""坏他"",""好他""]","[""强我"",""弱我"",""弱他"",""强他""]","","","","","","","","","","","","","","","","","","","","","","","","","","","","","","feedback_test","","","","","","","",""
"1026","","f","psychophysics","94","334656","0.0-8.0-0.0-1.0-0.0-0.42","5","6","7","5","5","5","5","5","5","5","5","2","2","1","2","2","2","2","2","5","5","5","5","5","4","4","4","5","4","7","7","8","8","7","8","7","8","8","6","7","4","7","7","7","7","7","7","7","6","7","7","6","6","7","7","7","5","7","7","7","7","7","7","7","7","7","7","7","7","7","7","7","6","7","7","7","7","7","590521239097835520","李","145","Male","[""好我"",""坏我"",""坏他"",""好他""]","[""强我"",""弱我"",""弱他"",""强他""]","","","","","","","","nonmatch","","","","","","","","","","key","f","8.333169421487755","853.3333333333334","476","f","true","nonmatch","img/square.png","好我","坏他","prac_ALT2_moral","practice_moral","","","","","","","",""
"null","<span style='color:GreenYellow; font-size: 70px;'>正确! </span>","null","html-keyboard-response","95","335162","0.0-8.0-0.0-1.0-0.0-1.42","5","6","7","5","5","5","5","5","5","5","5","2","2","1","2","2","2","2","2","5","5","5","5","5","4","4","4","5","4","7","7","8","8","7","8","7","8","8","6","7","4","7","7","7","7","7","7","7","6","7","7","6","6","7","7","7","5","7","7","7","7","7","7","7","7","7","7","7","7","7","7","7","6","7","7","7","7","7","590521239097835520","李","145","Male","[""好我"",""坏我"",""坏他"",""好他""]","[""强我"",""弱我"",""弱他"",""强他""]","","","","","","","","","","","","","","","","","","","","","","","","","","","","","","feedback_test","","","","","","","",""
"860","","j","psychophysics","96","337024","0.0-8.0-0.0-1.0-0.0-0.43","5","6","7","5","5","5","5","5","5","5","5","2","2","1","2","2","2","2","2","5","5","5","5","5","4","4","4","5","4","7","7","8","8","7","8","7","8","8","6","7","4","7","7","7","7","7","7","7","6","7","7","6","6","7","7","7","5","7","7","7","7","7","7","7","7","7","7","7","7","7","7","7","6","7","7","7","7","7","590521239097835520","李","145","Male","[""好我"",""坏我"",""坏他"",""好他""]","[""强我"",""弱我"",""弱他"",""强他""]","","","","","","","","match","","","","","","","","","","key","j","8.333711711711855","853.3333333333334","476","j","true","match","img/square.png","坏他","坏他","prac_ALT2_moral","practice_moral","","","","","","","",""
"null","<span style='color:GreenYellow; font-size: 70px;'>正确! </span>","null","html-keyboard-response","97","337531","0.0-8.0-0.0-1.0-0.0-1.43","5","6","7","5","5","5","5","5","5","5","5","2","2","1","2","2","2","2","2","5","5","5","5","5","4","4","4","5","4","7","7","8","8","7","8","7","8","8","6","7","4","7","7","7","7","7","7","7","6","7","7","6","6","7","7","7","5","7","7","7","7","7","7","7","7","7","7","7","7","7","7","7","6","7","7","7","7","7","590521239097835520","李","145","Male","[""好我"",""坏我"",""坏他"",""好他""]","[""强我"",""弱我"",""弱他"",""强他""]","","","","","","","","","","","","","","","","","","","","","","","","","","","","","","feedback_test","","","","","","","",""
"669","","j","psychophysics","98","339200","0.0-8.0-0.0-1.0-0.0-0.44","5","6","7","5","5","5","5","5","5","5","5","2","2","1","2","2","2","2","2","5","5","5","5","5","4","4","4","5","4","7","7","8","8","7","8","7","8","8","6","7","4","7","7","7","7","7","7","7","6","7","7","6","6","7","7","7","5","7","7","7","7","7","7","7","7","7","7","7","7","7","7","7","6","7","7","7","7","7","590521239097835520","李","145","Male","[""好我"",""坏我"",""坏他"",""好他""]","[""强我"",""弱我"",""弱他"",""强他""]","","","","","","","","match","","","","","","","","","","key","j","8.335040201004782","853.3333333333334","476","j","true","match","img/pentagon.png","好他","好他","prac_ALT2_moral","practice_moral","","","","","","","",""
"null","<span style='color:GreenYellow; font-size: 70px;'>正确! </span>","null","html-keyboard-response","99","339708","0.0-8.0-0.0-1.0-0.0-1.44","5","6","7","5","5","5","5","5","5","5","5","2","2","1","2","2","2","2","2","5","5","5","5","5","4","4","4","5","4","7","7","8","8","7","8","7","8","8","6","7","4","7","7","7","7","7","7","7","6","7","7","6","6","7","7","7","5","7","7","7","7","7","7","7","7","7","7","7","7","7","7","7","6","7","7","7","7","7","590521239097835520","李","145","Male","[""好我"",""坏我"",""坏他"",""好他""]","[""强我"",""弱我"",""弱他"",""强他""]","","","","","","","","","","","","","","","","","","","","","","","","","","","","","","feedback_test","","","","","","","",""
"1123","","f","psychophysics","100","341832","0.0-8.0-0.0-1.0-0.0-0.45","5","6","7","5","5","5","5","5","5","5","5","2","2","1","2","2","2","2","2","5","5","5","5","5","4","4","4","5","4","7","7","8","8","7","8","7","8","8","6","7","4","7","7","7","7","7","7","7","6","7","7","6","6","7","7","7","5","7","7","7","7","7","7","7","7","7","7","7","7","7","7","7","6","7","7","7","7","7","590521239097835520","李","145","Male","[""好我"",""坏我"",""坏他"",""好他""]","[""强我"",""弱我"",""弱他"",""强他""]","","","","","","","","nonmatch","","","","","","","","","","key","f","8.333735177865604","853.3333333333334","476","f","true","nonmatch","img/pentagon.png","好我","好他","prac_ALT2_moral","practice_moral","","","","","","","",""
"null","<span style='color:GreenYellow; font-size: 70px;'>正确! </span>","null","html-keyboard-response","101","342337","0.0-8.0-0.0-1.0-0.0-1.45","5","6","7","5","5","5","5","5","5","5","5","2","2","1","2","2","2","2","2","5","5","5","5","5","4","4","4","5","4","7","7","8","8","7","8","7","8","8","6","7","4","7","7","7","7","7","7","7","6","7","7","6","6","7","7","7","5","7","7","7","7","7","7","7","7","7","7","7","7","7","7","7","6","7","7","7","7","7","590521239097835520","李","145","Male","[""好我"",""坏我"",""坏他"",""好他""]","[""强我"",""弱我"",""弱他"",""强他""]","","","","","","","","","","","","","","","","","","","","","","","","","","","","","","feedback_test","","","","","","","",""
"773","","f","psychophysics","102","344111","0.0-8.0-0.0-1.0-0.0-0.46","5","6","7","5","5","5","5","5","5","5","5","2","2","1","2","2","2","2","2","5","5","5","5","5","4","4","4","5","4","7","7","8","8","7","8","7","8","8","6","7","4","7","7","7","7","7","7","7","6","7","7","6","6","7","7","7","5","7","7","7","7","7","7","7","7","7","7","7","7","7","7","7","6","7","7","7","7","7","590521239097835520","李","145","Male","[""好我"",""坏我"",""坏他"",""好他""]","[""强我"",""弱我"",""弱他"",""强他""]","","","","","","","","nonmatch","","","","","","","","","","key","f","8.334627358490527","853.3333333333334","476","f","true","nonmatch","img/trapezoid.png","好他","坏我","prac_ALT2_moral","practice_moral","","","","","","","",""
"null","<span style='color:GreenYellow; font-size: 70px;'>正确! </span>","null","html-keyboard-response","103","344618","0.0-8.0-0.0-1.0-0.0-1.46","5","6","7","5","5","5","5","5","5","5","5","2","2","1","2","2","2","2","2","5","5","5","5","5","4","4","4","5","4","7","7","8","8","7","8","7","8","8","6","7","4","7","7","7","7","7","7","7","6","7","7","6","6","7","7","7","5","7","7","7","7","7","7","7","7","7","7","7","7","7","7","7","6","7","7","7","7","7","590521239097835520","李","145","Male","[""好我"",""坏我"",""坏他"",""好他""]","[""强我"",""弱我"",""弱他"",""强他""]","","","","","","","","","","","","","","","","","","","","","","","","","","","","","","feedback_test","","","","","","","",""
"636","","j","psychophysics","104","346255","0.0-8.0-0.0-1.0-0.0-0.47","5","6","7","5","5","5","5","5","5","5","5","2","2","1","2","2","2","2","2","5","5","5","5","5","4","4","4","5","4","7","7","8","8","7","8","7","8","8","6","7","4","7","7","7","7","7","7","7","6","7","7","6","6","7","7","7","5","7","7","7","7","7","7","7","7","7","7","7","7","7","7","7","6","7","7","7","7","7","590521239097835520","李","145","Male","[""好我"",""坏我"",""坏他"",""好他""]","[""强我"",""弱我"",""弱他"",""强他""]","","","","","","","","match","","","","","","","","","","key","j","8.335056410256463","853.3333333333334","476","j","true","match","img/circle.png","好我","好我","prac_ALT2_moral","practice_moral","","","","","","","",""
"null","<span style='color:GreenYellow; font-size: 70px;'>正确! </span>","null","html-keyboard-response","105","346762","0.0-8.0-0.0-1.0-0.0-1.47","5","6","7","5","5","5","5","5","5","5","5","2","2","1","2","2","2","2","2","5","5","5","5","5","4","4","4","5","4","7","7","8","8","7","8","7","8","8","6","7","4","7","7","7","7","7","7","7","6","7","7","6","6","7","7","7","5","7","7","7","7","7","7","7","7","7","7","7","7","7","7","7","6","7","7","7","7","7","590521239097835520","李","145","Male","[""好我"",""坏我"",""坏他"",""好他""]","[""强我"",""弱我"",""弱他"",""强他""]","","","","","","","","","","","","","","","","","","","","","","","","","","","","","","feedback_test","","","","","","","",""
"2196","<style>.context{color:white; font-size: 35px; line-height:40px}</style>                            <div><p class='context'>您正确回答了90% 的试次。</p><p class='context'>您的平均反应时为867毫秒。</p><p class='context'>恭喜您完成练习。按空格键进入正式实验。</p><p class='footer' style='font-size: 35px; line-height:40px;'>请在进入正式实验实验之前将您的<span style='color: lightgreen;'>食指</span>放在电脑键盘的相应键位上进行按键。</p>"," ","html-keyboard-response","106","348959","0.0-8.0-0.0-2.0","5","6","7","5","5","5","5","5","5","5","5","2","2","1","2","2","2","2","2","5","5","5","5","5","4","4","4","5","4","7","7","8","8","7","8","7","8","8","6","7","4","7","7","7","7","7","7","7","6","7","7","6","6","7","7","7","5","7","7","7","7","7","7","7","7","7","7","7","7","7","7","7","6","7","7","7","7","7","590521239097835520","李","145","Male","[""好我"",""坏我"",""坏他"",""好他""]","[""强我"",""弱我"",""弱他"",""强他""]","","","","","","","","","","","","","","","","","","","","","","","","","","","","","","","","","","","","","",""
"735","
    <p style='color: white; font-size: 22px'>请您将手指放在按键上，准备进入正式的匹配任务。</p>
    <p> <div style = ""color: green""><按空格键进入下一阶段的匹配任务></div></p>
    "," ","html-keyboard-response","107","349695","0.0-8.0-0.0-3.0","5","6","7","5","5","5","5","5","5","5","5","2","2","1","2","2","2","2","2","5","5","5","5","5","4","4","4","5","4","7","7","8","8","7","8","7","8","8","6","7","4","7","7","7","7","7","7","7","6","7","7","6","6","7","7","7","5","7","7","7","7","7","7","7","7","7","7","7","7","7","7","7","6","7","7","7","7","7","590521239097835520","李","145","Male","[""好我"",""坏我"",""坏他"",""好他""]","[""强我"",""弱我"",""弱他"",""强他""]","","","","","","","","","","","","","","","","","","","","","","","","","","","","","","","","","","","","","",""
"735","","j","psychophysics","108","351431","0.0-8.0-0.0-4.0-0.0-0.0","5","6","7","5","5","5","5","5","5","5","5","2","2","1","2","2","2","2","2","5","5","5","5","5","4","4","4","5","4","7","7","8","8","7","8","7","8","8","6","7","4","7","7","7","7","7","7","7","6","7","7","6","6","7","7","7","5","7","7","7","7","7","7","7","7","7","7","7","7","7","7","7","6","7","7","7","7","7","590521239097835520","李","145","Male","[""好我"",""坏我"",""坏他"",""好他""]","[""强我"",""弱我"",""弱他"",""强他""]","","","","","","","","match","","","","","","","","","","key","j","8.376247572815453","853.3333333333334","476","j","true","match","img/square.png","坏他","坏他","ALT2","moral","","","","","","","",""
"null","<span style='color:GreenYellow; font-size: 70px;'>正确! </span>","null","html-keyboard-response","109","351938","0.0-8.0-0.0-4.0-0.0-1.0","5","6","7","5","5","5","5","5","5","5","5","2","2","1","2","2","2","2","2","5","5","5","5","5","4","4","4","5","4","7","7","8","8","7","8","7","8","8","6","7","4","7","7","7","7","7","7","7","6","7","7","6","6","7","7","7","5","7","7","7","7","7","7","7","7","7","7","7","7","7","7","7","6","7","7","7","7","7","590521239097835520","李","145","Male","[""好我"",""坏我"",""坏他"",""好他""]","[""强我"",""弱我"",""弱他"",""强他""]","","","","","","","","","","","","","","","","","","","","","","","","","","","","","","feedback_test","","","","","","","",""
"597","","j","psychophysics","110","353535","0.0-8.0-0.0-4.0-0.0-0.1","5","6","7","5","5","5","5","5","5","5","5","2","2","1","2","2","2","2","2","5","5","5","5","5","4","4","4","5","4","7","7","8","8","7","8","7","8","8","6","7","4","7","7","7","7","7","7","7","6","7","7","6","6","7","7","7","5","7","7","7","7","7","7","7","7","7","7","7","7","7","7","7","6","7","7","7","7","7","590521239097835520","李","145","Male","[""好我"",""坏我"",""坏他"",""好他""]","[""强我"",""弱我"",""弱他"",""强他""]","","","","","","","","match","","","","","","","","","","key","j","8.33449214659674","853.3333333333334","476","j","true","match","img/circle.png","好我","好我","ALT2","moral","","","","","","","",""
"null","<span style='color:GreenYellow; font-size: 70px;'>正确! </span>","null","html-keyboard-response","111","354042","0.0-8.0-0.0-4.0-0.0-1.1","5","6","7","5","5","5","5","5","5","5","5","2","2","1","2","2","2","2","2","5","5","5","5","5","4","4","4","5","4","7","7","8","8","7","8","7","8","8","6","7","4","7","7","7","7","7","7","7","6","7","7","6","6","7","7","7","5","7","7","7","7","7","7","7","7","7","7","7","7","7","7","7","6","7","7","7","7","7","590521239097835520","李","145","Male","[""好我"",""坏我"",""坏他"",""好他""]","[""强我"",""弱我"",""弱他"",""强他""]","","","","","","","","","","","","","","","","","","","","","","","","","","","","","","feedback_test","","","","","","","",""
"780","","j","psychophysics","112","355824","0.0-8.0-0.0-4.0-0.0-0.2","5","6","7","5","5","5","5","5","5","5","5","2","2","1","2","2","2","2","2","5","5","5","5","5","4","4","4","5","4","7","7","8","8","7","8","7","8","8","6","7","4","7","7","7","7","7","7","7","6","7","7","6","6","7","7","7","5","7","7","7","7","7","7","7","7","7","7","7","7","7","7","7","6","7","7","7","7","7","590521239097835520","李","145","Male","[""好我"",""坏我"",""坏他"",""好他""]","[""强我"",""弱我"",""弱他"",""强他""]","","","","","","","","match","","","","","","","","","","key","j","8.334089622641462","853.3333333333334","476","j","true","match","img/circle.png","好我","好我","ALT2","moral","","","","","","","",""
"null","<span style='color:GreenYellow; font-size: 70px;'>正确! </span>","null","html-keyboard-response","113","356330","0.0-8.0-0.0-4.0-0.0-1.2","5","6","7","5","5","5","5","5","5","5","5","2","2","1","2","2","2","2","2","5","5","5","5","5","4","4","4","5","4","7","7","8","8","7","8","7","8","8","6","7","4","7","7","7","7","7","7","7","6","7","7","6","6","7","7","7","5","7","7","7","7","7","7","7","7","7","7","7","7","7","7","7","6","7","7","7","7","7","590521239097835520","李","145","Male","[""好我"",""坏我"",""坏他"",""好他""]","[""强我"",""弱我"",""弱他"",""强他""]","","","","","","","","","","","","","","","","","","","","","","","","","","","","","","feedback_test","","","","","","","",""
"1012","","f","psychophysics","114","358343","0.0-8.0-0.0-4.0-0.0-0.3","5","6","7","5","5","5","5","5","5","5","5","2","2","1","2","2","2","2","2","5","5","5","5","5","4","4","4","5","4","7","7","8","8","7","8","7","8","8","6","7","4","7","7","7","7","7","7","7","6","7","7","6","6","7","7","7","5","7","7","7","7","7","7","7","7","7","7","7","7","7","7","7","6","7","7","7","7","7","590521239097835520","李","145","Male","[""好我"",""坏我"",""坏他"",""好他""]","[""强我"",""弱我"",""弱他"",""强他""]","","","","","","","","nonmatch","","","","","","","","","","key","f","8.33377500000012","853.3333333333334","476","f","true","nonmatch","img/pentagon.png","坏他","好他","ALT2","moral","","","","","","","",""
"null","<span style='color:GreenYellow; font-size: 70px;'>正确! </span>","null","html-keyboard-response","115","358851","0.0-8.0-0.0-4.0-0.0-1.3","5","6","7","5","5","5","5","5","5","5","5","2","2","1","2","2","2","2","2","5","5","5","5","5","4","4","4","5","4","7","7","8","8","7","8","7","8","8","6","7","4","7","7","7","7","7","7","7","6","7","7","6","6","7","7","7","5","7","7","7","7","7","7","7","7","7","7","7","7","7","7","7","6","7","7","7","7","7","590521239097835520","李","145","Male","[""好我"",""坏我"",""坏他"",""好他""]","[""强我"",""弱我"",""弱他"",""强他""]","","","","","","","","","","","","","","","","","","","","","","","","","","","","","","feedback_test","","","","","","","",""
"1156","","f","psychophysics","116","361007","0.0-8.0-0.0-4.0-0.0-0.4","5","6","7","5","5","5","5","5","5","5","5","2","2","1","2","2","2","2","2","5","5","5","5","5","4","4","4","5","4","7","7","8","8","7","8","7","8","8","6","7","4","7","7","7","7","7","7","7","6","7","7","6","6","7","7","7","5","7","7","7","7","7","7","7","7","7","7","7","7","7","7","7","6","7","7","7","7","7","590521239097835520","李","145","Male","[""好我"",""坏我"",""坏他"",""好他""]","[""强我"",""弱我"",""弱他"",""强他""]","","","","","","","","nonmatch","","","","","","","","","","key","f","8.33441245136171","853.3333333333334","476","f","true","nonmatch","img/square.png","坏我","坏他","ALT2","moral","","","","","","","",""
"null","<span style='color:GreenYellow; font-size: 70px;'>正确! </span>","null","html-keyboard-response","117","361514","0.0-8.0-0.0-4.0-0.0-1.4","5","6","7","5","5","5","5","5","5","5","5","2","2","1","2","2","2","2","2","5","5","5","5","5","4","4","4","5","4","7","7","8","8","7","8","7","8","8","6","7","4","7","7","7","7","7","7","7","6","7","7","6","6","7","7","7","5","7","7","7","7","7","7","7","7","7","7","7","7","7","7","7","6","7","7","7","7","7","590521239097835520","李","145","Male","[""好我"",""坏我"",""坏他"",""好他""]","[""强我"",""弱我"",""弱他"",""强他""]","","","","","","","","","","","","","","","","","","","","","","","","","","","","","","feedback_test","","","","","","","",""
"677","","j","psychophysics","118","363192","0.0-8.0-0.0-4.0-0.0-0.5","5","6","7","5","5","5","5","5","5","5","5","2","2","1","2","2","2","2","2","5","5","5","5","5","4","4","4","5","4","7","7","8","8","7","8","7","8","8","6","7","4","7","7","7","7","7","7","7","6","7","7","6","6","7","7","7","5","7","7","7","7","7","7","7","7","7","7","7","7","7","7","7","6","7","7","7","7","7","590521239097835520","李","145","Male","[""好我"",""坏我"",""坏他"",""好他""]","[""强我"",""弱我"",""弱他"",""强他""]","","","","","","","","match","","","","","","","","","","key","j","8.334290000000037","853.3333333333334","476","f","false","nonmatch","img/circle.png","坏我","好我","ALT2","moral","","","","","","","",""
"null","<span style='color:red; font-size: 70px;'>错误! </span>","null","html-keyboard-response","119","363699","0.0-8.0-0.0-4.0-0.0-1.5","5","6","7","5","5","5","5","5","5","5","5","2","2","1","2","2","2","2","2","5","5","5","5","5","4","4","4","5","4","7","7","8","8","7","8","7","8","8","6","7","4","7","7","7","7","7","7","7","6","7","7","6","6","7","7","7","5","7","7","7","7","7","7","7","7","7","7","7","7","7","7","7","6","7","7","7","7","7","590521239097835520","李","145","Male","[""好我"",""坏我"",""坏他"",""好他""]","[""强我"",""弱我"",""弱他"",""强他""]","","","","","","","","","","","","","","","","","","","","","","","","","","","","","","feedback_test","","","","","","","",""
"731","","f","psychophysics","120","365431","0.0-8.0-0.0-4.0-0.0-0.6","5","6","7","5","5","5","5","5","5","5","5","2","2","1","2","2","2","2","2","5","5","5","5","5","4","4","4","5","4","7","7","8","8","7","8","7","8","8","6","7","4","7","7","7","7","7","7","7","6","7","7","6","6","7","7","7","5","7","7","7","7","7","7","7","7","7","7","7","7","7","7","7","6","7","7","7","7","7","590521239097835520","李","145","Male","[""好我"",""坏我"",""坏他"",""好他""]","[""强我"",""弱我"",""弱他"",""强他""]","","","","","","","","nonmatch","","","","","","","","","","key","f","8.33449999999975","853.3333333333334","476","f","true","nonmatch","img/pentagon.png","坏我","好他","ALT2","moral","","","","","","","",""
"null","<span style='color:GreenYellow; font-size: 70px;'>正确! </span>","null","html-keyboard-response","121","365939","0.0-8.0-0.0-4.0-0.0-1.6","5","6","7","5","5","5","5","5","5","5","5","2","2","1","2","2","2","2","2","5","5","5","5","5","4","4","4","5","4","7","7","8","8","7","8","7","8","8","6","7","4","7","7","7","7","7","7","7","6","7","7","6","6","7","7","7","5","7","7","7","7","7","7","7","7","7","7","7","7","7","7","7","6","7","7","7","7","7","590521239097835520","李","145","Male","[""好我"",""坏我"",""坏他"",""好他""]","[""强我"",""弱我"",""弱他"",""强他""]","","","","","","","","","","","","","","","","","","","","","","","","","","","","","","feedback_test","","","","","","","",""
"852","","j","psychophysics","122","367791","0.0-8.0-0.0-4.0-0.0-0.7","5","6","7","5","5","5","5","5","5","5","5","2","2","1","2","2","2","2","2","5","5","5","5","5","4","4","4","5","4","7","7","8","8","7","8","7","8","8","6","7","4","7","7","7","7","7","7","7","6","7","7","6","6","7","7","7","5","7","7","7","7","7","7","7","7","7","7","7","7","7","7","7","6","7","7","7","7","7","590521239097835520","李","145","Male","[""好我"",""坏我"",""坏他"",""好他""]","[""强我"",""弱我"",""弱他"",""强他""]","","","","","","","","match","","","","","","","","","","key","j","8.333230769230902","853.3333333333334","476","j","true","match","img/pentagon.png","好他","好他","ALT2","moral","","","","","","","",""
"null","<span style='color:GreenYellow; font-size: 70px;'>正确! </span>","null","html-keyboard-response","123","368298","0.0-8.0-0.0-4.0-0.0-1.7","5","6","7","5","5","5","5","5","5","5","5","2","2","1","2","2","2","2","2","5","5","5","5","5","4","4","4","5","4","7","7","8","8","7","8","7","8","8","6","7","4","7","7","7","7","7","7","7","6","7","7","6","6","7","7","7","5","7","7","7","7","7","7","7","7","7","7","7","7","7","7","7","6","7","7","7","7","7","590521239097835520","李","145","Male","[""好我"",""坏我"",""坏他"",""好他""]","[""强我"",""弱我"",""弱他"",""强他""]","","","","","","","","","","","","","","","","","","","","","","","","","","","","","","feedback_test","","","","","","","",""
"797","","f","psychophysics","124","370095","0.0-8.0-0.0-4.0-0.0-0.8","5","6","7","5","5","5","5","5","5","5","5","2","2","1","2","2","2","2","2","5","5","5","5","5","4","4","4","5","4","7","7","8","8","7","8","7","8","8","6","7","4","7","7","7","7","7","7","7","6","7","7","6","6","7","7","7","5","7","7","7","7","7","7","7","7","7","7","7","7","7","7","7","6","7","7","7","7","7","590521239097835520","李","145","Male","[""好我"",""坏我"",""坏他"",""好他""]","[""强我"",""弱我"",""弱他"",""强他""]","","","","","","","","nonmatch","","","","","","","","","","key","f","8.332481308411273","853.3333333333334","476","f","true","nonmatch","img/trapezoid.png","好我","坏我","ALT2","moral","","","","","","","",""
"null","<span style='color:GreenYellow; font-size: 70px;'>正确! </span>","null","html-keyboard-response","125","370602","0.0-8.0-0.0-4.0-0.0-1.8","5","6","7","5","5","5","5","5","5","5","5","2","2","1","2","2","2","2","2","5","5","5","5","5","4","4","4","5","4","7","7","8","8","7","8","7","8","8","6","7","4","7","7","7","7","7","7","7","6","7","7","6","6","7","7","7","5","7","7","7","7","7","7","7","7","7","7","7","7","7","7","7","6","7","7","7","7","7","590521239097835520","李","145","Male","[""好我"",""坏我"",""坏他"",""好他""]","[""强我"",""弱我"",""弱他"",""强他""]","","","","","","","","","","","","","","","","","","","","","","","","","","","","","","feedback_test","","","","","","","",""
"669","","f","psychophysics","126","372272","0.0-8.0-0.0-4.0-0.0-0.9","5","6","7","5","5","5","5","5","5","5","5","2","2","1","2","2","2","2","2","5","5","5","5","5","4","4","4","5","4","7","7","8","8","7","8","7","8","8","6","7","4","7","7","7","7","7","7","7","6","7","7","6","6","7","7","7","5","7","7","7","7","7","7","7","7","7","7","7","7","7","7","7","6","7","7","7","7","7","590521239097835520","李","145","Male","[""好我"",""坏我"",""坏他"",""好他""]","[""强我"",""弱我"",""弱他"",""强他""]","","","","","","","","nonmatch","","","","","","","","","","key","f","8.33316582914567","853.3333333333334","476","f","true","nonmatch","img/square.png","好我","坏他","ALT2","moral","","","","","","","",""
"null","<span style='color:GreenYellow; font-size: 70px;'>正确! </span>","null","html-keyboard-response","127","372779","0.0-8.0-0.0-4.0-0.0-1.9","5","6","7","5","5","5","5","5","5","5","5","2","2","1","2","2","2","2","2","5","5","5","5","5","4","4","4","5","4","7","7","8","8","7","8","7","8","8","6","7","4","7","7","7","7","7","7","7","6","7","7","6","6","7","7","7","5","7","7","7","7","7","7","7","7","7","7","7","7","7","7","7","6","7","7","7","7","7","590521239097835520","李","145","Male","[""好我"",""坏我"",""坏他"",""好他""]","[""强我"",""弱我"",""弱他"",""强他""]","","","","","","","","","","","","","","","","","","","","","","","","","","","","","","feedback_test","","","","","","","",""
"795","","f","psychophysics","128","374575","0.0-8.0-0.0-4.0-0.0-0.10","5","6","7","5","5","5","5","5","5","5","5","2","2","1","2","2","2","2","2","5","5","5","5","5","4","4","4","5","4","7","7","8","8","7","8","7","8","8","6","7","4","7","7","7","7","7","7","7","6","7","7","6","6","7","7","7","5","7","7","7","7","7","7","7","7","7","7","7","7","7","7","7","6","7","7","7","7","7","590521239097835520","李","145","Male","[""好我"",""坏我"",""坏他"",""好他""]","[""强我"",""弱我"",""弱他"",""强他""]","","","","","","","","nonmatch","","","","","","","","","","key","f","8.33453738317764","853.3333333333334","476","f","true","nonmatch","img/trapezoid.png","好他","坏我","ALT2","moral","","","","","","","",""
"null","<span style='color:GreenYellow; font-size: 70px;'>正确! </span>","null","html-keyboard-response","129","375082","0.0-8.0-0.0-4.0-0.0-1.10","5","6","7","5","5","5","5","5","5","5","5","2","2","1","2","2","2","2","2","5","5","5","5","5","4","4","4","5","4","7","7","8","8","7","8","7","8","8","6","7","4","7","7","7","7","7","7","7","6","7","7","6","6","7","7","7","5","7","7","7","7","7","7","7","7","7","7","7","7","7","7","7","6","7","7","7","7","7","590521239097835520","李","145","Male","[""好我"",""坏我"",""坏他"",""好他""]","[""强我"",""弱我"",""弱他"",""强他""]","","","","","","","","","","","","","","","","","","","","","","","","","","","","","","feedback_test","","","","","","","",""
"852","","f","psychophysics","130","376935","0.0-8.0-0.0-4.0-0.0-0.11","5","6","7","5","5","5","5","5","5","5","5","2","2","1","2","2","2","2","2","5","5","5","5","5","4","4","4","5","4","7","7","8","8","7","8","7","8","8","6","7","4","7","7","7","7","7","7","7","6","7","7","6","6","7","7","7","5","7","7","7","7","7","7","7","7","7","7","7","7","7","7","7","6","7","7","7","7","7","590521239097835520","李","145","Male","[""好我"",""坏我"",""坏他"",""好他""]","[""强我"",""弱我"",""弱他"",""强他""]","","","","","","","","nonmatch","","","","","","","","","","key","f","8.334619909502267","853.3333333333334","476","f","true","nonmatch","img/square.png","好他","坏他","ALT2","moral","","","","","","","",""
"null","<span style='color:GreenYellow; font-size: 70px;'>正确! </span>","null","html-keyboard-response","131","377442","0.0-8.0-0.0-4.0-0.0-1.11","5","6","7","5","5","5","5","5","5","5","5","2","2","1","2","2","2","2","2","5","5","5","5","5","4","4","4","5","4","7","7","8","8","7","8","7","8","8","6","7","4","7","7","7","7","7","7","7","6","7","7","6","6","7","7","7","5","7","7","7","7","7","7","7","7","7","7","7","7","7","7","7","6","7","7","7","7","7","590521239097835520","李","145","Male","[""好我"",""坏我"",""坏他"",""好他""]","[""强我"",""弱我"",""弱他"",""强他""]","","","","","","","","","","","","","","","","","","","","","","","","","","","","","","feedback_test","","","","","","","",""
"1061","","j","psychophysics","132","379503","0.0-8.0-0.0-4.0-0.0-0.12","5","6","7","5","5","5","5","5","5","5","5","2","2","1","2","2","2","2","2","5","5","5","5","5","4","4","4","5","4","7","7","8","8","7","8","7","8","8","6","7","4","7","7","7","7","7","7","7","6","7","7","6","6","7","7","7","5","7","7","7","7","7","7","7","7","7","7","7","7","7","7","7","6","7","7","7","7","7","590521239097835520","李","145","Male","[""好我"",""坏我"",""坏他"",""好他""]","[""强我"",""弱我"",""弱他"",""强他""]","","","","","","","","match","","","","","","","","","","key","j","8.334195121951218","853.3333333333334","476","f","false","nonmatch","img/circle.png","好他","好我","ALT2","moral","","","","","","","",""
"null","<span style='color:red; font-size: 70px;'>错误! </span>","null","html-keyboard-response","133","380011","0.0-8.0-0.0-4.0-0.0-1.12","5","6","7","5","5","5","5","5","5","5","5","2","2","1","2","2","2","2","2","5","5","5","5","5","4","4","4","5","4","7","7","8","8","7","8","7","8","8","6","7","4","7","7","7","7","7","7","7","6","7","7","6","6","7","7","7","5","7","7","7","7","7","7","7","7","7","7","7","7","7","7","7","6","7","7","7","7","7","590521239097835520","李","145","Male","[""好我"",""坏我"",""坏他"",""好他""]","[""强我"",""弱我"",""弱他"",""强他""]","","","","","","","","","","","","","","","","","","","","","","","","","","","","","","feedback_test","","","","","","","",""
"684","","j","psychophysics","134","381696","0.0-8.0-0.0-4.0-0.0-0.13","5","6","7","5","5","5","5","5","5","5","5","2","2","1","2","2","2","2","2","5","5","5","5","5","4","4","4","5","4","7","7","8","8","7","8","7","8","8","6","7","4","7","7","7","7","7","7","7","6","7","7","6","6","7","7","7","5","7","7","7","7","7","7","7","7","7","7","7","7","7","7","7","6","7","7","7","7","7","590521239097835520","李","145","Male","[""好我"",""坏我"",""坏他"",""好他""]","[""强我"",""弱我"",""弱他"",""强他""]","","","","","","","","match","","","","","","","","","","key","j","8.334179104477531","853.3333333333334","476","j","true","match","img/pentagon.png","好他","好他","ALT2","moral","","","","","","","",""
"null","<span style='color:GreenYellow; font-size: 70px;'>正确! </span>","null","html-keyboard-response","135","382202","0.0-8.0-0.0-4.0-0.0-1.13","5","6","7","5","5","5","5","5","5","5","5","2","2","1","2","2","2","2","2","5","5","5","5","5","4","4","4","5","4","7","7","8","8","7","8","7","8","8","6","7","4","7","7","7","7","7","7","7","6","7","7","6","6","7","7","7","5","7","7","7","7","7","7","7","7","7","7","7","7","7","7","7","6","7","7","7","7","7","590521239097835520","李","145","Male","[""好我"",""坏我"",""坏他"",""好他""]","[""强我"",""弱我"",""弱他"",""强他""]","","","","","","","","","","","","","","","","","","","","","","","","","","","","","","feedback_test","","","","","","","",""
"709","","f","psychophysics","136","383913","0.0-8.0-0.0-4.0-0.0-0.14","5","6","7","5","5","5","5","5","5","5","5","2","2","1","2","2","2","2","2","5","5","5","5","5","4","4","4","5","4","7","7","8","8","7","8","7","8","8","6","7","4","7","7","7","7","7","7","7","6","7","7","6","6","7","7","7","5","7","7","7","7","7","7","7","7","7","7","7","7","7","7","7","6","7","7","7","7","7","590521239097835520","李","145","Male","[""好我"",""坏我"",""坏他"",""好他""]","[""强我"",""弱我"",""弱他"",""强他""]","","","","","","","","nonmatch","","","","","","","","","","key","f","8.333946078431373","853.3333333333334","476","f","true","nonmatch","img/pentagon.png","好我","好他","ALT2","moral","","","","","","","",""
"null","<span style='color:GreenYellow; font-size: 70px;'>正确! </span>","null","html-keyboard-response","137","384420","0.0-8.0-0.0-4.0-0.0-1.14","5","6","7","5","5","5","5","5","5","5","5","2","2","1","2","2","2","2","2","5","5","5","5","5","4","4","4","5","4","7","7","8","8","7","8","7","8","8","6","7","4","7","7","7","7","7","7","7","6","7","7","6","6","7","7","7","5","7","7","7","7","7","7","7","7","7","7","7","7","7","7","7","6","7","7","7","7","7","590521239097835520","李","145","Male","[""好我"",""坏我"",""坏他"",""好他""]","[""强我"",""弱我"",""弱他"",""强他""]","","","","","","","","","","","","","","","","","","","","","","","","","","","","","","feedback_test","","","","","","","",""
"635","","j","psychophysics","138","386056","0.0-8.0-0.0-4.0-0.0-0.15","5","6","7","5","5","5","5","5","5","5","5","2","2","1","2","2","2","2","2","5","5","5","5","5","4","4","4","5","4","7","7","8","8","7","8","7","8","8","6","7","4","7","7","7","7","7","7","7","6","7","7","6","6","7","7","7","5","7","7","7","7","7","7","7","7","7","7","7","7","7","7","7","6","7","7","7","7","7","590521239097835520","李","145","Male","[""好我"",""坏我"",""坏他"",""好他""]","[""强我"",""弱我"",""弱他"",""强他""]","","","","","","","","match","","","","","","","","","","key","j","8.33484615384607","853.3333333333334","476","j","true","match","img/circle.png","好我","好我","ALT2","moral","","","","","","","",""
"null","<span style='color:GreenYellow; font-size: 70px;'>正确! </span>","null","html-keyboard-response","139","386562","0.0-8.0-0.0-4.0-0.0-1.15","5","6","7","5","5","5","5","5","5","5","5","2","2","1","2","2","2","2","2","5","5","5","5","5","4","4","4","5","4","7","7","8","8","7","8","7","8","8","6","7","4","7","7","7","7","7","7","7","6","7","7","6","6","7","7","7","5","7","7","7","7","7","7","7","7","7","7","7","7","7","7","7","6","7","7","7","7","7","590521239097835520","李","145","Male","[""好我"",""坏我"",""坏他"",""好他""]","[""强我"",""弱我"",""弱他"",""强他""]","","","","","","","","","","","","","","","","","","","","","","","","","","","","","","feedback_test","","","","","","","",""
