"rt","stimulus","response","trial_type","trial_index","time_elapsed","internal_node_id","swb_1","swb_2","swb_3","swb_4","swb_5","LOT_1","LOT_2","LOT_3","LOT_4","LOT_5","LOT_6","IPC_1","IPC_2","IPC_3","IPC_4","IPC_5","IPC_6","IPC_7","IPC_8","MorIden_1","MorIden_2","MorIden_3","MorIden_4","MorIden_5","MorIden_6","MorIden_7","MorIden_8","MorIden_9","MorIden_10","moralSeImag_1","moralSeImag_2","moralSeImag_3","moralSeImag_4","moralSeImag_5","moralSeImag_6","moralSeImag_7","moralSeImag_8","moralSeImag_9","sde_1","sde_2","sde_3","sde_4","sde_5","sde_6","sde_7","sde_8","sde_9","sde_10","sde_11","sde_12","sde_13","sde_14","sde_15","sde_16","sde_17","sde_18","sde_19","sde_20","IM_1","IM_2","IM_3","IM_4","IM_5","IM_6","IM_7","IM_8","IM_9","IM_10","IM_11","IM_12","IM_13","IM_14","IM_15","IM_16","IM_17","IM_18","IM_19","IM_20","subj_idx","friend_name","ParticipantID","Sex","Word","Word2","value","success","timeout","failed_images","failed_audio","failed_video","user_agent","responses","item_order","radio_event_ids","radio_event_times","key_event_times","mouse_event_times","straightlining","zigzagging","honeypot","task_id","screen_id","time_stamp","response_type","key_press","avg_frame_time","center_x","center_y","person","word","valence","domain","math","correct_response","correct","status","view_history","identity","duration","Image","condition","question_order"
"2348","
   <p><div style='color:white; font-size: 25px'>您好，欢迎参加本次实验。</div></p>
   <p><div style='color:white; font-size: 25px'>为充分保障您的权利，请确保您已经知晓并同意《参与实验同意书》以及《数据公开知情同意书》。</div></p>
   <p><div style='color:white; font-size: 25px'>如果您未见过上述内容，请咨询实验员。</div></p>
   <p style='color:white; font-size: 25px'>如果您选择继续实验，则表示您已经清楚两份知情同意书的内容并同意。</p>
   <p> <div style = ""color: green""><按空格键至下页></div> </p>
   "," ","html-keyboard-response","0","2397","0.0-0.0","7","5","6","6","5","2","5","4","4","5","4","-3","-2","0","-2","1","2","2","-1","4","5","4","5","4","4","5","4","5","4","8","6","5","7","8","9","5","7","8","2","7","2","7","5","7","2","7","5","6","7","5","2","7","5","6","5","7","7","3","3","6","3","7","7","5","7","6","6","6","6","5","7","2","5","5","7","6","7","7","633791437602816000","王","394","Female","[""坏我"",""坏她"",""好我"",""好她""]","[""弱我"",""弱她"",""强我"",""强她""]","","","","","","","","","","","","","","","","","","","","","","","","","","","","","","","","","","","","","",""
"","","","call-function","1","2397","0.0-1.0-0.0","7","5","6","6","5","2","5","4","4","5","4","-3","-2","0","-2","1","2","2","-1","4","5","4","5","4","4","5","4","5","4","8","6","5","7","8","9","5","7","8","2","7","2","7","5","7","2","7","5","6","7","5","2","7","5","6","5","7","7","3","3","6","3","7","7","5","7","6","6","6","6","5","7","2","5","5","7","6","7","7","633791437602816000","王","394","Female","[""坏我"",""坏她"",""好我"",""好她""]","[""弱我"",""弱她"",""强我"",""强她""]","","","","","","","","","","","","","","","","","","","","","","","","","","","","","","","","","","","","","",""
"213485","","[{""name"":""Sex"",""value"":""1""},{""name"":""friend_name"",""value"":""王""},{""name"":""ParticipantID"",""value"":""394""}]","survey-html-form","2","215980","0.0-1.0-1.0","7","5","6","6","5","2","5","4","4","5","4","-3","-2","0","-2","1","2","2","-1","4","5","4","5","4","4","5","4","5","4","8","6","5","7","8","9","5","7","8","2","7","2","7","5","7","2","7","5","6","7","5","2","7","5","6","5","7","7","3","3","6","3","7","7","5","7","6","6","6","6","5","7","2","5","5","7","6","7","7","633791437602816000","王","394","Female","[""坏我"",""坏她"",""好我"",""好她""]","[""弱我"",""弱她"",""强我"",""强她""]","","","","","","","","","","","","","","","","","","","","","","","","","","","","","","","","","","","","","",""
"","","","preload","3","216462","0.0-2.0","7","5","6","6","5","2","5","4","4","5","4","-3","-2","0","-2","1","2","2","-1","4","5","4","5","4","4","5","4","5","4","8","6","5","7","8","9","5","7","8","2","7","2","7","5","7","2","7","5","6","7","5","2","7","5","6","5","7","7","3","3","6","3","7","7","5","7","6","6","6","6","5","7","2","5","5","7","6","7","7","633791437602816000","王","394","Female","[""坏我"",""坏她"",""好我"",""好她""]","[""弱我"",""弱她"",""强我"",""强她""]","","true","false","[]","[]","[]","","","","","","","","","","","","","","","","","","","","","","","","","","","","","","","",""
"","","","fullscreen","4","217745","0.0-3.0","7","5","6","6","5","2","5","4","4","5","4","-3","-2","0","-2","1","2","2","-1","4","5","4","5","4","4","5","4","5","4","8","6","5","7","8","9","5","7","8","2","7","2","7","5","7","2","7","5","6","7","5","2","7","5","6","5","7","7","3","3","6","3","7","7","5","7","6","6","6","6","5","7","2","5","5","7","6","7","7","633791437602816000","王","394","Female","[""坏我"",""坏她"",""好我"",""好她""]","[""弱我"",""弱她"",""强我"",""强她""]","","true","","","","","","","","","","","","","","","","","","","","","","","","","","","","","","","","","","","",""
"20083","","{""Q01"":""7"",""Q02"":""5"",""Q03"":""6"",""Q04"":""6"",""Q05"":""5""}","survey-template","5","237852","0.0-4.0","7","5","6","6","5","2","5","4","4","5","4","-3","-2","0","-2","1","2","2","-1","4","5","4","5","4","4","5","4","5","4","8","6","5","7","8","9","5","7","8","2","7","2","7","5","7","2","7","5","6","7","5","2","7","5","6","5","7","7","3","3","6","3","7","7","5","7","6","6","6","6","5","7","2","5","5","7","6","7","7","633791437602816000","王","394","Female","[""坏我"",""坏她"",""好我"",""好她""]","[""弱我"",""弱她"",""强我"",""强她""]","","","","","","","","{""Q01"":""7"",""Q02"":""5"",""Q03"":""6"",""Q04"":""6"",""Q05"":""5""}","[0,1,2,3,4]","[""Q01"",""Q01"",""Q02"",""Q03"",""Q04"",""Q05"",""Q03""]","[3684,4233,5236,6373,7962,10895,18783]","[]","[3684,4233,5236,6373,7443,7962,8350,10895,11952,18181,18783,20083]","0.4","0.5","0","","","","","","","","","","","","","","","","","","","","","",""
"25712","","{""Q01"":""2"",""Q02"":""5"",""Q03"":""4"",""Q04"":""4"",""Q05"":""5"",""Q06"":""4""}","survey-template","6","263660","0.0-5.0","7","5","6","6","5","2","5","4","4","5","4","-3","-2","0","-2","1","2","2","-1","4","5","4","5","4","4","5","4","5","4","8","6","5","7","8","9","5","7","8","2","7","2","7","5","7","2","7","5","6","7","5","2","7","5","6","5","7","7","3","3","6","3","7","7","5","7","6","6","6","6","5","7","2","5","5","7","6","7","7","633791437602816000","王","394","Female","[""坏我"",""坏她"",""好我"",""好她""]","[""弱我"",""弱她"",""强我"",""强她""]","","","","","","","","{""Q01"":""2"",""Q02"":""5"",""Q03"":""4"",""Q04"":""4"",""Q05"":""5"",""Q06"":""4""}","[0,1,2,3,4,5]","[""Q01"",""Q02"",""Q03"",""Q04"",""Q05"",""Q06""]","[2972,5090,6725,8811,9575,16192]","[]","[2972,4536,5090,6389,6725,8811,9575,16192,24830,25712]","0.3333333333333333","0.4","0","","","","","","","","","","","","","","","","","","","","","",""
"45141","","{""Q01"":""-3"",""Q02"":""-2"",""Q03"":""0"",""Q04"":""-2"",""Q05"":""1"",""Q06"":""2"",""Q07"":""2"",""Q08"":""-1""}","survey-template","7","308804","0.0-6.0","7","5","6","6","5","2","5","4","4","5","4","-3","-2","0","-2","1","2","2","-1","4","5","4","5","4","4","5","4","5","4","8","6","5","7","8","9","5","7","8","2","7","2","7","5","7","2","7","5","6","7","5","2","7","5","6","5","7","7","3","3","6","3","7","7","5","7","6","6","6","6","5","7","2","5","5","7","6","7","7","633791437602816000","王","394","Female","[""坏我"",""坏她"",""好我"",""好她""]","[""弱我"",""弱她"",""强我"",""强她""]","","","","","","","","{""Q01"":""-3"",""Q02"":""-2"",""Q03"":""0"",""Q04"":""-2"",""Q05"":""1"",""Q06"":""2"",""Q07"":""2"",""Q08"":""-1""}","[0,1,2,3,4,5,6,7]","[""Q01"",""Q02"",""Q03"",""Q04"",""Q05"",""Q06"",""Q07"",""Q08"",""Q08""]","[4447,5993,7560,10531,19223,20852,22977,24127,41495]","[]","[4447,5993,7560,10531,18725,19223,20852,22692,22977,24127,40987,41495,45141]","0.25","0.2857142857142857","0","","","","","","","","","","","","","","","","","","","","","",""
"16561","
    <p><div style='color:white;font-size:35px; line-height:20px;'>词汇评估任务</div></p><br>
    <p><div style='color:white;font-size:25px; line-height:20px;'>请再次回忆该亲密的朋友，你们至少2年前就认识了，并且最近2年经常见面。</div></p>
    <p><div style='color:white;font-size:25px; line-height:20px;'>在本实验中，您将会看到一些形容词。</div></p>
    <p><div style='color:yellow;font-size:25px; line-height:20px;'>您的任务是判断这些形容词是否符合对您自己或您的朋友的描述。</div></p><p style='font-size:35px'>符合按<span style=""color:lightgreen""> f 键</span>，不符合按<span style=""color:red""> j 键</span></p>","0","html-button-response","8","325368","0.0-7.0-0.0","7","5","6","6","5","2","5","4","4","5","4","-3","-2","0","-2","1","2","2","-1","4","5","4","5","4","4","5","4","5","4","8","6","5","7","8","9","5","7","8","2","7","2","7","5","7","2","7","5","6","7","5","2","7","5","6","5","7","7","3","3","6","3","7","7","5","7","6","6","6","6","5","7","2","5","5","7","6","7","7","633791437602816000","王","394","Female","[""坏我"",""坏她"",""好我"",""好她""]","[""弱我"",""弱她"",""强我"",""强她""]","","","","","","","","","","","","","","","","","SRET_EW","EW_instructions","Wed Oct 18 2023 11:28:59 GMT+0800 (中国标准时间)","","","","","","","","","","","","","","","","","","",""
"2984","","j","psychophysics","9","329446","0.0-7.0-1.0-0.0","7","5","6","6","5","2","5","4","4","5","4","-3","-2","0","-2","1","2","2","-1","4","5","4","5","4","4","5","4","5","4","8","6","5","7","8","9","5","7","8","2","7","2","7","5","7","2","7","5","6","7","5","2","7","5","6","5","7","7","3","3","6","3","7","7","5","7","6","6","6","6","5","7","2","5","5","7","6","7","7","633791437602816000","王","394","Female","[""坏我"",""坏她"",""好我"",""好她""]","[""弱我"",""弱她"",""强我"",""强她""]","","","","","","","","no","","","","","","","","","SRET_EW","EW_practice","","key","j","18.153392857142794","640","356","朋友","徇私","Negative","morality","","","","","","","","","",""
"1416","","f","psychophysics","10","331874","0.0-7.0-1.0-0.1","7","5","6","6","5","2","5","4","4","5","4","-3","-2","0","-2","1","2","2","-1","4","5","4","5","4","4","5","4","5","4","8","6","5","7","8","9","5","7","8","2","7","2","7","5","7","2","7","5","6","7","5","2","7","5","6","5","7","7","3","3","6","3","7","7","5","7","6","6","6","6","5","7","2","5","5","7","6","7","7","633791437602816000","王","394","Female","[""坏我"",""坏她"",""好我"",""好她""]","[""弱我"",""弱她"",""强我"",""强她""]","","","","","","","","yes","","","","","","","","","SRET_EW","EW_practice","","key","f","17.625401459853965","640","356","自己","严谨","Positive","ability","","","","","","","","","",""
"942","","f","psychophysics","11","333822","0.0-7.0-1.0-0.2","7","5","6","6","5","2","5","4","4","5","4","-3","-2","0","-2","1","2","2","-1","4","5","4","5","4","4","5","4","5","4","8","6","5","7","8","9","5","7","8","2","7","2","7","5","7","2","7","5","6","7","5","2","7","5","6","5","7","7","3","3","6","3","7","7","5","7","6","6","6","6","5","7","2","5","5","7","6","7","7","633791437602816000","王","394","Female","[""坏我"",""坏她"",""好我"",""好她""]","[""弱我"",""弱她"",""强我"",""强她""]","","","","","","","","yes","","","","","","","","","SRET_EW","EW_practice","","key","f","16.65293103448318","640","356","朋友","忠实","Positive","morality","","","","","","","","","",""
"2430","","j","psychophysics","12","337268","0.0-7.0-1.0-0.3","7","5","6","6","5","2","5","4","4","5","4","-3","-2","0","-2","1","2","2","-1","4","5","4","5","4","4","5","4","5","4","8","6","5","7","8","9","5","7","8","2","7","2","7","5","7","2","7","5","6","7","5","2","7","5","6","5","7","7","3","3","6","3","7","7","5","7","6","6","6","6","5","7","2","5","5","7","6","7","7","633791437602816000","王","394","Female","[""坏我"",""坏她"",""好我"",""好她""]","[""弱我"",""弱她"",""强我"",""强她""]","","","","","","","","no","","","","","","","","","SRET_EW","EW_practice","","key","j","16.652912621359224","640","356","自己","刻板","Negative","ability","","","","","","","","","",""
"3328","
    <p><div style='color:white;font-size:35px; line-height:20px;'>请您再次阅读实验要求</div></p><br>
    <p><div style='color:white;font-size:25px; line-height:20px;'>请回忆某一个亲密的朋友，你们至少2年前就认识了，并且最近2年经常见面。</div></p>
    <p><div style='color:white;font-size:25px; line-height:20px;'>在本实验中，您将会看到一些形容词。</div></p>
    <p><div style='color:yellow;font-size:25px; line-height:20px;'>您的任务是判断这些形容词是否符合对您自己或您的朋友的描述。</div></p>
    <p><div class='footer' style='font-size:25px; line-height:20px;'>如果对本实验还有不清楚之处，请立即向实验员咨询。</p><p style='font-size:25px; line-height:20px;'>如果您明白了规则：</p><p style='font-size:22px; line-height:20px;'>请按 继续 进入正式实验</p>
    </div>
    <p style='font-size:35px'>符合按<span style=""color:lightgreen""> f 键</span>，不符合按<span style=""color:red""> j 键</span></p>","0","html-button-response","13","340598","0.0-7.0-2.0","7","5","6","6","5","2","5","4","4","5","4","-3","-2","0","-2","1","2","2","-1","4","5","4","5","4","4","5","4","5","4","8","6","5","7","8","9","5","7","8","2","7","2","7","5","7","2","7","5","6","7","5","2","7","5","6","5","7","7","3","3","6","3","7","7","5","7","6","6","6","6","5","7","2","5","5","7","6","7","7","633791437602816000","王","394","Female","[""坏我"",""坏她"",""好我"",""好她""]","[""弱我"",""弱她"",""强我"",""强她""]","","","","","","","","","","","","","","","","","SRET_EW","prac_instructions","Wed Oct 18 2023 11:28:59 GMT+0800 (中国标准时间)","","","","","","","","","","","","","","","","","","",""
"1390","","j","psychophysics","14","342990","0.0-7.0-3.0-0.0","7","5","6","6","5","2","5","4","4","5","4","-3","-2","0","-2","1","2","2","-1","4","5","4","5","4","4","5","4","5","4","8","6","5","7","8","9","5","7","8","2","7","2","7","5","7","2","7","5","6","7","5","2","7","5","6","5","7","7","3","3","6","3","7","7","5","7","6","6","6","6","5","7","2","5","5","7","6","7","7","633791437602816000","王","394","Female","[""坏我"",""坏她"",""好我"",""好她""]","[""弱我"",""弱她"",""强我"",""强她""]","","","","","","","","no","","","","","","","","","SRET","EW_formal","","key","j","16.617342657342853","640","356","自己","说谎","Negative","morality","","","","","","","","","",""
"1040","","f","psychophysics","15","345036","0.0-7.0-3.0-0.1","7","5","6","6","5","2","5","4","4","5","4","-3","-2","0","-2","1","2","2","-1","4","5","4","5","4","4","5","4","5","4","8","6","5","7","8","9","5","7","8","2","7","2","7","5","7","2","7","5","6","7","5","2","7","5","6","5","7","7","3","3","6","3","7","7","5","7","6","6","6","6","5","7","2","5","5","7","6","7","7","633791437602816000","王","394","Female","[""坏我"",""坏她"",""好我"",""好她""]","[""弱我"",""弱她"",""强我"",""强她""]","","","","","","","","yes","","","","","","","","","SRET","EW_formal","","key","f","16.652950819672398","640","356","自己","坚贞","Positive","morality","","","","","","","","","",""
"1004","","f","psychophysics","16","347050","0.0-7.0-3.0-0.2","7","5","6","6","5","2","5","4","4","5","4","-3","-2","0","-2","1","2","2","-1","4","5","4","5","4","4","5","4","5","4","8","6","5","7","8","9","5","7","8","2","7","2","7","5","7","2","7","5","6","7","5","2","7","5","6","5","7","7","3","3","6","3","7","7","5","7","6","6","6","6","5","7","2","5","5","7","6","7","7","633791437602816000","王","394","Female","[""坏我"",""坏她"",""好我"",""好她""]","[""弱我"",""弱她"",""强我"",""强她""]","","","","","","","","yes","","","","","","","","","SRET","EW_formal","","key","f","16.653000000000368","640","356","朋友","务实","Positive","ability","","","","","","","","","",""
"1012","","j","psychophysics","17","349177","0.0-7.0-3.0-0.3","7","5","6","6","5","2","5","4","4","5","4","-3","-2","0","-2","1","2","2","-1","4","5","4","5","4","4","5","4","5","4","8","6","5","7","8","9","5","7","8","2","7","2","7","5","7","2","7","5","6","7","5","2","7","5","6","5","7","7","3","3","6","3","7","7","5","7","6","6","6","6","5","7","2","5","5","7","6","7","7","633791437602816000","王","394","Female","[""坏我"",""坏她"",""好我"",""好她""]","[""弱我"",""弱她"",""强我"",""强她""]","","","","","","","","no","","","","","","","","","SRET","EW_formal","","key","j","16.6529133858271","640","356","朋友","迷糊","Negative","ability","","","","","","","","","",""
"1157","","f","psychophysics","18","351348","0.0-7.0-3.0-0.4","7","5","6","6","5","2","5","4","4","5","4","-3","-2","0","-2","1","2","2","-1","4","5","4","5","4","4","5","4","5","4","8","6","5","7","8","9","5","7","8","2","7","2","7","5","7","2","7","5","6","7","5","2","7","5","6","5","7","7","3","3","6","3","7","7","5","7","6","6","6","6","5","7","2","5","5","7","6","7","7","633791437602816000","王","394","Female","[""坏我"",""坏她"",""好我"",""好她""]","[""弱我"",""弱她"",""强我"",""强她""]","","","","","","","","yes","","","","","","","","","SRET","EW_formal","","key","f","16.652868217054497","640","356","朋友","刻苦","Positive","ability","","","","","","","","","",""
"2194","","f","psychophysics","19","354559","0.0-7.0-3.0-0.5","7","5","6","6","5","2","5","4","4","5","4","-3","-2","0","-2","1","2","2","-1","4","5","4","5","4","4","5","4","5","4","8","6","5","7","8","9","5","7","8","2","7","2","7","5","7","2","7","5","6","7","5","2","7","5","6","5","7","7","3","3","6","3","7","7","5","7","6","6","6","6","5","7","2","5","5","7","6","7","7","633791437602816000","王","394","Female","[""坏我"",""坏她"",""好我"",""好她""]","[""弱我"",""弱她"",""强我"",""强她""]","","","","","","","","yes","","","","","","","","","SRET","EW_formal","","key","f","16.652916666666595","640","356","自己","智慧","Positive","ability","","","","","","","","","",""
"1762","","j","psychophysics","20","357335","0.0-7.0-3.0-0.6","7","5","6","6","5","2","5","4","4","5","4","-3","-2","0","-2","1","2","2","-1","4","5","4","5","4","4","5","4","5","4","8","6","5","7","8","9","5","7","8","2","7","2","7","5","7","2","7","5","6","7","5","2","7","5","6","5","7","7","3","3","6","3","7","7","5","7","6","6","6","6","5","7","2","5","5","7","6","7","7","633791437602816000","王","394","Female","[""坏我"",""坏她"",""好我"",""好她""]","[""弱我"",""弱她"",""强我"",""强她""]","","","","","","","","no","","","","","","","","","SRET","EW_formal","","key","j","16.65296969696964","640","356","朋友","无敌","Positive","ability","","","","","","","","","",""
"851","","f","psychophysics","21","359202","0.0-7.0-3.0-0.7","7","5","6","6","5","2","5","4","4","5","4","-3","-2","0","-2","1","2","2","-1","4","5","4","5","4","4","5","4","5","4","8","6","5","7","8","9","5","7","8","2","7","2","7","5","7","2","7","5","6","7","5","2","7","5","6","5","7","7","3","3","6","3","7","7","5","7","6","6","6","6","5","7","2","5","5","7","6","7","7","633791437602816000","王","394","Female","[""坏我"",""坏她"",""好我"",""好她""]","[""弱我"",""弱她"",""强我"",""强她""]","","","","","","","","yes","","","","","","","","","SRET","EW_formal","","key","f","16.65303571428532","640","356","朋友","敬业","Positive","morality","","","","","","","","","",""
"1078","","j","psychophysics","22","361289","0.0-7.0-3.0-0.8","7","5","6","6","5","2","5","4","4","5","4","-3","-2","0","-2","1","2","2","-1","4","5","4","5","4","4","5","4","5","4","8","6","5","7","8","9","5","7","8","2","7","2","7","5","7","2","7","5","6","7","5","2","7","5","6","5","7","7","3","3","6","3","7","7","5","7","6","6","6","6","5","7","2","5","5","7","6","7","7","633791437602816000","王","394","Female","[""坏我"",""坏她"",""好我"",""好她""]","[""弱我"",""弱她"",""强我"",""强她""]","","","","","","","","no","","","","","","","","","SRET","EW_formal","","key","j","16.653064516128882","640","356","朋友","骁勇","Positive","ability","","","","","","","","","",""
"2046","","f","psychophysics","23","364384","0.0-7.0-3.0-0.9","7","5","6","6","5","2","5","4","4","5","4","-3","-2","0","-2","1","2","2","-1","4","5","4","5","4","4","5","4","5","4","8","6","5","7","8","9","5","7","8","2","7","2","7","5","7","2","7","5","6","7","5","2","7","5","6","5","7","7","3","3","6","3","7","7","5","7","6","6","6","6","5","7","2","5","5","7","6","7","7","633791437602816000","王","394","Female","[""坏我"",""坏她"",""好我"",""好她""]","[""弱我"",""弱她"",""强我"",""强她""]","","","","","","","","yes","","","","","","","","","SRET","EW_formal","","key","f","16.65297297297291","640","356","自己","有力","Positive","ability","","","","","","","","","",""
"985","","j","psychophysics","24","366381","0.0-7.0-3.0-0.10","7","5","6","6","5","2","5","4","4","5","4","-3","-2","0","-2","1","2","2","-1","4","5","4","5","4","4","5","4","5","4","8","6","5","7","8","9","5","7","8","2","7","2","7","5","7","2","7","5","6","7","5","2","7","5","6","5","7","7","3","3","6","3","7","7","5","7","6","6","6","6","5","7","2","5","5","7","6","7","7","633791437602816000","王","394","Female","[""坏我"",""坏她"",""好我"",""好她""]","[""弱我"",""弱她"",""强我"",""强她""]","","","","","","","","no","","","","","","","","","SRET","EW_formal","","key","j","16.652941176470687","640","356","自己","腐败","Negative","morality","","","","","","","","","",""
"883","","j","psychophysics","25","368276","0.0-7.0-3.0-0.11","7","5","6","6","5","2","5","4","4","5","4","-3","-2","0","-2","1","2","2","-1","4","5","4","5","4","4","5","4","5","4","8","6","5","7","8","9","5","7","8","2","7","2","7","5","7","2","7","5","6","7","5","2","7","5","6","5","7","7","3","3","6","3","7","7","5","7","6","6","6","6","5","7","2","5","5","7","6","7","7","633791437602816000","王","394","Female","[""坏我"",""坏她"",""好我"",""好她""]","[""弱我"",""弱她"",""强我"",""强她""]","","","","","","","","no","","","","","","","","","SRET","EW_formal","","key","j","16.652920353982548","640","356","自己","混账","Negative","morality","","","","","","","","","",""
"1033","","f","psychophysics","26","370311","0.0-7.0-3.0-0.12","7","5","6","6","5","2","5","4","4","5","4","-3","-2","0","-2","1","2","2","-1","4","5","4","5","4","4","5","4","5","4","8","6","5","7","8","9","5","7","8","2","7","2","7","5","7","2","7","5","6","7","5","2","7","5","6","5","7","7","3","3","6","3","7","7","5","7","6","6","6","6","5","7","2","5","5","7","6","7","7","633791437602816000","王","394","Female","[""坏我"",""坏她"",""好我"",""好她""]","[""弱我"",""弱她"",""强我"",""强她""]","","","","","","","","yes","","","","","","","","","SRET","EW_formal","","key","f","16.65289256198347","640","356","自己","果决","Positive","ability","","","","","","","","","",""
"1582","","f","psychophysics","27","372898","0.0-7.0-3.0-0.13","7","5","6","6","5","2","5","4","4","5","4","-3","-2","0","-2","1","2","2","-1","4","5","4","5","4","4","5","4","5","4","8","6","5","7","8","9","5","7","8","2","7","2","7","5","7","2","7","5","6","7","5","2","7","5","6","5","7","7","3","3","6","3","7","7","5","7","6","6","6","6","5","7","2","5","5","7","6","7","7","633791437602816000","王","394","Female","[""坏我"",""坏她"",""好我"",""好她""]","[""弱我"",""弱她"",""强我"",""强她""]","","","","","","","","yes","","","","","","","","","SRET","EW_formal","","key","f","16.652857142857005","640","356","自己","中用","Positive","ability","","","","","","","","","",""
"1105","","j","psychophysics","28","375015","0.0-7.0-3.0-0.14","7","5","6","6","5","2","5","4","4","5","4","-3","-2","0","-2","1","2","2","-1","4","5","4","5","4","4","5","4","5","4","8","6","5","7","8","9","5","7","8","2","7","2","7","5","7","2","7","5","6","7","5","2","7","5","6","5","7","7","3","3","6","3","7","7","5","7","6","6","6","6","5","7","2","5","5","7","6","7","7","633791437602816000","王","394","Female","[""坏我"",""坏她"",""好我"",""好她""]","[""弱我"",""弱她"",""强我"",""强她""]","","","","","","","","no","","","","","","","","","SRET","EW_formal","","key","j","16.653015873015633","640","356","自己","小人","Negative","morality","","","","","","","","","",""
"1515","","f","psychophysics","29","377552","0.0-7.0-3.0-0.15","7","5","6","6","5","2","5","4","4","5","4","-3","-2","0","-2","1","2","2","-1","4","5","4","5","4","4","5","4","5","4","8","6","5","7","8","9","5","7","8","2","7","2","7","5","7","2","7","5","6","7","5","2","7","5","6","5","7","7","3","3","6","3","7","7","5","7","6","6","6","6","5","7","2","5","5","7","6","7","7","633791437602816000","王","394","Female","[""坏我"",""坏她"",""好我"",""好她""]","[""弱我"",""弱她"",""强我"",""强她""]","","","","","","","","yes","","","","","","","","","SRET","EW_formal","","key","f","16.653026315789536","640","356","朋友","爱国","Positive","morality","","","","","","","","","",""
"974","","f","psychophysics","30","379535","0.0-7.0-3.0-0.16","7","5","6","6","5","2","5","4","4","5","4","-3","-2","0","-2","1","2","2","-1","4","5","4","5","4","4","5","4","5","4","8","6","5","7","8","9","5","7","8","2","7","2","7","5","7","2","7","5","6","7","5","2","7","5","6","5","7","7","3","3","6","3","7","7","5","7","6","6","6","6","5","7","2","5","5","7","6","7","7","633791437602816000","王","394","Female","[""坏我"",""坏她"",""好我"",""好她""]","[""弱我"",""弱她"",""强我"",""强她""]","","","","","","","","yes","","","","","","","","","SRET","EW_formal","","key","f","16.6530508474581","640","356","朋友","慷慨","Positive","morality","","","","","","","","","",""
"851","","f","psychophysics","31","381400","0.0-7.0-3.0-0.17","7","5","6","6","5","2","5","4","4","5","4","-3","-2","0","-2","1","2","2","-1","4","5","4","5","4","4","5","4","5","4","8","6","5","7","8","9","5","7","8","2","7","2","7","5","7","2","7","5","6","7","5","2","7","5","6","5","7","7","3","3","6","3","7","7","5","7","6","6","6","6","5","7","2","5","5","7","6","7","7","633791437602816000","王","394","Female","[""坏我"",""坏她"",""好我"",""好她""]","[""弱我"",""弱她"",""强我"",""强她""]","","","","","","","","yes","","","","","","","","","SRET","EW_formal","","key","f","16.65297297297333","640","356","自己","厚道","Positive","morality","","","","","","","","","",""
"619","","j","psychophysics","32","383021","0.0-7.0-3.0-0.18","7","5","6","6","5","2","5","4","4","5","4","-3","-2","0","-2","1","2","2","-1","4","5","4","5","4","4","5","4","5","4","8","6","5","7","8","9","5","7","8","2","7","2","7","5","7","2","7","5","6","7","5","2","7","5","6","5","7","7","3","3","6","3","7","7","5","7","6","6","6","6","5","7","2","5","5","7","6","7","7","633791437602816000","王","394","Female","[""坏我"",""坏她"",""好我"",""好她""]","[""弱我"",""弱她"",""强我"",""强她""]","","","","","","","","no","","","","","","","","","SRET","EW_formal","","key","j","16.652916666666595","640","356","朋友","愚蠢","Negative","ability","","","","","","","","","",""
"572","","j","psychophysics","33","384606","0.0-7.0-3.0-0.19","7","5","6","6","5","2","5","4","4","5","4","-3","-2","0","-2","1","2","2","-1","4","5","4","5","4","4","5","4","5","4","8","6","5","7","8","9","5","7","8","2","7","2","7","5","7","2","7","5","6","7","5","2","7","5","6","5","7","7","3","3","6","3","7","7","5","7","6","6","6","6","5","7","2","5","5","7","6","7","7","633791437602816000","王","394","Female","[""坏我"",""坏她"",""好我"",""好她""]","[""弱我"",""弱她"",""强我"",""强她""]","","","","","","","","no","","","","","","","","","SRET","EW_formal","","key","j","16.652978723404306","640","356","朋友","黑心","Negative","morality","","","","","","","","","",""
"568","","f","psychophysics","34","386296","0.0-7.0-3.0-0.20","7","5","6","6","5","2","5","4","4","5","4","-3","-2","0","-2","1","2","2","-1","4","5","4","5","4","4","5","4","5","4","8","6","5","7","8","9","5","7","8","2","7","2","7","5","7","2","7","5","6","7","5","2","7","5","6","5","7","7","3","3","6","3","7","7","5","7","6","6","6","6","5","7","2","5","5","7","6","7","7","633791437602816000","王","394","Female","[""坏我"",""坏她"",""好我"",""好她""]","[""弱我"",""弱她"",""强我"",""强她""]","","","","","","","","yes","","","","","","","","","SRET","EW_formal","","key","f","16.652871287128736","640","356","自己","勤恳","Positive","morality","","","","","","","","","",""
"689","","j","psychophysics","35","387996","0.0-7.0-3.0-0.21","7","5","6","6","5","2","5","4","4","5","4","-3","-2","0","-2","1","2","2","-1","4","5","4","5","4","4","5","4","5","4","8","6","5","7","8","9","5","7","8","2","7","2","7","5","7","2","7","5","6","7","5","2","7","5","6","5","7","7","3","3","6","3","7","7","5","7","6","6","6","6","5","7","2","5","5","7","6","7","7","633791437602816000","王","394","Female","[""坏我"",""坏她"",""好我"",""好她""]","[""弱我"",""弱她"",""强我"",""强她""]","","","","","","","","no","","","","","","","","","SRET","EW_formal","","key","j","16.652871287128736","640","356","朋友","蛇蝎","Negative","morality","","","","","","","","","",""
"946","","f","psychophysics","36","389944","0.0-7.0-3.0-0.22","7","5","6","6","5","2","5","4","4","5","4","-3","-2","0","-2","1","2","2","-1","4","5","4","5","4","4","5","4","5","4","8","6","5","7","8","9","5","7","8","2","7","2","7","5","7","2","7","5","6","7","5","2","7","5","6","5","7","7","3","3","6","3","7","7","5","7","6","6","6","6","5","7","2","5","5","7","6","7","7","633791437602816000","王","394","Female","[""坏我"",""坏她"",""好我"",""好她""]","[""弱我"",""弱她"",""强我"",""强她""]","","","","","","","","yes","","","","","","","","","SRET","EW_formal","","key","f","16.652931034482677","640","356","朋友","守法","Positive","morality","","","","","","","","","",""
"940","","f","psychophysics","37","391897","0.0-7.0-3.0-0.23","7","5","6","6","5","2","5","4","4","5","4","-3","-2","0","-2","1","2","2","-1","4","5","4","5","4","4","5","4","5","4","8","6","5","7","8","9","5","7","8","2","7","2","7","5","7","2","7","5","6","7","5","2","7","5","6","5","7","7","3","3","6","3","7","7","5","7","6","6","6","6","5","7","2","5","5","7","6","7","7","633791437602816000","王","394","Female","[""坏我"",""坏她"",""好我"",""好她""]","[""弱我"",""弱她"",""强我"",""强她""]","","","","","","","","yes","","","","","","","","","SRET","EW_formal","","key","f","16.653103448275942","640","356","朋友","廉明","Positive","morality","","","","","","","","","",""
"920","","f","psychophysics","38","393827","0.0-7.0-3.0-0.24","7","5","6","6","5","2","5","4","4","5","4","-3","-2","0","-2","1","2","2","-1","4","5","4","5","4","4","5","4","5","4","8","6","5","7","8","9","5","7","8","2","7","2","7","5","7","2","7","5","6","7","5","2","7","5","6","5","7","7","3","3","6","3","7","7","5","7","6","6","6","6","5","7","2","5","5","7","6","7","7","633791437602816000","王","394","Female","[""坏我"",""坏她"",""好我"",""好她""]","[""弱我"",""弱她"",""强我"",""强她""]","","","","","","","","yes","","","","","","","","","SRET","EW_formal","","key","f","16.653043478260667","640","356","自己","能干","Positive","ability","","","","","","","","","",""
"681","","j","psychophysics","39","395510","0.0-7.0-3.0-0.25","7","5","6","6","5","2","5","4","4","5","4","-3","-2","0","-2","1","2","2","-1","4","5","4","5","4","4","5","4","5","4","8","6","5","7","8","9","5","7","8","2","7","2","7","5","7","2","7","5","6","7","5","2","7","5","6","5","7","7","3","3","6","3","7","7","5","7","6","6","6","6","5","7","2","5","5","7","6","7","7","633791437602816000","王","394","Female","[""坏我"",""坏她"",""好我"",""好她""]","[""弱我"",""弱她"",""强我"",""强她""]","","","","","","","","no","","","","","","","","","SRET","EW_formal","","key","j","16.652999999999885","640","356","自己","迟钝","Negative","ability","","","","","","","","","",""
"783","","j","psychophysics","40","397303","0.0-7.0-3.0-0.26","7","5","6","6","5","2","5","4","4","5","4","-3","-2","0","-2","1","2","2","-1","4","5","4","5","4","4","5","4","5","4","8","6","5","7","8","9","5","7","8","2","7","2","7","5","7","2","7","5","6","7","5","2","7","5","6","5","7","7","3","3","6","3","7","7","5","7","6","6","6","6","5","7","2","5","5","7","6","7","7","633791437602816000","王","394","Female","[""坏我"",""坏她"",""好我"",""好她""]","[""弱我"",""弱她"",""强我"",""强她""]","","","","","","","","no","","","","","","","","","SRET","EW_formal","","key","j","16.652897196262096","640","356","自己","淫乱","Negative","morality","","","","","","","","","",""
"1760","","j","psychophysics","41","400069","0.0-7.0-3.0-0.27","7","5","6","6","5","2","5","4","4","5","4","-3","-2","0","-2","1","2","2","-1","4","5","4","5","4","4","5","4","5","4","8","6","5","7","8","9","5","7","8","2","7","2","7","5","7","2","7","5","6","7","5","2","7","5","6","5","7","7","3","3","6","3","7","7","5","7","6","6","6","6","5","7","2","5","5","7","6","7","7","633791437602816000","王","394","Female","[""坏我"",""坏她"",""好我"",""好她""]","[""弱我"",""弱她"",""强我"",""强她""]","","","","","","","","no","","","","","","","","","SRET","EW_formal","","key","j","16.652969696969993","640","356","朋友","马虎","Negative","ability","","","","","","","","","",""
"850","","f","psychophysics","42","401934","0.0-7.0-3.0-0.28","7","5","6","6","5","2","5","4","4","5","4","-3","-2","0","-2","1","2","2","-1","4","5","4","5","4","4","5","4","5","4","8","6","5","7","8","9","5","7","8","2","7","2","7","5","7","2","7","5","6","7","5","2","7","5","6","5","7","7","3","3","6","3","7","7","5","7","6","6","6","6","5","7","2","5","5","7","6","7","7","633791437602816000","王","394","Female","[""坏我"",""坏她"",""好我"",""好她""]","[""弱我"",""弱她"",""强我"",""强她""]","","","","","","","","yes","","","","","","","","","SRET","EW_formal","","key","f","16.652972972972805","640","356","朋友","毅力","Positive","ability","","","","","","","","","",""
"854","","j","psychophysics","43","403801","0.0-7.0-3.0-0.29","7","5","6","6","5","2","5","4","4","5","4","-3","-2","0","-2","1","2","2","-1","4","5","4","5","4","4","5","4","5","4","8","6","5","7","8","9","5","7","8","2","7","2","7","5","7","2","7","5","6","7","5","2","7","5","6","5","7","7","3","3","6","3","7","7","5","7","6","6","6","6","5","7","2","5","5","7","6","7","7","633791437602816000","王","394","Female","[""坏我"",""坏她"",""好我"",""好她""]","[""弱我"",""弱她"",""强我"",""强她""]","","","","","","","","no","","","","","","","","","SRET","EW_formal","","key","j","16.652972972972805","640","356","朋友","顶事","Positive","ability","","","","","","","","","",""
"1257","","f","psychophysics","44","406062","0.0-7.0-3.0-0.30","7","5","6","6","5","2","5","4","4","5","4","-3","-2","0","-2","1","2","2","-1","4","5","4","5","4","4","5","4","5","4","8","6","5","7","8","9","5","7","8","2","7","2","7","5","7","2","7","5","6","7","5","2","7","5","6","5","7","7","3","3","6","3","7","7","5","7","6","6","6","6","5","7","2","5","5","7","6","7","7","633791437602816000","王","394","Female","[""坏我"",""坏她"",""好我"",""好她""]","[""弱我"",""弱她"",""强我"",""强她""]","","","","","","","","yes","","","","","","","","","SRET","EW_formal","","key","f","16.65288888888899","640","356","朋友","清廉","Positive","morality","","","","","","","","","",""
"755","","j","psychophysics","45","407833","0.0-7.0-3.0-0.31","7","5","6","6","5","2","5","4","4","5","4","-3","-2","0","-2","1","2","2","-1","4","5","4","5","4","4","5","4","5","4","8","6","5","7","8","9","5","7","8","2","7","2","7","5","7","2","7","5","6","7","5","2","7","5","6","5","7","7","3","3","6","3","7","7","5","7","6","6","6","6","5","7","2","5","5","7","6","7","7","633791437602816000","王","394","Female","[""坏我"",""坏她"",""好我"",""好她""]","[""弱我"",""弱她"",""强我"",""强她""]","","","","","","","","no","","","","","","","","","SRET","EW_formal","","key","j","17.31247524752473","640","356","自己","阴毒","Negative","morality","","","","","","","","","",""
"1053","","j","psychophysics","46","409900","0.0-7.0-3.0-0.32","7","5","6","6","5","2","5","4","4","5","4","-3","-2","0","-2","1","2","2","-1","4","5","4","5","4","4","5","4","5","4","8","6","5","7","8","9","5","7","8","2","7","2","7","5","7","2","7","5","6","7","5","2","7","5","6","5","7","7","3","3","6","3","7","7","5","7","6","6","6","6","5","7","2","5","5","7","6","7","7","633791437602816000","王","394","Female","[""坏我"",""坏她"",""好我"",""好她""]","[""弱我"",""弱她"",""强我"",""强她""]","","","","","","","","no","","","","","","","","","SRET","EW_formal","","key","j","16.653008130081357","640","356","自己","虚假","Negative","morality","","","","","","","","","",""
"798","","f","psychophysics","47","411708","0.0-7.0-3.0-0.33","7","5","6","6","5","2","5","4","4","5","4","-3","-2","0","-2","1","2","2","-1","4","5","4","5","4","4","5","4","5","4","8","6","5","7","8","9","5","7","8","2","7","2","7","5","7","2","7","5","6","7","5","2","7","5","6","5","7","7","3","3","6","3","7","7","5","7","6","6","6","6","5","7","2","5","5","7","6","7","7","633791437602816000","王","394","Female","[""坏我"",""坏她"",""好我"",""好她""]","[""弱我"",""弱她"",""强我"",""强她""]","","","","","","","","yes","","","","","","","","","SRET","EW_formal","","key","f","16.652962962963134","640","356","自己","奉献","Positive","morality","","","","","","","","","",""
"889","","j","psychophysics","48","413611","0.0-7.0-3.0-0.34","7","5","6","6","5","2","5","4","4","5","4","-3","-2","0","-2","1","2","2","-1","4","5","4","5","4","4","5","4","5","4","8","6","5","7","8","9","5","7","8","2","7","2","7","5","7","2","7","5","6","7","5","2","7","5","6","5","7","7","3","3","6","3","7","7","5","7","6","6","6","6","5","7","2","5","5","7","6","7","7","633791437602816000","王","394","Female","[""坏我"",""坏她"",""好我"",""好她""]","[""弱我"",""弱她"",""强我"",""强她""]","","","","","","","","no","","","","","","","","","SRET","EW_formal","","key","j","16.652920353982033","640","356","朋友","奸险","Negative","morality","","","","","","","","","",""
"1808","","f","psychophysics","49","416423","0.0-7.0-3.0-0.35","7","5","6","6","5","2","5","4","4","5","4","-3","-2","0","-2","1","2","2","-1","4","5","4","5","4","4","5","4","5","4","8","6","5","7","8","9","5","7","8","2","7","2","7","5","7","2","7","5","6","7","5","2","7","5","6","5","7","7","3","3","6","3","7","7","5","7","6","6","6","6","5","7","2","5","5","7","6","7","7","633791437602816000","王","394","Female","[""坏我"",""坏她"",""好我"",""好她""]","[""弱我"",""弱她"",""强我"",""强她""]","","","","","","","","yes","","","","","","","","","SRET","EW_formal","","key","f","16.6528571428571","640","356","朋友","毛糙","Negative","ability","","","","","","","","","",""
"1523","","j","psychophysics","50","418958","0.0-7.0-3.0-0.36","7","5","6","6","5","2","5","4","4","5","4","-3","-2","0","-2","1","2","2","-1","4","5","4","5","4","4","5","4","5","4","8","6","5","7","8","9","5","7","8","2","7","2","7","5","7","2","7","5","6","7","5","2","7","5","6","5","7","7","3","3","6","3","7","7","5","7","6","6","6","6","5","7","2","5","5","7","6","7","7","633791437602816000","王","394","Female","[""坏我"",""坏她"",""好我"",""好她""]","[""弱我"",""弱她"",""强我"",""强她""]","","","","","","","","no","","","","","","","","","SRET","EW_formal","","key","j","16.652980132450562","640","356","朋友","自律","Positive","ability","","","","","","","","","",""
"935","","j","psychophysics","51","420901","0.0-7.0-3.0-0.37","7","5","6","6","5","2","5","4","4","5","4","-3","-2","0","-2","1","2","2","-1","4","5","4","5","4","4","5","4","5","4","8","6","5","7","8","9","5","7","8","2","7","2","7","5","7","2","7","5","6","7","5","2","7","5","6","5","7","7","3","3","6","3","7","7","5","7","6","6","6","6","5","7","2","5","5","7","6","7","7","633791437602816000","王","394","Female","[""坏我"",""坏她"",""好我"",""好她""]","[""弱我"",""弱她"",""强我"",""强她""]","","","","","","","","no","","","","","","","","","SRET","EW_formal","","key","j","16.653043478261175","640","356","朋友","偏私","Negative","morality","","","","","","","","","",""
"1742","","f","psychophysics","52","423649","0.0-7.0-3.0-0.38","7","5","6","6","5","2","5","4","4","5","4","-3","-2","0","-2","1","2","2","-1","4","5","4","5","4","4","5","4","5","4","8","6","5","7","8","9","5","7","8","2","7","2","7","5","7","2","7","5","6","7","5","2","7","5","6","5","7","7","3","3","6","3","7","7","5","7","6","6","6","6","5","7","2","5","5","7","6","7","7","633791437602816000","王","394","Female","[""坏我"",""坏她"",""好我"",""好她""]","[""弱我"",""弱她"",""强我"",""强她""]","","","","","","","","yes","","","","","","","","","SRET","EW_formal","","key","f","16.652969696969993","640","356","自己","慈悲","Positive","morality","","","","","","","","","",""
"751","","j","psychophysics","53","425412","0.0-7.0-3.0-0.39","7","5","6","6","5","2","5","4","4","5","4","-3","-2","0","-2","1","2","2","-1","4","5","4","5","4","4","5","4","5","4","8","6","5","7","8","9","5","7","8","2","7","2","7","5","7","2","7","5","6","7","5","2","7","5","6","5","7","7","3","3","6","3","7","7","5","7","6","6","6","6","5","7","2","5","5","7","6","7","7","633791437602816000","王","394","Female","[""坏我"",""坏她"",""好我"",""好她""]","[""弱我"",""弱她"",""强我"",""强她""]","","","","","","","","no","","","","","","","","","SRET","EW_formal","","key","j","16.65295238095236","640","356","自己","盲目","Negative","ability","","","","","","","","","",""
"1536","","j","psychophysics","54","427963","0.0-7.0-3.0-0.40","7","5","6","6","5","2","5","4","4","5","4","-3","-2","0","-2","1","2","2","-1","4","5","4","5","4","4","5","4","5","4","8","6","5","7","8","9","5","7","8","2","7","2","7","5","7","2","7","5","6","7","5","2","7","5","6","5","7","7","3","3","6","3","7","7","5","7","6","6","6","6","5","7","2","5","5","7","6","7","7","633791437602816000","王","394","Female","[""坏我"",""坏她"",""好我"",""好她""]","[""弱我"",""弱她"",""强我"",""强她""]","","","","","","","","no","","","","","","","","","SRET","EW_formal","","key","j","16.653026315789536","640","356","朋友","差生","Negative","ability","","","","","","","","","",""
"3865","","f","psychophysics","55","432858","0.0-7.0-3.0-0.41","7","5","6","6","5","2","5","4","4","5","4","-3","-2","0","-2","1","2","2","-1","4","5","4","5","4","4","5","4","5","4","8","6","5","7","8","9","5","7","8","2","7","2","7","5","7","2","7","5","6","7","5","2","7","5","6","5","7","7","3","3","6","3","7","7","5","7","6","6","6","6","5","7","2","5","5","7","6","7","7","633791437602816000","王","394","Female","[""坏我"",""坏她"",""好我"",""好她""]","[""弱我"",""弱她"",""强我"",""强她""]","","","","","","","","yes","","","","","","","","","SRET","EW_formal","","key","f","16.652969283276473","640","356","朋友","拙笨","Negative","ability","","","","","","","","","",""
"687","","j","psychophysics","56","434560","0.0-7.0-3.0-0.42","7","5","6","6","5","2","5","4","4","5","4","-3","-2","0","-2","1","2","2","-1","4","5","4","5","4","4","5","4","5","4","8","6","5","7","8","9","5","7","8","2","7","2","7","5","7","2","7","5","6","7","5","2","7","5","6","5","7","7","3","3","6","3","7","7","5","7","6","6","6","6","5","7","2","5","5","7","6","7","7","633791437602816000","王","394","Female","[""坏我"",""坏她"",""好我"",""好她""]","[""弱我"",""弱她"",""强我"",""强她""]","","","","","","","","no","","","","","","","","","SRET","EW_formal","","key","j","16.6530693069309","640","356","朋友","弱智","Negative","ability","","","","","","","","","",""
"1826","","j","psychophysics","57","437390","0.0-7.0-3.0-0.43","7","5","6","6","5","2","5","4","4","5","4","-3","-2","0","-2","1","2","2","-1","4","5","4","5","4","4","5","4","5","4","8","6","5","7","8","9","5","7","8","2","7","2","7","5","7","2","7","5","6","7","5","2","7","5","6","5","7","7","3","3","6","3","7","7","5","7","6","6","6","6","5","7","2","5","5","7","6","7","7","633791437602816000","王","394","Female","[""坏我"",""坏她"",""好我"",""好她""]","[""弱我"",""弱她"",""强我"",""强她""]","","","","","","","","no","","","","","","","","","SRET","EW_formal","","key","j","16.653017751479553","640","356","朋友","聪明","Positive","ability","","","","","","","","","",""
"987","","f","psychophysics","58","439389","0.0-7.0-3.0-0.44","7","5","6","6","5","2","5","4","4","5","4","-3","-2","0","-2","1","2","2","-1","4","5","4","5","4","4","5","4","5","4","8","6","5","7","8","9","5","7","8","2","7","2","7","5","7","2","7","5","6","7","5","2","7","5","6","5","7","7","3","3","6","3","7","7","5","7","6","6","6","6","5","7","2","5","5","7","6","7","7","633791437602816000","王","394","Female","[""坏我"",""坏她"",""好我"",""好她""]","[""弱我"",""弱她"",""强我"",""强她""]","","","","","","","","yes","","","","","","","","","SRET","EW_formal","","key","f","16.652941176470687","640","356","自己","无私","Positive","morality","","","","","","","","","",""
"2006","","j","psychophysics","59","442405","0.0-7.0-3.0-0.45","7","5","6","6","5","2","5","4","4","5","4","-3","-2","0","-2","1","2","2","-1","4","5","4","5","4","4","5","4","5","4","8","6","5","7","8","9","5","7","8","2","7","2","7","5","7","2","7","5","6","7","5","2","7","5","6","5","7","7","3","3","6","3","7","7","5","7","6","6","6","6","5","7","2","5","5","7","6","7","7","633791437602816000","王","394","Female","[""坏我"",""坏她"",""好我"",""好她""]","[""弱我"",""弱她"",""强我"",""强她""]","","","","","","","","no","","","","","","","","","SRET","EW_formal","","key","j","16.65288888888867","640","356","朋友","沉着","Positive","ability","","","","","","","","","",""
"1167","","f","psychophysics","60","444581","0.0-7.0-3.0-0.46","7","5","6","6","5","2","5","4","4","5","4","-3","-2","0","-2","1","2","2","-1","4","5","4","5","4","4","5","4","5","4","8","6","5","7","8","9","5","7","8","2","7","2","7","5","7","2","7","5","6","7","5","2","7","5","6","5","7","7","3","3","6","3","7","7","5","7","6","6","6","6","5","7","2","5","5","7","6","7","7","633791437602816000","王","394","Female","[""坏我"",""坏她"",""好我"",""好她""]","[""弱我"",""弱她"",""强我"",""强她""]","","","","","","","","yes","","","","","","","","","SRET","EW_formal","","key","f","16.652923076923113","640","356","朋友","仁爱","Positive","morality","","","","","","","","","",""
"1189","","f","psychophysics","61","446784","0.0-7.0-3.0-0.47","7","5","6","6","5","2","5","4","4","5","4","-3","-2","0","-2","1","2","2","-1","4","5","4","5","4","4","5","4","5","4","8","6","5","7","8","9","5","7","8","2","7","2","7","5","7","2","7","5","6","7","5","2","7","5","6","5","7","7","3","3","6","3","7","7","5","7","6","6","6","6","5","7","2","5","5","7","6","7","7","633791437602816000","王","394","Female","[""坏我"",""坏她"",""好我"",""好她""]","[""弱我"",""弱她"",""强我"",""强她""]","","","","","","","","yes","","","","","","","","","SRET","EW_formal","","key","f","16.652977099236924","640","356","朋友","依靠","Negative","ability","","","","","","","","","",""
"1125","","j","psychophysics","62","448919","0.0-7.0-3.0-0.48","7","5","6","6","5","2","5","4","4","5","4","-3","-2","0","-2","1","2","2","-1","4","5","4","5","4","4","5","4","5","4","8","6","5","7","8","9","5","7","8","2","7","2","7","5","7","2","7","5","6","7","5","2","7","5","6","5","7","7","3","3","6","3","7","7","5","7","6","6","6","6","5","7","2","5","5","7","6","7","7","633791437602816000","王","394","Female","[""坏我"",""坏她"",""好我"",""好她""]","[""弱我"",""弱她"",""强我"",""强她""]","","","","","","","","no","","","","","","","","","SRET","EW_formal","","key","j","16.6529133858271","640","356","自己","逞能","Negative","ability","","","","","","","","","",""
"917","","f","psychophysics","63","450843","0.0-7.0-3.0-0.49","7","5","6","6","5","2","5","4","4","5","4","-3","-2","0","-2","1","2","2","-1","4","5","4","5","4","4","5","4","5","4","8","6","5","7","8","9","5","7","8","2","7","2","7","5","7","2","7","5","6","7","5","2","7","5","6","5","7","7","3","3","6","3","7","7","5","7","6","6","6","6","5","7","2","5","5","7","6","7","7","633791437602816000","王","394","Female","[""坏我"",""坏她"",""好我"",""好她""]","[""弱我"",""弱她"",""强我"",""强她""]","","","","","","","","yes","","","","","","","","","SRET","EW_formal","","key","f","16.654260869565135","640","356","自己","礼貌","Positive","morality","","","","","","","","","",""
"763","","f","psychophysics","64","452625","0.0-7.0-3.0-0.50","7","5","6","6","5","2","5","4","4","5","4","-3","-2","0","-2","1","2","2","-1","4","5","4","5","4","4","5","4","5","4","8","6","5","7","8","9","5","7","8","2","7","2","7","5","7","2","7","5","6","7","5","2","7","5","6","5","7","7","3","3","6","3","7","7","5","7","6","6","6","6","5","7","2","5","5","7","6","7","7","633791437602816000","王","394","Female","[""坏我"",""坏她"",""好我"",""好她""]","[""弱我"",""弱她"",""强我"",""强她""]","","","","","","","","yes","","","","","","","","","SRET","EW_formal","","key","f","16.653018867924263","640","356","自己","守信","Positive","morality","","","","","","","","","",""
"674","","j","psychophysics","65","454314","0.0-7.0-3.0-0.51","7","5","6","6","5","2","5","4","4","5","4","-3","-2","0","-2","1","2","2","-1","4","5","4","5","4","4","5","4","5","4","8","6","5","7","8","9","5","7","8","2","7","2","7","5","7","2","7","5","6","7","5","2","7","5","6","5","7","7","3","3","6","3","7","7","5","7","6","6","6","6","5","7","2","5","5","7","6","7","7","633791437602816000","王","394","Female","[""坏我"",""坏她"",""好我"",""好她""]","[""弱我"",""弱她"",""强我"",""强她""]","","","","","","","","no","","","","","","","","","SRET","EW_formal","","key","j","16.652799999999697","640","356","自己","迂拙","Negative","ability","","","","","","","","","",""
"769","","f","psychophysics","66","456090","0.0-7.0-3.0-0.52","7","5","6","6","5","2","5","4","4","5","4","-3","-2","0","-2","1","2","2","-1","4","5","4","5","4","4","5","4","5","4","8","6","5","7","8","9","5","7","8","2","7","2","7","5","7","2","7","5","6","7","5","2","7","5","6","5","7","7","3","3","6","3","7","7","5","7","6","6","6","6","5","7","2","5","5","7","6","7","7","633791437602816000","王","394","Female","[""坏我"",""坏她"",""好我"",""好她""]","[""弱我"",""弱她"",""强我"",""强她""]","","","","","","","","yes","","","","","","","","","SRET","EW_formal","","key","f","16.653018867924263","640","356","自己","仗义","Positive","morality","","","","","","","","","",""
"667","","f","psychophysics","67","457769","0.0-7.0-3.0-0.53","7","5","6","6","5","2","5","4","4","5","4","-3","-2","0","-2","1","2","2","-1","4","5","4","5","4","4","5","4","5","4","8","6","5","7","8","9","5","7","8","2","7","2","7","5","7","2","7","5","6","7","5","2","7","5","6","5","7","7","3","3","6","3","7","7","5","7","6","6","6","6","5","7","2","5","5","7","6","7","7","633791437602816000","王","394","Female","[""坏我"",""坏她"",""好我"",""好她""]","[""弱我"",""弱她"",""强我"",""强她""]","","","","","","","","yes","","","","","","","","","SRET","EW_formal","","key","f","16.652999999999885","640","356","自己","坚持","Positive","ability","","","","","","","","","",""
"1751","","f","psychophysics","68","460537","0.0-7.0-3.0-0.54","7","5","6","6","5","2","5","4","4","5","4","-3","-2","0","-2","1","2","2","-1","4","5","4","5","4","4","5","4","5","4","8","6","5","7","8","9","5","7","8","2","7","2","7","5","7","2","7","5","6","7","5","2","7","5","6","5","7","7","3","3","6","3","7","7","5","7","6","6","6","6","5","7","2","5","5","7","6","7","7","633791437602816000","王","394","Female","[""坏我"",""坏她"",""好我"",""好她""]","[""弱我"",""弱她"",""强我"",""强她""]","","","","","","","","yes","","","","","","","","","SRET","EW_formal","","key","f","16.652848484848317","640","356","朋友","善良","Positive","morality","","","","","","","","","",""
"1066","","j","psychophysics","69","462616","0.0-7.0-3.0-0.55","7","5","6","6","5","2","5","4","4","5","4","-3","-2","0","-2","1","2","2","-1","4","5","4","5","4","4","5","4","5","4","8","6","5","7","8","9","5","7","8","2","7","2","7","5","7","2","7","5","6","7","5","2","7","5","6","5","7","7","3","3","6","3","7","7","5","7","6","6","6","6","5","7","2","5","5","7","6","7","7","633791437602816000","王","394","Female","[""坏我"",""坏她"",""好我"",""好她""]","[""弱我"",""弱她"",""强我"",""强她""]","","","","","","","","no","","","","","","","","","SRET","EW_formal","","key","j","16.652903225806153","640","356","自己","自私","Negative","morality","","","","","","","","","",""
"958","","f","psychophysics","70","464588","0.0-7.0-3.0-0.56","7","5","6","6","5","2","5","4","4","5","4","-3","-2","0","-2","1","2","2","-1","4","5","4","5","4","4","5","4","5","4","8","6","5","7","8","9","5","7","8","2","7","2","7","5","7","2","7","5","6","7","5","2","7","5","6","5","7","7","3","3","6","3","7","7","5","7","6","6","6","6","5","7","2","5","5","7","6","7","7","633791437602816000","王","394","Female","[""坏我"",""坏她"",""好我"",""好她""]","[""弱我"",""弱她"",""强我"",""强她""]","","","","","","","","yes","","","","","","","","","SRET","EW_formal","","key","f","16.652820512820554","640","356","朋友","孝顺","Positive","morality","","","","","","","","","",""
"1465","","j","psychophysics","71","467067","0.0-7.0-3.0-0.57","7","5","6","6","5","2","5","4","4","5","4","-3","-2","0","-2","1","2","2","-1","4","5","4","5","4","4","5","4","5","4","8","6","5","7","8","9","5","7","8","2","7","2","7","5","7","2","7","5","6","7","5","2","7","5","6","5","7","7","3","3","6","3","7","7","5","7","6","6","6","6","5","7","2","5","5","7","6","7","7","633791437602816000","王","394","Female","[""坏我"",""坏她"",""好我"",""好她""]","[""弱我"",""弱她"",""强我"",""强她""]","","","","","","","","no","","","","","","","","","SRET","EW_formal","","key","j","16.652972972973068","640","356","朋友","贪污","Negative","morality","","","","","","","","","",""
"1534","","j","psychophysics","72","469615","0.0-7.0-3.0-0.58","7","5","6","6","5","2","5","4","4","5","4","-3","-2","0","-2","1","2","2","-1","4","5","4","5","4","4","5","4","5","4","8","6","5","7","8","9","5","7","8","2","7","2","7","5","7","2","7","5","6","7","5","2","7","5","6","5","7","7","3","3","6","3","7","7","5","7","6","6","6","6","5","7","2","5","5","7","6","7","7","633791437602816000","王","394","Female","[""坏我"",""坏她"",""好我"",""好她""]","[""弱我"",""弱她"",""强我"",""强她""]","","","","","","","","no","","","","","","","","","SRET","EW_formal","","key","j","16.652894736842043","640","356","朋友","不端","Negative","morality","","","","","","","","","",""
"715","","j","psychophysics","73","471346","0.0-7.0-3.0-0.59","7","5","6","6","5","2","5","4","4","5","4","-3","-2","0","-2","1","2","2","-1","4","5","4","5","4","4","5","4","5","4","8","6","5","7","8","9","5","7","8","2","7","2","7","5","7","2","7","5","6","7","5","2","7","5","6","5","7","7","3","3","6","3","7","7","5","7","6","6","6","6","5","7","2","5","5","7","6","7","7","633791437602816000","王","394","Female","[""坏我"",""坏她"",""好我"",""好她""]","[""弱我"",""弱她"",""强我"",""强她""]","","","","","","","","no","","","","","","","","","SRET","EW_formal","","key","j","16.653009708737954","640","356","自己","窝囊","Negative","ability","","","","","","","","","",""
"4348","","j","psychophysics","74","476704","0.0-7.0-3.0-0.60","7","5","6","6","5","2","5","4","4","5","4","-3","-2","0","-2","1","2","2","-1","4","5","4","5","4","4","5","4","5","4","8","6","5","7","8","9","5","7","8","2","7","2","7","5","7","2","7","5","6","7","5","2","7","5","6","5","7","7","3","3","6","3","7","7","5","7","6","6","6","6","5","7","2","5","5","7","6","7","7","633791437602816000","王","394","Female","[""坏我"",""坏她"",""好我"",""好她""]","[""弱我"",""弱她"",""强我"",""强她""]","","","","","","","","no","","","","","","","","","SRET","EW_formal","","key","j","16.652897196261733","640","356","自己","博识","Positive","ability","","","","","","","","","",""
"1032","","j","psychophysics","75","478752","0.0-7.0-3.0-0.61","7","5","6","6","5","2","5","4","4","5","4","-3","-2","0","-2","1","2","2","-1","4","5","4","5","4","4","5","4","5","4","8","6","5","7","8","9","5","7","8","2","7","2","7","5","7","2","7","5","6","7","5","2","7","5","6","5","7","7","3","3","6","3","7","7","5","7","6","6","6","6","5","7","2","5","5","7","6","7","7","633791437602816000","王","394","Female","[""坏我"",""坏她"",""好我"",""好她""]","[""弱我"",""弱她"",""强我"",""强她""]","","","","","","","","no","","","","","","","","","SRET","EW_formal","","key","j","16.652950819671922","640","356","朋友","虚伪","Negative","morality","","","","","","","","","",""
"856","","f","psychophysics","76","480624","0.0-7.0-3.0-0.62","7","5","6","6","5","2","5","4","4","5","4","-3","-2","0","-2","1","2","2","-1","4","5","4","5","4","4","5","4","5","4","8","6","5","7","8","9","5","7","8","2","7","2","7","5","7","2","7","5","6","7","5","2","7","5","6","5","7","7","3","3","6","3","7","7","5","7","6","6","6","6","5","7","2","5","5","7","6","7","7","633791437602816000","王","394","Female","[""坏我"",""坏她"",""好我"",""好她""]","[""弱我"",""弱她"",""强我"",""强她""]","","","","","","","","yes","","","","","","","","","SRET","EW_formal","","key","f","16.652792792792457","640","356","自己","思辨","Positive","ability","","","","","","","","","",""
"1334","","f","psychophysics","77","482970","0.0-7.0-3.0-0.63","7","5","6","6","5","2","5","4","4","5","4","-3","-2","0","-2","1","2","2","-1","4","5","4","5","4","4","5","4","5","4","8","6","5","7","8","9","5","7","8","2","7","2","7","5","7","2","7","5","6","7","5","2","7","5","6","5","7","7","3","3","6","3","7","7","5","7","6","6","6","6","5","7","2","5","5","7","6","7","7","633791437602816000","王","394","Female","[""坏我"",""坏她"",""好我"",""好她""]","[""弱我"",""弱她"",""强我"",""强她""]","","","","","","","","yes","","","","","","","","","SRET","EW_formal","","key","f","16.652999999999885","640","356","朋友","高效","Positive","ability","","","","","","","","","",""
"1268","","f","psychophysics","78","485246","0.0-7.0-3.0-0.64","7","5","6","6","5","2","5","4","4","5","4","-3","-2","0","-2","1","2","2","-1","4","5","4","5","4","4","5","4","5","4","8","6","5","7","8","9","5","7","8","2","7","2","7","5","7","2","7","5","6","7","5","2","7","5","6","5","7","7","3","3","6","3","7","7","5","7","6","6","6","6","5","7","2","5","5","7","6","7","7","633791437602816000","王","394","Female","[""坏我"",""坏她"",""好我"",""好她""]","[""弱我"",""弱她"",""强我"",""强她""]","","","","","","","","yes","","","","","","","","","SRET","EW_formal","","key","f","16.652941176470502","640","356","自己","忠良","Positive","morality","","","","","","","","","",""
"763","","j","psychophysics","79","487014","0.0-7.0-3.0-0.65","7","5","6","6","5","2","5","4","4","5","4","-3","-2","0","-2","1","2","2","-1","4","5","4","5","4","4","5","4","5","4","8","6","5","7","8","9","5","7","8","2","7","2","7","5","7","2","7","5","6","7","5","2","7","5","6","5","7","7","3","3","6","3","7","7","5","7","6","6","6","6","5","7","2","5","5","7","6","7","7","633791437602816000","王","394","Female","[""坏我"",""坏她"",""好我"",""好她""]","[""弱我"",""弱她"",""强我"",""强她""]","","","","","","","","no","","","","","","","","","SRET","EW_formal","","key","j","16.65295238095236","640","356","朋友","无助","Negative","ability","","","","","","","","","",""
"1658","","j","psychophysics","80","489677","0.0-7.0-3.0-0.66","7","5","6","6","5","2","5","4","4","5","4","-3","-2","0","-2","1","2","2","-1","4","5","4","5","4","4","5","4","5","4","8","6","5","7","8","9","5","7","8","2","7","2","7","5","7","2","7","5","6","7","5","2","7","5","6","5","7","7","3","3","6","3","7","7","5","7","6","6","6","6","5","7","2","5","5","7","6","7","7","633791437602816000","王","394","Female","[""坏我"",""坏她"",""好我"",""好她""]","[""弱我"",""弱她"",""强我"",""强她""]","","","","","","","","no","","","","","","","","","SRET","EW_formal","","key","j","16.65295597484281","640","356","朋友","才尽","Negative","ability","","","","","","","","","",""
"1387","","j","psychophysics","81","492128","0.0-7.0-3.0-0.67","7","5","6","6","5","2","5","4","4","5","4","-3","-2","0","-2","1","2","2","-1","4","5","4","5","4","4","5","4","5","4","8","6","5","7","8","9","5","7","8","2","7","2","7","5","7","2","7","5","6","7","5","2","7","5","6","5","7","7","3","3","6","3","7","7","5","7","6","6","6","6","5","7","2","5","5","7","6","7","7","633791437602816000","王","394","Female","[""坏我"",""坏她"",""好我"",""好她""]","[""弱我"",""弱她"",""强我"",""强她""]","","","","","","","","no","","","","","","","","","SRET","EW_formal","","key","j","16.652876712328816","640","356","自己","短视","Negative","ability","","","","","","","","","",""
"895","","j","psychophysics","82","494025","0.0-7.0-3.0-0.68","7","5","6","6","5","2","5","4","4","5","4","-3","-2","0","-2","1","2","2","-1","4","5","4","5","4","4","5","4","5","4","8","6","5","7","8","9","5","7","8","2","7","2","7","5","7","2","7","5","6","7","5","2","7","5","6","5","7","7","3","3","6","3","7","7","5","7","6","6","6","6","5","7","2","5","5","7","6","7","7","633791437602816000","王","394","Female","[""坏我"",""坏她"",""好我"",""好她""]","[""弱我"",""弱她"",""强我"",""强她""]","","","","","","","","no","","","","","","","","","SRET","EW_formal","","key","j","16.652920353982033","640","356","自己","不孝","Negative","morality","","","","","","","","","",""
"1134","","j","psychophysics","83","496171","0.0-7.0-3.0-0.69","7","5","6","6","5","2","5","4","4","5","4","-3","-2","0","-2","1","2","2","-1","4","5","4","5","4","4","5","4","5","4","8","6","5","7","8","9","5","7","8","2","7","2","7","5","7","2","7","5","6","7","5","2","7","5","6","5","7","7","3","3","6","3","7","7","5","7","6","6","6","6","5","7","2","5","5","7","6","7","7","633791437602816000","王","394","Female","[""坏我"",""坏她"",""好我"",""好她""]","[""弱我"",""弱她"",""强我"",""强她""]","","","","","","","","no","","","","","","","","","SRET","EW_formal","","key","j","16.652968749999673","640","356","自己","怠惰","Negative","ability","","","","","","","","","",""
"783","","j","psychophysics","84","497958","0.0-7.0-3.0-0.70","7","5","6","6","5","2","5","4","4","5","4","-3","-2","0","-2","1","2","2","-1","4","5","4","5","4","4","5","4","5","4","8","6","5","7","8","9","5","7","8","2","7","2","7","5","7","2","7","5","6","7","5","2","7","5","6","5","7","7","3","3","6","3","7","7","5","7","6","6","6","6","5","7","2","5","5","7","6","7","7","633791437602816000","王","394","Female","[""坏我"",""坏她"",""好我"",""好她""]","[""弱我"",""弱她"",""强我"",""强她""]","","","","","","","","no","","","","","","","","","SRET","EW_formal","","key","j","16.653018867924814","640","356","朋友","下流","Negative","morality","","","","","","","","","",""
"1421","","f","psychophysics","85","500387","0.0-7.0-3.0-0.71","7","5","6","6","5","2","5","4","4","5","4","-3","-2","0","-2","1","2","2","-1","4","5","4","5","4","4","5","4","5","4","8","6","5","7","8","9","5","7","8","2","7","2","7","5","7","2","7","5","6","7","5","2","7","5","6","5","7","7","3","3","6","3","7","7","5","7","6","6","6","6","5","7","2","5","5","7","6","7","7","633791437602816000","王","394","Female","[""坏我"",""坏她"",""好我"",""好她""]","[""弱我"",""弱她"",""强我"",""强她""]","","","","","","","","yes","","","","","","","","","SRET","EW_formal","","key","f","16.652965517241732","640","356","自己","上进","Positive","ability","","","","","","","","","",""
"1250","","f","psychophysics","86","502650","0.0-7.0-3.0-0.72","7","5","6","6","5","2","5","4","4","5","4","-3","-2","0","-2","1","2","2","-1","4","5","4","5","4","4","5","4","5","4","8","6","5","7","8","9","5","7","8","2","7","2","7","5","7","2","7","5","6","7","5","2","7","5","6","5","7","7","3","3","6","3","7","7","5","7","6","6","6","6","5","7","2","5","5","7","6","7","7","633791437602816000","王","394","Female","[""坏我"",""坏她"",""好我"",""好她""]","[""弱我"",""弱她"",""强我"",""强她""]","","","","","","","","yes","","","","","","","","","SRET","EW_formal","","key","f","16.652985074626866","640","356","朋友","专注","Positive","ability","","","","","","","","","",""
"1364","","f","psychophysics","87","505016","0.0-7.0-3.0-0.73","7","5","6","6","5","2","5","4","4","5","4","-3","-2","0","-2","1","2","2","-1","4","5","4","5","4","4","5","4","5","4","8","6","5","7","8","9","5","7","8","2","7","2","7","5","7","2","7","5","6","7","5","2","7","5","6","5","7","7","3","3","6","3","7","7","5","7","6","6","6","6","5","7","2","5","5","7","6","7","7","633791437602816000","王","394","Female","[""坏我"",""坏她"",""好我"",""好她""]","[""弱我"",""弱她"",""强我"",""强她""]","","","","","","","","yes","","","","","","","","","SRET","EW_formal","","key","f","16.652957746478677","640","356","朋友","淡泊","Positive","morality","","","","","","","","","",""
"1300","","j","psychophysics","88","507396","0.0-7.0-3.0-0.74","7","5","6","6","5","2","5","4","4","5","4","-3","-2","0","-2","1","2","2","-1","4","5","4","5","4","4","5","4","5","4","8","6","5","7","8","9","5","7","8","2","7","2","7","5","7","2","7","5","6","7","5","2","7","5","6","5","7","7","3","3","6","3","7","7","5","7","6","6","6","6","5","7","2","5","5","7","6","7","7","633791437602816000","王","394","Female","[""坏我"",""坏她"",""好我"",""好她""]","[""弱我"",""弱她"",""强我"",""强她""]","","","","","","","","no","","","","","","","","","SRET","EW_formal","","key","j","16.652957746478677","640","356","朋友","拜金","Negative","morality","","","","","","","","","",""
"864","","f","psychophysics","89","509365","0.0-7.0-3.0-0.75","7","5","6","6","5","2","5","4","4","5","4","-3","-2","0","-2","1","2","2","-1","4","5","4","5","4","4","5","4","5","4","8","6","5","7","8","9","5","7","8","2","7","2","7","5","7","2","7","5","6","7","5","2","7","5","6","5","7","7","3","3","6","3","7","7","5","7","6","6","6","6","5","7","2","5","5","7","6","7","7","633791437602816000","王","394","Female","[""坏我"",""坏她"",""好我"",""好她""]","[""弱我"",""弱她"",""强我"",""强她""]","","","","","","","","yes","","","","","","","","","SRET","EW_formal","","key","f","16.652991452991156","640","356","自己","忠义","Positive","morality","","","","","","","","","",""
"2592","","f","psychophysics","90","512959","0.0-7.0-3.0-0.76","7","5","6","6","5","2","5","4","4","5","4","-3","-2","0","-2","1","2","2","-1","4","5","4","5","4","4","5","4","5","4","8","6","5","7","8","9","5","7","8","2","7","2","7","5","7","2","7","5","6","7","5","2","7","5","6","5","7","7","3","3","6","3","7","7","5","7","6","6","6","6","5","7","2","5","5","7","6","7","7","633791437602816000","王","394","Female","[""坏我"",""坏她"",""好我"",""好她""]","[""弱我"",""弱她"",""强我"",""强她""]","","","","","","","","yes","","","","","","","","","SRET","EW_formal","","key","f","16.653023255814063","640","356","自己","全才","Positive","ability","","","","","","","","","",""
"684","","j","psychophysics","91","514650","0.0-7.0-3.0-0.77","7","5","6","6","5","2","5","4","4","5","4","-3","-2","0","-2","1","2","2","-1","4","5","4","5","4","4","5","4","5","4","8","6","5","7","8","9","5","7","8","2","7","2","7","5","7","2","7","5","6","7","5","2","7","5","6","5","7","7","3","3","6","3","7","7","5","7","6","6","6","6","5","7","2","5","5","7","6","7","7","633791437602816000","王","394","Female","[""坏我"",""坏她"",""好我"",""好她""]","[""弱我"",""弱她"",""强我"",""强她""]","","","","","","","","no","","","","","","","","","SRET","EW_formal","","key","j","16.652999999999885","640","356","自己","卑鄙","Negative","morality","","","","","","","","","",""
"1950","","j","psychophysics","92","517621","0.0-7.0-3.0-0.78","7","5","6","6","5","2","5","4","4","5","4","-3","-2","0","-2","1","2","2","-1","4","5","4","5","4","4","5","4","5","4","8","6","5","7","8","9","5","7","8","2","7","2","7","5","7","2","7","5","6","7","5","2","7","5","6","5","7","7","3","3","6","3","7","7","5","7","6","6","6","6","5","7","2","5","5","7","6","7","7","633791437602816000","王","394","Female","[""坏我"",""坏她"",""好我"",""好她""]","[""弱我"",""弱她"",""强我"",""强她""]","","","","","","","","no","","","","","","","","","SRET","EW_formal","","key","j","16.652921348314777","640","356","自己","新手","Negative","ability","","","","","","","","","",""
"1331","","j","psychophysics","93","519969","0.0-7.0-3.0-0.79","7","5","6","6","5","2","5","4","4","5","4","-3","-2","0","-2","1","2","2","-1","4","5","4","5","4","4","5","4","5","4","8","6","5","7","8","9","5","7","8","2","7","2","7","5","7","2","7","5","6","7","5","2","7","5","6","5","7","7","3","3","6","3","7","7","5","7","6","6","6","6","5","7","2","5","5","7","6","7","7","633791437602816000","王","394","Female","[""坏我"",""坏她"",""好我"",""好她""]","[""弱我"",""弱她"",""强我"",""强她""]","","","","","","","","no","","","","","","","","","SRET","EW_formal","","key","j","16.6530000000003","640","356","朋友","屈才","Negative","ability","","","","","","","","","",""
"2032","","j","psychophysics","94","523020","0.0-7.0-3.0-0.80","7","5","6","6","5","2","5","4","4","5","4","-3","-2","0","-2","1","2","2","-1","4","5","4","5","4","4","5","4","5","4","8","6","5","7","8","9","5","7","8","2","7","2","7","5","7","2","7","5","6","7","5","2","7","5","6","5","7","7","3","3","6","3","7","7","5","7","6","6","6","6","5","7","2","5","5","7","6","7","7","633791437602816000","王","394","Female","[""坏我"",""坏她"",""好我"",""好她""]","[""弱我"",""弱她"",""强我"",""强她""]","","","","","","","","no","","","","","","","","","SRET","EW_formal","","key","j","16.652857142857183","640","356","自己","业余","Negative","ability","","","","","","","","","",""
"634","","j","psychophysics","95","524658","0.0-7.0-3.0-0.81","7","5","6","6","5","2","5","4","4","5","4","-3","-2","0","-2","1","2","2","-1","4","5","4","5","4","4","5","4","5","4","8","6","5","7","8","9","5","7","8","2","7","2","7","5","7","2","7","5","6","7","5","2","7","5","6","5","7","7","3","3","6","3","7","7","5","7","6","6","6","6","5","7","2","5","5","7","6","7","7","633791437602816000","王","394","Female","[""坏我"",""坏她"",""好我"",""好她""]","[""弱我"",""弱她"",""强我"",""强她""]","","","","","","","","no","","","","","","","","","SRET","EW_formal","","key","j","16.652989690721313","640","356","朋友","诡诈","Negative","morality","","","","","","","","","",""
"959","","j","psychophysics","96","526668","0.0-7.0-3.0-0.82","7","5","6","6","5","2","5","4","4","5","4","-3","-2","0","-2","1","2","2","-1","4","5","4","5","4","4","5","4","5","4","8","6","5","7","8","9","5","7","8","2","7","2","7","5","7","2","7","5","6","7","5","2","7","5","6","5","7","7","3","3","6","3","7","7","5","7","6","6","6","6","5","7","2","5","5","7","6","7","7","633791437602816000","王","394","Female","[""坏我"",""坏她"",""好我"",""好她""]","[""弱我"",""弱她"",""强我"",""强她""]","","","","","","","","no","","","","","","","","","SRET","EW_formal","","key","j","16.652999999999885","640","356","自己","刻薄","Negative","morality","","","","","","","","","",""
"1434","","j","psychophysics","97","529180","0.0-7.0-3.0-0.83","7","5","6","6","5","2","5","4","4","5","4","-3","-2","0","-2","1","2","2","-1","4","5","4","5","4","4","5","4","5","4","8","6","5","7","8","9","5","7","8","2","7","2","7","5","7","2","7","5","6","7","5","2","7","5","6","5","7","7","3","3","6","3","7","7","5","7","6","6","6","6","5","7","2","5","5","7","6","7","7","633791437602816000","王","394","Female","[""坏我"",""坏她"",""好我"",""好她""]","[""弱我"",""弱她"",""强我"",""强她""]","","","","","","","","no","","","","","","","","","SRET","EW_formal","","key","j","16.65293333333296","640","356","自己","无知","Negative","ability","","","","","","","","","",""
"1100","","j","psychophysics","98","531292","0.0-7.0-3.0-0.84","7","5","6","6","5","2","5","4","4","5","4","-3","-2","0","-2","1","2","2","-1","4","5","4","5","4","4","5","4","5","4","8","6","5","7","8","9","5","7","8","2","7","2","7","5","7","2","7","5","6","7","5","2","7","5","6","5","7","7","3","3","6","3","7","7","5","7","6","6","6","6","5","7","2","5","5","7","6","7","7","633791437602816000","王","394","Female","[""坏我"",""坏她"",""好我"",""好她""]","[""弱我"",""弱她"",""强我"",""强她""]","","","","","","","","no","","","","","","","","","SRET","EW_formal","","key","j","16.653015873016095","640","356","朋友","低俗","Negative","morality","","","","","","","","","",""
"695","","j","psychophysics","99","532992","0.0-7.0-3.0-0.85","7","5","6","6","5","2","5","4","4","5","4","-3","-2","0","-2","1","2","2","-1","4","5","4","5","4","4","5","4","5","4","8","6","5","7","8","9","5","7","8","2","7","2","7","5","7","2","7","5","6","7","5","2","7","5","6","5","7","7","3","3","6","3","7","7","5","7","6","6","6","6","5","7","2","5","5","7","6","7","7","633791437602816000","王","394","Female","[""坏我"",""坏她"",""好我"",""好她""]","[""弱我"",""弱她"",""强我"",""强她""]","","","","","","","","no","","","","","","","","","SRET","EW_formal","","key","j","16.653069306930323","640","356","自己","缓慢","Negative","ability","","","","","","","","","",""
"1361","","f","psychophysics","100","535358","0.0-7.0-3.0-0.86","7","5","6","6","5","2","5","4","4","5","4","-3","-2","0","-2","1","2","2","-1","4","5","4","5","4","4","5","4","5","4","8","6","5","7","8","9","5","7","8","2","7","2","7","5","7","2","7","5","6","7","5","2","7","5","6","5","7","7","3","3","6","3","7","7","5","7","6","6","6","6","5","7","2","5","5","7","6","7","7","633791437602816000","王","394","Female","[""坏我"",""坏她"",""好我"",""好她""]","[""弱我"",""弱她"",""强我"",""强她""]","","","","","","","","yes","","","","","","","","","SRET","EW_formal","","key","f","16.653049645389775","640","356","朋友","素养","Positive","morality","","","","","","","","","",""
"783","","f","psychophysics","101","537156","0.0-7.0-3.0-0.87","7","5","6","6","5","2","5","4","4","5","4","-3","-2","0","-2","1","2","2","-1","4","5","4","5","4","4","5","4","5","4","8","6","5","7","8","9","5","7","8","2","7","2","7","5","7","2","7","5","6","7","5","2","7","5","6","5","7","7","3","3","6","3","7","7","5","7","6","6","6","6","5","7","2","5","5","7","6","7","7","633791437602816000","王","394","Female","[""坏我"",""坏她"",""好我"",""好她""]","[""弱我"",""弱她"",""强我"",""强她""]","","","","","","","","yes","","","","","","","","","SRET","EW_formal","","key","f","16.652897196261552","640","356","自己","主见","Positive","ability","","","","","","","","","",""
"3224","
    <p><div style='color:white;font-size:35px; line-height:20px;'>计算任务</div></p><br>
    <p><div style='color:red;font-size:25px; line-height:20px;'>接下来，您将看到一些四则运算题，<b>请从键盘选择 0-9 进行反应。</b></div></p>
    <p><div class='footer' style='color:white;font-size:25px; line-height:20px;'>如果对本实验还有不清楚之处，请立即向实验员咨询。</p><p style='color:white;font-size:25px; line-height:20px;'>如果您明白了规则：</p><p style='color:white;font-size:22px; line-height:20px;'>请按 继续 进入练习</p>
    </div>
    ","0","html-button-response","102","540381","0.0-7.0-4.0","7","5","6","6","5","2","5","4","4","5","4","-3","-2","0","-2","1","2","2","-1","4","5","4","5","4","4","5","4","5","4","8","6","5","7","8","9","5","7","8","2","7","2","7","5","7","2","7","5","6","7","5","2","7","5","6","5","7","7","3","3","6","3","7","7","5","7","6","6","6","6","5","7","2","5","5","7","6","7","7","633791437602816000","王","394","Female","[""坏我"",""坏她"",""好我"",""好她""]","[""弱我"",""弱她"",""强我"",""强她""]","","","","","","","","","","","","","","","","","SRET_math","math_instructions","Wed Oct 18 2023 11:28:59 GMT+0800 (中国标准时间)","","","","","","","","","","","","","","","","","","",""
"11587","","4","psychophysics","103","551990","0.0-7.0-5.0-0.0","7","5","6","6","5","2","5","4","4","5","4","-3","-2","0","-2","1","2","2","-1","4","5","4","5","4","4","5","4","5","4","8","6","5","7","8","9","5","7","8","2","7","2","7","5","7","2","7","5","6","7","5","2","7","5","6","5","7","7","3","3","6","3","7","7","5","7","6","6","6","6","5","7","2","5","5","7","6","7","7","633791437602816000","王","394","Female","[""坏我"",""坏她"",""好我"",""好她""]","[""弱我"",""弱她"",""强我"",""强她""]","","","","","","","","4","","","","","","","","","SRET","SRET_math_calculate","","key","4","16.64991379310357","640","356","","","","","56/7= ?","8","0","","","","","","",""
"263","","9","psychophysics","104","552260","0.0-7.0-5.0-0.1","7","5","6","6","5","2","5","4","4","5","4","-3","-2","0","-2","1","2","2","-1","4","5","4","5","4","4","5","4","5","4","8","6","5","7","8","9","5","7","8","2","7","2","7","5","7","2","7","5","6","7","5","2","7","5","6","5","7","7","3","3","6","3","7","7","5","7","6","6","6","6","5","7","2","5","5","7","6","7","7","633791437602816000","王","394","Female","[""坏我"",""坏她"",""好我"",""好她""]","[""弱我"",""弱她"",""强我"",""强她""]","","","","","","","","9","","","","","","","","","SRET","SRET_math_calculate","","key","9","16.652500000003783","640","356","","","","","1+8= ?","9","1","","","","","","",""
"6117","","3","psychophysics","105","558378","0.0-7.0-5.0-0.2","7","5","6","6","5","2","5","4","4","5","4","-3","-2","0","-2","1","2","2","-1","4","5","4","5","4","4","5","4","5","4","8","6","5","7","8","9","5","7","8","2","7","2","7","5","7","2","7","5","6","7","5","2","7","5","6","5","7","7","3","3","6","3","7","7","5","7","6","6","6","6","5","7","2","5","5","7","6","7","7","633791437602816000","王","394","Female","[""坏我"",""坏她"",""好我"",""好她""]","[""弱我"",""弱她"",""强我"",""强她""]","","","","","","","","3","","","","","","","","","SRET","SRET_math_calculate","","key","3","16.652896174863287","640","356","","","","","8-5= ?","3","1","","","","","","",""
"3798","","6","psychophysics","106","562188","0.0-7.0-5.0-0.3","7","5","6","6","5","2","5","4","4","5","4","-3","-2","0","-2","1","2","2","-1","4","5","4","5","4","4","5","4","5","4","8","6","5","7","8","9","5","7","8","2","7","2","7","5","7","2","7","5","6","7","5","2","7","5","6","5","7","7","3","3","6","3","7","7","5","7","6","6","6","6","5","7","2","5","5","7","6","7","7","633791437602816000","王","394","Female","[""坏我"",""坏她"",""好我"",""好她""]","[""弱我"",""弱她"",""强我"",""强她""]","","","","","","","","6","","","","","","","","","SRET","SRET_math_calculate","","key","6","16.65298245614037","640","356","","","","","9-4= ?","5","0","","","","","","",""
"2676","","5","psychophysics","107","564865","0.0-7.0-5.0-0.4","7","5","6","6","5","2","5","4","4","5","4","-3","-2","0","-2","1","2","2","-1","4","5","4","5","4","4","5","4","5","4","8","6","5","7","8","9","5","7","8","2","7","2","7","5","7","2","7","5","6","7","5","2","7","5","6","5","7","7","3","3","6","3","7","7","5","7","6","6","6","6","5","7","2","5","5","7","6","7","7","633791437602816000","王","394","Female","[""坏我"",""坏她"",""好我"",""好她""]","[""弱我"",""弱她"",""强我"",""强她""]","","","","","","","","5","","","","","","","","","SRET","SRET_math_calculate","","key","5","16.65300000000061","640","356","","","","","2+3= ?","5","1","","","","","","",""
"2430","","5","psychophysics","108","567296","0.0-7.0-5.0-0.5","7","5","6","6","5","2","5","4","4","5","4","-3","-2","0","-2","1","2","2","-1","4","5","4","5","4","4","5","4","5","4","8","6","5","7","8","9","5","7","8","2","7","2","7","5","7","2","7","5","6","7","5","2","7","5","6","5","7","7","3","3","6","3","7","7","5","7","6","6","6","6","5","7","2","5","5","7","6","7","7","633791437602816000","王","394","Female","[""坏我"",""坏她"",""好我"",""好她""]","[""弱我"",""弱她"",""强我"",""强她""]","","","","","","","","5","","","","","","","","","SRET","SRET_math_calculate","","key","5","16.652965517241732","640","356","","","","","3+2= ?","5","1","","","","","","",""
"2680","","9","psychophysics","109","569979","0.0-7.0-5.0-0.6","7","5","6","6","5","2","5","4","4","5","4","-3","-2","0","-2","1","2","2","-1","4","5","4","5","4","4","5","4","5","4","8","6","5","7","8","9","5","7","8","2","7","2","7","5","7","2","7","5","6","7","5","2","7","5","6","5","7","7","3","3","6","3","7","7","5","7","6","6","6","6","5","7","2","5","5","7","6","7","7","633791437602816000","王","394","Female","[""坏我"",""坏她"",""好我"",""好她""]","[""弱我"",""弱她"",""强我"",""强她""]","","","","","","","","9","","","","","","","","","SRET","SRET_math_calculate","","key","9","16.652874999999767","640","356","","","","","1+8= ?","9","1","","","","","","",""
"4752","","9","psychophysics","110","574732","0.0-7.0-5.0-0.7","7","5","6","6","5","2","5","4","4","5","4","-3","-2","0","-2","1","2","2","-1","4","5","4","5","4","4","5","4","5","4","8","6","5","7","8","9","5","7","8","2","7","2","7","5","7","2","7","5","6","7","5","2","7","5","6","5","7","7","3","3","6","3","7","7","5","7","6","6","6","6","5","7","2","5","5","7","6","7","7","633791437602816000","王","394","Female","[""坏我"",""坏她"",""好我"",""好她""]","[""弱我"",""弱她"",""强我"",""强她""]","","","","","","","","9","","","","","","","","","SRET","SRET_math_calculate","","key","9","16.652957746478677","640","356","","","","","3*3= ?","9","1","","","","","","",""
"2561","","9","psychophysics","111","577305","0.0-7.0-5.0-0.8","7","5","6","6","5","2","5","4","4","5","4","-3","-2","0","-2","1","2","2","-1","4","5","4","5","4","4","5","4","5","4","8","6","5","7","8","9","5","7","8","2","7","2","7","5","7","2","7","5","6","7","5","2","7","5","6","5","7","7","3","3","6","3","7","7","5","7","6","6","6","6","5","7","2","5","5","7","6","7","7","633791437602816000","王","394","Female","[""坏我"",""坏她"",""好我"",""好她""]","[""弱我"",""弱她"",""强我"",""强她""]","","","","","","","","9","","","","","","","","","SRET","SRET_math_calculate","","key","9","16.653766233766568","640","356","","","","","12-12= ?","0","0","","","","","","",""
"2429","","9","psychophysics","112","579736","0.0-7.0-5.0-0.9","7","5","6","6","5","2","5","4","4","5","4","-3","-2","0","-2","1","2","2","-1","4","5","4","5","4","4","5","4","5","4","8","6","5","7","8","9","5","7","8","2","7","2","7","5","7","2","7","5","6","7","5","2","7","5","6","5","7","7","3","3","6","3","7","7","5","7","6","6","6","6","5","7","2","5","5","7","6","7","7","633791437602816000","王","394","Female","[""坏我"",""坏她"",""好我"",""好她""]","[""弱我"",""弱她"",""强我"",""强她""]","","","","","","","","9","","","","","","","","","SRET","SRET_math_calculate","","key","9","16.65296551724093","640","356","","","","","8+1= ?","9","1","","","","","","",""
"2973","","2","psychophysics","113","582713","0.0-7.0-5.0-0.10","7","5","6","6","5","2","5","4","4","5","4","-3","-2","0","-2","1","2","2","-1","4","5","4","5","4","4","5","4","5","4","8","6","5","7","8","9","5","7","8","2","7","2","7","5","7","2","7","5","6","7","5","2","7","5","6","5","7","7","3","3","6","3","7","7","5","7","6","6","6","6","5","7","2","5","5","7","6","7","7","633791437602816000","王","394","Female","[""坏我"",""坏她"",""好我"",""好她""]","[""弱我"",""弱她"",""强我"",""强她""]","","","","","","","","2","","","","","","","","","SRET","SRET_math_calculate","","key","2","16.65288135593186","640","356","","","","","1+1= ?","2","1","","","","","","",""
"6261","","2","psychophysics","114","588980","0.0-7.0-5.0-0.11","7","5","6","6","5","2","5","4","4","5","4","-3","-2","0","-2","1","2","2","-1","4","5","4","5","4","4","5","4","5","4","8","6","5","7","8","9","5","7","8","2","7","2","7","5","7","2","7","5","6","7","5","2","7","5","6","5","7","7","3","3","6","3","7","7","5","7","6","6","6","6","5","7","2","5","5","7","6","7","7","633791437602816000","王","394","Female","[""坏我"",""坏她"",""好我"",""好她""]","[""弱我"",""弱她"",""强我"",""强她""]","","","","","","","","2","","","","","","","","","SRET","SRET_math_calculate","","key","2","16.652925531914892","640","356","","","","","5-3= ?","2","1","","","","","","",""
"4532","","5","psychophysics","115","593513","0.0-7.0-5.0-0.12","7","5","6","6","5","2","5","4","4","5","4","-3","-2","0","-2","1","2","2","-1","4","5","4","5","4","4","5","4","5","4","8","6","5","7","8","9","5","7","8","2","7","2","7","5","7","2","7","5","6","7","5","2","7","5","6","5","7","7","3","3","6","3","7","7","5","7","6","6","6","6","5","7","2","5","5","7","6","7","7","633791437602816000","王","394","Female","[""坏我"",""坏她"",""好我"",""好她""]","[""弱我"",""弱她"",""强我"",""强她""]","","","","","","","","5","","","","","","","","","SRET","SRET_math_calculate","","key","5","16.652915129151086","640","356","","","","","8-3= ? ","5","1","","","","","","",""
"5592","","1","psychophysics","116","599107","0.0-7.0-5.0-0.13","7","5","6","6","5","2","5","4","4","5","4","-3","-2","0","-2","1","2","2","-1","4","5","4","5","4","4","5","4","5","4","8","6","5","7","8","9","5","7","8","2","7","2","7","5","7","2","7","5","6","7","5","2","7","5","6","5","7","7","3","3","6","3","7","7","5","7","6","6","6","6","5","7","2","5","5","7","6","7","7","633791437602816000","王","394","Female","[""坏我"",""坏她"",""好我"",""好她""]","[""弱我"",""弱她"",""强我"",""强她""]","","","","","","","","1","","","","","","","","","SRET","SRET_math_calculate","","key","1","16.652955223880568","640","356","","","","","10-9= ?","1","1","","","","","","",""
"2961","","7","psychophysics","117","602070","0.0-7.0-5.0-0.14","7","5","6","6","5","2","5","4","4","5","4","-3","-2","0","-2","1","2","2","-1","4","5","4","5","4","4","5","4","5","4","8","6","5","7","8","9","5","7","8","2","7","2","7","5","7","2","7","5","6","7","5","2","7","5","6","5","7","7","3","3","6","3","7","7","5","7","6","6","6","6","5","7","2","5","5","7","6","7","7","633791437602816000","王","394","Female","[""坏我"",""坏她"",""好我"",""好她""]","[""弱我"",""弱她"",""强我"",""强她""]","","","","","","","","7","","","","","","","","","SRET","SRET_math_calculate","","key","7","16.65299435028225","640","356","","","","","6+1= ?","7","1","","","","","","",""
"5415","","8","psychophysics","118","607486","0.0-7.0-5.0-0.15","7","5","6","6","5","2","5","4","4","5","4","-3","-2","0","-2","1","2","2","-1","4","5","4","5","4","4","5","4","5","4","8","6","5","7","8","9","5","7","8","2","7","2","7","5","7","2","7","5","6","7","5","2","7","5","6","5","7","7","3","3","6","3","7","7","5","7","6","6","6","6","5","7","2","5","5","7","6","7","7","633791437602816000","王","394","Female","[""坏我"",""坏她"",""好我"",""好她""]","[""弱我"",""弱她"",""强我"",""强她""]","","","","","","","","8","","","","","","","","","SRET","SRET_math_calculate","","key","8","16.652962962963134","640","356","","","","","3+5= ?","8","1","","","","","","",""
"5444","","7","psychophysics","119","612931","0.0-7.0-5.0-0.16","7","5","6","6","5","2","5","4","4","5","4","-3","-2","0","-2","1","2","2","-1","4","5","4","5","4","4","5","4","5","4","8","6","5","7","8","9","5","7","8","2","7","2","7","5","7","2","7","5","6","7","5","2","7","5","6","5","7","7","3","3","6","3","7","7","5","7","6","6","6","6","5","7","2","5","5","7","6","7","7","633791437602816000","王","394","Female","[""坏我"",""坏她"",""好我"",""好她""]","[""弱我"",""弱她"",""强我"",""强她""]","","","","","","","","7","","","","","","","","","SRET","SRET_math_calculate","","key","7","16.652883435583078","640","356","","","","","3+4= ?","7","1","","","","","","",""
"5690","","9","psychophysics","120","618623","0.0-7.0-5.0-0.17","7","5","6","6","5","2","5","4","4","5","4","-3","-2","0","-2","1","2","2","-1","4","5","4","5","4","4","5","4","5","4","8","6","5","7","8","9","5","7","8","2","7","2","7","5","7","2","7","5","6","7","5","2","7","5","6","5","7","7","3","3","6","3","7","7","5","7","6","6","6","6","5","7","2","5","5","7","6","7","7","633791437602816000","王","394","Female","[""坏我"",""坏她"",""好我"",""好她""]","[""弱我"",""弱她"",""强我"",""强她""]","","","","","","","","9","","","","","","","","","SRET","SRET_math_calculate","","key","9","16.65296187683294","640","356","","","","","18/9= ?","2","0","","","","","","",""
"3802","","5","psychophysics","121","622426","0.0-7.0-5.0-0.18","7","5","6","6","5","2","5","4","4","5","4","-3","-2","0","-2","1","2","2","-1","4","5","4","5","4","4","5","4","5","4","8","6","5","7","8","9","5","7","8","2","7","2","7","5","7","2","7","5","6","7","5","2","7","5","6","5","7","7","3","3","6","3","7","7","5","7","6","6","6","6","5","7","2","5","5","7","6","7","7","633791437602816000","王","394","Female","[""坏我"",""坏她"",""好我"",""好她""]","[""弱我"",""弱她"",""强我"",""强她""]","","","","","","","","5","","","","","","","","","SRET","SRET_math_calculate","","key","5","16.652951541850097","640","356","","","","","15-10= ?","5","1","","","","","","",""
"3194","","6","psychophysics","122","625633","0.0-7.0-5.0-0.19","7","5","6","6","5","2","5","4","4","5","4","-3","-2","0","-2","1","2","2","-1","4","5","4","5","4","4","5","4","5","4","8","6","5","7","8","9","5","7","8","2","7","2","7","5","7","2","7","5","6","7","5","2","7","5","6","5","7","7","3","3","6","3","7","7","5","7","6","6","6","6","5","7","2","5","5","7","6","7","7","633791437602816000","王","394","Female","[""坏我"",""坏她"",""好我"",""好她""]","[""弱我"",""弱她"",""强我"",""强她""]","","","","","","","","6","","","","","","","","","SRET","SRET_math_calculate","","key","6","16.652916666666595","640","356","","","","","3+3= ?","6","1","","","","","","",""
"3472","","4","psychophysics","123","629110","0.0-7.0-5.0-0.20","7","5","6","6","5","2","5","4","4","5","4","-3","-2","0","-2","1","2","2","-1","4","5","4","5","4","4","5","4","5","4","8","6","5","7","8","9","5","7","8","2","7","2","7","5","7","2","7","5","6","7","5","2","7","5","6","5","7","7","3","3","6","3","7","7","5","7","6","6","6","6","5","7","2","5","5","7","6","7","7","633791437602816000","王","394","Female","[""坏我"",""坏她"",""好我"",""好她""]","[""弱我"",""弱她"",""强我"",""强她""]","","","","","","","","4","","","","","","","","","SRET","SRET_math_calculate","","key","4","16.652850241545963","640","356","","","","","8-4= ?","4","1","","","","","","",""
"4693","","6","psychophysics","124","633811","0.0-7.0-5.0-0.21","7","5","6","6","5","2","5","4","4","5","4","-3","-2","0","-2","1","2","2","-1","4","5","4","5","4","4","5","4","5","4","8","6","5","7","8","9","5","7","8","2","7","2","7","5","7","2","7","5","6","7","5","2","7","5","6","5","7","7","3","3","6","3","7","7","5","7","6","6","6","6","5","7","2","5","5","7","6","7","7","633791437602816000","王","394","Female","[""坏我"",""坏她"",""好我"",""好她""]","[""弱我"",""弱她"",""强我"",""强她""]","","","","","","","","6","","","","","","","","","SRET","SRET_math_calculate","","key","6","16.652978723404306","640","356","","","","","4+2= ?","6","1","","","","","","",""
"5560","","3","psychophysics","125","639373","0.0-7.0-5.0-0.22","7","5","6","6","5","2","5","4","4","5","4","-3","-2","0","-2","1","2","2","-1","4","5","4","5","4","4","5","4","5","4","8","6","5","7","8","9","5","7","8","2","7","2","7","5","7","2","7","5","6","7","5","2","7","5","6","5","7","7","3","3","6","3","7","7","5","7","6","6","6","6","5","7","2","5","5","7","6","7","7","633791437602816000","王","394","Female","[""坏我"",""坏她"",""好我"",""好她""]","[""弱我"",""弱她"",""强我"",""强她""]","","","","","","","","3","","","","","","","","","SRET","SRET_math_calculate","","key","3","16.652972972973156","640","356","","","","","3*1= ?","3","1","","","","","","",""
"5976","","4","psychophysics","126","645350","0.0-7.0-5.0-0.23","7","5","6","6","5","2","5","4","4","5","4","-3","-2","0","-2","1","2","2","-1","4","5","4","5","4","4","5","4","5","4","8","6","5","7","8","9","5","7","8","2","7","2","7","5","7","2","7","5","6","7","5","2","7","5","6","5","7","7","3","3","6","3","7","7","5","7","6","6","6","6","5","7","2","5","5","7","6","7","7","633791437602816000","王","394","Female","[""坏我"",""坏她"",""好我"",""好她""]","[""弱我"",""弱她"",""强我"",""强她""]","","","","","","","","4","","","","","","","","","SRET","SRET_math_calculate","","key","4","16.653351955307002","640","356","","","","","49/7 = ?","7","0","","","","","","",""
"835","","2","psychophysics","127","646188","0.0-7.0-5.0-0.24","7","5","6","6","5","2","5","4","4","5","4","-3","-2","0","-2","1","2","2","-1","4","5","4","5","4","4","5","4","5","4","8","6","5","7","8","9","5","7","8","2","7","2","7","5","7","2","7","5","6","7","5","2","7","5","6","5","7","7","3","3","6","3","7","7","5","7","6","6","6","6","5","7","2","5","5","7","6","7","7","633791437602816000","王","394","Female","[""坏我"",""坏她"",""好我"",""好她""]","[""弱我"",""弱她"",""强我"",""强她""]","","","","","","","","2","","","","","","","","","SRET","SRET_math_calculate","","key","2","16.65265306122411","640","356","","","","","3+6= ?","9","0","","","","","","",""
"6224","","6","psychophysics","128","652412","0.0-7.0-5.0-0.25","7","5","6","6","5","2","5","4","4","5","4","-3","-2","0","-2","1","2","2","-1","4","5","4","5","4","4","5","4","5","4","8","6","5","7","8","9","5","7","8","2","7","2","7","5","7","2","7","5","6","7","5","2","7","5","6","5","7","7","3","3","6","3","7","7","5","7","6","6","6","6","5","7","2","5","5","7","6","7","7","633791437602816000","王","394","Female","[""坏我"",""坏她"",""好我"",""好她""]","[""弱我"",""弱她"",""强我"",""强她""]","","","","","","","","6","","","","","","","","","SRET","SRET_math_calculate","","key","6","16.652922252010825","640","356","","","","","18/2= ?","9","0","","","","","","",""
"5043","","6","psychophysics","129","657457","0.0-7.0-5.0-0.26","7","5","6","6","5","2","5","4","4","5","4","-3","-2","0","-2","1","2","2","-1","4","5","4","5","4","4","5","4","5","4","8","6","5","7","8","9","5","7","8","2","7","2","7","5","7","2","7","5","6","7","5","2","7","5","6","5","7","7","3","3","6","3","7","7","5","7","6","6","6","6","5","7","2","5","5","7","6","7","7","633791437602816000","王","394","Female","[""坏我"",""坏她"",""好我"",""好她""]","[""弱我"",""弱她"",""强我"",""强她""]","","","","","","","","6","","","","","","","","","SRET","SRET_math_calculate","","key","6","16.652913907284937","640","356","","","","","8-2= ?","6","1","","","","","","",""
"5310","","4","psychophysics","130","662768","0.0-7.0-5.0-0.27","7","5","6","6","5","2","5","4","4","5","4","-3","-2","0","-2","1","2","2","-1","4","5","4","5","4","4","5","4","5","4","8","6","5","7","8","9","5","7","8","2","7","2","7","5","7","2","7","5","6","7","5","2","7","5","6","5","7","7","3","3","6","3","7","7","5","7","6","6","6","6","5","7","2","5","5","7","6","7","7","633791437602816000","王","394","Female","[""坏我"",""坏她"",""好我"",""好她""]","[""弱我"",""弱她"",""强我"",""强她""]","","","","","","","","4","","","","","","","","","SRET","SRET_math_calculate","","key","4","16.65295597484281","640","356","","","","","6/2= ?","3","0","","","","","","",""
"2959","","8","psychophysics","131","665731","0.0-7.0-5.0-0.28","7","5","6","6","5","2","5","4","4","5","4","-3","-2","0","-2","1","2","2","-1","4","5","4","5","4","4","5","4","5","4","8","6","5","7","8","9","5","7","8","2","7","2","7","5","7","2","7","5","6","7","5","2","7","5","6","5","7","7","3","3","6","3","7","7","5","7","6","6","6","6","5","7","2","5","5","7","6","7","7","633791437602816000","王","394","Female","[""坏我"",""坏她"",""好我"",""好她""]","[""弱我"",""弱她"",""强我"",""强她""]","","","","","","","","8","","","","","","","","","SRET","SRET_math_calculate","","key","8","16.652994350282906","640","356","","","","","4+4= ?","8","1","","","","","","",""
"4945","","8","psychophysics","132","670678","0.0-7.0-5.0-0.29","7","5","6","6","5","2","5","4","4","5","4","-3","-2","0","-2","1","2","2","-1","4","5","4","5","4","4","5","4","5","4","8","6","5","7","8","9","5","7","8","2","7","2","7","5","7","2","7","5","6","7","5","2","7","5","6","5","7","7","3","3","6","3","7","7","5","7","6","6","6","6","5","7","2","5","5","7","6","7","7","633791437602816000","王","394","Female","[""坏我"",""坏她"",""好我"",""好她""]","[""弱我"",""弱她"",""强我"",""强她""]","","","","","","","","8","","","","","","","","","SRET","SRET_math_calculate","","key","8","16.652972972972673","640","356","","","","","21/3= ? ","7","0","","","","","","",""
"8163","","7","psychophysics","133","678843","0.0-7.0-5.0-0.30","7","5","6","6","5","2","5","4","4","5","4","-3","-2","0","-2","1","2","2","-1","4","5","4","5","4","4","5","4","5","4","8","6","5","7","8","9","5","7","8","2","7","2","7","5","7","2","7","5","6","7","5","2","7","5","6","5","7","7","3","3","6","3","7","7","5","7","6","6","6","6","5","7","2","5","5","7","6","7","7","633791437602816000","王","394","Female","[""坏我"",""坏她"",""好我"",""好她""]","[""弱我"",""弱她"",""强我"",""强她""]","","","","","","","","7","","","","","","","","","SRET","SRET_math_calculate","","key","7","16.653169734151376","640","356","","","","","13-6= ?","7","1","","","","","","",""
"2890","","8","psychophysics","134","681736","0.0-7.0-5.0-0.31","7","5","6","6","5","2","5","4","4","5","4","-3","-2","0","-2","1","2","2","-1","4","5","4","5","4","4","5","4","5","4","8","6","5","7","8","9","5","7","8","2","7","2","7","5","7","2","7","5","6","7","5","2","7","5","6","5","7","7","3","3","6","3","7","7","5","7","6","6","6","6","5","7","2","5","5","7","6","7","7","633791437602816000","王","394","Female","[""坏我"",""坏她"",""好我"",""好她""]","[""弱我"",""弱她"",""强我"",""强她""]","","","","","","","","8","","","","","","","","","SRET","SRET_math_calculate","","key","8","16.652832369941873","640","356","","","","","7+1= ?","8","1","","","","","","",""
"7343","","8","psychophysics","135","689081","0.0-7.0-5.0-0.32","7","5","6","6","5","2","5","4","4","5","4","-3","-2","0","-2","1","2","2","-1","4","5","4","5","4","4","5","4","5","4","8","6","5","7","8","9","5","7","8","2","7","2","7","5","7","2","7","5","6","7","5","2","7","5","6","5","7","7","3","3","6","3","7","7","5","7","6","6","6","6","5","7","2","5","5","7","6","7","7","633791437602816000","王","394","Female","[""坏我"",""坏她"",""好我"",""好她""]","[""弱我"",""弱她"",""强我"",""强她""]","","","","","","","","8","","","","","","","","","SRET","SRET_math_calculate","","key","8","16.65295454545465","640","356","","","","","72/9= ?","8","1","","","","","","",""
"6763","","2","psychophysics","136","695844","0.0-7.0-5.0-0.33","7","5","6","6","5","2","5","4","4","5","4","-3","-2","0","-2","1","2","2","-1","4","5","4","5","4","4","5","4","5","4","8","6","5","7","8","9","5","7","8","2","7","2","7","5","7","2","7","5","6","7","5","2","7","5","6","5","7","7","3","3","6","3","7","7","5","7","6","6","6","6","5","7","2","5","5","7","6","7","7","633791437602816000","王","394","Female","[""坏我"",""坏她"",""好我"",""好她""]","[""弱我"",""弱她"",""强我"",""强她""]","","","","","","","","2","","","","","","","","","SRET","SRET_math_calculate","","key","2","16.6529382716048","640","356","","","","","12/6= ?","2","1","","","","","","",""
"4193","","2","psychophysics","137","700038","0.0-7.0-5.0-0.34","7","5","6","6","5","2","5","4","4","5","4","-3","-2","0","-2","1","2","2","-1","4","5","4","5","4","4","5","4","5","4","8","6","5","7","8","9","5","7","8","2","7","2","7","5","7","2","7","5","6","7","5","2","7","5","6","5","7","7","3","3","6","3","7","7","5","7","6","6","6","6","5","7","2","5","5","7","6","7","7","633791437602816000","王","394","Female","[""坏我"",""坏她"",""好我"",""好她""]","[""弱我"",""弱她"",""强我"",""强她""]","","","","","","","","2","","","","","","","","","SRET","SRET_math_calculate","","key","2","16.652908366533882","640","356","","","","","8-6= ?","2","1","","","","","","",""
"2628","","5","psychophysics","138","702668","0.0-7.0-5.0-0.35","7","5","6","6","5","2","5","4","4","5","4","-3","-2","0","-2","1","2","2","-1","4","5","4","5","4","4","5","4","5","4","8","6","5","7","8","9","5","7","8","2","7","2","7","5","7","2","7","5","6","7","5","2","7","5","6","5","7","7","3","3","6","3","7","7","5","7","6","6","6","6","5","7","2","5","5","7","6","7","7","633791437602816000","王","394","Female","[""坏我"",""坏她"",""好我"",""好她""]","[""弱我"",""弱她"",""强我"",""强她""]","","","","","","","","5","","","","","","","","","SRET","SRET_math_calculate","","key","5","16.652993630573366","640","356","","","","","10-5= ?","5","1","","","","","","",""
"5697","","9","psychophysics","139","708366","0.0-7.0-5.0-0.36","7","5","6","6","5","2","5","4","4","5","4","-3","-2","0","-2","1","2","2","-1","4","5","4","5","4","4","5","4","5","4","8","6","5","7","8","9","5","7","8","2","7","2","7","5","7","2","7","5","6","7","5","2","7","5","6","5","7","7","3","3","6","3","7","7","5","7","6","6","6","6","5","7","2","5","5","7","6","7","7","633791437602816000","王","394","Female","[""坏我"",""坏她"",""好我"",""好她""]","[""弱我"",""弱她"",""强我"",""强她""]","","","","","","","","9","","","","","","","","","SRET","SRET_math_calculate","","key","9","16.65296187683294","640","356","","","","","5+4= ?","9","1","","","","","","",""
"5112","","4","psychophysics","140","713480","0.0-7.0-5.0-0.37","7","5","6","6","5","2","5","4","4","5","4","-3","-2","0","-2","1","2","2","-1","4","5","4","5","4","4","5","4","5","4","8","6","5","7","8","9","5","7","8","2","7","2","7","5","7","2","7","5","6","7","5","2","7","5","6","5","7","7","3","3","6","3","7","7","5","7","6","6","6","6","5","7","2","5","5","7","6","7","7","633791437602816000","王","394","Female","[""坏我"",""坏她"",""好我"",""好她""]","[""弱我"",""弱她"",""强我"",""强她""]","","","","","","","","4","","","","","","","","","SRET","SRET_math_calculate","","key","4","16.65333333333309","640","356","","","","","13-9= ?","4","1","","","","","","",""
"4485","","7","psychophysics","141","717970","0.0-7.0-5.0-0.38","7","5","6","6","5","2","5","4","4","5","4","-3","-2","0","-2","1","2","2","-1","4","5","4","5","4","4","5","4","5","4","8","6","5","7","8","9","5","7","8","2","7","2","7","5","7","2","7","5","6","7","5","2","7","5","6","5","7","7","3","3","6","3","7","7","5","7","6","6","6","6","5","7","2","5","5","7","6","7","7","633791437602816000","王","394","Female","[""坏我"",""坏她"",""好我"",""好她""]","[""弱我"",""弱她"",""强我"",""强她""]","","","","","","","","7","","","","","","","","","SRET","SRET_math_calculate","","key","7","16.65293680297403","640","356","","","","","5+2= ?","7","1","","","","","","",""
"2382","","0","psychophysics","142","720356","0.0-7.0-5.0-0.39","7","5","6","6","5","2","5","4","4","5","4","-3","-2","0","-2","1","2","2","-1","4","5","4","5","4","4","5","4","5","4","8","6","5","7","8","9","5","7","8","2","7","2","7","5","7","2","7","5","6","7","5","2","7","5","6","5","7","7","3","3","6","3","7","7","5","7","6","6","6","6","5","7","2","5","5","7","6","7","7","633791437602816000","王","394","Female","[""坏我"",""坏她"",""好我"",""好她""]","[""弱我"",""弱她"",""强我"",""强她""]","","","","","","","","0","","","","","","","","","SRET","SRET_math_calculate","","key","0","16.652957746478677","640","356","","","","","1-1= ?","0","1","","","","","","",""
"","","","psychophysics","143","720424","0.0-7.0-5.0-0.40","7","5","6","6","5","2","5","4","4","5","4","-3","-2","0","-2","1","2","2","-1","4","5","4","5","4","4","5","4","5","4","8","6","5","7","8","9","5","7","8","2","7","2","7","5","7","2","7","5","6","7","5","2","7","5","6","5","7","7","3","3","6","3","7","7","5","7","6","6","6","6","5","7","2","5","5","7","6","7","7","633791437602816000","王","394","Female","[""坏我"",""坏她"",""好我"",""好她""]","[""弱我"",""弱她"",""强我"",""强她""]","","","","","","","","","","","","","","","","","SRET","SRET_math_calculate","","","","","","","","","","","11-8= ?","3","0","ended early","","","","","",""
"4951","","","instructions","144","725375","0.0-7.0-6.0","7","5","6","6","5","2","5","4","4","5","4","-3","-2","0","-2","1","2","2","-1","4","5","4","5","4","4","5","4","5","4","8","6","5","7","8","9","5","7","8","2","7","2","7","5","7","2","7","5","6","7","5","2","7","5","6","5","7","7","3","3","6","3","7","7","5","7","6","6","6","6","5","7","2","5","5","7","6","7","7","633791437602816000","王","394","Female","[""坏我"",""坏她"",""好我"",""好她""]","[""弱我"",""弱她"",""强我"",""强她""]","","","","","","","","","","","","","","","","","SRET_RJ","RJ_instruct_practice","Wed Oct 18 2023 11:28:59 GMT+0800 (中国标准时间)","","","","","","","","","","","","","","[{""page_index"":0,""viewing_time"":1874},{""page_index"":1,""viewing_time"":2984}]","","","","",""
