"rt","stimulus","response","trial_type","trial_index","time_elapsed","internal_node_id","swb_1","swb_2","swb_3","swb_4","swb_5","LOT_1","LOT_2","LOT_3","LOT_4","LOT_5","LOT_6","IPC_1","IPC_2","IPC_3","IPC_4","IPC_5","IPC_6","IPC_7","IPC_8","MorIden_1","MorIden_2","MorIden_3","MorIden_4","MorIden_5","MorIden_6","MorIden_7","MorIden_8","MorIden_9","MorIden_10","moralSeImag_1","moralSeImag_2","moralSeImag_3","moralSeImag_4","moralSeImag_5","moralSeImag_6","moralSeImag_7","moralSeImag_8","moralSeImag_9","sde_1","sde_2","sde_3","sde_4","sde_5","sde_6","sde_7","sde_8","sde_9","sde_10","sde_11","sde_12","sde_13","sde_14","sde_15","sde_16","sde_17","sde_18","sde_19","sde_20","IM_1","IM_2","IM_3","IM_4","IM_5","IM_6","IM_7","IM_8","IM_9","IM_10","IM_11","IM_12","IM_13","IM_14","IM_15","IM_16","IM_17","IM_18","IM_19","IM_20","subj_idx","friend_name","ParticipantID","Sex","Word","Word2","value","success","timeout","failed_images","failed_audio","failed_video","user_agent","responses","item_order","radio_event_ids","radio_event_times","key_event_times","mouse_event_times","straightlining","zigzagging","honeypot","view_history","response_type","key_press","avg_frame_time","center_x","center_y","correct_response","correct","identity","Image","word","condition","task_id","screen_id","time_stamp","person","valence","domain","math","status","duration","question_order"
"1535","
   <p><div style='color:white; font-size: 25px'>您好，欢迎参加本次实验。</div></p>
   <p><div style='color:white; font-size: 25px'>为充分保障您的权利，请确保您已经知晓并同意《参与实验同意书》以及《数据公开知情同意书》。</div></p>
   <p><div style='color:white; font-size: 25px'>如果您未见过上述内容，请咨询实验员。</div></p>
   <p style='color:white; font-size: 25px'>如果您选择继续实验，则表示您已经清楚两份知情同意书的内容并同意。</p>
   <p> <div style = ""color: green""><按空格键至下页></div> </p>
   "," ","html-keyboard-response","0","1537","0.0-0.0","4","3","3","2","3","4","1","2","3","2","4","-1","0","-1","0","-2","-1","0","0","4","5","4","4","4","3","4","3","5","3","6","4","6","4","3","3","3","5","3","4","2","3","3","2","2","5","6","4","2","2","3","4","3","2","3","2","3","3","1","3","2","4","5","5","6","6","6","5","5","6","5","5","4","5","5","3","4","2","7","587598071420944384","李","181","Male","[""好他"",""好我"",""坏他"",""坏我""]","[""强他"",""强我"",""弱他"",""弱我""]","","","","","","","","","","","","","","","","","","","","","","","","","","","","","","","","","","","","","",""
"","","","call-function","1","1537","0.0-1.0-0.0","4","3","3","2","3","4","1","2","3","2","4","-1","0","-1","0","-2","-1","0","0","4","5","4","4","4","3","4","3","5","3","6","4","6","4","3","3","3","5","3","4","2","3","3","2","2","5","6","4","2","2","3","4","3","2","3","2","3","3","1","3","2","4","5","5","6","6","6","5","5","6","5","5","4","5","5","3","4","2","7","587598071420944384","李","181","Male","[""好他"",""好我"",""坏他"",""坏我""]","[""强他"",""强我"",""弱他"",""弱我""]","","","","","","","","","","","","","","","","","","","","","","","","","","","","","","","","","","","","","",""
"10597","","[{""name"":""Sex"",""value"":""0""},{""name"":""friend_name"",""value"":""李""},{""name"":""ParticipantID"",""value"":""181""}]","survey-html-form","2","12134","0.0-1.0-1.0","4","3","3","2","3","4","1","2","3","2","4","-1","0","-1","0","-2","-1","0","0","4","5","4","4","4","3","4","3","5","3","6","4","6","4","3","3","3","5","3","4","2","3","3","2","2","5","6","4","2","2","3","4","3","2","3","2","3","3","1","3","2","4","5","5","6","6","6","5","5","6","5","5","4","5","5","3","4","2","7","587598071420944384","李","181","Male","[""好他"",""好我"",""坏他"",""坏我""]","[""强他"",""强我"",""弱他"",""弱我""]","","","","","","","","","","","","","","","","","","","","","","","","","","","","","","","","","","","","","",""
"","","","preload","3","12441","0.0-2.0","4","3","3","2","3","4","1","2","3","2","4","-1","0","-1","0","-2","-1","0","0","4","5","4","4","4","3","4","3","5","3","6","4","6","4","3","3","3","5","3","4","2","3","3","2","2","5","6","4","2","2","3","4","3","2","3","2","3","3","1","3","2","4","5","5","6","6","6","5","5","6","5","5","4","5","5","3","4","2","7","587598071420944384","李","181","Male","[""好他"",""好我"",""坏他"",""坏我""]","[""强他"",""强我"",""弱他"",""弱我""]","","true","false","[]","[]","[]","","","","","","","","","","","","","","","","","","","","","","","","","","","","","","","",""
"","","","fullscreen","4","17131","0.0-3.0","4","3","3","2","3","4","1","2","3","2","4","-1","0","-1","0","-2","-1","0","0","4","5","4","4","4","3","4","3","5","3","6","4","6","4","3","3","3","5","3","4","2","3","3","2","2","5","6","4","2","2","3","4","3","2","3","2","3","3","1","3","2","4","5","5","6","6","6","5","5","6","5","5","4","5","5","3","4","2","7","587598071420944384","李","181","Male","[""好他"",""好我"",""坏他"",""坏我""]","[""强他"",""强我"",""弱他"",""弱我""]","","true","","","","","{}","","","","","","","","","","","","","","","","","","","","","","","","","","","","","","",""
"9458.300000000745","","{""Q01"":""4"",""Q02"":""3"",""Q03"":""3"",""Q04"":""2"",""Q05"":""3""}","survey-template","5","26591","0.0-4.0","4","3","3","2","3","4","1","2","3","2","4","-1","0","-1","0","-2","-1","0","0","4","5","4","4","4","3","4","3","5","3","6","4","6","4","3","3","3","5","3","4","2","3","3","2","2","5","6","4","2","2","3","4","3","2","3","2","3","3","1","3","2","4","5","5","6","6","6","5","5","6","5","5","4","5","5","3","4","2","7","587598071420944384","李","181","Male","[""好他"",""好我"",""坏他"",""坏我""]","[""强他"",""强我"",""弱他"",""弱我""]","","","","","","","","{""Q01"":""4"",""Q02"":""3"",""Q03"":""3"",""Q04"":""2"",""Q05"":""3""}","[0,1,2,3,4]","[""Q01"",""Q02"",""Q03"",""Q04"",""Q05""]","[1961.6000000014901,4593.700000001118,5225.60000000149,6705.300000000745,8017.700000001118]","[]","[1961.6000000014901,4593.700000001118,5225.60000000149,6705.300000000745,7489.700000001118,7761.4000000003725,8017.700000001118,9457.800000000745]","0.6","0.75","0","","","","","","","","","","","","","","","","","","","","","",""
"22126.099999999627","","{""Q01"":""4"",""Q02"":""1"",""Q03"":""2"",""Q04"":""3"",""Q05"":""2"",""Q06"":""4""}","survey-template","6","48720","0.0-5.0","4","3","3","2","3","4","1","2","3","2","4","-1","0","-1","0","-2","-1","0","0","4","5","4","4","4","3","4","3","5","3","6","4","6","4","3","3","3","5","3","4","2","3","3","2","2","5","6","4","2","2","3","4","3","2","3","2","3","3","1","3","2","4","5","5","6","6","6","5","5","6","5","5","4","5","5","3","4","2","7","587598071420944384","李","181","Male","[""好他"",""好我"",""坏他"",""坏我""]","[""强他"",""强我"",""弱他"",""弱我""]","","","","","","","","{""Q01"":""4"",""Q02"":""1"",""Q03"":""2"",""Q04"":""3"",""Q05"":""2"",""Q06"":""4""}","[0,1,2,3,4,5]","[""Q01"",""Q02"",""Q03"",""Q04"",""Q05"",""Q04"",""Q06""]","[3013.300000000745,5589.200000001118,6413.5,8005.200000001118,13045,13725.300000000745,21173.099999999627]","[]","[3013.300000000745,4677.300000000745,5589.200000001118,6413.5,8005.200000001118,12653.099999999627,13045,13725.300000000745,21173.099999999627,22125.700000001118]","0.5","0.6","0","","","","","","","","","","","","","","","","","","","","","",""
"29982.300000000745","","{""Q01"":""-1"",""Q02"":""0"",""Q03"":""-1"",""Q04"":""0"",""Q05"":""-2"",""Q06"":""-1"",""Q07"":""0"",""Q08"":""0""}","survey-template","7","78704","0.0-6.0","4","3","3","2","3","4","1","2","3","2","4","-1","0","-1","0","-2","-1","0","0","4","5","4","4","4","3","4","3","5","3","6","4","6","4","3","3","3","5","3","4","2","3","3","2","2","5","6","4","2","2","3","4","3","2","3","2","3","3","1","3","2","4","5","5","6","6","6","5","5","6","5","5","4","5","5","3","4","2","7","587598071420944384","李","181","Male","[""好他"",""好我"",""坏他"",""坏我""]","[""强他"",""强我"",""弱他"",""弱我""]","","","","","","","","{""Q01"":""-1"",""Q02"":""0"",""Q03"":""-1"",""Q04"":""0"",""Q05"":""-2"",""Q06"":""-1"",""Q07"":""0"",""Q08"":""0""}","[0,1,2,3,4,5,6,7]","[""Q01"",""Q01"",""Q02"",""Q03"",""Q04"",""Q05"",""Q06"",""Q07"",""Q08"",""Q08"",""Q08""]","[3981.0999999996275,5077.5,7997.699999999255,11533.300000000745,14213.400000000373,15669.199999999255,17837.599999999627,19877.5,23269.5,26237.5,28229.699999999255]","[]","[3981.0999999996275,5077.5,7997.699999999255,11533.300000000745,14213.400000000373,15669.199999999255,17837.599999999627,19877.5,23269.5,24789,26237.5,28229.699999999255,29981.300000000745]","0.5","0.7142857142857143","0","","","","","","","","","","","","","","","","","","","","","",""
"9742","","","instructions","8","88447","0.0-7.0","4","3","3","2","3","4","1","2","3","2","4","-1","0","-1","0","-2","-1","0","0","4","5","4","4","4","3","4","3","5","3","6","4","6","4","3","3","3","5","3","4","2","3","3","2","2","5","6","4","2","2","3","4","3","2","3","2","3","3","1","3","2","4","5","5","6","6","6","5","5","6","5","5","4","5","5","3","4","2","7","587598071420944384","李","181","Male","[""好他"",""好我"",""坏他"",""坏我""]","[""强他"",""强我"",""弱他"",""弱我""]","","","","","","","","","","","","","","","","","[{""page_index"":0,""viewing_time"":9742}]","","","","","","","","","","","","","","","","","","","","",""
"86447","","","instructions","9","174895","0.0-8.0-0.0-0.0","4","3","3","2","3","4","1","2","3","2","4","-1","0","-1","0","-2","-1","0","0","4","5","4","4","4","3","4","3","5","3","6","4","6","4","3","3","3","5","3","4","2","3","3","2","2","5","6","4","2","2","3","4","3","2","3","2","3","3","1","3","2","4","5","5","6","6","6","5","5","6","5","5","4","5","5","3","4","2","7","587598071420944384","李","181","Male","[""好他"",""好我"",""坏他"",""坏我""]","[""强他"",""强我"",""弱他"",""弱我""]","","","","","","","","","","","","","","","","","[{""page_index"":0,""viewing_time"":9959},{""page_index"":1,""viewing_time"":26232},{""page_index"":2,""viewing_time"":2000},{""page_index"":3,""viewing_time"":2912},{""page_index"":2,""viewing_time"":880},{""page_index"":1,""viewing_time"":26856},{""page_index"":2,""viewing_time"":1424},{""page_index"":3,""viewing_time"":16184}]","","","","","","","","","","","","","","","","","","","","",""
"null","","null","psychophysics","10","177104","0.0-8.0-0.0-1.0-0.0-0.0","4","3","3","2","3","4","1","2","3","2","4","-1","0","-1","0","-2","-1","0","0","4","5","4","4","4","3","4","3","5","3","6","4","6","4","3","3","3","5","3","4","2","3","3","2","2","5","6","4","2","2","3","4","3","2","3","2","3","3","1","3","2","4","5","5","6","6","6","5","5","6","5","5","4","5","5","3","4","2","7","587598071420944384","李","181","Male","[""好他"",""好我"",""坏他"",""坏我""]","[""强他"",""强我"",""弱他"",""弱我""]","","","","","","","","null","","","","","","","","","","key","null","6.966455696202513","768","428","f","false","nonmatch","img/square.png","坏我","坏他","prac_ALT2_moral","practice_moral","","","","","","","",""
"null","<span class='add_' style='color:yellow; font-size: 70px;'> 太慢! </span>","null","html-keyboard-response","11","177606","0.0-8.0-0.0-1.0-0.0-1.0","4","3","3","2","3","4","1","2","3","2","4","-1","0","-1","0","-2","-1","0","0","4","5","4","4","4","3","4","3","5","3","6","4","6","4","3","3","3","5","3","4","2","3","3","2","2","5","6","4","2","2","3","4","3","2","3","2","3","3","1","3","2","4","5","5","6","6","6","5","5","6","5","5","4","5","5","3","4","2","7","587598071420944384","李","181","Male","[""好他"",""好我"",""坏他"",""坏我""]","[""强他"",""强我"",""弱他"",""弱我""]","","","","","","","","","","","","","","","","","","","","","","","","","","","","","","feedback_test","","","","","","","",""
"883","","j","psychophysics","12","179493","0.0-8.0-0.0-1.0-0.0-0.1","4","3","3","2","3","4","1","2","3","2","4","-1","0","-1","0","-2","-1","0","0","4","5","4","4","4","3","4","3","5","3","6","4","6","4","3","3","3","5","3","4","2","3","3","2","2","5","6","4","2","2","3","4","3","2","3","2","3","3","1","3","2","4","5","5","6","6","6","5","5","6","5","5","4","5","5","3","4","2","7","587598071420944384","李","181","Male","[""好他"",""好我"",""坏他"",""坏我""]","[""强他"",""强我"",""弱他"",""弱我""]","","","","","","","","match","","","","","","","","","","key","j","6.940837037037084","768","428","j","true","match","img/square.png","坏他","坏他","prac_ALT2_moral","practice_moral","","","","","","","",""
"null","<span style='color:GreenYellow; font-size: 70px;'>正确! </span>","null","html-keyboard-response","13","179994","0.0-8.0-0.0-1.0-0.0-1.1","4","3","3","2","3","4","1","2","3","2","4","-1","0","-1","0","-2","-1","0","0","4","5","4","4","4","3","4","3","5","3","6","4","6","4","3","3","3","5","3","4","2","3","3","2","2","5","6","4","2","2","3","4","3","2","3","2","3","3","1","3","2","4","5","5","6","6","6","5","5","6","5","5","4","5","5","3","4","2","7","587598071420944384","李","181","Male","[""好他"",""好我"",""坏他"",""坏我""]","[""强他"",""强我"",""弱他"",""弱我""]","","","","","","","","","","","","","","","","","","","","","","","","","","","","","","feedback_test","","","","","","","",""
"805","","j","psychophysics","14","181801","0.0-8.0-0.0-1.0-0.0-0.2","4","3","3","2","3","4","1","2","3","2","4","-1","0","-1","0","-2","-1","0","0","4","5","4","4","4","3","4","3","5","3","6","4","6","4","3","3","3","5","3","4","2","3","3","2","2","5","6","4","2","2","3","4","3","2","3","2","3","3","1","3","2","4","5","5","6","6","6","5","5","6","5","5","4","5","5","3","4","2","7","587598071420944384","李","181","Male","[""好他"",""好我"",""坏他"",""坏我""]","[""强他"",""强我"",""弱他"",""弱我""]","","","","","","","","match","","","","","","","","","","key","j","6.950286821705423","768","428","j","true","match","img/hexagon.png","坏我","坏我","prac_ALT2_moral","practice_moral","","","","","","","",""
"null","<span style='color:GreenYellow; font-size: 70px;'>正确! </span>","null","html-keyboard-response","15","182301","0.0-8.0-0.0-1.0-0.0-1.2","4","3","3","2","3","4","1","2","3","2","4","-1","0","-1","0","-2","-1","0","0","4","5","4","4","4","3","4","3","5","3","6","4","6","4","3","3","3","5","3","4","2","3","3","2","2","5","6","4","2","2","3","4","3","2","3","2","3","3","1","3","2","4","5","5","6","6","6","5","5","6","5","5","4","5","5","3","4","2","7","587598071420944384","李","181","Male","[""好他"",""好我"",""坏他"",""坏我""]","[""强他"",""强我"",""弱他"",""弱我""]","","","","","","","","","","","","","","","","","","","","","","","","","","","","","","feedback_test","","","","","","","",""
"972","","f","psychophysics","16","184275","0.0-8.0-0.0-1.0-0.0-0.3","4","3","3","2","3","4","1","2","3","2","4","-1","0","-1","0","-2","-1","0","0","4","5","4","4","4","3","4","3","5","3","6","4","6","4","3","3","3","5","3","4","2","3","3","2","2","5","6","4","2","2","3","4","3","2","3","2","3","3","1","3","2","4","5","5","6","6","6","5","5","6","5","5","4","5","5","3","4","2","7","587598071420944384","李","181","Male","[""好他"",""好我"",""坏他"",""坏我""]","[""强他"",""强我"",""弱他"",""弱我""]","","","","","","","","nonmatch","","","","","","","","","","key","f","6.932265017667762","768","428","f","true","nonmatch","img/ellipse.png","坏我","好他","prac_ALT2_moral","practice_moral","","","","","","","",""
"null","<span style='color:GreenYellow; font-size: 70px;'>正确! </span>","null","html-keyboard-response","17","184776","0.0-8.0-0.0-1.0-0.0-1.3","4","3","3","2","3","4","1","2","3","2","4","-1","0","-1","0","-2","-1","0","0","4","5","4","4","4","3","4","3","5","3","6","4","6","4","3","3","3","5","3","4","2","3","3","2","2","5","6","4","2","2","3","4","3","2","3","2","3","3","1","3","2","4","5","5","6","6","6","5","5","6","5","5","4","5","5","3","4","2","7","587598071420944384","李","181","Male","[""好他"",""好我"",""坏他"",""坏我""]","[""强他"",""强我"",""弱他"",""弱我""]","","","","","","","","","","","","","","","","","","","","","","","","","","","","","","feedback_test","","","","","","","",""
"743","","j","psychophysics","18","186523","0.0-8.0-0.0-1.0-0.0-0.4","4","3","3","2","3","4","1","2","3","2","4","-1","0","-1","0","-2","-1","0","0","4","5","4","4","4","3","4","3","5","3","6","4","6","4","3","3","3","5","3","4","2","3","3","2","2","5","6","4","2","2","3","4","3","2","3","2","3","3","1","3","2","4","5","5","6","6","6","5","5","6","5","5","4","5","5","3","4","2","7","587598071420944384","李","181","Male","[""好他"",""好我"",""坏他"",""坏我""]","[""强他"",""强我"",""弱他"",""弱我""]","","","","","","","","match","","","","","","","","","","key","j","6.938792000000015","768","428","f","false","nonmatch","img/square.png","好他","坏他","prac_ALT2_moral","practice_moral","","","","","","","",""
"null","<span style='color:red; font-size: 70px;'>错误! </span>","null","html-keyboard-response","19","187025","0.0-8.0-0.0-1.0-0.0-1.4","4","3","3","2","3","4","1","2","3","2","4","-1","0","-1","0","-2","-1","0","0","4","5","4","4","4","3","4","3","5","3","6","4","6","4","3","3","3","5","3","4","2","3","3","2","2","5","6","4","2","2","3","4","3","2","3","2","3","3","1","3","2","4","5","5","6","6","6","5","5","6","5","5","4","5","5","3","4","2","7","587598071420944384","李","181","Male","[""好他"",""好我"",""坏他"",""坏我""]","[""强他"",""强我"",""弱他"",""弱我""]","","","","","","","","","","","","","","","","","","","","","","","","","","","","","","feedback_test","","","","","","","",""
"null","","null","psychophysics","20","189229","0.0-8.0-0.0-1.0-0.0-0.5","4","3","3","2","3","4","1","2","3","2","4","-1","0","-1","0","-2","-1","0","0","4","5","4","4","4","3","4","3","5","3","6","4","6","4","3","3","3","5","3","4","2","3","3","2","2","5","6","4","2","2","3","4","3","2","3","2","3","3","1","3","2","4","5","5","6","6","6","5","5","6","5","5","4","5","5","3","4","2","7","587598071420944384","李","181","Male","[""好他"",""好我"",""坏他"",""坏我""]","[""强他"",""强我"",""弱他"",""弱我""]","","","","","","","","null","","","","","","","","","","key","null","6.939284810126532","768","428","j","false","match","img/diamond.png","好我","好我","prac_ALT2_moral","practice_moral","","","","","","","",""
"null","<span class='add_' style='color:yellow; font-size: 70px;'> 太慢! </span>","null","html-keyboard-response","21","189731","0.0-8.0-0.0-1.0-0.0-1.5","4","3","3","2","3","4","1","2","3","2","4","-1","0","-1","0","-2","-1","0","0","4","5","4","4","4","3","4","3","5","3","6","4","6","4","3","3","3","5","3","4","2","3","3","2","2","5","6","4","2","2","3","4","3","2","3","2","3","3","1","3","2","4","5","5","6","6","6","5","5","6","5","5","4","5","5","3","4","2","7","587598071420944384","李","181","Male","[""好他"",""好我"",""坏他"",""坏我""]","[""强他"",""强我"",""弱他"",""弱我""]","","","","","","","","","","","","","","","","","","","","","","","","","","","","","","feedback_test","","","","","","","",""
"750","","j","psychophysics","22","191484","0.0-8.0-0.0-1.0-0.0-0.6","4","3","3","2","3","4","1","2","3","2","4","-1","0","-1","0","-2","-1","0","0","4","5","4","4","4","3","4","3","5","3","6","4","6","4","3","3","3","5","3","4","2","3","3","2","2","5","6","4","2","2","3","4","3","2","3","2","3","3","1","3","2","4","5","5","6","6","6","5","5","6","5","5","4","5","5","3","4","2","7","587598071420944384","李","181","Male","[""好他"",""好我"",""坏他"",""坏我""]","[""强他"",""强我"",""弱他"",""弱我""]","","","","","","","","match","","","","","","","","","","key","j","6.935223107569757","768","428","j","true","match","img/ellipse.png","好他","好他","prac_ALT2_moral","practice_moral","","","","","","","",""
"null","<span style='color:GreenYellow; font-size: 70px;'>正确! </span>","null","html-keyboard-response","23","191985","0.0-8.0-0.0-1.0-0.0-1.6","4","3","3","2","3","4","1","2","3","2","4","-1","0","-1","0","-2","-1","0","0","4","5","4","4","4","3","4","3","5","3","6","4","6","4","3","3","3","5","3","4","2","3","3","2","2","5","6","4","2","2","3","4","3","2","3","2","3","3","1","3","2","4","5","5","6","6","6","5","5","6","5","5","4","5","5","3","4","2","7","587598071420944384","李","181","Male","[""好他"",""好我"",""坏他"",""坏我""]","[""强他"",""强我"",""弱他"",""弱我""]","","","","","","","","","","","","","","","","","","","","","","","","","","","","","","feedback_test","","","","","","","",""
"965","","j","psychophysics","24","193954","0.0-8.0-0.0-1.0-0.0-0.7","4","3","3","2","3","4","1","2","3","2","4","-1","0","-1","0","-2","-1","0","0","4","5","4","4","4","3","4","3","5","3","6","4","6","4","3","3","3","5","3","4","2","3","3","2","2","5","6","4","2","2","3","4","3","2","3","2","3","3","1","3","2","4","5","5","6","6","6","5","5","6","5","5","4","5","5","3","4","2","7","587598071420944384","李","181","Male","[""好他"",""好我"",""坏他"",""坏我""]","[""强他"",""强我"",""弱他"",""弱我""]","","","","","","","","match","","","","","","","","","","key","j","6.937744680851023","768","428","j","true","match","img/diamond.png","好我","好我","prac_ALT2_moral","practice_moral","","","","","","","",""
"null","<span style='color:GreenYellow; font-size: 70px;'>正确! </span>","null","html-keyboard-response","25","194455","0.0-8.0-0.0-1.0-0.0-1.7","4","3","3","2","3","4","1","2","3","2","4","-1","0","-1","0","-2","-1","0","0","4","5","4","4","4","3","4","3","5","3","6","4","6","4","3","3","3","5","3","4","2","3","3","2","2","5","6","4","2","2","3","4","3","2","3","2","3","3","1","3","2","4","5","5","6","6","6","5","5","6","5","5","4","5","5","3","4","2","7","587598071420944384","李","181","Male","[""好他"",""好我"",""坏他"",""坏我""]","[""强他"",""强我"",""弱他"",""弱我""]","","","","","","","","","","","","","","","","","","","","","","","","","","","","","","feedback_test","","","","","","","",""
"938","","f","psychophysics","26","196397","0.0-8.0-0.0-1.0-0.0-0.8","4","3","3","2","3","4","1","2","3","2","4","-1","0","-1","0","-2","-1","0","0","4","5","4","4","4","3","4","3","5","3","6","4","6","4","3","3","3","5","3","4","2","3","3","2","2","5","6","4","2","2","3","4","3","2","3","2","3","3","1","3","2","4","5","5","6","6","6","5","5","6","5","5","4","5","5","3","4","2","7","587598071420944384","李","181","Male","[""好他"",""好我"",""坏他"",""坏我""]","[""强他"",""强我"",""弱他"",""弱我""]","","","","","","","","nonmatch","","","","","","","","","","key","f","6.938298561151111","768","428","f","true","nonmatch","img/hexagon.png","好我","坏我","prac_ALT2_moral","practice_moral","","","","","","","",""
"null","<span style='color:GreenYellow; font-size: 70px;'>正确! </span>","null","html-keyboard-response","27","196897","0.0-8.0-0.0-1.0-0.0-1.8","4","3","3","2","3","4","1","2","3","2","4","-1","0","-1","0","-2","-1","0","0","4","5","4","4","4","3","4","3","5","3","6","4","6","4","3","3","3","5","3","4","2","3","3","2","2","5","6","4","2","2","3","4","3","2","3","2","3","3","1","3","2","4","5","5","6","6","6","5","5","6","5","5","4","5","5","3","4","2","7","587598071420944384","李","181","Male","[""好他"",""好我"",""坏他"",""坏我""]","[""强他"",""强我"",""弱他"",""弱我""]","","","","","","","","","","","","","","","","","","","","","","","","","","","","","","feedback_test","","","","","","","",""
"810","","j","psychophysics","28","198709","0.0-8.0-0.0-1.0-0.0-0.9","4","3","3","2","3","4","1","2","3","2","4","-1","0","-1","0","-2","-1","0","0","4","5","4","4","4","3","4","3","5","3","6","4","6","4","3","3","3","5","3","4","2","3","3","2","2","5","6","4","2","2","3","4","3","2","3","2","3","3","1","3","2","4","5","5","6","6","6","5","5","6","5","5","4","5","5","3","4","2","7","587598071420944384","李","181","Male","[""好他"",""好我"",""坏他"",""坏我""]","[""强他"",""强我"",""弱他"",""弱我""]","","","","","","","","match","","","","","","","","","","key","j","6.939384615384579","768","428","j","true","match","img/ellipse.png","好他","好他","prac_ALT2_moral","practice_moral","","","","","","","",""
"null","<span style='color:GreenYellow; font-size: 70px;'>正确! </span>","null","html-keyboard-response","29","199211","0.0-8.0-0.0-1.0-0.0-1.9","4","3","3","2","3","4","1","2","3","2","4","-1","0","-1","0","-2","-1","0","0","4","5","4","4","4","3","4","3","5","3","6","4","6","4","3","3","3","5","3","4","2","3","3","2","2","5","6","4","2","2","3","4","3","2","3","2","3","3","1","3","2","4","5","5","6","6","6","5","5","6","5","5","4","5","5","3","4","2","7","587598071420944384","李","181","Male","[""好他"",""好我"",""坏他"",""坏我""]","[""强他"",""强我"",""弱他"",""弱我""]","","","","","","","","","","","","","","","","","","","","","","","","","","","","","","feedback_test","","","","","","","",""
"572","","j","psychophysics","30","200785","0.0-8.0-0.0-1.0-0.0-0.10","4","3","3","2","3","4","1","2","3","2","4","-1","0","-1","0","-2","-1","0","0","4","5","4","4","4","3","4","3","5","3","6","4","6","4","3","3","3","5","3","4","2","3","3","2","2","5","6","4","2","2","3","4","3","2","3","2","3","3","1","3","2","4","5","5","6","6","6","5","5","6","5","5","4","5","5","3","4","2","7","587598071420944384","李","181","Male","[""好他"",""好我"",""坏他"",""坏我""]","[""强他"",""强我"",""弱他"",""弱我""]","","","","","","","","match","","","","","","","","","","key","j","6.966705357142928","768","428","j","true","match","img/ellipse.png","好他","好他","prac_ALT2_moral","practice_moral","","","","","","","",""
"null","<span style='color:GreenYellow; font-size: 70px;'>正确! </span>","null","html-keyboard-response","31","201287","0.0-8.0-0.0-1.0-0.0-1.10","4","3","3","2","3","4","1","2","3","2","4","-1","0","-1","0","-2","-1","0","0","4","5","4","4","4","3","4","3","5","3","6","4","6","4","3","3","3","5","3","4","2","3","3","2","2","5","6","4","2","2","3","4","3","2","3","2","3","3","1","3","2","4","5","5","6","6","6","5","5","6","5","5","4","5","5","3","4","2","7","587598071420944384","李","181","Male","[""好他"",""好我"",""坏他"",""坏我""]","[""强他"",""强我"",""弱他"",""弱我""]","","","","","","","","","","","","","","","","","","","","","","","","","","","","","","feedback_test","","","","","","","",""
"998","","j","psychophysics","32","203285","0.0-8.0-0.0-1.0-0.0-0.11","4","3","3","2","3","4","1","2","3","2","4","-1","0","-1","0","-2","-1","0","0","4","5","4","4","4","3","4","3","5","3","6","4","6","4","3","3","3","5","3","4","2","3","3","2","2","5","6","4","2","2","3","4","3","2","3","2","3","3","1","3","2","4","5","5","6","6","6","5","5","6","5","5","4","5","5","3","4","2","7","587598071420944384","李","181","Male","[""好他"",""好我"",""坏他"",""坏我""]","[""强他"",""强我"",""弱他"",""弱我""]","","","","","","","","match","","","","","","","","","","key","j","6.93220905923343","768","428","j","true","match","img/hexagon.png","坏我","坏我","prac_ALT2_moral","practice_moral","","","","","","","",""
"null","<span style='color:GreenYellow; font-size: 70px;'>正确! </span>","null","html-keyboard-response","33","203787","0.0-8.0-0.0-1.0-0.0-1.11","4","3","3","2","3","4","1","2","3","2","4","-1","0","-1","0","-2","-1","0","0","4","5","4","4","4","3","4","3","5","3","6","4","6","4","3","3","3","5","3","4","2","3","3","2","2","5","6","4","2","2","3","4","3","2","3","2","3","3","1","3","2","4","5","5","6","6","6","5","5","6","5","5","4","5","5","3","4","2","7","587598071420944384","李","181","Male","[""好他"",""好我"",""坏他"",""坏我""]","[""强他"",""强我"",""弱他"",""弱我""]","","","","","","","","","","","","","","","","","","","","","","","","","","","","","","feedback_test","","","","","","","",""
"782","","j","psychophysics","34","205570","0.0-8.0-0.0-1.0-0.0-0.12","4","3","3","2","3","4","1","2","3","2","4","-1","0","-1","0","-2","-1","0","0","4","5","4","4","4","3","4","3","5","3","6","4","6","4","3","3","3","5","3","4","2","3","3","2","2","5","6","4","2","2","3","4","3","2","3","2","3","3","1","3","2","4","5","5","6","6","6","5","5","6","5","5","4","5","5","3","4","2","7","587598071420944384","李","181","Male","[""好他"",""好我"",""坏他"",""坏我""]","[""强他"",""强我"",""弱他"",""弱我""]","","","","","","","","match","","","","","","","","","","key","j","6.943015686274556","768","428","j","true","match","img/square.png","坏他","坏他","prac_ALT2_moral","practice_moral","","","","","","","",""
"null","<span style='color:GreenYellow; font-size: 70px;'>正确! </span>","null","html-keyboard-response","35","206072","0.0-8.0-0.0-1.0-0.0-1.12","4","3","3","2","3","4","1","2","3","2","4","-1","0","-1","0","-2","-1","0","0","4","5","4","4","4","3","4","3","5","3","6","4","6","4","3","3","3","5","3","4","2","3","3","2","2","5","6","4","2","2","3","4","3","2","3","2","3","3","1","3","2","4","5","5","6","6","6","5","5","6","5","5","4","5","5","3","4","2","7","587598071420944384","李","181","Male","[""好他"",""好我"",""坏他"",""坏我""]","[""强他"",""强我"",""弱他"",""弱我""]","","","","","","","","","","","","","","","","","","","","","","","","","","","","","","feedback_test","","","","","","","",""
"784","","f","psychophysics","36","207857","0.0-8.0-0.0-1.0-0.0-0.13","4","3","3","2","3","4","1","2","3","2","4","-1","0","-1","0","-2","-1","0","0","4","5","4","4","4","3","4","3","5","3","6","4","6","4","3","3","3","5","3","4","2","3","3","2","2","5","6","4","2","2","3","4","3","2","3","2","3","3","1","3","2","4","5","5","6","6","6","5","5","6","5","5","4","5","5","3","4","2","7","587598071420944384","李","181","Male","[""好他"",""好我"",""坏他"",""坏我""]","[""强他"",""强我"",""弱他"",""弱我""]","","","","","","","","nonmatch","","","","","","","","","","key","f","6.9521254901960265","768","428","f","true","nonmatch","img/diamond.png","坏我","好我","prac_ALT2_moral","practice_moral","","","","","","","",""
"null","<span style='color:GreenYellow; font-size: 70px;'>正确! </span>","null","html-keyboard-response","37","208359","0.0-8.0-0.0-1.0-0.0-1.13","4","3","3","2","3","4","1","2","3","2","4","-1","0","-1","0","-2","-1","0","0","4","5","4","4","4","3","4","3","5","3","6","4","6","4","3","3","3","5","3","4","2","3","3","2","2","5","6","4","2","2","3","4","3","2","3","2","3","3","1","3","2","4","5","5","6","6","6","5","5","6","5","5","4","5","5","3","4","2","7","587598071420944384","李","181","Male","[""好他"",""好我"",""坏他"",""坏我""]","[""强他"",""强我"",""弱他"",""弱我""]","","","","","","","","","","","","","","","","","","","","","","","","","","","","","","feedback_test","","","","","","","",""
"681","","j","psychophysics","38","210041","0.0-8.0-0.0-1.0-0.0-0.14","4","3","3","2","3","4","1","2","3","2","4","-1","0","-1","0","-2","-1","0","0","4","5","4","4","4","3","4","3","5","3","6","4","6","4","3","3","3","5","3","4","2","3","3","2","2","5","6","4","2","2","3","4","3","2","3","2","3","3","1","3","2","4","5","5","6","6","6","5","5","6","5","5","4","5","5","3","4","2","7","587598071420944384","李","181","Male","[""好他"",""好我"",""坏他"",""坏我""]","[""强他"",""强我"",""弱他"",""弱我""]","","","","","","","","match","","","","","","","","","","key","j","6.949162499999996","768","428","f","false","nonmatch","img/hexagon.png","坏他","坏我","prac_ALT2_moral","practice_moral","","","","","","","",""
"null","<span style='color:red; font-size: 70px;'>错误! </span>","null","html-keyboard-response","39","210543","0.0-8.0-0.0-1.0-0.0-1.14","4","3","3","2","3","4","1","2","3","2","4","-1","0","-1","0","-2","-1","0","0","4","5","4","4","4","3","4","3","5","3","6","4","6","4","3","3","3","5","3","4","2","3","3","2","2","5","6","4","2","2","3","4","3","2","3","2","3","3","1","3","2","4","5","5","6","6","6","5","5","6","5","5","4","5","5","3","4","2","7","587598071420944384","李","181","Male","[""好他"",""好我"",""坏他"",""坏我""]","[""强他"",""强我"",""弱他"",""弱我""]","","","","","","","","","","","","","","","","","","","","","","","","","","","","","","feedback_test","","","","","","","",""
"1169","","f","psychophysics","40","212713","0.0-8.0-0.0-1.0-0.0-0.15","4","3","3","2","3","4","1","2","3","2","4","-1","0","-1","0","-2","-1","0","0","4","5","4","4","4","3","4","3","5","3","6","4","6","4","3","3","3","5","3","4","2","3","3","2","2","5","6","4","2","2","3","4","3","2","3","2","3","3","1","3","2","4","5","5","6","6","6","5","5","6","5","5","4","5","5","3","4","2","7","587598071420944384","李","181","Male","[""好他"",""好我"",""坏他"",""坏我""]","[""强他"",""强我"",""弱他"",""弱我""]","","","","","","","","nonmatch","","","","","","","","","","key","f","6.944498392282963","768","428","f","true","nonmatch","img/hexagon.png","好他","坏我","prac_ALT2_moral","practice_moral","","","","","","","",""
"null","<span style='color:GreenYellow; font-size: 70px;'>正确! </span>","null","html-keyboard-response","41","213214","0.0-8.0-0.0-1.0-0.0-1.15","4","3","3","2","3","4","1","2","3","2","4","-1","0","-1","0","-2","-1","0","0","4","5","4","4","4","3","4","3","5","3","6","4","6","4","3","3","3","5","3","4","2","3","3","2","2","5","6","4","2","2","3","4","3","2","3","2","3","3","1","3","2","4","5","5","6","6","6","5","5","6","5","5","4","5","5","3","4","2","7","587598071420944384","李","181","Male","[""好他"",""好我"",""坏他"",""坏我""]","[""强他"",""强我"",""弱他"",""弱我""]","","","","","","","","","","","","","","","","","","","","","","","","","","","","","","feedback_test","","","","","","","",""
"738","","f","psychophysics","42","214953","0.0-8.0-0.0-1.0-0.0-0.16","4","3","3","2","3","4","1","2","3","2","4","-1","0","-1","0","-2","-1","0","0","4","5","4","4","4","3","4","3","5","3","6","4","6","4","3","3","3","5","3","4","2","3","3","2","2","5","6","4","2","2","3","4","3","2","3","2","3","3","1","3","2","4","5","5","6","6","6","5","5","6","5","5","4","5","5","3","4","2","7","587598071420944384","李","181","Male","[""好他"",""好我"",""坏他"",""坏我""]","[""强他"",""强我"",""弱他"",""弱我""]","","","","","","","","nonmatch","","","","","","","","","","key","f","6.955939516129048","768","428","f","true","nonmatch","img/ellipse.png","好我","好他","prac_ALT2_moral","practice_moral","","","","","","","",""
"null","<span style='color:GreenYellow; font-size: 70px;'>正确! </span>","null","html-keyboard-response","43","215455","0.0-8.0-0.0-1.0-0.0-1.16","4","3","3","2","3","4","1","2","3","2","4","-1","0","-1","0","-2","-1","0","0","4","5","4","4","4","3","4","3","5","3","6","4","6","4","3","3","3","5","3","4","2","3","3","2","2","5","6","4","2","2","3","4","3","2","3","2","3","3","1","3","2","4","5","5","6","6","6","5","5","6","5","5","4","5","5","3","4","2","7","587598071420944384","李","181","Male","[""好他"",""好我"",""坏他"",""坏我""]","[""强他"",""强我"",""弱他"",""弱我""]","","","","","","","","","","","","","","","","","","","","","","","","","","","","","","feedback_test","","","","","","","",""
"870","","f","psychophysics","44","217330","0.0-8.0-0.0-1.0-0.0-0.17","4","3","3","2","3","4","1","2","3","2","4","-1","0","-1","0","-2","-1","0","0","4","5","4","4","4","3","4","3","5","3","6","4","6","4","3","3","3","5","3","4","2","3","3","2","2","5","6","4","2","2","3","4","3","2","3","2","3","3","1","3","2","4","5","5","6","6","6","5","5","6","5","5","4","5","5","3","4","2","7","587598071420944384","李","181","Male","[""好他"",""好我"",""坏他"",""坏我""]","[""强他"",""强我"",""弱他"",""弱我""]","","","","","","","","nonmatch","","","","","","","","","","key","f","6.953947761194014","768","428","f","true","nonmatch","img/diamond.png","坏他","好我","prac_ALT2_moral","practice_moral","","","","","","","",""
"null","<span style='color:GreenYellow; font-size: 70px;'>正确! </span>","null","html-keyboard-response","45","217831","0.0-8.0-0.0-1.0-0.0-1.17","4","3","3","2","3","4","1","2","3","2","4","-1","0","-1","0","-2","-1","0","0","4","5","4","4","4","3","4","3","5","3","6","4","6","4","3","3","3","5","3","4","2","3","3","2","2","5","6","4","2","2","3","4","3","2","3","2","3","3","1","3","2","4","5","5","6","6","6","5","5","6","5","5","4","5","5","3","4","2","7","587598071420944384","李","181","Male","[""好他"",""好我"",""坏他"",""坏我""]","[""强他"",""强我"",""弱他"",""弱我""]","","","","","","","","","","","","","","","","","","","","","","","","","","","","","","feedback_test","","","","","","","",""
"723","","j","psychophysics","46","219554","0.0-8.0-0.0-1.0-0.0-0.18","4","3","3","2","3","4","1","2","3","2","4","-1","0","-1","0","-2","-1","0","0","4","5","4","4","4","3","4","3","5","3","6","4","6","4","3","3","3","5","3","4","2","3","3","2","2","5","6","4","2","2","3","4","3","2","3","2","3","3","1","3","2","4","5","5","6","6","6","5","5","6","5","5","4","5","5","3","4","2","7","587598071420944384","李","181","Male","[""好他"",""好我"",""坏他"",""坏我""]","[""强他"",""强我"",""弱他"",""弱我""]","","","","","","","","match","","","","","","","","","","key","j","6.931850202429096","768","428","f","false","nonmatch","img/ellipse.png","坏他","好他","prac_ALT2_moral","practice_moral","","","","","","","",""
"null","<span style='color:red; font-size: 70px;'>错误! </span>","null","html-keyboard-response","47","220057","0.0-8.0-0.0-1.0-0.0-1.18","4","3","3","2","3","4","1","2","3","2","4","-1","0","-1","0","-2","-1","0","0","4","5","4","4","4","3","4","3","5","3","6","4","6","4","3","3","3","5","3","4","2","3","3","2","2","5","6","4","2","2","3","4","3","2","3","2","3","3","1","3","2","4","5","5","6","6","6","5","5","6","5","5","4","5","5","3","4","2","7","587598071420944384","李","181","Male","[""好他"",""好我"",""坏他"",""坏我""]","[""强他"",""强我"",""弱他"",""弱我""]","","","","","","","","","","","","","","","","","","","","","","","","","","","","","","feedback_test","","","","","","","",""
"895","","j","psychophysics","48","221954","0.0-8.0-0.0-1.0-0.0-0.19","4","3","3","2","3","4","1","2","3","2","4","-1","0","-1","0","-2","-1","0","0","4","5","4","4","4","3","4","3","5","3","6","4","6","4","3","3","3","5","3","4","2","3","3","2","2","5","6","4","2","2","3","4","3","2","3","2","3","3","1","3","2","4","5","5","6","6","6","5","5","6","5","5","4","5","5","3","4","2","7","587598071420944384","李","181","Male","[""好他"",""好我"",""坏他"",""坏我""]","[""强他"",""强我"",""弱他"",""弱我""]","","","","","","","","match","","","","","","","","","","key","j","6.931672794117677","768","428","j","true","match","img/diamond.png","好我","好我","prac_ALT2_moral","practice_moral","","","","","","","",""
"null","<span style='color:GreenYellow; font-size: 70px;'>正确! </span>","null","html-keyboard-response","49","222454","0.0-8.0-0.0-1.0-0.0-1.19","4","3","3","2","3","4","1","2","3","2","4","-1","0","-1","0","-2","-1","0","0","4","5","4","4","4","3","4","3","5","3","6","4","6","4","3","3","3","5","3","4","2","3","3","2","2","5","6","4","2","2","3","4","3","2","3","2","3","3","1","3","2","4","5","5","6","6","6","5","5","6","5","5","4","5","5","3","4","2","7","587598071420944384","李","181","Male","[""好他"",""好我"",""坏他"",""坏我""]","[""强他"",""强我"",""弱他"",""弱我""]","","","","","","","","","","","","","","","","","","","","","","","","","","","","","","feedback_test","","","","","","","",""
"930","","j","psychophysics","50","224386","0.0-8.0-0.0-1.0-0.0-0.20","4","3","3","2","3","4","1","2","3","2","4","-1","0","-1","0","-2","-1","0","0","4","5","4","4","4","3","4","3","5","3","6","4","6","4","3","3","3","5","3","4","2","3","3","2","2","5","6","4","2","2","3","4","3","2","3","2","3","3","1","3","2","4","5","5","6","6","6","5","5","6","5","5","4","5","5","3","4","2","7","587598071420944384","李","181","Male","[""好他"",""好我"",""坏他"",""坏我""]","[""强他"",""强我"",""弱他"",""弱我""]","","","","","","","","match","","","","","","","","","","key","j","6.953807971014454","768","428","j","true","match","img/square.png","坏他","坏他","prac_ALT2_moral","practice_moral","","","","","","","",""
"null","<span style='color:GreenYellow; font-size: 70px;'>正确! </span>","null","html-keyboard-response","51","224887","0.0-8.0-0.0-1.0-0.0-1.20","4","3","3","2","3","4","1","2","3","2","4","-1","0","-1","0","-2","-1","0","0","4","5","4","4","4","3","4","3","5","3","6","4","6","4","3","3","3","5","3","4","2","3","3","2","2","5","6","4","2","2","3","4","3","2","3","2","3","3","1","3","2","4","5","5","6","6","6","5","5","6","5","5","4","5","5","3","4","2","7","587598071420944384","李","181","Male","[""好他"",""好我"",""坏他"",""坏我""]","[""强他"",""强我"",""弱他"",""弱我""]","","","","","","","","","","","","","","","","","","","","","","","","","","","","","","feedback_test","","","","","","","",""
"743","","j","psychophysics","52","226634","0.0-8.0-0.0-1.0-0.0-0.21","4","3","3","2","3","4","1","2","3","2","4","-1","0","-1","0","-2","-1","0","0","4","5","4","4","4","3","4","3","5","3","6","4","6","4","3","3","3","5","3","4","2","3","3","2","2","5","6","4","2","2","3","4","3","2","3","2","3","3","1","3","2","4","5","5","6","6","6","5","5","6","5","5","4","5","5","3","4","2","7","587598071420944384","李","181","Male","[""好他"",""好我"",""坏他"",""坏我""]","[""强他"",""强我"",""弱他"",""弱我""]","","","","","","","","match","","","","","","","","","","key","j","6.933452000000049","768","428","f","false","nonmatch","img/square.png","好我","坏他","prac_ALT2_moral","practice_moral","","","","","","","",""
"null","<span style='color:red; font-size: 70px;'>错误! </span>","null","html-keyboard-response","53","227135","0.0-8.0-0.0-1.0-0.0-1.21","4","3","3","2","3","4","1","2","3","2","4","-1","0","-1","0","-2","-1","0","0","4","5","4","4","4","3","4","3","5","3","6","4","6","4","3","3","3","5","3","4","2","3","3","2","2","5","6","4","2","2","3","4","3","2","3","2","3","3","1","3","2","4","5","5","6","6","6","5","5","6","5","5","4","5","5","3","4","2","7","587598071420944384","李","181","Male","[""好他"",""好我"",""坏他"",""坏我""]","[""强他"",""强我"",""弱他"",""弱我""]","","","","","","","","","","","","","","","","","","","","","","","","","","","","","","feedback_test","","","","","","","",""
"1098","","f","psychophysics","54","229234","0.0-8.0-0.0-1.0-0.0-0.22","4","3","3","2","3","4","1","2","3","2","4","-1","0","-1","0","-2","-1","0","0","4","5","4","4","4","3","4","3","5","3","6","4","6","4","3","3","3","5","3","4","2","3","3","2","2","5","6","4","2","2","3","4","3","2","3","2","3","3","1","3","2","4","5","5","6","6","6","5","5","6","5","5","4","5","5","3","4","2","7","587598071420944384","李","181","Male","[""好他"",""好我"",""坏他"",""坏我""]","[""强他"",""强我"",""弱他"",""弱我""]","","","","","","","","nonmatch","","","","","","","","","","key","f","6.950293333333296","768","428","f","true","nonmatch","img/diamond.png","好他","好我","prac_ALT2_moral","practice_moral","","","","","","","",""
"null","<span style='color:GreenYellow; font-size: 70px;'>正确! </span>","null","html-keyboard-response","55","229735","0.0-8.0-0.0-1.0-0.0-1.22","4","3","3","2","3","4","1","2","3","2","4","-1","0","-1","0","-2","-1","0","0","4","5","4","4","4","3","4","3","5","3","6","4","6","4","3","3","3","5","3","4","2","3","3","2","2","5","6","4","2","2","3","4","3","2","3","2","3","3","1","3","2","4","5","5","6","6","6","5","5","6","5","5","4","5","5","3","4","2","7","587598071420944384","李","181","Male","[""好他"",""好我"",""坏他"",""坏我""]","[""强他"",""强我"",""弱他"",""弱我""]","","","","","","","","","","","","","","","","","","","","","","","","","","","","","","feedback_test","","","","","","","",""
"901","","j","psychophysics","56","231637","0.0-8.0-0.0-1.0-0.0-0.23","4","3","3","2","3","4","1","2","3","2","4","-1","0","-1","0","-2","-1","0","0","4","5","4","4","4","3","4","3","5","3","6","4","6","4","3","3","3","5","3","4","2","3","3","2","2","5","6","4","2","2","3","4","3","2","3","2","3","3","1","3","2","4","5","5","6","6","6","5","5","6","5","5","4","5","5","3","4","2","7","587598071420944384","李","181","Male","[""好他"",""好我"",""坏他"",""坏我""]","[""强他"",""强我"",""弱他"",""弱我""]","","","","","","","","match","","","","","","","","","","key","j","6.9524669117646924","768","428","j","true","match","img/hexagon.png","坏我","坏我","prac_ALT2_moral","practice_moral","","","","","","","",""
"null","<span style='color:GreenYellow; font-size: 70px;'>正确! </span>","null","html-keyboard-response","57","232138","0.0-8.0-0.0-1.0-0.0-1.23","4","3","3","2","3","4","1","2","3","2","4","-1","0","-1","0","-2","-1","0","0","4","5","4","4","4","3","4","3","5","3","6","4","6","4","3","3","3","5","3","4","2","3","3","2","2","5","6","4","2","2","3","4","3","2","3","2","3","3","1","3","2","4","5","5","6","6","6","5","5","6","5","5","4","5","5","3","4","2","7","587598071420944384","李","181","Male","[""好他"",""好我"",""坏他"",""坏我""]","[""强他"",""强我"",""弱他"",""弱我""]","","","","","","","","","","","","","","","","","","","","","","","","","","","","","","feedback_test","","","","","","","",""
"821","","f","psychophysics","58","233961","0.0-8.0-0.0-1.0-0.0-0.24","4","3","3","2","3","4","1","2","3","2","4","-1","0","-1","0","-2","-1","0","0","4","5","4","4","4","3","4","3","5","3","6","4","6","4","3","3","3","5","3","4","2","3","3","2","2","5","6","4","2","2","3","4","3","2","3","2","3","3","1","3","2","4","5","5","6","6","6","5","5","6","5","5","4","5","5","3","4","2","7","587598071420944384","李","181","Male","[""好他"",""好我"",""坏他"",""坏我""]","[""强他"",""强我"",""弱他"",""弱我""]","","","","","","","","nonmatch","","","","","","","","","","key","f","6.956076923076986","768","428","f","true","nonmatch","img/diamond.png","坏他","好我","prac_ALT2_moral","practice_moral","","","","","","","",""
"null","<span style='color:GreenYellow; font-size: 70px;'>正确! </span>","null","html-keyboard-response","59","234463","0.0-8.0-0.0-1.0-0.0-1.24","4","3","3","2","3","4","1","2","3","2","4","-1","0","-1","0","-2","-1","0","0","4","5","4","4","4","3","4","3","5","3","6","4","6","4","3","3","3","5","3","4","2","3","3","2","2","5","6","4","2","2","3","4","3","2","3","2","3","3","1","3","2","4","5","5","6","6","6","5","5","6","5","5","4","5","5","3","4","2","7","587598071420944384","李","181","Male","[""好他"",""好我"",""坏他"",""坏我""]","[""强他"",""强我"",""弱他"",""弱我""]","","","","","","","","","","","","","","","","","","","","","","","","","","","","","","feedback_test","","","","","","","",""
"890","","j","psychophysics","60","236354","0.0-8.0-0.0-1.0-0.0-0.25","4","3","3","2","3","4","1","2","3","2","4","-1","0","-1","0","-2","-1","0","0","4","5","4","4","4","3","4","3","5","3","6","4","6","4","3","3","3","5","3","4","2","3","3","2","2","5","6","4","2","2","3","4","3","2","3","2","3","3","1","3","2","4","5","5","6","6","6","5","5","6","5","5","4","5","5","3","4","2","7","587598071420944384","李","181","Male","[""好他"",""好我"",""坏他"",""坏我""]","[""强他"",""强我"",""弱他"",""弱我""]","","","","","","","","match","","","","","","","","","","key","j","6.932597785977848","768","428","j","true","match","img/hexagon.png","坏我","坏我","prac_ALT2_moral","practice_moral","","","","","","","",""
"null","<span style='color:GreenYellow; font-size: 70px;'>正确! </span>","null","html-keyboard-response","61","236856","0.0-8.0-0.0-1.0-0.0-1.25","4","3","3","2","3","4","1","2","3","2","4","-1","0","-1","0","-2","-1","0","0","4","5","4","4","4","3","4","3","5","3","6","4","6","4","3","3","3","5","3","4","2","3","3","2","2","5","6","4","2","2","3","4","3","2","3","2","3","3","1","3","2","4","5","5","6","6","6","5","5","6","5","5","4","5","5","3","4","2","7","587598071420944384","李","181","Male","[""好他"",""好我"",""坏他"",""坏我""]","[""强他"",""强我"",""弱他"",""弱我""]","","","","","","","","","","","","","","","","","","","","","","","","","","","","","","feedback_test","","","","","","","",""
"746","","j","psychophysics","62","238602","0.0-8.0-0.0-1.0-0.0-0.26","4","3","3","2","3","4","1","2","3","2","4","-1","0","-1","0","-2","-1","0","0","4","5","4","4","4","3","4","3","5","3","6","4","6","4","3","3","3","5","3","4","2","3","3","2","2","5","6","4","2","2","3","4","3","2","3","2","3","3","1","3","2","4","5","5","6","6","6","5","5","6","5","5","4","5","5","3","4","2","7","587598071420944384","李","181","Male","[""好他"",""好我"",""坏他"",""坏我""]","[""强他"",""强我"",""弱他"",""弱我""]","","","","","","","","match","","","","","","","","","","key","j","6.934599999999977","768","428","j","true","match","img/square.png","坏他","坏他","prac_ALT2_moral","practice_moral","","","","","","","",""
"null","<span style='color:GreenYellow; font-size: 70px;'>正确! </span>","null","html-keyboard-response","63","239103","0.0-8.0-0.0-1.0-0.0-1.26","4","3","3","2","3","4","1","2","3","2","4","-1","0","-1","0","-2","-1","0","0","4","5","4","4","4","3","4","3","5","3","6","4","6","4","3","3","3","5","3","4","2","3","3","2","2","5","6","4","2","2","3","4","3","2","3","2","3","3","1","3","2","4","5","5","6","6","6","5","5","6","5","5","4","5","5","3","4","2","7","587598071420944384","李","181","Male","[""好他"",""好我"",""坏他"",""坏我""]","[""强他"",""强我"",""弱他"",""弱我""]","","","","","","","","","","","","","","","","","","","","","","","","","","","","","","feedback_test","","","","","","","",""
"916","","j","psychophysics","64","241021","0.0-8.0-0.0-1.0-0.0-0.27","4","3","3","2","3","4","1","2","3","2","4","-1","0","-1","0","-2","-1","0","0","4","5","4","4","4","3","4","3","5","3","6","4","6","4","3","3","3","5","3","4","2","3","3","2","2","5","6","4","2","2","3","4","3","2","3","2","3","3","1","3","2","4","5","5","6","6","6","5","5","6","5","5","4","5","5","3","4","2","7","587598071420944384","李","181","Male","[""好他"",""好我"",""坏他"",""坏我""]","[""强他"",""强我"",""弱他"",""弱我""]","","","","","","","","match","","","","","","","","","","key","j","6.934109090909002","768","428","j","true","match","img/hexagon.png","坏我","坏我","prac_ALT2_moral","practice_moral","","","","","","","",""
"null","<span style='color:GreenYellow; font-size: 70px;'>正确! </span>","null","html-keyboard-response","65","241523","0.0-8.0-0.0-1.0-0.0-1.27","4","3","3","2","3","4","1","2","3","2","4","-1","0","-1","0","-2","-1","0","0","4","5","4","4","4","3","4","3","5","3","6","4","6","4","3","3","3","5","3","4","2","3","3","2","2","5","6","4","2","2","3","4","3","2","3","2","3","3","1","3","2","4","5","5","6","6","6","5","5","6","5","5","4","5","5","3","4","2","7","587598071420944384","李","181","Male","[""好他"",""好我"",""坏他"",""坏我""]","[""强他"",""强我"",""弱他"",""弱我""]","","","","","","","","","","","","","","","","","","","","","","","","","","","","","","feedback_test","","","","","","","",""
"951","","f","psychophysics","66","243474","0.0-8.0-0.0-1.0-0.0-0.28","4","3","3","2","3","4","1","2","3","2","4","-1","0","-1","0","-2","-1","0","0","4","5","4","4","4","3","4","3","5","3","6","4","6","4","3","3","3","5","3","4","2","3","3","2","2","5","6","4","2","2","3","4","3","2","3","2","3","3","1","3","2","4","5","5","6","6","6","5","5","6","5","5","4","5","5","3","4","2","7","587598071420944384","李","181","Male","[""好他"",""好我"",""坏他"",""坏我""]","[""强他"",""强我"",""弱他"",""弱我""]","","","","","","","","nonmatch","","","","","","","","","","key","f","6.94547311827961","768","428","f","true","nonmatch","img/ellipse.png","坏他","好他","prac_ALT2_moral","practice_moral","","","","","","","",""
"null","<span style='color:GreenYellow; font-size: 70px;'>正确! </span>","null","html-keyboard-response","67","243975","0.0-8.0-0.0-1.0-0.0-1.28","4","3","3","2","3","4","1","2","3","2","4","-1","0","-1","0","-2","-1","0","0","4","5","4","4","4","3","4","3","5","3","6","4","6","4","3","3","3","5","3","4","2","3","3","2","2","5","6","4","2","2","3","4","3","2","3","2","3","3","1","3","2","4","5","5","6","6","6","5","5","6","5","5","4","5","5","3","4","2","7","587598071420944384","李","181","Male","[""好他"",""好我"",""坏他"",""坏我""]","[""强他"",""强我"",""弱他"",""弱我""]","","","","","","","","","","","","","","","","","","","","","","","","","","","","","","feedback_test","","","","","","","",""
"785","","j","psychophysics","68","245761","0.0-8.0-0.0-1.0-0.0-0.29","4","3","3","2","3","4","1","2","3","2","4","-1","0","-1","0","-2","-1","0","0","4","5","4","4","4","3","4","3","5","3","6","4","6","4","3","3","3","5","3","4","2","3","3","2","2","5","6","4","2","2","3","4","3","2","3","2","3","3","1","3","2","4","5","5","6","6","6","5","5","6","5","5","4","5","5","3","4","2","7","587598071420944384","李","181","Male","[""好他"",""好我"",""坏他"",""坏我""]","[""强他"",""强我"",""弱他"",""弱我""]","","","","","","","","match","","","","","","","","","","key","j","6.930820312500032","768","428","f","false","nonmatch","img/square.png","好我","坏他","prac_ALT2_moral","practice_moral","","","","","","","",""
"null","<span style='color:red; font-size: 70px;'>错误! </span>","null","html-keyboard-response","69","246262","0.0-8.0-0.0-1.0-0.0-1.29","4","3","3","2","3","4","1","2","3","2","4","-1","0","-1","0","-2","-1","0","0","4","5","4","4","4","3","4","3","5","3","6","4","6","4","3","3","3","5","3","4","2","3","3","2","2","5","6","4","2","2","3","4","3","2","3","2","3","3","1","3","2","4","5","5","6","6","6","5","5","6","5","5","4","5","5","3","4","2","7","587598071420944384","李","181","Male","[""好他"",""好我"",""坏他"",""坏我""]","[""强他"",""强我"",""弱他"",""弱我""]","","","","","","","","","","","","","","","","","","","","","","","","","","","","","","feedback_test","","","","","","","",""
"749","","j","psychophysics","70","248011","0.0-8.0-0.0-1.0-0.0-0.30","4","3","3","2","3","4","1","2","3","2","4","-1","0","-1","0","-2","-1","0","0","4","5","4","4","4","3","4","3","5","3","6","4","6","4","3","3","3","5","3","4","2","3","3","2","2","5","6","4","2","2","3","4","3","2","3","2","3","3","1","3","2","4","5","5","6","6","6","5","5","6","5","5","4","5","5","3","4","2","7","587598071420944384","李","181","Male","[""好他"",""好我"",""坏他"",""坏我""]","[""强他"",""强我"",""弱他"",""弱我""]","","","","","","","","match","","","","","","","","","","key","j","6.954652000000002","768","428","f","false","nonmatch","img/hexagon.png","好我","坏我","prac_ALT2_moral","practice_moral","","","","","","","",""
"null","<span style='color:red; font-size: 70px;'>错误! </span>","null","html-keyboard-response","71","248513","0.0-8.0-0.0-1.0-0.0-1.30","4","3","3","2","3","4","1","2","3","2","4","-1","0","-1","0","-2","-1","0","0","4","5","4","4","4","3","4","3","5","3","6","4","6","4","3","3","3","5","3","4","2","3","3","2","2","5","6","4","2","2","3","4","3","2","3","2","3","3","1","3","2","4","5","5","6","6","6","5","5","6","5","5","4","5","5","3","4","2","7","587598071420944384","李","181","Male","[""好他"",""好我"",""坏他"",""坏我""]","[""强他"",""强我"",""弱他"",""弱我""]","","","","","","","","","","","","","","","","","","","","","","","","","","","","","","feedback_test","","","","","","","",""
"null","","null","psychophysics","72","250721","0.0-8.0-0.0-1.0-0.0-0.31","4","3","3","2","3","4","1","2","3","2","4","-1","0","-1","0","-2","-1","0","0","4","5","4","4","4","3","4","3","5","3","6","4","6","4","3","3","3","5","3","4","2","3","3","2","2","5","6","4","2","2","3","4","3","2","3","2","3","3","1","3","2","4","5","5","6","6","6","5","5","6","5","5","4","5","5","3","4","2","7","587598071420944384","李","181","Male","[""好他"",""好我"",""坏他"",""坏我""]","[""强他"",""强我"",""弱他"",""弱我""]","","","","","","","","null","","","","","","","","","","key","null","6.944259493670882","768","428","f","false","nonmatch","img/hexagon.png","好他","坏我","prac_ALT2_moral","practice_moral","","","","","","","",""
"null","<span class='add_' style='color:yellow; font-size: 70px;'> 太慢! </span>","null","html-keyboard-response","73","251222","0.0-8.0-0.0-1.0-0.0-1.31","4","3","3","2","3","4","1","2","3","2","4","-1","0","-1","0","-2","-1","0","0","4","5","4","4","4","3","4","3","5","3","6","4","6","4","3","3","3","5","3","4","2","3","3","2","2","5","6","4","2","2","3","4","3","2","3","2","3","3","1","3","2","4","5","5","6","6","6","5","5","6","5","5","4","5","5","3","4","2","7","587598071420944384","李","181","Male","[""好他"",""好我"",""坏他"",""坏我""]","[""强他"",""强我"",""弱他"",""弱我""]","","","","","","","","","","","","","","","","","","","","","","","","","","","","","","feedback_test","","","","","","","",""
"957","","f","psychophysics","74","253180","0.0-8.0-0.0-1.0-0.0-0.32","4","3","3","2","3","4","1","2","3","2","4","-1","0","-1","0","-2","-1","0","0","4","5","4","4","4","3","4","3","5","3","6","4","6","4","3","3","3","5","3","4","2","3","3","2","2","5","6","4","2","2","3","4","3","2","3","2","3","3","1","3","2","4","5","5","6","6","6","5","5","6","5","5","4","5","5","3","4","2","7","587598071420944384","李","181","Male","[""好他"",""好我"",""坏他"",""坏我""]","[""强他"",""强我"",""弱他"",""弱我""]","","","","","","","","nonmatch","","","","","","","","","","key","f","6.949353571428531","768","428","f","true","nonmatch","img/hexagon.png","坏他","坏我","prac_ALT2_moral","practice_moral","","","","","","","",""
"null","<span style='color:GreenYellow; font-size: 70px;'>正确! </span>","null","html-keyboard-response","75","253681","0.0-8.0-0.0-1.0-0.0-1.32","4","3","3","2","3","4","1","2","3","2","4","-1","0","-1","0","-2","-1","0","0","4","5","4","4","4","3","4","3","5","3","6","4","6","4","3","3","3","5","3","4","2","3","3","2","2","5","6","4","2","2","3","4","3","2","3","2","3","3","1","3","2","4","5","5","6","6","6","5","5","6","5","5","4","5","5","3","4","2","7","587598071420944384","李","181","Male","[""好他"",""好我"",""坏他"",""坏我""]","[""强他"",""强我"",""弱他"",""弱我""]","","","","","","","","","","","","","","","","","","","","","","","","","","","","","","feedback_test","","","","","","","",""
"848","","f","psychophysics","76","255531","0.0-8.0-0.0-1.0-0.0-0.33","4","3","3","2","3","4","1","2","3","2","4","-1","0","-1","0","-2","-1","0","0","4","5","4","4","4","3","4","3","5","3","6","4","6","4","3","3","3","5","3","4","2","3","3","2","2","5","6","4","2","2","3","4","3","2","3","2","3","3","1","3","2","4","5","5","6","6","6","5","5","6","5","5","4","5","5","3","4","2","7","587598071420944384","李","181","Male","[""好他"",""好我"",""坏他"",""坏我""]","[""强他"",""强我"",""弱他"",""弱我""]","","","","","","","","nonmatch","","","","","","","","","","key","f","6.9325132075472045","768","428","f","true","nonmatch","img/ellipse.png","坏我","好他","prac_ALT2_moral","practice_moral","","","","","","","",""
"null","<span style='color:GreenYellow; font-size: 70px;'>正确! </span>","null","html-keyboard-response","77","256033","0.0-8.0-0.0-1.0-0.0-1.33","4","3","3","2","3","4","1","2","3","2","4","-1","0","-1","0","-2","-1","0","0","4","5","4","4","4","3","4","3","5","3","6","4","6","4","3","3","3","5","3","4","2","3","3","2","2","5","6","4","2","2","3","4","3","2","3","2","3","3","1","3","2","4","5","5","6","6","6","5","5","6","5","5","4","5","5","3","4","2","7","587598071420944384","李","181","Male","[""好他"",""好我"",""坏他"",""坏我""]","[""强他"",""强我"",""弱他"",""弱我""]","","","","","","","","","","","","","","","","","","","","","","","","","","","","","","feedback_test","","","","","","","",""
"993","","f","psychophysics","78","258029","0.0-8.0-0.0-1.0-0.0-0.34","4","3","3","2","3","4","1","2","3","2","4","-1","0","-1","0","-2","-1","0","0","4","5","4","4","4","3","4","3","5","3","6","4","6","4","3","3","3","5","3","4","2","3","3","2","2","5","6","4","2","2","3","4","3","2","3","2","3","3","1","3","2","4","5","5","6","6","6","5","5","6","5","5","4","5","5","3","4","2","7","587598071420944384","李","181","Male","[""好他"",""好我"",""坏他"",""坏我""]","[""强他"",""强我"",""弱他"",""弱我""]","","","","","","","","nonmatch","","","","","","","","","","key","f","6.939538461538406","768","428","f","true","nonmatch","img/ellipse.png","好我","好他","prac_ALT2_moral","practice_moral","","","","","","","",""
"null","<span style='color:GreenYellow; font-size: 70px;'>正确! </span>","null","html-keyboard-response","79","258530","0.0-8.0-0.0-1.0-0.0-1.34","4","3","3","2","3","4","1","2","3","2","4","-1","0","-1","0","-2","-1","0","0","4","5","4","4","4","3","4","3","5","3","6","4","6","4","3","3","3","5","3","4","2","3","3","2","2","5","6","4","2","2","3","4","3","2","3","2","3","3","1","3","2","4","5","5","6","6","6","5","5","6","5","5","4","5","5","3","4","2","7","587598071420944384","李","181","Male","[""好他"",""好我"",""坏他"",""坏我""]","[""强他"",""强我"",""弱他"",""弱我""]","","","","","","","","","","","","","","","","","","","","","","","","","","","","","","feedback_test","","","","","","","",""
"742","","j","psychophysics","80","260275","0.0-8.0-0.0-1.0-0.0-0.35","4","3","3","2","3","4","1","2","3","2","4","-1","0","-1","0","-2","-1","0","0","4","5","4","4","4","3","4","3","5","3","6","4","6","4","3","3","3","5","3","4","2","3","3","2","2","5","6","4","2","2","3","4","3","2","3","2","3","3","1","3","2","4","5","5","6","6","6","5","5","6","5","5","4","5","5","3","4","2","7","587598071420944384","李","181","Male","[""好他"",""好我"",""坏他"",""坏我""]","[""强他"",""强我"",""弱他"",""弱我""]","","","","","","","","match","","","","","","","","","","key","j","6.953199999999954","768","428","j","true","match","img/diamond.png","好我","好我","prac_ALT2_moral","practice_moral","","","","","","","",""
"null","<span style='color:GreenYellow; font-size: 70px;'>正确! </span>","null","html-keyboard-response","81","260776","0.0-8.0-0.0-1.0-0.0-1.35","4","3","3","2","3","4","1","2","3","2","4","-1","0","-1","0","-2","-1","0","0","4","5","4","4","4","3","4","3","5","3","6","4","6","4","3","3","3","5","3","4","2","3","3","2","2","5","6","4","2","2","3","4","3","2","3","2","3","3","1","3","2","4","5","5","6","6","6","5","5","6","5","5","4","5","5","3","4","2","7","587598071420944384","李","181","Male","[""好他"",""好我"",""坏他"",""坏我""]","[""强他"",""强我"",""弱他"",""弱我""]","","","","","","","","","","","","","","","","","","","","","","","","","","","","","","feedback_test","","","","","","","",""
"785","","j","psychophysics","82","262565","0.0-8.0-0.0-1.0-0.0-0.36","4","3","3","2","3","4","1","2","3","2","4","-1","0","-1","0","-2","-1","0","0","4","5","4","4","4","3","4","3","5","3","6","4","6","4","3","3","3","5","3","4","2","3","3","2","2","5","6","4","2","2","3","4","3","2","3","2","3","3","1","3","2","4","5","5","6","6","6","5","5","6","5","5","4","5","5","3","4","2","7","587598071420944384","李","181","Male","[""好他"",""好我"",""坏他"",""坏我""]","[""强他"",""强我"",""弱他"",""弱我""]","","","","","","","","match","","","","","","","","","","key","j","6.9409218749998445","768","428","j","true","match","img/ellipse.png","好他","好他","prac_ALT2_moral","practice_moral","","","","","","","",""
"null","<span style='color:GreenYellow; font-size: 70px;'>正确! </span>","null","html-keyboard-response","83","263067","0.0-8.0-0.0-1.0-0.0-1.36","4","3","3","2","3","4","1","2","3","2","4","-1","0","-1","0","-2","-1","0","0","4","5","4","4","4","3","4","3","5","3","6","4","6","4","3","3","3","5","3","4","2","3","3","2","2","5","6","4","2","2","3","4","3","2","3","2","3","3","1","3","2","4","5","5","6","6","6","5","5","6","5","5","4","5","5","3","4","2","7","587598071420944384","李","181","Male","[""好他"",""好我"",""坏他"",""坏我""]","[""强他"",""强我"",""弱他"",""弱我""]","","","","","","","","","","","","","","","","","","","","","","","","","","","","","","feedback_test","","","","","","","",""
"722","","f","psychophysics","84","264790","0.0-8.0-0.0-1.0-0.0-0.37","4","3","3","2","3","4","1","2","3","2","4","-1","0","-1","0","-2","-1","0","0","4","5","4","4","4","3","4","3","5","3","6","4","6","4","3","3","3","5","3","4","2","3","3","2","2","5","6","4","2","2","3","4","3","2","3","2","3","3","1","3","2","4","5","5","6","6","6","5","5","6","5","5","4","5","5","3","4","2","7","587598071420944384","李","181","Male","[""好他"",""好我"",""坏他"",""坏我""]","[""强他"",""强我"",""弱他"",""弱我""]","","","","","","","","nonmatch","","","","","","","","","","key","f","6.955178861788567","768","428","f","true","nonmatch","img/square.png","坏我","坏他","prac_ALT2_moral","practice_moral","","","","","","","",""
"null","<span style='color:GreenYellow; font-size: 70px;'>正确! </span>","null","html-keyboard-response","85","265292","0.0-8.0-0.0-1.0-0.0-1.37","4","3","3","2","3","4","1","2","3","2","4","-1","0","-1","0","-2","-1","0","0","4","5","4","4","4","3","4","3","5","3","6","4","6","4","3","3","3","5","3","4","2","3","3","2","2","5","6","4","2","2","3","4","3","2","3","2","3","3","1","3","2","4","5","5","6","6","6","5","5","6","5","5","4","5","5","3","4","2","7","587598071420944384","李","181","Male","[""好他"",""好我"",""坏他"",""坏我""]","[""强他"",""强我"",""弱他"",""弱我""]","","","","","","","","","","","","","","","","","","","","","","","","","","","","","","feedback_test","","","","","","","",""
"1125","","j","psychophysics","86","267418","0.0-8.0-0.0-1.0-0.0-0.38","4","3","3","2","3","4","1","2","3","2","4","-1","0","-1","0","-2","-1","0","0","4","5","4","4","4","3","4","3","5","3","6","4","6","4","3","3","3","5","3","4","2","3","3","2","2","5","6","4","2","2","3","4","3","2","3","2","3","3","1","3","2","4","5","5","6","6","6","5","5","6","5","5","4","5","5","3","4","2","7","587598071420944384","李","181","Male","[""好他"",""好我"",""坏他"",""坏我""]","[""强他"",""强我"",""弱他"",""弱我""]","","","","","","","","match","","","","","","","","","","key","j","6.931265573770372","768","428","j","true","match","img/square.png","坏他","坏他","prac_ALT2_moral","practice_moral","","","","","","","",""
"null","<span style='color:GreenYellow; font-size: 70px;'>正确! </span>","null","html-keyboard-response","87","267919","0.0-8.0-0.0-1.0-0.0-1.38","4","3","3","2","3","4","1","2","3","2","4","-1","0","-1","0","-2","-1","0","0","4","5","4","4","4","3","4","3","5","3","6","4","6","4","3","3","3","5","3","4","2","3","3","2","2","5","6","4","2","2","3","4","3","2","3","2","3","3","1","3","2","4","5","5","6","6","6","5","5","6","5","5","4","5","5","3","4","2","7","587598071420944384","李","181","Male","[""好他"",""好我"",""坏他"",""坏我""]","[""强他"",""强我"",""弱他"",""弱我""]","","","","","","","","","","","","","","","","","","","","","","","","","","","","","","feedback_test","","","","","","","",""
"1018","","f","psychophysics","88","269938","0.0-8.0-0.0-1.0-0.0-0.39","4","3","3","2","3","4","1","2","3","2","4","-1","0","-1","0","-2","-1","0","0","4","5","4","4","4","3","4","3","5","3","6","4","6","4","3","3","3","5","3","4","2","3","3","2","2","5","6","4","2","2","3","4","3","2","3","2","3","3","1","3","2","4","5","5","6","6","6","5","5","6","5","5","4","5","5","3","4","2","7","587598071420944384","李","181","Male","[""好他"",""好我"",""坏他"",""坏我""]","[""强他"",""强我"",""弱他"",""弱我""]","","","","","","","","nonmatch","","","","","","","","","","key","f","6.954138408304445","768","428","f","true","nonmatch","img/diamond.png","坏我","好我","prac_ALT2_moral","practice_moral","","","","","","","",""
"null","<span style='color:GreenYellow; font-size: 70px;'>正确! </span>","null","html-keyboard-response","89","270440","0.0-8.0-0.0-1.0-0.0-1.39","4","3","3","2","3","4","1","2","3","2","4","-1","0","-1","0","-2","-1","0","0","4","5","4","4","4","3","4","3","5","3","6","4","6","4","3","3","3","5","3","4","2","3","3","2","2","5","6","4","2","2","3","4","3","2","3","2","3","3","1","3","2","4","5","5","6","6","6","5","5","6","5","5","4","5","5","3","4","2","7","587598071420944384","李","181","Male","[""好他"",""好我"",""坏他"",""坏我""]","[""强他"",""强我"",""弱他"",""弱我""]","","","","","","","","","","","","","","","","","","","","","","","","","","","","","","feedback_test","","","","","","","",""
"994","","j","psychophysics","90","272435","0.0-8.0-0.0-1.0-0.0-0.40","4","3","3","2","3","4","1","2","3","2","4","-1","0","-1","0","-2","-1","0","0","4","5","4","4","4","3","4","3","5","3","6","4","6","4","3","3","3","5","3","4","2","3","3","2","2","5","6","4","2","2","3","4","3","2","3","2","3","3","1","3","2","4","5","5","6","6","6","5","5","6","5","5","4","5","5","3","4","2","7","587598071420944384","李","181","Male","[""好他"",""好我"",""坏他"",""坏我""]","[""强他"",""强我"",""弱他"",""弱我""]","","","","","","","","match","","","","","","","","","","key","j","6.9428216783216685","768","428","j","true","match","img/diamond.png","好我","好我","prac_ALT2_moral","practice_moral","","","","","","","",""
"null","<span style='color:GreenYellow; font-size: 70px;'>正确! </span>","null","html-keyboard-response","91","272936","0.0-8.0-0.0-1.0-0.0-1.40","4","3","3","2","3","4","1","2","3","2","4","-1","0","-1","0","-2","-1","0","0","4","5","4","4","4","3","4","3","5","3","6","4","6","4","3","3","3","5","3","4","2","3","3","2","2","5","6","4","2","2","3","4","3","2","3","2","3","3","1","3","2","4","5","5","6","6","6","5","5","6","5","5","4","5","5","3","4","2","7","587598071420944384","李","181","Male","[""好他"",""好我"",""坏他"",""坏我""]","[""强他"",""强我"",""弱他"",""弱我""]","","","","","","","","","","","","","","","","","","","","","","","","","","","","","","feedback_test","","","","","","","",""
"744","","f","psychophysics","92","274681","0.0-8.0-0.0-1.0-0.0-0.41","4","3","3","2","3","4","1","2","3","2","4","-1","0","-1","0","-2","-1","0","0","4","5","4","4","4","3","4","3","5","3","6","4","6","4","3","3","3","5","3","4","2","3","3","2","2","5","6","4","2","2","3","4","3","2","3","2","3","3","1","3","2","4","5","5","6","6","6","5","5","6","5","5","4","5","5","3","4","2","7","587598071420944384","李","181","Male","[""好他"",""好我"",""坏他"",""坏我""]","[""强他"",""强我"",""弱他"",""弱我""]","","","","","","","","nonmatch","","","","","","","","","","key","f","7.067110204081792","768","428","f","true","nonmatch","img/diamond.png","好他","好我","prac_ALT2_moral","practice_moral","","","","","","","",""
"null","<span style='color:GreenYellow; font-size: 70px;'>正确! </span>","null","html-keyboard-response","93","275183","0.0-8.0-0.0-1.0-0.0-1.41","4","3","3","2","3","4","1","2","3","2","4","-1","0","-1","0","-2","-1","0","0","4","5","4","4","4","3","4","3","5","3","6","4","6","4","3","3","3","5","3","4","2","3","3","2","2","5","6","4","2","2","3","4","3","2","3","2","3","3","1","3","2","4","5","5","6","6","6","5","5","6","5","5","4","5","5","3","4","2","7","587598071420944384","李","181","Male","[""好他"",""好我"",""坏他"",""坏我""]","[""强他"",""强我"",""弱他"",""弱我""]","","","","","","","","","","","","","","","","","","","","","","","","","","","","","","feedback_test","","","","","","","",""
"699","","j","psychophysics","94","276882","0.0-8.0-0.0-1.0-0.0-0.42","4","3","3","2","3","4","1","2","3","2","4","-1","0","-1","0","-2","-1","0","0","4","5","4","4","4","3","4","3","5","3","6","4","6","4","3","3","3","5","3","4","2","3","3","2","2","5","6","4","2","2","3","4","3","2","3","2","3","3","1","3","2","4","5","5","6","6","6","5","5","6","5","5","4","5","5","3","4","2","7","587598071420944384","李","181","Male","[""好他"",""好我"",""坏他"",""坏我""]","[""强他"",""强我"",""弱他"",""弱我""]","","","","","","","","match","","","","","","","","","","key","j","6.928245901639218","768","428","j","true","match","img/square.png","坏他","坏他","prac_ALT2_moral","practice_moral","","","","","","","",""
"null","<span style='color:GreenYellow; font-size: 70px;'>正确! </span>","null","html-keyboard-response","95","277383","0.0-8.0-0.0-1.0-0.0-1.42","4","3","3","2","3","4","1","2","3","2","4","-1","0","-1","0","-2","-1","0","0","4","5","4","4","4","3","4","3","5","3","6","4","6","4","3","3","3","5","3","4","2","3","3","2","2","5","6","4","2","2","3","4","3","2","3","2","3","3","1","3","2","4","5","5","6","6","6","5","5","6","5","5","4","5","5","3","4","2","7","587598071420944384","李","181","Male","[""好他"",""好我"",""坏他"",""坏我""]","[""强他"",""强我"",""弱他"",""弱我""]","","","","","","","","","","","","","","","","","","","","","","","","","","","","","","feedback_test","","","","","","","",""
"703","","j","psychophysics","96","279089","0.0-8.0-0.0-1.0-0.0-0.43","4","3","3","2","3","4","1","2","3","2","4","-1","0","-1","0","-2","-1","0","0","4","5","4","4","4","3","4","3","5","3","6","4","6","4","3","3","3","5","3","4","2","3","3","2","2","5","6","4","2","2","3","4","3","2","3","2","3","3","1","3","2","4","5","5","6","6","6","5","5","6","5","5","4","5","5","3","4","2","7","587598071420944384","李","181","Male","[""好他"",""好我"",""坏他"",""坏我""]","[""强他"",""强我"",""弱他"",""弱我""]","","","","","","","","match","","","","","","","","","","key","j","6.93186065573751","768","428","j","true","match","img/diamond.png","好我","好我","prac_ALT2_moral","practice_moral","","","","","","","",""
"null","<span style='color:GreenYellow; font-size: 70px;'>正确! </span>","null","html-keyboard-response","97","279590","0.0-8.0-0.0-1.0-0.0-1.43","4","3","3","2","3","4","1","2","3","2","4","-1","0","-1","0","-2","-1","0","0","4","5","4","4","4","3","4","3","5","3","6","4","6","4","3","3","3","5","3","4","2","3","3","2","2","5","6","4","2","2","3","4","3","2","3","2","3","3","1","3","2","4","5","5","6","6","6","5","5","6","5","5","4","5","5","3","4","2","7","587598071420944384","李","181","Male","[""好他"",""好我"",""坏他"",""坏我""]","[""强他"",""强我"",""弱他"",""弱我""]","","","","","","","","","","","","","","","","","","","","","","","","","","","","","","feedback_test","","","","","","","",""
"812","","f","psychophysics","98","281404","0.0-8.0-0.0-1.0-0.0-0.44","4","3","3","2","3","4","1","2","3","2","4","-1","0","-1","0","-2","-1","0","0","4","5","4","4","4","3","4","3","5","3","6","4","6","4","3","3","3","5","3","4","2","3","3","2","2","5","6","4","2","2","3","4","3","2","3","2","3","3","1","3","2","4","5","5","6","6","6","5","5","6","5","5","4","5","5","3","4","2","7","587598071420944384","李","181","Male","[""好他"",""好我"",""坏他"",""坏我""]","[""强他"",""强我"",""弱他"",""弱我""]","","","","","","","","nonmatch","","","","","","","","","","key","f","6.967702702702739","768","428","f","true","nonmatch","img/square.png","好他","坏他","prac_ALT2_moral","practice_moral","","","","","","","",""
"null","<span style='color:GreenYellow; font-size: 70px;'>正确! </span>","null","html-keyboard-response","99","281905","0.0-8.0-0.0-1.0-0.0-1.44","4","3","3","2","3","4","1","2","3","2","4","-1","0","-1","0","-2","-1","0","0","4","5","4","4","4","3","4","3","5","3","6","4","6","4","3","3","3","5","3","4","2","3","3","2","2","5","6","4","2","2","3","4","3","2","3","2","3","3","1","3","2","4","5","5","6","6","6","5","5","6","5","5","4","5","5","3","4","2","7","587598071420944384","李","181","Male","[""好他"",""好我"",""坏他"",""坏我""]","[""强他"",""强我"",""弱他"",""弱我""]","","","","","","","","","","","","","","","","","","","","","","","","","","","","","","feedback_test","","","","","","","",""
"679","","f","psychophysics","100","283585","0.0-8.0-0.0-1.0-0.0-0.45","4","3","3","2","3","4","1","2","3","2","4","-1","0","-1","0","-2","-1","0","0","4","5","4","4","4","3","4","3","5","3","6","4","6","4","3","3","3","5","3","4","2","3","3","2","2","5","6","4","2","2","3","4","3","2","3","2","3","3","1","3","2","4","5","5","6","6","6","5","5","6","5","5","4","5","5","3","4","2","7","587598071420944384","李","181","Male","[""好他"",""好我"",""坏他"",""坏我""]","[""强他"",""强我"",""弱他"",""弱我""]","","","","","","","","nonmatch","","","","","","","","","","key","f","6.933709543568606","768","428","j","false","match","img/ellipse.png","好他","好他","prac_ALT2_moral","practice_moral","","","","","","","",""
"null","<span style='color:red; font-size: 70px;'>错误! </span>","null","html-keyboard-response","101","284087","0.0-8.0-0.0-1.0-0.0-1.45","4","3","3","2","3","4","1","2","3","2","4","-1","0","-1","0","-2","-1","0","0","4","5","4","4","4","3","4","3","5","3","6","4","6","4","3","3","3","5","3","4","2","3","3","2","2","5","6","4","2","2","3","4","3","2","3","2","3","3","1","3","2","4","5","5","6","6","6","5","5","6","5","5","4","5","5","3","4","2","7","587598071420944384","李","181","Male","[""好他"",""好我"",""坏他"",""坏我""]","[""强他"",""强我"",""弱他"",""弱我""]","","","","","","","","","","","","","","","","","","","","","","","","","","","","","","feedback_test","","","","","","","",""
"912","","j","psychophysics","102","286001","0.0-8.0-0.0-1.0-0.0-0.46","4","3","3","2","3","4","1","2","3","2","4","-1","0","-1","0","-2","-1","0","0","4","5","4","4","4","3","4","3","5","3","6","4","6","4","3","3","3","5","3","4","2","3","3","2","2","5","6","4","2","2","3","4","3","2","3","2","3","3","1","3","2","4","5","5","6","6","6","5","5","6","5","5","4","5","5","3","4","2","7","587598071420944384","李","181","Male","[""好他"",""好我"",""坏他"",""坏我""]","[""强他"",""强我"",""弱他"",""弱我""]","","","","","","","","match","","","","","","","","","","key","j","6.956487179487336","768","428","j","true","match","img/hexagon.png","坏我","坏我","prac_ALT2_moral","practice_moral","","","","","","","",""
"null","<span style='color:GreenYellow; font-size: 70px;'>正确! </span>","null","html-keyboard-response","103","286503","0.0-8.0-0.0-1.0-0.0-1.46","4","3","3","2","3","4","1","2","3","2","4","-1","0","-1","0","-2","-1","0","0","4","5","4","4","4","3","4","3","5","3","6","4","6","4","3","3","3","5","3","4","2","3","3","2","2","5","6","4","2","2","3","4","3","2","3","2","3","3","1","3","2","4","5","5","6","6","6","5","5","6","5","5","4","5","5","3","4","2","7","587598071420944384","李","181","Male","[""好他"",""好我"",""坏他"",""坏我""]","[""强他"",""强我"",""弱他"",""弱我""]","","","","","","","","","","","","","","","","","","","","","","","","","","","","","","feedback_test","","","","","","","",""
"799","","j","psychophysics","104","288305","0.0-8.0-0.0-1.0-0.0-0.47","4","3","3","2","3","4","1","2","3","2","4","-1","0","-1","0","-2","-1","0","0","4","5","4","4","4","3","4","3","5","3","6","4","6","4","3","3","3","5","3","4","2","3","3","2","2","5","6","4","2","2","3","4","3","2","3","2","3","3","1","3","2","4","5","5","6","6","6","5","5","6","5","5","4","5","5","3","4","2","7","587598071420944384","李","181","Male","[""好他"",""好我"",""坏他"",""坏我""]","[""强他"",""强我"",""弱他"",""弱我""]","","","","","","","","match","","","","","","","","","","key","j","6.947267441860538","768","428","j","true","match","img/ellipse.png","好他","好他","prac_ALT2_moral","practice_moral","","","","","","","",""
"null","<span style='color:GreenYellow; font-size: 70px;'>正确! </span>","null","html-keyboard-response","105","288807","0.0-8.0-0.0-1.0-0.0-1.47","4","3","3","2","3","4","1","2","3","2","4","-1","0","-1","0","-2","-1","0","0","4","5","4","4","4","3","4","3","5","3","6","4","6","4","3","3","3","5","3","4","2","3","3","2","2","5","6","4","2","2","3","4","3","2","3","2","3","3","1","3","2","4","5","5","6","6","6","5","5","6","5","5","4","5","5","3","4","2","7","587598071420944384","李","181","Male","[""好他"",""好我"",""坏他"",""坏我""]","[""强他"",""强我"",""弱他"",""弱我""]","","","","","","","","","","","","","","","","","","","","","","","","","","","","","","feedback_test","","","","","","","",""
"8785","<style>.context{color:white; font-size: 35px; line-height:40px}</style>                            <div><p class='context'>您正确回答了79% 的试次。</p><p class='context'>您的平均反应时为869毫秒。</p><p class='context'>恭喜您完成练习。按空格键进入正式实验。</p><p class='footer' style='font-size: 35px; line-height:40px;'>请在进入正式实验实验之前将您的<span style='color: lightgreen;'>食指</span>放在电脑键盘的相应键位上进行按键。</p>"," ","html-keyboard-response","106","297593","0.0-8.0-0.0-2.0","4","3","3","2","3","4","1","2","3","2","4","-1","0","-1","0","-2","-1","0","0","4","5","4","4","4","3","4","3","5","3","6","4","6","4","3","3","3","5","3","4","2","3","3","2","2","5","6","4","2","2","3","4","3","2","3","2","3","3","1","3","2","4","5","5","6","6","6","5","5","6","5","5","4","5","5","3","4","2","7","587598071420944384","李","181","Male","[""好他"",""好我"",""坏他"",""坏我""]","[""强他"",""强我"",""弱他"",""弱我""]","","","","","","","","","","","","","","","","","","","","","","","","","","","","","","","","","","","","","",""
"1887","
    <p style='color: white; font-size: 22px'>请您将手指放在按键上，准备进入正式的匹配任务。</p>
    <p> <div style = ""color: green""><按空格键进入下一阶段的匹配任务></div></p>
    "," ","html-keyboard-response","107","299481","0.0-8.0-0.0-3.0","4","3","3","2","3","4","1","2","3","2","4","-1","0","-1","0","-2","-1","0","0","4","5","4","4","4","3","4","3","5","3","6","4","6","4","3","3","3","5","3","4","2","3","3","2","2","5","6","4","2","2","3","4","3","2","3","2","3","3","1","3","2","4","5","5","6","6","6","5","5","6","5","5","4","5","5","3","4","2","7","587598071420944384","李","181","Male","[""好他"",""好我"",""坏他"",""坏我""]","[""强他"",""强我"",""弱他"",""弱我""]","","","","","","","","","","","","","","","","","","","","","","","","","","","","","","","","","","","","","",""
"783","","j","psychophysics","108","301266","0.0-8.0-0.0-4.0-0.0-0.0","4","3","3","2","3","4","1","2","3","2","4","-1","0","-1","0","-2","-1","0","0","4","5","4","4","4","3","4","3","5","3","6","4","6","4","3","3","3","5","3","4","2","3","3","2","2","5","6","4","2","2","3","4","3","2","3","2","3","3","1","3","2","4","5","5","6","6","6","5","5","6","5","5","4","5","5","3","4","2","7","587598071420944384","李","181","Male","[""好他"",""好我"",""坏他"",""坏我""]","[""强他"",""强我"",""弱他"",""弱我""]","","","","","","","","match","","","","","","","","","","key","j","6.935828124999944","768","428","j","true","match","img/hexagon.png","坏我","坏我","ALT2","moral","","","","","","","",""
"null","<span style='color:GreenYellow; font-size: 70px;'>正确! </span>","null","html-keyboard-response","109","301768","0.0-8.0-0.0-4.0-0.0-1.0","4","3","3","2","3","4","1","2","3","2","4","-1","0","-1","0","-2","-1","0","0","4","5","4","4","4","3","4","3","5","3","6","4","6","4","3","3","3","5","3","4","2","3","3","2","2","5","6","4","2","2","3","4","3","2","3","2","3","3","1","3","2","4","5","5","6","6","6","5","5","6","5","5","4","5","5","3","4","2","7","587598071420944384","李","181","Male","[""好他"",""好我"",""坏他"",""坏我""]","[""强他"",""强我"",""弱他"",""弱我""]","","","","","","","","","","","","","","","","","","","","","","","","","","","","","","feedback_test","","","","","","","",""
"743","","f","psychophysics","110","303515","0.0-8.0-0.0-4.0-0.0-0.1","4","3","3","2","3","4","1","2","3","2","4","-1","0","-1","0","-2","-1","0","0","4","5","4","4","4","3","4","3","5","3","6","4","6","4","3","3","3","5","3","4","2","3","3","2","2","5","6","4","2","2","3","4","3","2","3","2","3","3","1","3","2","4","5","5","6","6","6","5","5","6","5","5","4","5","5","3","4","2","7","587598071420944384","李","181","Male","[""好他"",""好我"",""坏他"",""坏我""]","[""强他"",""强我"",""弱他"",""弱我""]","","","","","","","","nonmatch","","","","","","","","","","key","f","6.936503999999958","768","428","f","true","nonmatch","img/hexagon.png","好他","坏我","ALT2","moral","","","","","","","",""
"null","<span style='color:GreenYellow; font-size: 70px;'>正确! </span>","null","html-keyboard-response","111","304017","0.0-8.0-0.0-4.0-0.0-1.1","4","3","3","2","3","4","1","2","3","2","4","-1","0","-1","0","-2","-1","0","0","4","5","4","4","4","3","4","3","5","3","6","4","6","4","3","3","3","5","3","4","2","3","3","2","2","5","6","4","2","2","3","4","3","2","3","2","3","3","1","3","2","4","5","5","6","6","6","5","5","6","5","5","4","5","5","3","4","2","7","587598071420944384","李","181","Male","[""好他"",""好我"",""坏他"",""坏我""]","[""强他"",""强我"",""弱他"",""弱我""]","","","","","","","","","","","","","","","","","","","","","","","","","","","","","","feedback_test","","","","","","","",""
"951","","f","psychophysics","112","305969","0.0-8.0-0.0-4.0-0.0-0.2","4","3","3","2","3","4","1","2","3","2","4","-1","0","-1","0","-2","-1","0","0","4","5","4","4","4","3","4","3","5","3","6","4","6","4","3","3","3","5","3","4","2","3","3","2","2","5","6","4","2","2","3","4","3","2","3","2","3","3","1","3","2","4","5","5","6","6","6","5","5","6","5","5","4","5","5","3","4","2","7","587598071420944384","李","181","Male","[""好他"",""好我"",""坏他"",""坏我""]","[""强他"",""强我"",""弱他"",""弱我""]","","","","","","","","nonmatch","","","","","","","","","","key","f","6.951362007168642","768","428","f","true","nonmatch","img/square.png","坏我","坏他","ALT2","moral","","","","","","","",""
"null","<span style='color:GreenYellow; font-size: 70px;'>正确! </span>","null","html-keyboard-response","113","306471","0.0-8.0-0.0-4.0-0.0-1.2","4","3","3","2","3","4","1","2","3","2","4","-1","0","-1","0","-2","-1","0","0","4","5","4","4","4","3","4","3","5","3","6","4","6","4","3","3","3","5","3","4","2","3","3","2","2","5","6","4","2","2","3","4","3","2","3","2","3","3","1","3","2","4","5","5","6","6","6","5","5","6","5","5","4","5","5","3","4","2","7","587598071420944384","李","181","Male","[""好他"",""好我"",""坏他"",""坏我""]","[""强他"",""强我"",""弱他"",""弱我""]","","","","","","","","","","","","","","","","","","","","","","","","","","","","","","feedback_test","","","","","","","",""
"659","","j","psychophysics","114","308131","0.0-8.0-0.0-4.0-0.0-0.3","4","3","3","2","3","4","1","2","3","2","4","-1","0","-1","0","-2","-1","0","0","4","5","4","4","4","3","4","3","5","3","6","4","6","4","3","3","3","5","3","4","2","3","3","2","2","5","6","4","2","2","3","4","3","2","3","2","3","3","1","3","2","4","5","5","6","6","6","5","5","6","5","5","4","5","5","3","4","2","7","587598071420944384","李","181","Male","[""好他"",""好我"",""坏他"",""坏我""]","[""强他"",""强我"",""弱他"",""弱我""]","","","","","","","","match","","","","","","","","","","key","j","6.932516806722744","768","428","j","true","match","img/diamond.png","好我","好我","ALT2","moral","","","","","","","",""
"null","<span style='color:GreenYellow; font-size: 70px;'>正确! </span>","null","html-keyboard-response","115","308632","0.0-8.0-0.0-4.0-0.0-1.3","4","3","3","2","3","4","1","2","3","2","4","-1","0","-1","0","-2","-1","0","0","4","5","4","4","4","3","4","3","5","3","6","4","6","4","3","3","3","5","3","4","2","3","3","2","2","5","6","4","2","2","3","4","3","2","3","2","3","3","1","3","2","4","5","5","6","6","6","5","5","6","5","5","4","5","5","3","4","2","7","587598071420944384","李","181","Male","[""好他"",""好我"",""坏他"",""坏我""]","[""强他"",""强我"",""弱他"",""弱我""]","","","","","","","","","","","","","","","","","","","","","","","","","","","","","","feedback_test","","","","","","","",""
"616","","j","psychophysics","116","310250","0.0-8.0-0.0-4.0-0.0-0.4","4","3","3","2","3","4","1","2","3","2","4","-1","0","-1","0","-2","-1","0","0","4","5","4","4","4","3","4","3","5","3","6","4","6","4","3","3","3","5","3","4","2","3","3","2","2","5","6","4","2","2","3","4","3","2","3","2","3","3","1","3","2","4","5","5","6","6","6","5","5","6","5","5","4","5","5","3","4","2","7","587598071420944384","李","181","Male","[""好他"",""好我"",""坏他"",""坏我""]","[""强他"",""强我"",""弱他"",""弱我""]","","","","","","","","match","","","","","","","","","","key","j","6.951437229437258","768","428","j","true","match","img/diamond.png","好我","好我","ALT2","moral","","","","","","","",""
"null","<span style='color:GreenYellow; font-size: 70px;'>正确! </span>","null","html-keyboard-response","117","310752","0.0-8.0-0.0-4.0-0.0-1.4","4","3","3","2","3","4","1","2","3","2","4","-1","0","-1","0","-2","-1","0","0","4","5","4","4","4","3","4","3","5","3","6","4","6","4","3","3","3","5","3","4","2","3","3","2","2","5","6","4","2","2","3","4","3","2","3","2","3","3","1","3","2","4","5","5","6","6","6","5","5","6","5","5","4","5","5","3","4","2","7","587598071420944384","李","181","Male","[""好他"",""好我"",""坏他"",""坏我""]","[""强他"",""强我"",""弱他"",""弱我""]","","","","","","","","","","","","","","","","","","","","","","","","","","","","","","feedback_test","","","","","","","",""
"662","","j","psychophysics","118","312417","0.0-8.0-0.0-4.0-0.0-0.5","4","3","3","2","3","4","1","2","3","2","4","-1","0","-1","0","-2","-1","0","0","4","5","4","4","4","3","4","3","5","3","6","4","6","4","3","3","3","5","3","4","2","3","3","2","2","5","6","4","2","2","3","4","3","2","3","2","3","3","1","3","2","4","5","5","6","6","6","5","5","6","5","5","4","5","5","3","4","2","7","587598071420944384","李","181","Male","[""好他"",""好我"",""坏他"",""坏我""]","[""强他"",""强我"",""弱他"",""弱我""]","","","","","","","","match","","","","","","","","","","key","j","6.93628151260513","768","428","j","true","match","img/square.png","坏他","坏他","ALT2","moral","","","","","","","",""
"null","<span style='color:GreenYellow; font-size: 70px;'>正确! </span>","null","html-keyboard-response","119","312917","0.0-8.0-0.0-4.0-0.0-1.5","4","3","3","2","3","4","1","2","3","2","4","-1","0","-1","0","-2","-1","0","0","4","5","4","4","4","3","4","3","5","3","6","4","6","4","3","3","3","5","3","4","2","3","3","2","2","5","6","4","2","2","3","4","3","2","3","2","3","3","1","3","2","4","5","5","6","6","6","5","5","6","5","5","4","5","5","3","4","2","7","587598071420944384","李","181","Male","[""好他"",""好我"",""坏他"",""坏我""]","[""强他"",""强我"",""弱他"",""弱我""]","","","","","","","","","","","","","","","","","","","","","","","","","","","","","","feedback_test","","","","","","","",""
"915","","j","psychophysics","120","314834","0.0-8.0-0.0-4.0-0.0-0.6","4","3","3","2","3","4","1","2","3","2","4","-1","0","-1","0","-2","-1","0","0","4","5","4","4","4","3","4","3","5","3","6","4","6","4","3","3","3","5","3","4","2","3","3","2","2","5","6","4","2","2","3","4","3","2","3","2","3","3","1","3","2","4","5","5","6","6","6","5","5","6","5","5","4","5","5","3","4","2","7","587598071420944384","李","181","Male","[""好他"",""好我"",""坏他"",""坏我""]","[""强他"",""强我"",""弱他"",""弱我""]","","","","","","","","match","","","","","","","","","","key","j","6.9540912408758135","768","428","j","true","match","img/ellipse.png","好他","好他","ALT2","moral","","","","","","","",""
"null","<span style='color:GreenYellow; font-size: 70px;'>正确! </span>","null","html-keyboard-response","121","315335","0.0-8.0-0.0-4.0-0.0-1.6","4","3","3","2","3","4","1","2","3","2","4","-1","0","-1","0","-2","-1","0","0","4","5","4","4","4","3","4","3","5","3","6","4","6","4","3","3","3","5","3","4","2","3","3","2","2","5","6","4","2","2","3","4","3","2","3","2","3","3","1","3","2","4","5","5","6","6","6","5","5","6","5","5","4","5","5","3","4","2","7","587598071420944384","李","181","Male","[""好他"",""好我"",""坏他"",""坏我""]","[""强他"",""强我"",""弱他"",""弱我""]","","","","","","","","","","","","","","","","","","","","","","","","","","","","","","feedback_test","","","","","","","",""
"696","","f","psychophysics","122","317034","0.0-8.0-0.0-4.0-0.0-0.7","4","3","3","2","3","4","1","2","3","2","4","-1","0","-1","0","-2","-1","0","0","4","5","4","4","4","3","4","3","5","3","6","4","6","4","3","3","3","5","3","4","2","3","3","2","2","5","6","4","2","2","3","4","3","2","3","2","3","3","1","3","2","4","5","5","6","6","6","5","5","6","5","5","4","5","5","3","4","2","7","587598071420944384","李","181","Male","[""好他"",""好我"",""坏他"",""坏我""]","[""强他"",""强我"",""弱他"",""弱我""]","","","","","","","","nonmatch","","","","","","","","","","key","f","6.9333456790124055","768","428","f","true","nonmatch","img/diamond.png","坏他","好我","ALT2","moral","","","","","","","",""
"null","<span style='color:GreenYellow; font-size: 70px;'>正确! </span>","null","html-keyboard-response","123","317537","0.0-8.0-0.0-4.0-0.0-1.7","4","3","3","2","3","4","1","2","3","2","4","-1","0","-1","0","-2","-1","0","0","4","5","4","4","4","3","4","3","5","3","6","4","6","4","3","3","3","5","3","4","2","3","3","2","2","5","6","4","2","2","3","4","3","2","3","2","3","3","1","3","2","4","5","5","6","6","6","5","5","6","5","5","4","5","5","3","4","2","7","587598071420944384","李","181","Male","[""好他"",""好我"",""坏他"",""坏我""]","[""强他"",""强我"",""弱他"",""弱我""]","","","","","","","","","","","","","","","","","","","","","","","","","","","","","","feedback_test","","","","","","","",""
"1019","","f","psychophysics","124","319557","0.0-8.0-0.0-4.0-0.0-0.8","4","3","3","2","3","4","1","2","3","2","4","-1","0","-1","0","-2","-1","0","0","4","5","4","4","4","3","4","3","5","3","6","4","6","4","3","3","3","5","3","4","2","3","3","2","2","5","6","4","2","2","3","4","3","2","3","2","3","3","1","3","2","4","5","5","6","6","6","5","5","6","5","5","4","5","5","3","4","2","7","587598071420944384","李","181","Male","[""好他"",""好我"",""坏他"",""坏我""]","[""强他"",""强我"",""弱他"",""弱我""]","","","","","","","","nonmatch","","","","","","","","","","key","f","6.955986159169647","768","428","f","true","nonmatch","img/diamond.png","好他","好我","ALT2","moral","","","","","","","",""
"null","<span style='color:GreenYellow; font-size: 70px;'>正确! </span>","null","html-keyboard-response","125","320058","0.0-8.0-0.0-4.0-0.0-1.8","4","3","3","2","3","4","1","2","3","2","4","-1","0","-1","0","-2","-1","0","0","4","5","4","4","4","3","4","3","5","3","6","4","6","4","3","3","3","5","3","4","2","3","3","2","2","5","6","4","2","2","3","4","3","2","3","2","3","3","1","3","2","4","5","5","6","6","6","5","5","6","5","5","4","5","5","3","4","2","7","587598071420944384","李","181","Male","[""好他"",""好我"",""坏他"",""坏我""]","[""强他"",""强我"",""弱他"",""弱我""]","","","","","","","","","","","","","","","","","","","","","","","","","","","","","","feedback_test","","","","","","","",""
"727","","j","psychophysics","126","321787","0.0-8.0-0.0-4.0-0.0-0.9","4","3","3","2","3","4","1","2","3","2","4","-1","0","-1","0","-2","-1","0","0","4","5","4","4","4","3","4","3","5","3","6","4","6","4","3","3","3","5","3","4","2","3","3","2","2","5","6","4","2","2","3","4","3","2","3","2","3","3","1","3","2","4","5","5","6","6","6","5","5","6","5","5","4","5","5","3","4","2","7","587598071420944384","李","181","Male","[""好他"",""好我"",""坏他"",""坏我""]","[""强他"",""强我"",""弱他"",""弱我""]","","","","","","","","match","","","","","","","","","","key","j","6.949858299595104","768","428","j","true","match","img/square.png","坏他","坏他","ALT2","moral","","","","","","","",""
"null","<span style='color:GreenYellow; font-size: 70px;'>正确! </span>","null","html-keyboard-response","127","322288","0.0-8.0-0.0-4.0-0.0-1.9","4","3","3","2","3","4","1","2","3","2","4","-1","0","-1","0","-2","-1","0","0","4","5","4","4","4","3","4","3","5","3","6","4","6","4","3","3","3","5","3","4","2","3","3","2","2","5","6","4","2","2","3","4","3","2","3","2","3","3","1","3","2","4","5","5","6","6","6","5","5","6","5","5","4","5","5","3","4","2","7","587598071420944384","李","181","Male","[""好他"",""好我"",""坏他"",""坏我""]","[""强他"",""强我"",""弱他"",""弱我""]","","","","","","","","","","","","","","","","","","","","","","","","","","","","","","feedback_test","","","","","","","",""
"890","","f","psychophysics","128","324180","0.0-8.0-0.0-4.0-0.0-0.10","4","3","3","2","3","4","1","2","3","2","4","-1","0","-1","0","-2","-1","0","0","4","5","4","4","4","3","4","3","5","3","6","4","6","4","3","3","3","5","3","4","2","3","3","2","2","5","6","4","2","2","3","4","3","2","3","2","3","3","1","3","2","4","5","5","6","6","6","5","5","6","5","5","4","5","5","3","4","2","7","587598071420944384","李","181","Male","[""好他"",""好我"",""坏他"",""坏我""]","[""强他"",""强我"",""弱他"",""弱我""]","","","","","","","","nonmatch","","","","","","","","","","key","f","6.933586715867079","768","428","f","true","nonmatch","img/hexagon.png","好我","坏我","ALT2","moral","","","","","","","",""
"null","<span style='color:GreenYellow; font-size: 70px;'>正确! </span>","null","html-keyboard-response","129","324681","0.0-8.0-0.0-4.0-0.0-1.10","4","3","3","2","3","4","1","2","3","2","4","-1","0","-1","0","-2","-1","0","0","4","5","4","4","4","3","4","3","5","3","6","4","6","4","3","3","3","5","3","4","2","3","3","2","2","5","6","4","2","2","3","4","3","2","3","2","3","3","1","3","2","4","5","5","6","6","6","5","5","6","5","5","4","5","5","3","4","2","7","587598071420944384","李","181","Male","[""好他"",""好我"",""坏他"",""坏我""]","[""强他"",""强我"",""弱他"",""弱我""]","","","","","","","","","","","","","","","","","","","","","","","","","","","","","","feedback_test","","","","","","","",""
"759","","j","psychophysics","130","326444","0.0-8.0-0.0-4.0-0.0-0.11","4","3","3","2","3","4","1","2","3","2","4","-1","0","-1","0","-2","-1","0","0","4","5","4","4","4","3","4","3","5","3","6","4","6","4","3","3","3","5","3","4","2","3","3","2","2","5","6","4","2","2","3","4","3","2","3","2","3","3","1","3","2","4","5","5","6","6","6","5","5","6","5","5","4","5","5","3","4","2","7","587598071420944384","李","181","Male","[""好他"",""好我"",""坏他"",""坏我""]","[""强他"",""强我"",""弱他"",""弱我""]","","","","","","","","match","","","","","","","","","","key","j","6.939666666666559","768","428","f","false","nonmatch","img/square.png","好我","坏他","ALT2","moral","","","","","","","",""
"null","<span style='color:red; font-size: 70px;'>错误! </span>","null","html-keyboard-response","131","326945","0.0-8.0-0.0-4.0-0.0-1.11","4","3","3","2","3","4","1","2","3","2","4","-1","0","-1","0","-2","-1","0","0","4","5","4","4","4","3","4","3","5","3","6","4","6","4","3","3","3","5","3","4","2","3","3","2","2","5","6","4","2","2","3","4","3","2","3","2","3","3","1","3","2","4","5","5","6","6","6","5","5","6","5","5","4","5","5","3","4","2","7","587598071420944384","李","181","Male","[""好他"",""好我"",""坏他"",""坏我""]","[""强他"",""强我"",""弱他"",""弱我""]","","","","","","","","","","","","","","","","","","","","","","","","","","","","","","feedback_test","","","","","","","",""
"910","","f","psychophysics","132","328858","0.0-8.0-0.0-4.0-0.0-0.12","4","3","3","2","3","4","1","2","3","2","4","-1","0","-1","0","-2","-1","0","0","4","5","4","4","4","3","4","3","5","3","6","4","6","4","3","3","3","5","3","4","2","3","3","2","2","5","6","4","2","2","3","4","3","2","3","2","3","3","1","3","2","4","5","5","6","6","6","5","5","6","5","5","4","5","5","3","4","2","7","587598071420944384","李","181","Male","[""好他"",""好我"",""坏他"",""坏我""]","[""强他"",""强我"",""弱他"",""弱我""]","","","","","","","","nonmatch","","","","","","","","","","key","f","6.938321167883127","768","428","f","true","nonmatch","img/square.png","好他","坏他","ALT2","moral","","","","","","","",""
"null","<span style='color:GreenYellow; font-size: 70px;'>正确! </span>","null","html-keyboard-response","133","329359","0.0-8.0-0.0-4.0-0.0-1.12","4","3","3","2","3","4","1","2","3","2","4","-1","0","-1","0","-2","-1","0","0","4","5","4","4","4","3","4","3","5","3","6","4","6","4","3","3","3","5","3","4","2","3","3","2","2","5","6","4","2","2","3","4","3","2","3","2","3","3","1","3","2","4","5","5","6","6","6","5","5","6","5","5","4","5","5","3","4","2","7","587598071420944384","李","181","Male","[""好他"",""好我"",""坏他"",""坏我""]","[""强他"",""强我"",""弱他"",""弱我""]","","","","","","","","","","","","","","","","","","","","","","","","","","","","","","feedback_test","","","","","","","",""
"915","","f","psychophysics","134","331275","0.0-8.0-0.0-4.0-0.0-0.13","4","3","3","2","3","4","1","2","3","2","4","-1","0","-1","0","-2","-1","0","0","4","5","4","4","4","3","4","3","5","3","6","4","6","4","3","3","3","5","3","4","2","3","3","2","2","5","6","4","2","2","3","4","3","2","3","2","3","3","1","3","2","4","5","5","6","6","6","5","5","6","5","5","4","5","5","3","4","2","7","587598071420944384","李","181","Male","[""好他"",""好我"",""坏他"",""坏我""]","[""强他"",""强我"",""弱他"",""弱我""]","","","","","","","","nonmatch","","","","","","","","","","key","f","6.948496350364881","768","428","f","true","nonmatch","img/hexagon.png","坏他","坏我","ALT2","moral","","","","","","","",""
"null","<span style='color:GreenYellow; font-size: 70px;'>正确! </span>","null","html-keyboard-response","135","331776","0.0-8.0-0.0-4.0-0.0-1.13","4","3","3","2","3","4","1","2","3","2","4","-1","0","-1","0","-2","-1","0","0","4","5","4","4","4","3","4","3","5","3","6","4","6","4","3","3","3","5","3","4","2","3","3","2","2","5","6","4","2","2","3","4","3","2","3","2","3","3","1","3","2","4","5","5","6","6","6","5","5","6","5","5","4","5","5","3","4","2","7","587598071420944384","李","181","Male","[""好他"",""好我"",""坏他"",""坏我""]","[""强他"",""强我"",""弱他"",""弱我""]","","","","","","","","","","","","","","","","","","","","","","","","","","","","","","feedback_test","","","","","","","",""
"952","","f","psychophysics","136","333730","0.0-8.0-0.0-4.0-0.0-0.14","4","3","3","2","3","4","1","2","3","2","4","-1","0","-1","0","-2","-1","0","0","4","5","4","4","4","3","4","3","5","3","6","4","6","4","3","3","3","5","3","4","2","3","3","2","2","5","6","4","2","2","3","4","3","2","3","2","3","3","1","3","2","4","5","5","6","6","6","5","5","6","5","5","4","5","5","3","4","2","7","587598071420944384","李","181","Male","[""好他"",""好我"",""坏他"",""坏我""]","[""强他"",""强我"",""弱他"",""弱我""]","","","","","","","","nonmatch","","","","","","","","","","key","f","6.9553870967742455","768","428","f","true","nonmatch","img/ellipse.png","坏他","好他","ALT2","moral","","","","","","","",""
"null","<span style='color:GreenYellow; font-size: 70px;'>正确! </span>","null","html-keyboard-response","137","334231","0.0-8.0-0.0-4.0-0.0-1.14","4","3","3","2","3","4","1","2","3","2","4","-1","0","-1","0","-2","-1","0","0","4","5","4","4","4","3","4","3","5","3","6","4","6","4","3","3","3","5","3","4","2","3","3","2","2","5","6","4","2","2","3","4","3","2","3","2","3","3","1","3","2","4","5","5","6","6","6","5","5","6","5","5","4","5","5","3","4","2","7","587598071420944384","李","181","Male","[""好他"",""好我"",""坏他"",""坏我""]","[""强他"",""强我"",""弱他"",""弱我""]","","","","","","","","","","","","","","","","","","","","","","","","","","","","","","feedback_test","","","","","","","",""
"888","","f","psychophysics","138","336124","0.0-8.0-0.0-4.0-0.0-0.15","4","3","3","2","3","4","1","2","3","2","4","-1","0","-1","0","-2","-1","0","0","4","5","4","4","4","3","4","3","5","3","6","4","6","4","3","3","3","5","3","4","2","3","3","2","2","5","6","4","2","2","3","4","3","2","3","2","3","3","1","3","2","4","5","5","6","6","6","5","5","6","5","5","4","5","5","3","4","2","7","587598071420944384","李","181","Male","[""好他"",""好我"",""坏他"",""坏我""]","[""强他"",""强我"",""弱他"",""弱我""]","","","","","","","","nonmatch","","","","","","","","","","key","f","6.93849077490777","768","428","j","false","match","img/diamond.png","好我","好我","ALT2","moral","","","","","","","",""
"null","<span style='color:red; font-size: 70px;'>错误! </span>","null","html-keyboard-response","139","336626","0.0-8.0-0.0-4.0-0.0-1.15","4","3","3","2","3","4","1","2","3","2","4","-1","0","-1","0","-2","-1","0","0","4","5","4","4","4","3","4","3","5","3","6","4","6","4","3","3","3","5","3","4","2","3","3","2","2","5","6","4","2","2","3","4","3","2","3","2","3","3","1","3","2","4","5","5","6","6","6","5","5","6","5","5","4","5","5","3","4","2","7","587598071420944384","李","181","Male","[""好他"",""好我"",""坏他"",""坏我""]","[""强他"",""强我"",""弱他"",""弱我""]","","","","","","","","","","","","","","","","","","","","","","","","","","","","","","feedback_test","","","","","","","",""
