"rt","stimulus","response","trial_type","trial_index","time_elapsed","internal_node_id","swb_1","swb_2","swb_3","swb_4","swb_5","LOT_1","LOT_2","LOT_3","LOT_4","LOT_5","LOT_6","IPC_1","IPC_2","IPC_3","IPC_4","IPC_5","IPC_6","IPC_7","IPC_8","MorIden_1","MorIden_2","MorIden_3","MorIden_4","MorIden_5","MorIden_6","MorIden_7","MorIden_8","MorIden_9","MorIden_10","moralSeImag_1","moralSeImag_2","moralSeImag_3","moralSeImag_4","moralSeImag_5","moralSeImag_6","moralSeImag_7","moralSeImag_8","moralSeImag_9","sde_1","sde_2","sde_3","sde_4","sde_5","sde_6","sde_7","sde_8","sde_9","sde_10","sde_11","sde_12","sde_13","sde_14","sde_15","sde_16","sde_17","sde_18","sde_19","sde_20","IM_1","IM_2","IM_3","IM_4","IM_5","IM_6","IM_7","IM_8","IM_9","IM_10","IM_11","IM_12","IM_13","IM_14","IM_15","IM_16","IM_17","IM_18","IM_19","IM_20","subj_idx","friend_name","ParticipantID","Sex","Word","Word2","value","success","timeout","failed_images","failed_audio","failed_video","user_agent","responses","item_order","radio_event_ids","radio_event_times","key_event_times","mouse_event_times","straightlining","zigzagging","honeypot","view_history","response_type","key_press","avg_frame_time","center_x","center_y","correct_response","correct","identity","Image","word","condition","task_id","screen_id","time_stamp","person","valence","domain","math","status","duration","question_order"
"16117","
   <p><div style='color:white; font-size: 25px'>您好，欢迎参加本次实验。</div></p>
   <p><div style='color:white; font-size: 25px'>为充分保障您的权利，请确保您已经知晓并同意《参与实验同意书》以及《数据公开知情同意书》。</div></p>
   <p><div style='color:white; font-size: 25px'>如果您未见过上述内容，请咨询实验员。</div></p>
   <p style='color:white; font-size: 25px'>如果您选择继续实验，则表示您已经清楚两份知情同意书的内容并同意。</p>
   <p> <div style = ""color: green""><按空格键至下页></div> </p>
   "," ","html-keyboard-response","0","16118","0.0-0.0","6","7","7","5","5","5","5","5","5","5","5","2","2","1","2","2","2","2","2","5","5","5","5","5","4","4","4","5","4","7","7","8","8","6","8","7","8","7","5","7","4","7","7","7","6","7","7","7","6","7","7","7","6","7","7","7","5","7","7","7","7","7","7","7","7","7","7","7","7","7","7","7","7","7","7","7","7","1","590543915338170368","李","613","Female","[""好她"",""好我"",""坏她"",""坏我""]","[""强她"",""强我"",""弱她"",""弱我""]","","","","","","","","","","","","","","","","","","","","","","","","","","","","","","","","","","","","","",""
"","","","call-function","1","16119","0.0-1.0-0.0","6","7","7","5","5","5","5","5","5","5","5","2","2","1","2","2","2","2","2","5","5","5","5","5","4","4","4","5","4","7","7","8","8","6","8","7","8","7","5","7","4","7","7","7","6","7","7","7","6","7","7","7","6","7","7","7","5","7","7","7","7","7","7","7","7","7","7","7","7","7","7","7","7","7","7","7","7","1","590543915338170368","李","613","Female","[""好她"",""好我"",""坏她"",""坏我""]","[""强她"",""强我"",""弱她"",""弱我""]","","","","","","","","","","","","","","","","","","","","","","","","","","","","","","","","","","","","","",""
"139434","","[{""name"":""Sex"",""value"":""1""},{""name"":""friend_name"",""value"":""李""},{""name"":""ParticipantID"",""value"":""613""}]","survey-html-form","2","155553","0.0-1.0-1.0","6","7","7","5","5","5","5","5","5","5","5","2","2","1","2","2","2","2","2","5","5","5","5","5","4","4","4","5","4","7","7","8","8","6","8","7","8","7","5","7","4","7","7","7","6","7","7","7","6","7","7","7","6","7","7","7","5","7","7","7","7","7","7","7","7","7","7","7","7","7","7","7","7","7","7","7","7","1","590543915338170368","李","613","Female","[""好她"",""好我"",""坏她"",""坏我""]","[""强她"",""强我"",""弱她"",""弱我""]","","","","","","","","","","","","","","","","","","","","","","","","","","","","","","","","","","","","","",""
"","","","preload","3","155943","0.0-2.0","6","7","7","5","5","5","5","5","5","5","5","2","2","1","2","2","2","2","2","5","5","5","5","5","4","4","4","5","4","7","7","8","8","6","8","7","8","7","5","7","4","7","7","7","6","7","7","7","6","7","7","7","6","7","7","7","5","7","7","7","7","7","7","7","7","7","7","7","7","7","7","7","7","7","7","7","7","1","590543915338170368","李","613","Female","[""好她"",""好我"",""坏她"",""坏我""]","[""强她"",""强我"",""弱她"",""弱我""]","","true","false","[]","[]","[]","","","","","","","","","","","","","","","","","","","","","","","","","","","","","","","",""
"","","","fullscreen","4","157824","0.0-3.0","6","7","7","5","5","5","5","5","5","5","5","2","2","1","2","2","2","2","2","5","5","5","5","5","4","4","4","5","4","7","7","8","8","6","8","7","8","7","5","7","4","7","7","7","6","7","7","7","6","7","7","7","6","7","7","7","5","7","7","7","7","7","7","7","7","7","7","7","7","7","7","7","7","7","7","7","7","1","590543915338170368","李","613","Female","[""好她"",""好我"",""坏她"",""坏我""]","[""强她"",""强我"",""弱她"",""弱我""]","","true","","","","","{}","","","","","","","","","","","","","","","","","","","","","","","","","","","","","","",""
"18508.59999999404","","{""Q01"":""6"",""Q02"":""7"",""Q03"":""7"",""Q04"":""5"",""Q05"":""5""}","survey-template","5","176334","0.0-4.0","6","7","7","5","5","5","5","5","5","5","5","2","2","1","2","2","2","2","2","5","5","5","5","5","4","4","4","5","4","7","7","8","8","6","8","7","8","7","5","7","4","7","7","7","6","7","7","7","6","7","7","7","6","7","7","7","5","7","7","7","7","7","7","7","7","7","7","7","7","7","7","7","7","7","7","7","7","1","590543915338170368","李","613","Female","[""好她"",""好我"",""坏她"",""坏我""]","[""强她"",""强我"",""弱她"",""弱我""]","","","","","","","","{""Q01"":""6"",""Q02"":""7"",""Q03"":""7"",""Q04"":""5"",""Q05"":""5""}","[0,1,2,3,4]","[""Q01"",""Q02"",""Q03"",""Q04"",""Q05""]","[2264.3999999910593,3259.7000000029802,4091.5999999940395,5499.79999999702,6443.5999999940395]","[]","[2264.3999999910593,3259.7000000029802,4091.5999999940395,5499.79999999702,6443.5999999940395,10043.59999999404,18507.70000000298]","0.4","0.25","0","","","","","","","","","","","","","","","","","","","","","",""
"59556.70000000298","","{""Q01"":""5"",""Q02"":""5"",""Q03"":""5"",""Q04"":""5"",""Q05"":""5"",""Q06"":""5""}","survey-template","6","235894","0.0-5.0","6","7","7","5","5","5","5","5","5","5","5","2","2","1","2","2","2","2","2","5","5","5","5","5","4","4","4","5","4","7","7","8","8","6","8","7","8","7","5","7","4","7","7","7","6","7","7","7","6","7","7","7","6","7","7","7","5","7","7","7","7","7","7","7","7","7","7","7","7","7","7","7","7","7","7","7","7","1","590543915338170368","李","613","Female","[""好她"",""好我"",""坏她"",""坏我""]","[""强她"",""强我"",""弱她"",""弱我""]","","","","","","","","{""Q01"":""5"",""Q02"":""5"",""Q03"":""5"",""Q04"":""5"",""Q05"":""5"",""Q06"":""5""}","[0,1,2,3,4,5]","[""Q01"",""Q02"",""Q03"",""Q04"",""Q05"",""Q06""]","[3116.5,7989.4000000059605,16293.5,20460.20000000298,27284.30000001192,31692.20000000298]","[]","[3116.5,7012.300000011921,7989.4000000059605,16293.5,20460.20000000298,26852.60000000894,27284.30000001192,30868.20000000298,31228.20000000298,31692.20000000298,59556.20000000298]","0.5","0.8","0","","","","","","","","","","","","","","","","","","","","","",""
"37134.39999999106","","{""Q01"":""2"",""Q02"":""2"",""Q03"":""1"",""Q04"":""2"",""Q05"":""2"",""Q06"":""2"",""Q07"":""2"",""Q08"":""2""}","survey-template","7","273030","0.0-6.0","6","7","7","5","5","5","5","5","5","5","5","2","2","1","2","2","2","2","2","5","5","5","5","5","4","4","4","5","4","7","7","8","8","6","8","7","8","7","5","7","4","7","7","7","6","7","7","7","6","7","7","7","6","7","7","7","5","7","7","7","7","7","7","7","7","7","7","7","7","7","7","7","7","7","7","7","7","1","590543915338170368","李","613","Female","[""好她"",""好我"",""坏她"",""坏我""]","[""强她"",""强我"",""弱她"",""弱我""]","","","","","","","","{""Q01"":""2"",""Q02"":""2"",""Q03"":""1"",""Q04"":""2"",""Q05"":""2"",""Q06"":""2"",""Q07"":""2"",""Q08"":""2""}","[0,1,2,3,4,5,6,7]","[""Q01"",""Q02"",""Q03"",""Q04"",""Q05"",""Q06"",""Q07"",""Q08"",""Q08""]","[8477.89999999106,11838.09999999404,15021.89999999106,21853.79999999702,25122.19999998808,26893.89999999106,32318,36382.29999999702,36678.19999998808]","[]","[8174.199999988079,8477.89999999106,11838.09999999404,15021.89999999106,21853.79999999702,24686.79999999702,25122.19999998808,26893.89999999106,32318,35990.59999999404,36382.29999999702,36678.19999998808,37133.79999999702]","0.875","0.2857142857142857","0","","","","","","","","","","","","","","","","","","","","","",""
"37842","","","instructions","8","310873","0.0-7.0","6","7","7","5","5","5","5","5","5","5","5","2","2","1","2","2","2","2","2","5","5","5","5","5","4","4","4","5","4","7","7","8","8","6","8","7","8","7","5","7","4","7","7","7","6","7","7","7","6","7","7","7","6","7","7","7","5","7","7","7","7","7","7","7","7","7","7","7","7","7","7","7","7","7","7","7","7","1","590543915338170368","李","613","Female","[""好她"",""好我"",""坏她"",""坏我""]","[""强她"",""强我"",""弱她"",""弱我""]","","","","","","","","","","","","","","","","","[{""page_index"":0,""viewing_time"":37842}]","","","","","","","","","","","","","","","","","","","","",""
"141671","","","instructions","9","452545","0.0-8.0-0.0-0.0","6","7","7","5","5","5","5","5","5","5","5","2","2","1","2","2","2","2","2","5","5","5","5","5","4","4","4","5","4","7","7","8","8","6","8","7","8","7","5","7","4","7","7","7","6","7","7","7","6","7","7","7","6","7","7","7","5","7","7","7","7","7","7","7","7","7","7","7","7","7","7","7","7","7","7","7","7","1","590543915338170368","李","613","Female","[""好她"",""好我"",""坏她"",""坏我""]","[""强她"",""强我"",""弱她"",""弱我""]","","","","","","","","","","","","","","","","","[{""page_index"":0,""viewing_time"":20110},{""page_index"":1,""viewing_time"":105212},{""page_index"":2,""viewing_time"":13760},{""page_index"":3,""viewing_time"":2588}]","","","","","","","","","","","","","","","","","","","","",""
"841","","j","psychophysics","10","454389","0.0-8.0-0.0-1.0-0.0-0.0","6","7","7","5","5","5","5","5","5","5","5","2","2","1","2","2","2","2","2","5","5","5","5","5","4","4","4","5","4","7","7","8","8","6","8","7","8","7","5","7","4","7","7","7","6","7","7","7","6","7","7","7","6","7","7","7","5","7","7","7","7","7","7","7","7","7","7","7","7","7","7","7","7","7","7","7","7","1","590543915338170368","李","613","Female","[""好她"",""好我"",""坏她"",""坏我""]","[""强她"",""强我"",""弱她"",""弱我""]","","","","","","","","match","","","","","","","","","","key","j","8.332835616438372","853.3333333333334","476","j","true","match","img/hexagon.png","好我","好我","prac_ALT2_moral","practice_moral","","","","","","","",""
"null","<span style='color:GreenYellow; font-size: 70px;'>正确! </span>","null","html-keyboard-response","11","454896","0.0-8.0-0.0-1.0-0.0-1.0","6","7","7","5","5","5","5","5","5","5","5","2","2","1","2","2","2","2","2","5","5","5","5","5","4","4","4","5","4","7","7","8","8","6","8","7","8","7","5","7","4","7","7","7","6","7","7","7","6","7","7","7","6","7","7","7","5","7","7","7","7","7","7","7","7","7","7","7","7","7","7","7","7","7","7","7","7","1","590543915338170368","李","613","Female","[""好她"",""好我"",""坏她"",""坏我""]","[""强她"",""强我"",""弱她"",""弱我""]","","","","","","","","","","","","","","","","","","","","","","","","","","","","","","feedback_test","","","","","","","",""
"732","","f","psychophysics","12","456629","0.0-8.0-0.0-1.0-0.0-0.1","6","7","7","5","5","5","5","5","5","5","5","2","2","1","2","2","2","2","2","5","5","5","5","5","4","4","4","5","4","7","7","8","8","6","8","7","8","7","5","7","4","7","7","7","6","7","7","7","6","7","7","7","6","7","7","7","5","7","7","7","7","7","7","7","7","7","7","7","7","7","7","7","7","7","7","7","7","1","590543915338170368","李","613","Female","[""好她"",""好我"",""坏她"",""坏我""]","[""强她"",""强我"",""弱她"",""弱我""]","","","","","","","","nonmatch","","","","","","","","","","key","f","8.333713592232987","853.3333333333334","476","f","true","nonmatch","img/circle.png","好我","好她","prac_ALT2_moral","practice_moral","","","","","","","",""
"null","<span style='color:GreenYellow; font-size: 70px;'>正确! </span>","null","html-keyboard-response","13","457136","0.0-8.0-0.0-1.0-0.0-1.1","6","7","7","5","5","5","5","5","5","5","5","2","2","1","2","2","2","2","2","5","5","5","5","5","4","4","4","5","4","7","7","8","8","6","8","7","8","7","5","7","4","7","7","7","6","7","7","7","6","7","7","7","6","7","7","7","5","7","7","7","7","7","7","7","7","7","7","7","7","7","7","7","7","7","7","7","7","1","590543915338170368","李","613","Female","[""好她"",""好我"",""坏她"",""坏我""]","[""强她"",""强我"",""弱她"",""弱我""]","","","","","","","","","","","","","","","","","","","","","","","","","","","","","","feedback_test","","","","","","","",""
"843","","j","psychophysics","14","458981","0.0-8.0-0.0-1.0-0.0-0.2","6","7","7","5","5","5","5","5","5","5","5","2","2","1","2","2","2","2","2","5","5","5","5","5","4","4","4","5","4","7","7","8","8","6","8","7","8","7","5","7","4","7","7","7","6","7","7","7","6","7","7","7","6","7","7","7","5","7","7","7","7","7","7","7","7","7","7","7","7","7","7","7","7","7","7","7","7","1","590543915338170368","李","613","Female","[""好她"",""好我"",""坏她"",""坏我""]","[""强她"",""强我"",""弱她"",""弱我""]","","","","","","","","match","","","","","","","","","","key","j","8.334127272727148","853.3333333333334","476","j","true","match","img/trapezoid.png","坏我","坏我","prac_ALT2_moral","practice_moral","","","","","","","",""
"null","<span style='color:GreenYellow; font-size: 70px;'>正确! </span>","null","html-keyboard-response","15","459483","0.0-8.0-0.0-1.0-0.0-1.2","6","7","7","5","5","5","5","5","5","5","5","2","2","1","2","2","2","2","2","5","5","5","5","5","4","4","4","5","4","7","7","8","8","6","8","7","8","7","5","7","4","7","7","7","6","7","7","7","6","7","7","7","6","7","7","7","5","7","7","7","7","7","7","7","7","7","7","7","7","7","7","7","7","7","7","7","7","1","590543915338170368","李","613","Female","[""好她"",""好我"",""坏她"",""坏我""]","[""强她"",""强我"",""弱她"",""弱我""]","","","","","","","","","","","","","","","","","","","","","","","","","","","","","","feedback_test","","","","","","","",""
"943","","j","psychophysics","16","461429","0.0-8.0-0.0-1.0-0.0-0.3","6","7","7","5","5","5","5","5","5","5","5","2","2","1","2","2","2","2","2","5","5","5","5","5","4","4","4","5","4","7","7","8","8","6","8","7","8","7","5","7","4","7","7","7","6","7","7","7","6","7","7","7","6","7","7","7","5","7","7","7","7","7","7","7","7","7","7","7","7","7","7","7","7","7","7","7","7","1","590543915338170368","李","613","Female","[""好她"",""好我"",""坏她"",""坏我""]","[""强她"",""强我"",""弱她"",""弱我""]","","","","","","","","match","","","","","","","","","","key","j","8.33266379310351","853.3333333333334","476","f","false","nonmatch","img/hexagon.png","好她","好我","prac_ALT2_moral","practice_moral","","","","","","","",""
"null","<span style='color:red; font-size: 70px;'>错误! </span>","null","html-keyboard-response","17","461936","0.0-8.0-0.0-1.0-0.0-1.3","6","7","7","5","5","5","5","5","5","5","5","2","2","1","2","2","2","2","2","5","5","5","5","5","4","4","4","5","4","7","7","8","8","6","8","7","8","7","5","7","4","7","7","7","6","7","7","7","6","7","7","7","6","7","7","7","5","7","7","7","7","7","7","7","7","7","7","7","7","7","7","7","7","7","7","7","7","1","590543915338170368","李","613","Female","[""好她"",""好我"",""坏她"",""坏我""]","[""强她"",""强我"",""弱她"",""弱我""]","","","","","","","","","","","","","","","","","","","","","","","","","","","","","","feedback_test","","","","","","","",""
"812","","j","psychophysics","18","463749","0.0-8.0-0.0-1.0-0.0-0.4","6","7","7","5","5","5","5","5","5","5","5","2","2","1","2","2","2","2","2","5","5","5","5","5","4","4","4","5","4","7","7","8","8","6","8","7","8","7","5","7","4","7","7","7","6","7","7","7","6","7","7","7","6","7","7","7","5","7","7","7","7","7","7","7","7","7","7","7","7","7","7","7","7","7","7","7","7","1","590543915338170368","李","613","Female","[""好她"",""好我"",""坏她"",""坏我""]","[""强她"",""强我"",""弱她"",""弱我""]","","","","","","","","match","","","","","","","","","","key","j","8.332050925925918","853.3333333333334","476","j","true","match","img/hexagon.png","好我","好我","prac_ALT2_moral","practice_moral","","","","","","","",""
"null","<span style='color:GreenYellow; font-size: 70px;'>正确! </span>","null","html-keyboard-response","19","464256","0.0-8.0-0.0-1.0-0.0-1.4","6","7","7","5","5","5","5","5","5","5","5","2","2","1","2","2","2","2","2","5","5","5","5","5","4","4","4","5","4","7","7","8","8","6","8","7","8","7","5","7","4","7","7","7","6","7","7","7","6","7","7","7","6","7","7","7","5","7","7","7","7","7","7","7","7","7","7","7","7","7","7","7","7","7","7","7","7","1","590543915338170368","李","613","Female","[""好她"",""好我"",""坏她"",""坏我""]","[""强她"",""强我"",""弱她"",""弱我""]","","","","","","","","","","","","","","","","","","","","","","","","","","","","","","feedback_test","","","","","","","",""
"1100","","j","psychophysics","20","466357","0.0-8.0-0.0-1.0-0.0-0.5","6","7","7","5","5","5","5","5","5","5","5","2","2","1","2","2","2","2","2","5","5","5","5","5","4","4","4","5","4","7","7","8","8","6","8","7","8","7","5","7","4","7","7","7","6","7","7","7","6","7","7","7","6","7","7","7","5","7","7","7","7","7","7","7","7","7","7","7","7","7","7","7","7","7","7","7","7","1","590543915338170368","李","613","Female","[""好她"",""好我"",""坏她"",""坏我""]","[""强她"",""强我"",""弱她"",""弱我""]","","","","","","","","match","","","","","","","","","","key","j","8.332557768924339","853.3333333333334","476","j","true","match","img/triangle.png","坏她","坏她","prac_ALT2_moral","practice_moral","","","","","","","",""
"null","<span style='color:GreenYellow; font-size: 70px;'>正确! </span>","null","html-keyboard-response","21","466864","0.0-8.0-0.0-1.0-0.0-1.5","6","7","7","5","5","5","5","5","5","5","5","2","2","1","2","2","2","2","2","5","5","5","5","5","4","4","4","5","4","7","7","8","8","6","8","7","8","7","5","7","4","7","7","7","6","7","7","7","6","7","7","7","6","7","7","7","5","7","7","7","7","7","7","7","7","7","7","7","7","7","7","7","7","7","7","7","7","1","590543915338170368","李","613","Female","[""好她"",""好我"",""坏她"",""坏我""]","[""强她"",""强我"",""弱她"",""弱我""]","","","","","","","","","","","","","","","","","","","","","","","","","","","","","","feedback_test","","","","","","","",""
"1188","","f","psychophysics","22","469053","0.0-8.0-0.0-1.0-0.0-0.6","6","7","7","5","5","5","5","5","5","5","5","2","2","1","2","2","2","2","2","5","5","5","5","5","4","4","4","5","4","7","7","8","8","6","8","7","8","7","5","7","4","7","7","7","6","7","7","7","6","7","7","7","6","7","7","7","5","7","7","7","7","7","7","7","7","7","7","7","7","7","7","7","7","7","7","7","7","1","590543915338170368","李","613","Female","[""好她"",""好我"",""坏她"",""坏我""]","[""强她"",""强我"",""弱她"",""弱我""]","","","","","","","","nonmatch","","","","","","","","","","key","f","8.333881226053792","853.3333333333334","476","f","true","nonmatch","img/circle.png","坏我","好她","prac_ALT2_moral","practice_moral","","","","","","","",""
"null","<span style='color:GreenYellow; font-size: 70px;'>正确! </span>","null","html-keyboard-response","23","469560","0.0-8.0-0.0-1.0-0.0-1.6","6","7","7","5","5","5","5","5","5","5","5","2","2","1","2","2","2","2","2","5","5","5","5","5","4","4","4","5","4","7","7","8","8","6","8","7","8","7","5","7","4","7","7","7","6","7","7","7","6","7","7","7","6","7","7","7","5","7","7","7","7","7","7","7","7","7","7","7","7","7","7","7","7","7","7","7","7","1","590543915338170368","李","613","Female","[""好她"",""好我"",""坏她"",""坏我""]","[""强她"",""强我"",""弱她"",""弱我""]","","","","","","","","","","","","","","","","","","","","","","","","","","","","","","feedback_test","","","","","","","",""
"947","","f","psychophysics","24","471508","0.0-8.0-0.0-1.0-0.0-0.7","6","7","7","5","5","5","5","5","5","5","5","2","2","1","2","2","2","2","2","5","5","5","5","5","4","4","4","5","4","7","7","8","8","6","8","7","8","7","5","7","4","7","7","7","6","7","7","7","6","7","7","7","6","7","7","7","5","7","7","7","7","7","7","7","7","7","7","7","7","7","7","7","7","7","7","7","7","1","590543915338170368","李","613","Female","[""好她"",""好我"",""坏她"",""坏我""]","[""强她"",""强我"",""弱她"",""弱我""]","","","","","","","","nonmatch","","","","","","","","","","key","f","8.334099137931029","853.3333333333334","476","f","true","nonmatch","img/hexagon.png","坏她","好我","prac_ALT2_moral","practice_moral","","","","","","","",""
"null","<span style='color:GreenYellow; font-size: 70px;'>正确! </span>","null","html-keyboard-response","25","472015","0.0-8.0-0.0-1.0-0.0-1.7","6","7","7","5","5","5","5","5","5","5","5","2","2","1","2","2","2","2","2","5","5","5","5","5","4","4","4","5","4","7","7","8","8","6","8","7","8","7","5","7","4","7","7","7","6","7","7","7","6","7","7","7","6","7","7","7","5","7","7","7","7","7","7","7","7","7","7","7","7","7","7","7","7","7","7","7","7","1","590543915338170368","李","613","Female","[""好她"",""好我"",""坏她"",""坏我""]","[""强她"",""强我"",""弱她"",""弱我""]","","","","","","","","","","","","","","","","","","","","","","","","","","","","","","feedback_test","","","","","","","",""
"965","","j","psychophysics","26","473981","0.0-8.0-0.0-1.0-0.0-0.8","6","7","7","5","5","5","5","5","5","5","5","2","2","1","2","2","2","2","2","5","5","5","5","5","4","4","4","5","4","7","7","8","8","6","8","7","8","7","5","7","4","7","7","7","6","7","7","7","6","7","7","7","6","7","7","7","5","7","7","7","7","7","7","7","7","7","7","7","7","7","7","7","7","7","7","7","7","1","590543915338170368","李","613","Female","[""好她"",""好我"",""坏她"",""坏我""]","[""强她"",""强我"",""弱她"",""弱我""]","","","","","","","","match","","","","","","","","","","key","j","8.333358974358948","853.3333333333334","476","f","false","nonmatch","img/hexagon.png","坏我","好我","prac_ALT2_moral","practice_moral","","","","","","","",""
"null","<span style='color:red; font-size: 70px;'>错误! </span>","null","html-keyboard-response","27","474489","0.0-8.0-0.0-1.0-0.0-1.8","6","7","7","5","5","5","5","5","5","5","5","2","2","1","2","2","2","2","2","5","5","5","5","5","4","4","4","5","4","7","7","8","8","6","8","7","8","7","5","7","4","7","7","7","6","7","7","7","6","7","7","7","6","7","7","7","5","7","7","7","7","7","7","7","7","7","7","7","7","7","7","7","7","7","7","7","7","1","590543915338170368","李","613","Female","[""好她"",""好我"",""坏她"",""坏我""]","[""强她"",""强我"",""弱她"",""弱我""]","","","","","","","","","","","","","","","","","","","","","","","","","","","","","","feedback_test","","","","","","","",""
"819","","f","psychophysics","28","476309","0.0-8.0-0.0-1.0-0.0-0.9","6","7","7","5","5","5","5","5","5","5","5","2","2","1","2","2","2","2","2","5","5","5","5","5","4","4","4","5","4","7","7","8","8","6","8","7","8","7","5","7","4","7","7","7","6","7","7","7","6","7","7","7","6","7","7","7","5","7","7","7","7","7","7","7","7","7","7","7","7","7","7","7","7","7","7","7","7","1","590543915338170368","李","613","Female","[""好她"",""好我"",""坏她"",""坏我""]","[""强她"",""强我"",""弱她"",""弱我""]","","","","","","","","nonmatch","","","","","","","","","","key","f","8.331557603686788","853.3333333333334","476","f","true","nonmatch","img/trapezoid.png","好她","坏我","prac_ALT2_moral","practice_moral","","","","","","","",""
"null","<span style='color:GreenYellow; font-size: 70px;'>正确! </span>","null","html-keyboard-response","29","476816","0.0-8.0-0.0-1.0-0.0-1.9","6","7","7","5","5","5","5","5","5","5","5","2","2","1","2","2","2","2","2","5","5","5","5","5","4","4","4","5","4","7","7","8","8","6","8","7","8","7","5","7","4","7","7","7","6","7","7","7","6","7","7","7","6","7","7","7","5","7","7","7","7","7","7","7","7","7","7","7","7","7","7","7","7","7","7","7","7","1","590543915338170368","李","613","Female","[""好她"",""好我"",""坏她"",""坏我""]","[""强她"",""强我"",""弱她"",""弱我""]","","","","","","","","","","","","","","","","","","","","","","","","","","","","","","feedback_test","","","","","","","",""
"964","","f","psychophysics","30","478781","0.0-8.0-0.0-1.0-0.0-0.10","6","7","7","5","5","5","5","5","5","5","5","2","2","1","2","2","2","2","2","5","5","5","5","5","4","4","4","5","4","7","7","8","8","6","8","7","8","7","5","7","4","7","7","7","6","7","7","7","6","7","7","7","6","7","7","7","5","7","7","7","7","7","7","7","7","7","7","7","7","7","7","7","7","7","7","7","7","1","590543915338170368","李","613","Female","[""好她"",""好我"",""坏她"",""坏我""]","[""强她"",""强我"",""弱她"",""弱我""]","","","","","","","","nonmatch","","","","","","","","","","key","f","8.333931623931434","853.3333333333334","476","f","true","nonmatch","img/triangle.png","坏我","坏她","prac_ALT2_moral","practice_moral","","","","","","","",""
"null","<span style='color:GreenYellow; font-size: 70px;'>正确! </span>","null","html-keyboard-response","31","479288","0.0-8.0-0.0-1.0-0.0-1.10","6","7","7","5","5","5","5","5","5","5","5","2","2","1","2","2","2","2","2","5","5","5","5","5","4","4","4","5","4","7","7","8","8","6","8","7","8","7","5","7","4","7","7","7","6","7","7","7","6","7","7","7","6","7","7","7","5","7","7","7","7","7","7","7","7","7","7","7","7","7","7","7","7","7","7","7","7","1","590543915338170368","李","613","Female","[""好她"",""好我"",""坏她"",""坏我""]","[""强她"",""强我"",""弱她"",""弱我""]","","","","","","","","","","","","","","","","","","","","","","","","","","","","","","feedback_test","","","","","","","",""
"null","","null","psychophysics","32","481490","0.0-8.0-0.0-1.0-0.0-0.11","6","7","7","5","5","5","5","5","5","5","5","2","2","1","2","2","2","2","2","5","5","5","5","5","4","4","4","5","4","7","7","8","8","6","8","7","8","7","5","7","4","7","7","7","6","7","7","7","6","7","7","7","6","7","7","7","5","7","7","7","7","7","7","7","7","7","7","7","7","7","7","7","7","7","7","7","7","1","590543915338170368","李","613","Female","[""好她"",""好我"",""坏她"",""坏我""]","[""强她"",""强我"",""弱她"",""弱我""]","","","","","","","","null","","","","","","","","","","key","null","8.333642585551413","853.3333333333334","476","f","false","nonmatch","img/circle.png","坏她","好她","prac_ALT2_moral","practice_moral","","","","","","","",""
"null","<span class='add_' style='color:yellow; font-size: 70px;'> 太慢! </span>","null","html-keyboard-response","33","481997","0.0-8.0-0.0-1.0-0.0-1.11","6","7","7","5","5","5","5","5","5","5","5","2","2","1","2","2","2","2","2","5","5","5","5","5","4","4","4","5","4","7","7","8","8","6","8","7","8","7","5","7","4","7","7","7","6","7","7","7","6","7","7","7","6","7","7","7","5","7","7","7","7","7","7","7","7","7","7","7","7","7","7","7","7","7","7","7","7","1","590543915338170368","李","613","Female","[""好她"",""好我"",""坏她"",""坏我""]","[""强她"",""强我"",""弱她"",""弱我""]","","","","","","","","","","","","","","","","","","","","","","","","","","","","","","feedback_test","","","","","","","",""
"999","","f","psychophysics","34","483997","0.0-8.0-0.0-1.0-0.0-0.12","6","7","7","5","5","5","5","5","5","5","5","2","2","1","2","2","2","2","2","5","5","5","5","5","4","4","4","5","4","7","7","8","8","6","8","7","8","7","5","7","4","7","7","7","6","7","7","7","6","7","7","7","6","7","7","7","5","7","7","7","7","7","7","7","7","7","7","7","7","7","7","7","7","7","7","7","7","1","590543915338170368","李","613","Female","[""好她"",""好我"",""坏她"",""坏我""]","[""强她"",""强我"",""弱她"",""弱我""]","","","","","","","","nonmatch","","","","","","","","","","key","f","8.3323025210086","853.3333333333334","476","f","true","nonmatch","img/trapezoid.png","坏她","坏我","prac_ALT2_moral","practice_moral","","","","","","","",""
"null","<span style='color:GreenYellow; font-size: 70px;'>正确! </span>","null","html-keyboard-response","35","484497","0.0-8.0-0.0-1.0-0.0-1.12","6","7","7","5","5","5","5","5","5","5","5","2","2","1","2","2","2","2","2","5","5","5","5","5","4","4","4","5","4","7","7","8","8","6","8","7","8","7","5","7","4","7","7","7","6","7","7","7","6","7","7","7","6","7","7","7","5","7","7","7","7","7","7","7","7","7","7","7","7","7","7","7","7","7","7","7","7","1","590543915338170368","李","613","Female","[""好她"",""好我"",""坏她"",""坏我""]","[""强她"",""强我"",""弱她"",""弱我""]","","","","","","","","","","","","","","","","","","","","","","","","","","","","","","feedback_test","","","","","","","",""
"1186","","j","psychophysics","36","486685","0.0-8.0-0.0-1.0-0.0-0.13","6","7","7","5","5","5","5","5","5","5","5","2","2","1","2","2","2","2","2","5","5","5","5","5","4","4","4","5","4","7","7","8","8","6","8","7","8","7","5","7","4","7","7","7","6","7","7","7","6","7","7","7","6","7","7","7","5","7","7","7","7","7","7","7","7","7","7","7","7","7","7","7","7","7","7","7","7","1","590543915338170368","李","613","Female","[""好她"",""好我"",""坏她"",""坏我""]","[""强她"",""强我"",""弱她"",""弱我""]","","","","","","","","match","","","","","","","","","","key","j","8.334176245210845","853.3333333333334","476","j","true","match","img/hexagon.png","好我","好我","prac_ALT2_moral","practice_moral","","","","","","","",""
"null","<span style='color:GreenYellow; font-size: 70px;'>正确! </span>","null","html-keyboard-response","37","487192","0.0-8.0-0.0-1.0-0.0-1.13","6","7","7","5","5","5","5","5","5","5","5","2","2","1","2","2","2","2","2","5","5","5","5","5","4","4","4","5","4","7","7","8","8","6","8","7","8","7","5","7","4","7","7","7","6","7","7","7","6","7","7","7","6","7","7","7","5","7","7","7","7","7","7","7","7","7","7","7","7","7","7","7","7","7","7","7","7","1","590543915338170368","李","613","Female","[""好她"",""好我"",""坏她"",""坏我""]","[""强她"",""强我"",""弱她"",""弱我""]","","","","","","","","","","","","","","","","","","","","","","","","","","","","","","feedback_test","","","","","","","",""
"924","","j","psychophysics","38","489117","0.0-8.0-0.0-1.0-0.0-0.14","6","7","7","5","5","5","5","5","5","5","5","2","2","1","2","2","2","2","2","5","5","5","5","5","4","4","4","5","4","7","7","8","8","6","8","7","8","7","5","7","4","7","7","7","6","7","7","7","6","7","7","7","6","7","7","7","5","7","7","7","7","7","7","7","7","7","7","7","7","7","7","7","7","7","7","7","7","1","590543915338170368","李","613","Female","[""好她"",""好我"",""坏她"",""坏我""]","[""强她"",""强我"",""弱她"",""弱我""]","","","","","","","","match","","","","","","","","","","key","j","8.332707423580796","853.3333333333334","476","j","true","match","img/circle.png","好她","好她","prac_ALT2_moral","practice_moral","","","","","","","",""
"null","<span style='color:GreenYellow; font-size: 70px;'>正确! </span>","null","html-keyboard-response","39","489623","0.0-8.0-0.0-1.0-0.0-1.14","6","7","7","5","5","5","5","5","5","5","5","2","2","1","2","2","2","2","2","5","5","5","5","5","4","4","4","5","4","7","7","8","8","6","8","7","8","7","5","7","4","7","7","7","6","7","7","7","6","7","7","7","6","7","7","7","5","7","7","7","7","7","7","7","7","7","7","7","7","7","7","7","7","7","7","7","7","1","590543915338170368","李","613","Female","[""好她"",""好我"",""坏她"",""坏我""]","[""强她"",""强我"",""弱她"",""弱我""]","","","","","","","","","","","","","","","","","","","","","","","","","","","","","","feedback_test","","","","","","","",""
"748","","j","psychophysics","40","491373","0.0-8.0-0.0-1.0-0.0-0.15","6","7","7","5","5","5","5","5","5","5","5","2","2","1","2","2","2","2","2","5","5","5","5","5","4","4","4","5","4","7","7","8","8","6","8","7","8","7","5","7","4","7","7","7","6","7","7","7","6","7","7","7","6","7","7","7","5","7","7","7","7","7","7","7","7","7","7","7","7","7","7","7","7","7","7","7","7","1","590543915338170368","李","613","Female","[""好她"",""好我"",""坏她"",""坏我""]","[""强她"",""强我"",""弱她"",""弱我""]","","","","","","","","match","","","","","","","","","","key","j","8.33396634615397","853.3333333333334","476","f","false","nonmatch","img/triangle.png","好她","坏她","prac_ALT2_moral","practice_moral","","","","","","","",""
"null","<span style='color:red; font-size: 70px;'>错误! </span>","null","html-keyboard-response","41","491879","0.0-8.0-0.0-1.0-0.0-1.15","6","7","7","5","5","5","5","5","5","5","5","2","2","1","2","2","2","2","2","5","5","5","5","5","4","4","4","5","4","7","7","8","8","6","8","7","8","7","5","7","4","7","7","7","6","7","7","7","6","7","7","7","6","7","7","7","5","7","7","7","7","7","7","7","7","7","7","7","7","7","7","7","7","7","7","7","7","1","590543915338170368","李","613","Female","[""好她"",""好我"",""坏她"",""坏我""]","[""强她"",""强我"",""弱她"",""弱我""]","","","","","","","","","","","","","","","","","","","","","","","","","","","","","","feedback_test","","","","","","","",""
"692","","j","psychophysics","42","493572","0.0-8.0-0.0-1.0-0.0-0.16","6","7","7","5","5","5","5","5","5","5","5","2","2","1","2","2","2","2","2","5","5","5","5","5","4","4","4","5","4","7","7","8","8","6","8","7","8","7","5","7","4","7","7","7","6","7","7","7","6","7","7","7","6","7","7","7","5","7","7","7","7","7","7","7","7","7","7","7","7","7","7","7","7","7","7","7","7","1","590543915338170368","李","613","Female","[""好她"",""好我"",""坏她"",""坏我""]","[""强她"",""强我"",""弱她"",""弱我""]","","","","","","","","match","","","","","","","","","","key","j","8.334391089108724","853.3333333333334","476","j","true","match","img/triangle.png","坏她","坏她","prac_ALT2_moral","practice_moral","","","","","","","",""
"null","<span style='color:GreenYellow; font-size: 70px;'>正确! </span>","null","html-keyboard-response","43","494079","0.0-8.0-0.0-1.0-0.0-1.16","6","7","7","5","5","5","5","5","5","5","5","2","2","1","2","2","2","2","2","5","5","5","5","5","4","4","4","5","4","7","7","8","8","6","8","7","8","7","5","7","4","7","7","7","6","7","7","7","6","7","7","7","6","7","7","7","5","7","7","7","7","7","7","7","7","7","7","7","7","7","7","7","7","7","7","7","7","1","590543915338170368","李","613","Female","[""好她"",""好我"",""坏她"",""坏我""]","[""强她"",""强我"",""弱她"",""弱我""]","","","","","","","","","","","","","","","","","","","","","","","","","","","","","","feedback_test","","","","","","","",""
"884","","j","psychophysics","44","495964","0.0-8.0-0.0-1.0-0.0-0.17","6","7","7","5","5","5","5","5","5","5","5","2","2","1","2","2","2","2","2","5","5","5","5","5","4","4","4","5","4","7","7","8","8","6","8","7","8","7","5","7","4","7","7","7","6","7","7","7","6","7","7","7","6","7","7","7","5","7","7","7","7","7","7","7","7","7","7","7","7","7","7","7","7","7","7","7","7","1","590543915338170368","李","613","Female","[""好她"",""好我"",""坏她"",""坏我""]","[""强她"",""强我"",""弱她"",""弱我""]","","","","","","","","match","","","","","","","","","","key","j","8.33424000000012","853.3333333333334","476","j","true","match","img/trapezoid.png","坏我","坏我","prac_ALT2_moral","practice_moral","","","","","","","",""
"null","<span style='color:GreenYellow; font-size: 70px;'>正确! </span>","null","html-keyboard-response","45","496472","0.0-8.0-0.0-1.0-0.0-1.17","6","7","7","5","5","5","5","5","5","5","5","2","2","1","2","2","2","2","2","5","5","5","5","5","4","4","4","5","4","7","7","8","8","6","8","7","8","7","5","7","4","7","7","7","6","7","7","7","6","7","7","7","6","7","7","7","5","7","7","7","7","7","7","7","7","7","7","7","7","7","7","7","7","7","7","7","7","1","590543915338170368","李","613","Female","[""好她"",""好我"",""坏她"",""坏我""]","[""强她"",""强我"",""弱她"",""弱我""]","","","","","","","","","","","","","","","","","","","","","","","","","","","","","","feedback_test","","","","","","","",""
"803","","f","psychophysics","46","498277","0.0-8.0-0.0-1.0-0.0-0.18","6","7","7","5","5","5","5","5","5","5","5","2","2","1","2","2","2","2","2","5","5","5","5","5","4","4","4","5","4","7","7","8","8","6","8","7","8","7","5","7","4","7","7","7","6","7","7","7","6","7","7","7","6","7","7","7","5","7","7","7","7","7","7","7","7","7","7","7","7","7","7","7","7","7","7","7","7","1","590543915338170368","李","613","Female","[""好她"",""好我"",""坏她"",""坏我""]","[""强她"",""强我"",""弱她"",""弱我""]","","","","","","","","nonmatch","","","","","","","","","","key","f","8.334167441860556","853.3333333333334","476","f","true","nonmatch","img/triangle.png","好我","坏她","prac_ALT2_moral","practice_moral","","","","","","","",""
"null","<span style='color:GreenYellow; font-size: 70px;'>正确! </span>","null","html-keyboard-response","47","498783","0.0-8.0-0.0-1.0-0.0-1.18","6","7","7","5","5","5","5","5","5","5","5","2","2","1","2","2","2","2","2","5","5","5","5","5","4","4","4","5","4","7","7","8","8","6","8","7","8","7","5","7","4","7","7","7","6","7","7","7","6","7","7","7","6","7","7","7","5","7","7","7","7","7","7","7","7","7","7","7","7","7","7","7","7","7","7","7","7","1","590543915338170368","李","613","Female","[""好她"",""好我"",""坏她"",""坏我""]","[""强她"",""强我"",""弱她"",""弱我""]","","","","","","","","","","","","","","","","","","","","","","","","","","","","","","feedback_test","","","","","","","",""
"1148","","f","psychophysics","48","500932","0.0-8.0-0.0-1.0-0.0-0.19","6","7","7","5","5","5","5","5","5","5","5","2","2","1","2","2","2","2","2","5","5","5","5","5","4","4","4","5","4","7","7","8","8","6","8","7","8","7","5","7","4","7","7","7","6","7","7","7","6","7","7","7","6","7","7","7","5","7","7","7","7","7","7","7","7","7","7","7","7","7","7","7","7","7","7","7","7","1","590543915338170368","李","613","Female","[""好她"",""好我"",""坏她"",""坏我""]","[""强她"",""强我"",""弱她"",""弱我""]","","","","","","","","nonmatch","","","","","","","","","","key","f","8.33263671875011","853.3333333333334","476","f","true","nonmatch","img/trapezoid.png","好我","坏我","prac_ALT2_moral","practice_moral","","","","","","","",""
"null","<span style='color:GreenYellow; font-size: 70px;'>正确! </span>","null","html-keyboard-response","49","501439","0.0-8.0-0.0-1.0-0.0-1.19","6","7","7","5","5","5","5","5","5","5","5","2","2","1","2","2","2","2","2","5","5","5","5","5","4","4","4","5","4","7","7","8","8","6","8","7","8","7","5","7","4","7","7","7","6","7","7","7","6","7","7","7","6","7","7","7","5","7","7","7","7","7","7","7","7","7","7","7","7","7","7","7","7","7","7","7","7","1","590543915338170368","李","613","Female","[""好她"",""好我"",""坏她"",""坏我""]","[""强她"",""强我"",""弱她"",""弱我""]","","","","","","","","","","","","","","","","","","","","","","","","","","","","","","feedback_test","","","","","","","",""
"732","","j","psychophysics","50","503173","0.0-8.0-0.0-1.0-0.0-0.20","6","7","7","5","5","5","5","5","5","5","5","2","2","1","2","2","2","2","2","5","5","5","5","5","4","4","4","5","4","7","7","8","8","6","8","7","8","7","5","7","4","7","7","7","6","7","7","7","6","7","7","7","6","7","7","7","5","7","7","7","7","7","7","7","7","7","7","7","7","7","7","7","7","7","7","7","7","1","590543915338170368","李","613","Female","[""好她"",""好我"",""坏她"",""坏我""]","[""强她"",""强我"",""弱她"",""弱我""]","","","","","","","","match","","","","","","","","","","key","j","8.334388349514377","853.3333333333334","476","j","true","match","img/trapezoid.png","坏我","坏我","prac_ALT2_moral","practice_moral","","","","","","","",""
"null","<span style='color:GreenYellow; font-size: 70px;'>正确! </span>","null","html-keyboard-response","51","503679","0.0-8.0-0.0-1.0-0.0-1.20","6","7","7","5","5","5","5","5","5","5","5","2","2","1","2","2","2","2","2","5","5","5","5","5","4","4","4","5","4","7","7","8","8","6","8","7","8","7","5","7","4","7","7","7","6","7","7","7","6","7","7","7","6","7","7","7","5","7","7","7","7","7","7","7","7","7","7","7","7","7","7","7","7","7","7","7","7","1","590543915338170368","李","613","Female","[""好她"",""好我"",""坏她"",""坏我""]","[""强她"",""强我"",""弱她"",""弱我""]","","","","","","","","","","","","","","","","","","","","","","","","","","","","","","feedback_test","","","","","","","",""
"748","","j","psychophysics","52","505429","0.0-8.0-0.0-1.0-0.0-0.21","6","7","7","5","5","5","5","5","5","5","5","2","2","1","2","2","2","2","2","5","5","5","5","5","4","4","4","5","4","7","7","8","8","6","8","7","8","7","5","7","4","7","7","7","6","7","7","7","6","7","7","7","6","7","7","7","5","7","7","7","7","7","7","7","7","7","7","7","7","7","7","7","7","7","7","7","7","1","590543915338170368","李","613","Female","[""好她"",""好我"",""坏她"",""坏我""]","[""强她"",""强我"",""弱她"",""弱我""]","","","","","","","","match","","","","","","","","","","key","j","8.334331730769078","853.3333333333334","476","j","true","match","img/circle.png","好她","好她","prac_ALT2_moral","practice_moral","","","","","","","",""
"null","<span style='color:GreenYellow; font-size: 70px;'>正确! </span>","null","html-keyboard-response","53","505936","0.0-8.0-0.0-1.0-0.0-1.21","6","7","7","5","5","5","5","5","5","5","5","2","2","1","2","2","2","2","2","5","5","5","5","5","4","4","4","5","4","7","7","8","8","6","8","7","8","7","5","7","4","7","7","7","6","7","7","7","6","7","7","7","6","7","7","7","5","7","7","7","7","7","7","7","7","7","7","7","7","7","7","7","7","7","7","7","7","1","590543915338170368","李","613","Female","[""好她"",""好我"",""坏她"",""坏我""]","[""强她"",""强我"",""弱她"",""弱我""]","","","","","","","","","","","","","","","","","","","","","","","","","","","","","","feedback_test","","","","","","","",""
"660","","j","psychophysics","54","507597","0.0-8.0-0.0-1.0-0.0-0.22","6","7","7","5","5","5","5","5","5","5","5","2","2","1","2","2","2","2","2","5","5","5","5","5","4","4","4","5","4","7","7","8","8","6","8","7","8","7","5","7","4","7","7","7","6","7","7","7","6","7","7","7","6","7","7","7","5","7","7","7","7","7","7","7","7","7","7","7","7","7","7","7","7","7","7","7","7","1","590543915338170368","李","613","Female","[""好她"",""好我"",""坏她"",""坏我""]","[""强她"",""强我"",""弱她"",""弱我""]","","","","","","","","match","","","","","","","","","","key","j","8.333282828282782","853.3333333333334","476","j","true","match","img/triangle.png","坏她","坏她","prac_ALT2_moral","practice_moral","","","","","","","",""
"null","<span style='color:GreenYellow; font-size: 70px;'>正确! </span>","null","html-keyboard-response","55","508104","0.0-8.0-0.0-1.0-0.0-1.22","6","7","7","5","5","5","5","5","5","5","5","2","2","1","2","2","2","2","2","5","5","5","5","5","4","4","4","5","4","7","7","8","8","6","8","7","8","7","5","7","4","7","7","7","6","7","7","7","6","7","7","7","6","7","7","7","5","7","7","7","7","7","7","7","7","7","7","7","7","7","7","7","7","7","7","7","7","1","590543915338170368","李","613","Female","[""好她"",""好我"",""坏她"",""坏我""]","[""强她"",""强我"",""弱她"",""弱我""]","","","","","","","","","","","","","","","","","","","","","","","","","","","","","","feedback_test","","","","","","","",""
"null","","null","psychophysics","56","510307","0.0-8.0-0.0-1.0-0.0-0.23","6","7","7","5","5","5","5","5","5","5","5","2","2","1","2","2","2","2","2","5","5","5","5","5","4","4","4","5","4","7","7","8","8","6","8","7","8","7","5","7","4","7","7","7","6","7","7","7","6","7","7","7","6","7","7","7","5","7","7","7","7","7","7","7","7","7","7","7","7","7","7","7","7","7","7","7","7","1","590543915338170368","李","613","Female","[""好她"",""好我"",""坏她"",""坏我""]","[""强她"",""强我"",""弱她"",""弱我""]","","","","","","","","null","","","","","","","","","","key","null","8.333813688212947","853.3333333333334","476","j","false","match","img/circle.png","好她","好她","prac_ALT2_moral","practice_moral","","","","","","","",""
"null","<span class='add_' style='color:yellow; font-size: 70px;'> 太慢! </span>","null","html-keyboard-response","57","510814","0.0-8.0-0.0-1.0-0.0-1.23","6","7","7","5","5","5","5","5","5","5","5","2","2","1","2","2","2","2","2","5","5","5","5","5","4","4","4","5","4","7","7","8","8","6","8","7","8","7","5","7","4","7","7","7","6","7","7","7","6","7","7","7","6","7","7","7","5","7","7","7","7","7","7","7","7","7","7","7","7","7","7","7","7","7","7","7","7","1","590543915338170368","李","613","Female","[""好她"",""好我"",""坏她"",""坏我""]","[""强她"",""强我"",""弱她"",""弱我""]","","","","","","","","","","","","","","","","","","","","","","","","","","","","","","feedback_test","","","","","","","",""
"829","","f","psychophysics","58","512645","0.0-8.0-0.0-1.0-0.0-0.24","6","7","7","5","5","5","5","5","5","5","5","2","2","1","2","2","2","2","2","5","5","5","5","5","4","4","4","5","4","7","7","8","8","6","8","7","8","7","5","7","4","7","7","7","6","7","7","7","6","7","7","7","6","7","7","7","5","7","7","7","7","7","7","7","7","7","7","7","7","7","7","7","7","7","7","7","7","1","590543915338170368","李","613","Female","[""好她"",""好我"",""坏她"",""坏我""]","[""强她"",""强我"",""弱她"",""弱我""]","","","","","","","","nonmatch","","","","","","","","","","key","f","8.333807339449626","853.3333333333334","476","j","false","match","img/hexagon.png","好我","好我","prac_ALT2_moral","practice_moral","","","","","","","",""
"null","<span style='color:red; font-size: 70px;'>错误! </span>","null","html-keyboard-response","59","513152","0.0-8.0-0.0-1.0-0.0-1.24","6","7","7","5","5","5","5","5","5","5","5","2","2","1","2","2","2","2","2","5","5","5","5","5","4","4","4","5","4","7","7","8","8","6","8","7","8","7","5","7","4","7","7","7","6","7","7","7","6","7","7","7","6","7","7","7","5","7","7","7","7","7","7","7","7","7","7","7","7","7","7","7","7","7","7","7","7","1","590543915338170368","李","613","Female","[""好她"",""好我"",""坏她"",""坏我""]","[""强她"",""强我"",""弱她"",""弱我""]","","","","","","","","","","","","","","","","","","","","","","","","","","","","","","feedback_test","","","","","","","",""
"844","","f","psychophysics","60","514997","0.0-8.0-0.0-1.0-0.0-0.25","6","7","7","5","5","5","5","5","5","5","5","2","2","1","2","2","2","2","2","5","5","5","5","5","4","4","4","5","4","7","7","8","8","6","8","7","8","7","5","7","4","7","7","7","6","7","7","7","6","7","7","7","6","7","7","7","5","7","7","7","7","7","7","7","7","7","7","7","7","7","7","7","7","7","7","7","7","1","590543915338170368","李","613","Female","[""好她"",""好我"",""坏她"",""坏我""]","[""强她"",""强我"",""弱她"",""弱我""]","","","","","","","","nonmatch","","","","","","","","","","key","f","8.334590909090846","853.3333333333334","476","f","true","nonmatch","img/trapezoid.png","坏她","坏我","prac_ALT2_moral","practice_moral","","","","","","","",""
"null","<span style='color:GreenYellow; font-size: 70px;'>正确! </span>","null","html-keyboard-response","61","515505","0.0-8.0-0.0-1.0-0.0-1.25","6","7","7","5","5","5","5","5","5","5","5","2","2","1","2","2","2","2","2","5","5","5","5","5","4","4","4","5","4","7","7","8","8","6","8","7","8","7","5","7","4","7","7","7","6","7","7","7","6","7","7","7","6","7","7","7","5","7","7","7","7","7","7","7","7","7","7","7","7","7","7","7","7","7","7","7","7","1","590543915338170368","李","613","Female","[""好她"",""好我"",""坏她"",""坏我""]","[""强她"",""强我"",""弱她"",""弱我""]","","","","","","","","","","","","","","","","","","","","","","","","","","","","","","feedback_test","","","","","","","",""
"779","","f","psychophysics","62","517285","0.0-8.0-0.0-1.0-0.0-0.26","6","7","7","5","5","5","5","5","5","5","5","2","2","1","2","2","2","2","2","5","5","5","5","5","4","4","4","5","4","7","7","8","8","6","8","7","8","7","5","7","4","7","7","7","6","7","7","7","6","7","7","7","6","7","7","7","5","7","7","7","7","7","7","7","7","7","7","7","7","7","7","7","7","7","7","7","7","1","590543915338170368","李","613","Female","[""好她"",""好我"",""坏她"",""坏我""]","[""强她"",""强我"",""弱她"",""弱我""]","","","","","","","","nonmatch","","","","","","","","","","key","f","8.332646226415132","853.3333333333334","476","f","true","nonmatch","img/triangle.png","好我","坏她","prac_ALT2_moral","practice_moral","","","","","","","",""
"null","<span style='color:GreenYellow; font-size: 70px;'>正确! </span>","null","html-keyboard-response","63","517792","0.0-8.0-0.0-1.0-0.0-1.26","6","7","7","5","5","5","5","5","5","5","5","2","2","1","2","2","2","2","2","5","5","5","5","5","4","4","4","5","4","7","7","8","8","6","8","7","8","7","5","7","4","7","7","7","6","7","7","7","6","7","7","7","6","7","7","7","5","7","7","7","7","7","7","7","7","7","7","7","7","7","7","7","7","7","7","7","7","1","590543915338170368","李","613","Female","[""好她"",""好我"",""坏她"",""坏我""]","[""强她"",""强我"",""弱她"",""弱我""]","","","","","","","","","","","","","","","","","","","","","","","","","","","","","","feedback_test","","","","","","","",""
"828","","f","psychophysics","64","519621","0.0-8.0-0.0-1.0-0.0-0.27","6","7","7","5","5","5","5","5","5","5","5","2","2","1","2","2","2","2","2","5","5","5","5","5","4","4","4","5","4","7","7","8","8","6","8","7","8","7","5","7","4","7","7","7","6","7","7","7","6","7","7","7","6","7","7","7","5","7","7","7","7","7","7","7","7","7","7","7","7","7","7","7","7","7","7","7","7","1","590543915338170368","李","613","Female","[""好她"",""好我"",""坏她"",""坏我""]","[""强她"",""强我"",""弱她"",""弱我""]","","","","","","","","nonmatch","","","","","","","","","","key","f","8.332683486238638","853.3333333333334","476","f","true","nonmatch","img/hexagon.png","坏她","好我","prac_ALT2_moral","practice_moral","","","","","","","",""
"null","<span style='color:GreenYellow; font-size: 70px;'>正确! </span>","null","html-keyboard-response","65","520128","0.0-8.0-0.0-1.0-0.0-1.27","6","7","7","5","5","5","5","5","5","5","5","2","2","1","2","2","2","2","2","5","5","5","5","5","4","4","4","5","4","7","7","8","8","6","8","7","8","7","5","7","4","7","7","7","6","7","7","7","6","7","7","7","6","7","7","7","5","7","7","7","7","7","7","7","7","7","7","7","7","7","7","7","7","7","7","7","7","1","590543915338170368","李","613","Female","[""好她"",""好我"",""坏她"",""坏我""]","[""强她"",""强我"",""弱她"",""弱我""]","","","","","","","","","","","","","","","","","","","","","","","","","","","","","","feedback_test","","","","","","","",""
"892","","f","psychophysics","66","522021","0.0-8.0-0.0-1.0-0.0-0.28","6","7","7","5","5","5","5","5","5","5","5","2","2","1","2","2","2","2","2","5","5","5","5","5","4","4","4","5","4","7","7","8","8","6","8","7","8","7","5","7","4","7","7","7","6","7","7","7","6","7","7","7","6","7","7","7","5","7","7","7","7","7","7","7","7","7","7","7","7","7","7","7","7","7","7","7","7","1","590543915338170368","李","613","Female","[""好她"",""好我"",""坏她"",""坏我""]","[""强她"",""强我"",""弱她"",""弱我""]","","","","","","","","nonmatch","","","","","","","","","","key","f","8.333473451327393","853.3333333333334","476","f","true","nonmatch","img/triangle.png","好她","坏她","prac_ALT2_moral","practice_moral","","","","","","","",""
"null","<span style='color:GreenYellow; font-size: 70px;'>正确! </span>","null","html-keyboard-response","67","522528","0.0-8.0-0.0-1.0-0.0-1.28","6","7","7","5","5","5","5","5","5","5","5","2","2","1","2","2","2","2","2","5","5","5","5","5","4","4","4","5","4","7","7","8","8","6","8","7","8","7","5","7","4","7","7","7","6","7","7","7","6","7","7","7","6","7","7","7","5","7","7","7","7","7","7","7","7","7","7","7","7","7","7","7","7","7","7","7","7","1","590543915338170368","李","613","Female","[""好她"",""好我"",""坏她"",""坏我""]","[""强她"",""强我"",""弱她"",""弱我""]","","","","","","","","","","","","","","","","","","","","","","","","","","","","","","feedback_test","","","","","","","",""
"1052","","f","psychophysics","68","524581","0.0-8.0-0.0-1.0-0.0-0.29","6","7","7","5","5","5","5","5","5","5","5","2","2","1","2","2","2","2","2","5","5","5","5","5","4","4","4","5","4","7","7","8","8","6","8","7","8","7","5","7","4","7","7","7","6","7","7","7","6","7","7","7","6","7","7","7","5","7","7","7","7","7","7","7","7","7","7","7","7","7","7","7","7","7","7","7","7","1","590543915338170368","李","613","Female","[""好她"",""好我"",""坏她"",""坏我""]","[""强她"",""强我"",""弱她"",""弱我""]","","","","","","","","nonmatch","","","","","","","","","","key","f","8.334697959183867","853.3333333333334","476","f","true","nonmatch","img/circle.png","坏我","好她","prac_ALT2_moral","practice_moral","","","","","","","",""
"null","<span style='color:GreenYellow; font-size: 70px;'>正确! </span>","null","html-keyboard-response","69","525088","0.0-8.0-0.0-1.0-0.0-1.29","6","7","7","5","5","5","5","5","5","5","5","2","2","1","2","2","2","2","2","5","5","5","5","5","4","4","4","5","4","7","7","8","8","6","8","7","8","7","5","7","4","7","7","7","6","7","7","7","6","7","7","7","6","7","7","7","5","7","7","7","7","7","7","7","7","7","7","7","7","7","7","7","7","7","7","7","7","1","590543915338170368","李","613","Female","[""好她"",""好我"",""坏她"",""坏我""]","[""强她"",""强我"",""弱她"",""弱我""]","","","","","","","","","","","","","","","","","","","","","","","","","","","","","","feedback_test","","","","","","","",""
"828","","j","psychophysics","70","526916","0.0-8.0-0.0-1.0-0.0-0.30","6","7","7","5","5","5","5","5","5","5","5","2","2","1","2","2","2","2","2","5","5","5","5","5","4","4","4","5","4","7","7","8","8","6","8","7","8","7","5","7","4","7","7","7","6","7","7","7","6","7","7","7","6","7","7","7","5","7","7","7","7","7","7","7","7","7","7","7","7","7","7","7","7","7","7","7","7","1","590543915338170368","李","613","Female","[""好她"",""好我"",""坏她"",""坏我""]","[""强她"",""强我"",""弱她"",""弱我""]","","","","","","","","match","","","","","","","","","","key","j","8.332637614678964","853.3333333333334","476","j","true","match","img/circle.png","好她","好她","prac_ALT2_moral","practice_moral","","","","","","","",""
"null","<span style='color:GreenYellow; font-size: 70px;'>正确! </span>","null","html-keyboard-response","71","527421","0.0-8.0-0.0-1.0-0.0-1.30","6","7","7","5","5","5","5","5","5","5","5","2","2","1","2","2","2","2","2","5","5","5","5","5","4","4","4","5","4","7","7","8","8","6","8","7","8","7","5","7","4","7","7","7","6","7","7","7","6","7","7","7","6","7","7","7","5","7","7","7","7","7","7","7","7","7","7","7","7","7","7","7","7","7","7","7","7","1","590543915338170368","李","613","Female","[""好她"",""好我"",""坏她"",""坏我""]","[""强她"",""强我"",""弱她"",""弱我""]","","","","","","","","","","","","","","","","","","","","","","","","","","","","","","feedback_test","","","","","","","",""
"791","","j","psychophysics","72","529213","0.0-8.0-0.0-1.0-0.0-0.31","6","7","7","5","5","5","5","5","5","5","5","2","2","1","2","2","2","2","2","5","5","5","5","5","4","4","4","5","4","7","7","8","8","6","8","7","8","7","5","7","4","7","7","7","6","7","7","7","6","7","7","7","6","7","7","7","5","7","7","7","7","7","7","7","7","7","7","7","7","7","7","7","7","7","7","7","7","1","590543915338170368","李","613","Female","[""好她"",""好我"",""坏她"",""坏我""]","[""强她"",""强我"",""弱她"",""弱我""]","","","","","","","","match","","","","","","","","","","key","j","8.334733644859412","853.3333333333334","476","j","true","match","img/triangle.png","坏她","坏她","prac_ALT2_moral","practice_moral","","","","","","","",""
"null","<span style='color:GreenYellow; font-size: 70px;'>正确! </span>","null","html-keyboard-response","73","529719","0.0-8.0-0.0-1.0-0.0-1.31","6","7","7","5","5","5","5","5","5","5","5","2","2","1","2","2","2","2","2","5","5","5","5","5","4","4","4","5","4","7","7","8","8","6","8","7","8","7","5","7","4","7","7","7","6","7","7","7","6","7","7","7","6","7","7","7","5","7","7","7","7","7","7","7","7","7","7","7","7","7","7","7","7","7","7","7","7","1","590543915338170368","李","613","Female","[""好她"",""好我"",""坏她"",""坏我""]","[""强她"",""强我"",""弱她"",""弱我""]","","","","","","","","","","","","","","","","","","","","","","","","","","","","","","feedback_test","","","","","","","",""
"845","","j","psychophysics","74","531565","0.0-8.0-0.0-1.0-0.0-0.32","6","7","7","5","5","5","5","5","5","5","5","2","2","1","2","2","2","2","2","5","5","5","5","5","4","4","4","5","4","7","7","8","8","6","8","7","8","7","5","7","4","7","7","7","6","7","7","7","6","7","7","7","6","7","7","7","5","7","7","7","7","7","7","7","7","7","7","7","7","7","7","7","7","7","7","7","7","1","590543915338170368","李","613","Female","[""好她"",""好我"",""坏她"",""坏我""]","[""强她"",""强我"",""弱她"",""弱我""]","","","","","","","","match","","","","","","","","","","key","j","8.334772727272833","853.3333333333334","476","j","true","match","img/hexagon.png","好我","好我","prac_ALT2_moral","practice_moral","","","","","","","",""
"null","<span style='color:GreenYellow; font-size: 70px;'>正确! </span>","null","html-keyboard-response","75","532072","0.0-8.0-0.0-1.0-0.0-1.32","6","7","7","5","5","5","5","5","5","5","5","2","2","1","2","2","2","2","2","5","5","5","5","5","4","4","4","5","4","7","7","8","8","6","8","7","8","7","5","7","4","7","7","7","6","7","7","7","6","7","7","7","6","7","7","7","5","7","7","7","7","7","7","7","7","7","7","7","7","7","7","7","7","7","7","7","7","1","590543915338170368","李","613","Female","[""好她"",""好我"",""坏她"",""坏我""]","[""强她"",""强我"",""弱她"",""弱我""]","","","","","","","","","","","","","","","","","","","","","","","","","","","","","","feedback_test","","","","","","","",""
"619","","j","psychophysics","76","533692","0.0-8.0-0.0-1.0-0.0-0.33","6","7","7","5","5","5","5","5","5","5","5","2","2","1","2","2","2","2","2","5","5","5","5","5","4","4","4","5","4","7","7","8","8","6","8","7","8","7","5","7","4","7","7","7","6","7","7","7","6","7","7","7","6","7","7","7","5","7","7","7","7","7","7","7","7","7","7","7","7","7","7","7","7","7","7","7","7","1","590543915338170368","李","613","Female","[""好她"",""好我"",""坏她"",""坏我""]","[""强她"",""强我"",""弱她"",""弱我""]","","","","","","","","match","","","","","","","","","","key","j","8.33181865285018","853.3333333333334","476","j","true","match","img/trapezoid.png","坏我","坏我","prac_ALT2_moral","practice_moral","","","","","","","",""
"null","<span style='color:GreenYellow; font-size: 70px;'>正确! </span>","null","html-keyboard-response","77","534200","0.0-8.0-0.0-1.0-0.0-1.33","6","7","7","5","5","5","5","5","5","5","5","2","2","1","2","2","2","2","2","5","5","5","5","5","4","4","4","5","4","7","7","8","8","6","8","7","8","7","5","7","4","7","7","7","6","7","7","7","6","7","7","7","6","7","7","7","5","7","7","7","7","7","7","7","7","7","7","7","7","7","7","7","7","7","7","7","7","1","590543915338170368","李","613","Female","[""好她"",""好我"",""坏她"",""坏我""]","[""强她"",""强我"",""弱她"",""弱我""]","","","","","","","","","","","","","","","","","","","","","","","","","","","","","","feedback_test","","","","","","","",""
"772","","j","psychophysics","78","535973","0.0-8.0-0.0-1.0-0.0-0.34","6","7","7","5","5","5","5","5","5","5","5","2","2","1","2","2","2","2","2","5","5","5","5","5","4","4","4","5","4","7","7","8","8","6","8","7","8","7","5","7","4","7","7","7","6","7","7","7","6","7","7","7","6","7","7","7","5","7","7","7","7","7","7","7","7","7","7","7","7","7","7","7","7","7","7","7","7","1","590543915338170368","李","613","Female","[""好她"",""好我"",""坏她"",""坏我""]","[""强她"",""强我"",""弱她"",""弱我""]","","","","","","","","match","","","","","","","","","","key","j","8.334744075829079","853.3333333333334","476","j","true","match","img/triangle.png","坏她","坏她","prac_ALT2_moral","practice_moral","","","","","","","",""
"null","<span style='color:GreenYellow; font-size: 70px;'>正确! </span>","null","html-keyboard-response","79","536480","0.0-8.0-0.0-1.0-0.0-1.34","6","7","7","5","5","5","5","5","5","5","5","2","2","1","2","2","2","2","2","5","5","5","5","5","4","4","4","5","4","7","7","8","8","6","8","7","8","7","5","7","4","7","7","7","6","7","7","7","6","7","7","7","6","7","7","7","5","7","7","7","7","7","7","7","7","7","7","7","7","7","7","7","7","7","7","7","7","1","590543915338170368","李","613","Female","[""好她"",""好我"",""坏她"",""坏我""]","[""强她"",""强我"",""弱她"",""弱我""]","","","","","","","","","","","","","","","","","","","","","","","","","","","","","","feedback_test","","","","","","","",""
"677","","f","psychophysics","80","538157","0.0-8.0-0.0-1.0-0.0-0.35","6","7","7","5","5","5","5","5","5","5","5","2","2","1","2","2","2","2","2","5","5","5","5","5","4","4","4","5","4","7","7","8","8","6","8","7","8","7","5","7","4","7","7","7","6","7","7","7","6","7","7","7","6","7","7","7","5","7","7","7","7","7","7","7","7","7","7","7","7","7","7","7","7","7","7","7","7","1","590543915338170368","李","613","Female","[""好她"",""好我"",""坏她"",""坏我""]","[""强她"",""强我"",""弱她"",""弱我""]","","","","","","","","nonmatch","","","","","","","","","","key","f","8.334920000000274","853.3333333333334","476","j","false","match","img/trapezoid.png","坏我","坏我","prac_ALT2_moral","practice_moral","","","","","","","",""
"null","<span style='color:red; font-size: 70px;'>错误! </span>","null","html-keyboard-response","81","538665","0.0-8.0-0.0-1.0-0.0-1.35","6","7","7","5","5","5","5","5","5","5","5","2","2","1","2","2","2","2","2","5","5","5","5","5","4","4","4","5","4","7","7","8","8","6","8","7","8","7","5","7","4","7","7","7","6","7","7","7","6","7","7","7","6","7","7","7","5","7","7","7","7","7","7","7","7","7","7","7","7","7","7","7","7","7","7","7","7","1","590543915338170368","李","613","Female","[""好她"",""好我"",""坏她"",""坏我""]","[""强她"",""强我"",""弱她"",""弱我""]","","","","","","","","","","","","","","","","","","","","","","","","","","","","","","feedback_test","","","","","","","",""
"1027","","f","psychophysics","82","540693","0.0-8.0-0.0-1.0-0.0-0.36","6","7","7","5","5","5","5","5","5","5","5","2","2","1","2","2","2","2","2","5","5","5","5","5","4","4","4","5","4","7","7","8","8","6","8","7","8","7","5","7","4","7","7","7","6","7","7","7","6","7","7","7","6","7","7","7","5","7","7","7","7","7","7","7","7","7","7","7","7","7","7","7","7","7","7","7","7","1","590543915338170368","李","613","Female","[""好她"",""好我"",""坏她"",""坏我""]","[""强她"",""强我"",""弱她"",""弱我""]","","","","","","","","nonmatch","","","","","","","","","","key","f","8.334371900826227","853.3333333333334","476","f","true","nonmatch","img/circle.png","坏她","好她","prac_ALT2_moral","practice_moral","","","","","","","",""
"null","<span style='color:GreenYellow; font-size: 70px;'>正确! </span>","null","html-keyboard-response","83","541200","0.0-8.0-0.0-1.0-0.0-1.36","6","7","7","5","5","5","5","5","5","5","5","2","2","1","2","2","2","2","2","5","5","5","5","5","4","4","4","5","4","7","7","8","8","6","8","7","8","7","5","7","4","7","7","7","6","7","7","7","6","7","7","7","6","7","7","7","5","7","7","7","7","7","7","7","7","7","7","7","7","7","7","7","7","7","7","7","7","1","590543915338170368","李","613","Female","[""好她"",""好我"",""坏她"",""坏我""]","[""强她"",""强我"",""弱她"",""弱我""]","","","","","","","","","","","","","","","","","","","","","","","","","","","","","","feedback_test","","","","","","","",""
"595","","j","psychophysics","84","542797","0.0-8.0-0.0-1.0-0.0-0.37","6","7","7","5","5","5","5","5","5","5","5","2","2","1","2","2","2","2","2","5","5","5","5","5","4","4","4","5","4","7","7","8","8","6","8","7","8","7","5","7","4","7","7","7","6","7","7","7","6","7","7","7","6","7","7","7","5","7","7","7","7","7","7","7","7","7","7","7","7","7","7","7","7","7","7","7","7","1","590543915338170368","李","613","Female","[""好她"",""好我"",""坏她"",""坏我""]","[""强她"",""强我"",""弱她"",""弱我""]","","","","","","","","match","","","","","","","","","","key","j","8.33373157894729","853.3333333333334","476","j","true","match","img/circle.png","好她","好她","prac_ALT2_moral","practice_moral","","","","","","","",""
"null","<span style='color:GreenYellow; font-size: 70px;'>正确! </span>","null","html-keyboard-response","85","543304","0.0-8.0-0.0-1.0-0.0-1.37","6","7","7","5","5","5","5","5","5","5","5","2","2","1","2","2","2","2","2","5","5","5","5","5","4","4","4","5","4","7","7","8","8","6","8","7","8","7","5","7","4","7","7","7","6","7","7","7","6","7","7","7","6","7","7","7","5","7","7","7","7","7","7","7","7","7","7","7","7","7","7","7","7","7","7","7","7","1","590543915338170368","李","613","Female","[""好她"",""好我"",""坏她"",""坏我""]","[""强她"",""强我"",""弱她"",""弱我""]","","","","","","","","","","","","","","","","","","","","","","","","","","","","","","feedback_test","","","","","","","",""
"963","","j","psychophysics","86","545269","0.0-8.0-0.0-1.0-0.0-0.38","6","7","7","5","5","5","5","5","5","5","5","2","2","1","2","2","2","2","2","5","5","5","5","5","4","4","4","5","4","7","7","8","8","6","8","7","8","7","5","7","4","7","7","7","6","7","7","7","6","7","7","7","6","7","7","7","5","7","7","7","7","7","7","7","7","7","7","7","7","7","7","7","7","7","7","7","7","1","590543915338170368","李","613","Female","[""好她"",""好我"",""坏她"",""坏我""]","[""强她"",""强我"",""弱她"",""弱我""]","","","","","","","","match","","","","","","","","","","key","j","8.334064102563987","853.3333333333334","476","j","true","match","img/trapezoid.png","坏我","坏我","prac_ALT2_moral","practice_moral","","","","","","","",""
"null","<span style='color:GreenYellow; font-size: 70px;'>正确! </span>","null","html-keyboard-response","87","545775","0.0-8.0-0.0-1.0-0.0-1.38","6","7","7","5","5","5","5","5","5","5","5","2","2","1","2","2","2","2","2","5","5","5","5","5","4","4","4","5","4","7","7","8","8","6","8","7","8","7","5","7","4","7","7","7","6","7","7","7","6","7","7","7","6","7","7","7","5","7","7","7","7","7","7","7","7","7","7","7","7","7","7","7","7","7","7","7","7","1","590543915338170368","李","613","Female","[""好她"",""好我"",""坏她"",""坏我""]","[""强她"",""强我"",""弱她"",""弱我""]","","","","","","","","","","","","","","","","","","","","","","","","","","","","","","feedback_test","","","","","","","",""
"900","","f","psychophysics","88","547676","0.0-8.0-0.0-1.0-0.0-0.39","6","7","7","5","5","5","5","5","5","5","5","2","2","1","2","2","2","2","2","5","5","5","5","5","4","4","4","5","4","7","7","8","8","6","8","7","8","7","5","7","4","7","7","7","6","7","7","7","6","7","7","7","6","7","7","7","5","7","7","7","7","7","7","7","7","7","7","7","7","7","7","7","7","7","7","7","7","1","590543915338170368","李","613","Female","[""好她"",""好我"",""坏她"",""坏我""]","[""强她"",""强我"",""弱她"",""弱我""]","","","","","","","","nonmatch","","","","","","","","","","key","f","8.332960352422628","853.3333333333334","476","f","true","nonmatch","img/trapezoid.png","好她","坏我","prac_ALT2_moral","practice_moral","","","","","","","",""
"null","<span style='color:GreenYellow; font-size: 70px;'>正确! </span>","null","html-keyboard-response","89","548185","0.0-8.0-0.0-1.0-0.0-1.39","6","7","7","5","5","5","5","5","5","5","5","2","2","1","2","2","2","2","2","5","5","5","5","5","4","4","4","5","4","7","7","8","8","6","8","7","8","7","5","7","4","7","7","7","6","7","7","7","6","7","7","7","6","7","7","7","5","7","7","7","7","7","7","7","7","7","7","7","7","7","7","7","7","7","7","7","7","1","590543915338170368","李","613","Female","[""好她"",""好我"",""坏她"",""坏我""]","[""强她"",""强我"",""弱她"",""弱我""]","","","","","","","","","","","","","","","","","","","","","","","","","","","","","","feedback_test","","","","","","","",""
"1010","","f","psychophysics","90","550197","0.0-8.0-0.0-1.0-0.0-0.40","6","7","7","5","5","5","5","5","5","5","5","2","2","1","2","2","2","2","2","5","5","5","5","5","4","4","4","5","4","7","7","8","8","6","8","7","8","7","5","7","4","7","7","7","6","7","7","7","6","7","7","7","6","7","7","7","5","7","7","7","7","7","7","7","7","7","7","7","7","7","7","7","7","7","7","7","7","1","590543915338170368","李","613","Female","[""好她"",""好我"",""坏她"",""坏我""]","[""强她"",""强我"",""弱她"",""弱我""]","","","","","","","","nonmatch","","","","","","","","","","key","f","8.333700000000439","853.3333333333334","476","f","true","nonmatch","img/trapezoid.png","好我","坏我","prac_ALT2_moral","practice_moral","","","","","","","",""
"null","<span style='color:GreenYellow; font-size: 70px;'>正确! </span>","null","html-keyboard-response","91","550703","0.0-8.0-0.0-1.0-0.0-1.40","6","7","7","5","5","5","5","5","5","5","5","2","2","1","2","2","2","2","2","5","5","5","5","5","4","4","4","5","4","7","7","8","8","6","8","7","8","7","5","7","4","7","7","7","6","7","7","7","6","7","7","7","6","7","7","7","5","7","7","7","7","7","7","7","7","7","7","7","7","7","7","7","7","7","7","7","7","1","590543915338170368","李","613","Female","[""好她"",""好我"",""坏她"",""坏我""]","[""强她"",""强我"",""弱她"",""弱我""]","","","","","","","","","","","","","","","","","","","","","","","","","","","","","","feedback_test","","","","","","","",""
"805","","j","psychophysics","92","552509","0.0-8.0-0.0-1.0-0.0-0.41","6","7","7","5","5","5","5","5","5","5","5","2","2","1","2","2","2","2","2","5","5","5","5","5","4","4","4","5","4","7","7","8","8","6","8","7","8","7","5","7","4","7","7","7","6","7","7","7","6","7","7","7","6","7","7","7","5","7","7","7","7","7","7","7","7","7","7","7","7","7","7","7","7","7","7","7","7","1","590543915338170368","李","613","Female","[""好她"",""好我"",""坏她"",""坏我""]","[""强她"",""强我"",""弱她"",""弱我""]","","","","","","","","match","","","","","","","","","","key","j","8.334134883720557","853.3333333333334","476","f","false","nonmatch","img/circle.png","好我","好她","prac_ALT2_moral","practice_moral","","","","","","","",""
"null","<span style='color:red; font-size: 70px;'>错误! </span>","null","html-keyboard-response","93","553016","0.0-8.0-0.0-1.0-0.0-1.41","6","7","7","5","5","5","5","5","5","5","5","2","2","1","2","2","2","2","2","5","5","5","5","5","4","4","4","5","4","7","7","8","8","6","8","7","8","7","5","7","4","7","7","7","6","7","7","7","6","7","7","7","6","7","7","7","5","7","7","7","7","7","7","7","7","7","7","7","7","7","7","7","7","7","7","7","7","1","590543915338170368","李","613","Female","[""好她"",""好我"",""坏她"",""坏我""]","[""强她"",""强我"",""弱她"",""弱我""]","","","","","","","","","","","","","","","","","","","","","","","","","","","","","","feedback_test","","","","","","","",""
"876","","f","psychophysics","94","554893","0.0-8.0-0.0-1.0-0.0-0.42","6","7","7","5","5","5","5","5","5","5","5","2","2","1","2","2","2","2","2","5","5","5","5","5","4","4","4","5","4","7","7","8","8","6","8","7","8","7","5","7","4","7","7","7","6","7","7","7","6","7","7","7","6","7","7","7","5","7","7","7","7","7","7","7","7","7","7","7","7","7","7","7","7","7","7","7","7","1","590543915338170368","李","613","Female","[""好她"",""好我"",""坏她"",""坏我""]","[""强她"",""强我"",""弱她"",""弱我""]","","","","","","","","nonmatch","","","","","","","","","","key","f","8.33433035714292","853.3333333333334","476","f","true","nonmatch","img/hexagon.png","好她","好我","prac_ALT2_moral","practice_moral","","","","","","","",""
"null","<span style='color:GreenYellow; font-size: 70px;'>正确! </span>","null","html-keyboard-response","95","555400","0.0-8.0-0.0-1.0-0.0-1.42","6","7","7","5","5","5","5","5","5","5","5","2","2","1","2","2","2","2","2","5","5","5","5","5","4","4","4","5","4","7","7","8","8","6","8","7","8","7","5","7","4","7","7","7","6","7","7","7","6","7","7","7","6","7","7","7","5","7","7","7","7","7","7","7","7","7","7","7","7","7","7","7","7","7","7","7","7","1","590543915338170368","李","613","Female","[""好她"",""好我"",""坏她"",""坏我""]","[""强她"",""强我"",""弱她"",""弱我""]","","","","","","","","","","","","","","","","","","","","","","","","","","","","","","feedback_test","","","","","","","",""
"652","","j","psychophysics","96","557054","0.0-8.0-0.0-1.0-0.0-0.43","6","7","7","5","5","5","5","5","5","5","5","2","2","1","2","2","2","2","2","5","5","5","5","5","4","4","4","5","4","7","7","8","8","6","8","7","8","7","5","7","4","7","7","7","6","7","7","7","6","7","7","7","6","7","7","7","5","7","7","7","7","7","7","7","7","7","7","7","7","7","7","7","7","7","7","7","7","1","590543915338170368","李","613","Female","[""好她"",""好我"",""坏她"",""坏我""]","[""强她"",""强我"",""弱她"",""弱我""]","","","","","","","","match","","","","","","","","","","key","j","8.334482233502742","853.3333333333334","476","f","false","nonmatch","img/triangle.png","坏我","坏她","prac_ALT2_moral","practice_moral","","","","","","","",""
"null","<span style='color:red; font-size: 70px;'>错误! </span>","null","html-keyboard-response","97","557561","0.0-8.0-0.0-1.0-0.0-1.43","6","7","7","5","5","5","5","5","5","5","5","2","2","1","2","2","2","2","2","5","5","5","5","5","4","4","4","5","4","7","7","8","8","6","8","7","8","7","5","7","4","7","7","7","6","7","7","7","6","7","7","7","6","7","7","7","5","7","7","7","7","7","7","7","7","7","7","7","7","7","7","7","7","7","7","7","7","1","590543915338170368","李","613","Female","[""好她"",""好我"",""坏她"",""坏我""]","[""强她"",""强我"",""弱她"",""弱我""]","","","","","","","","","","","","","","","","","","","","","","","","","","","","","","feedback_test","","","","","","","",""
"746","","j","psychophysics","98","559308","0.0-8.0-0.0-1.0-0.0-0.44","6","7","7","5","5","5","5","5","5","5","5","2","2","1","2","2","2","2","2","5","5","5","5","5","4","4","4","5","4","7","7","8","8","6","8","7","8","7","5","7","4","7","7","7","6","7","7","7","6","7","7","7","6","7","7","7","5","7","7","7","7","7","7","7","7","7","7","7","7","7","7","7","7","7","7","7","7","1","590543915338170368","李","613","Female","[""好她"",""好我"",""坏她"",""坏我""]","[""强她"",""强我"",""弱她"",""弱我""]","","","","","","","","match","","","","","","","","","","key","j","8.334533653846078","853.3333333333334","476","j","true","match","img/circle.png","好她","好她","prac_ALT2_moral","practice_moral","","","","","","","",""
"null","<span style='color:GreenYellow; font-size: 70px;'>正确! </span>","null","html-keyboard-response","99","559815","0.0-8.0-0.0-1.0-0.0-1.44","6","7","7","5","5","5","5","5","5","5","5","2","2","1","2","2","2","2","2","5","5","5","5","5","4","4","4","5","4","7","7","8","8","6","8","7","8","7","5","7","4","7","7","7","6","7","7","7","6","7","7","7","6","7","7","7","5","7","7","7","7","7","7","7","7","7","7","7","7","7","7","7","7","7","7","7","7","1","590543915338170368","李","613","Female","[""好她"",""好我"",""坏她"",""坏我""]","[""强她"",""强我"",""弱她"",""弱我""]","","","","","","","","","","","","","","","","","","","","","","","","","","","","","","feedback_test","","","","","","","",""
"889","","j","psychophysics","100","561708","0.0-8.0-0.0-1.0-0.0-0.45","6","7","7","5","5","5","5","5","5","5","5","2","2","1","2","2","2","2","2","5","5","5","5","5","4","4","4","5","4","7","7","8","8","6","8","7","8","7","5","7","4","7","7","7","6","7","7","7","6","7","7","7","6","7","7","7","5","7","7","7","7","7","7","7","7","7","7","7","7","7","7","7","7","7","7","7","7","1","590543915338170368","李","613","Female","[""好她"",""好我"",""坏她"",""坏我""]","[""强她"",""强我"",""弱她"",""弱我""]","","","","","","","","match","","","","","","","","","","key","j","8.333442477876138","853.3333333333334","476","j","true","match","img/triangle.png","坏她","坏她","prac_ALT2_moral","practice_moral","","","","","","","",""
"null","<span style='color:GreenYellow; font-size: 70px;'>正确! </span>","null","html-keyboard-response","101","562215","0.0-8.0-0.0-1.0-0.0-1.45","6","7","7","5","5","5","5","5","5","5","5","2","2","1","2","2","2","2","2","5","5","5","5","5","4","4","4","5","4","7","7","8","8","6","8","7","8","7","5","7","4","7","7","7","6","7","7","7","6","7","7","7","6","7","7","7","5","7","7","7","7","7","7","7","7","7","7","7","7","7","7","7","7","7","7","7","7","1","590543915338170368","李","613","Female","[""好她"",""好我"",""坏她"",""坏我""]","[""强她"",""强我"",""弱她"",""弱我""]","","","","","","","","","","","","","","","","","","","","","","","","","","","","","","feedback_test","","","","","","","",""
"909","","j","psychophysics","102","564126","0.0-8.0-0.0-1.0-0.0-0.46","6","7","7","5","5","5","5","5","5","5","5","2","2","1","2","2","2","2","2","5","5","5","5","5","4","4","4","5","4","7","7","8","8","6","8","7","8","7","5","7","4","7","7","7","6","7","7","7","6","7","7","7","6","7","7","7","5","7","7","7","7","7","7","7","7","7","7","7","7","7","7","7","7","7","7","7","7","1","590543915338170368","李","613","Female","[""好她"",""好我"",""坏她"",""坏我""]","[""强她"",""强我"",""弱她"",""弱我""]","","","","","","","","match","","","","","","","","","","key","j","8.33329385964878","853.3333333333334","476","j","true","match","img/hexagon.png","好我","好我","prac_ALT2_moral","practice_moral","","","","","","","",""
"null","<span style='color:GreenYellow; font-size: 70px;'>正确! </span>","null","html-keyboard-response","103","564634","0.0-8.0-0.0-1.0-0.0-1.46","6","7","7","5","5","5","5","5","5","5","5","2","2","1","2","2","2","2","2","5","5","5","5","5","4","4","4","5","4","7","7","8","8","6","8","7","8","7","5","7","4","7","7","7","6","7","7","7","6","7","7","7","6","7","7","7","5","7","7","7","7","7","7","7","7","7","7","7","7","7","7","7","7","7","7","7","7","1","590543915338170368","李","613","Female","[""好她"",""好我"",""坏她"",""坏我""]","[""强她"",""强我"",""弱她"",""弱我""]","","","","","","","","","","","","","","","","","","","","","","","","","","","","","","feedback_test","","","","","","","",""
"722","","f","psychophysics","104","566357","0.0-8.0-0.0-1.0-0.0-0.47","6","7","7","5","5","5","5","5","5","5","5","2","2","1","2","2","2","2","2","5","5","5","5","5","4","4","4","5","4","7","7","8","8","6","8","7","8","7","5","7","4","7","7","7","6","7","7","7","6","7","7","7","6","7","7","7","5","7","7","7","7","7","7","7","7","7","7","7","7","7","7","7","7","7","7","7","7","1","590543915338170368","李","613","Female","[""好她"",""好我"",""坏她"",""坏我""]","[""强她"",""强我"",""弱她"",""弱我""]","","","","","","","","nonmatch","","","","","","","","","","key","f","8.334385365853654","853.3333333333334","476","f","true","nonmatch","img/hexagon.png","坏我","好我","prac_ALT2_moral","practice_moral","","","","","","","",""
"null","<span style='color:GreenYellow; font-size: 70px;'>正确! </span>","null","html-keyboard-response","105","566874","0.0-8.0-0.0-1.0-0.0-1.47","6","7","7","5","5","5","5","5","5","5","5","2","2","1","2","2","2","2","2","5","5","5","5","5","4","4","4","5","4","7","7","8","8","6","8","7","8","7","5","7","4","7","7","7","6","7","7","7","6","7","7","7","6","7","7","7","5","7","7","7","7","7","7","7","7","7","7","7","7","7","7","7","7","7","7","7","7","1","590543915338170368","李","613","Female","[""好她"",""好我"",""坏她"",""坏我""]","[""强她"",""强我"",""弱她"",""弱我""]","","","","","","","","","","","","","","","","","","","","","","","","","","","","","","feedback_test","","","","","","","",""
"3449","<style>.context{color:white; font-size: 35px; line-height:40px}</style>                            <div><p class='context'>您正确回答了81% 的试次。</p><p class='context'>您的平均反应时为869毫秒。</p><p class='context'>恭喜您完成练习。按空格键进入正式实验。</p><p class='footer' style='font-size: 35px; line-height:40px;'>请在进入正式实验实验之前将您的<span style='color: lightgreen;'>食指</span>放在电脑键盘的相应键位上进行按键。</p>"," ","html-keyboard-response","106","570325","0.0-8.0-0.0-2.0","6","7","7","5","5","5","5","5","5","5","5","2","2","1","2","2","2","2","2","5","5","5","5","5","4","4","4","5","4","7","7","8","8","6","8","7","8","7","5","7","4","7","7","7","6","7","7","7","6","7","7","7","6","7","7","7","5","7","7","7","7","7","7","7","7","7","7","7","7","7","7","7","7","7","7","7","7","1","590543915338170368","李","613","Female","[""好她"",""好我"",""坏她"",""坏我""]","[""强她"",""强我"",""弱她"",""弱我""]","","","","","","","","","","","","","","","","","","","","","","","","","","","","","","","","","","","","","",""
"975","
    <p style='color: white; font-size: 22px'>请您将手指放在按键上，准备进入正式的匹配任务。</p>
    <p> <div style = ""color: green""><按空格键进入下一阶段的匹配任务></div></p>
    "," ","html-keyboard-response","107","571301","0.0-8.0-0.0-3.0","6","7","7","5","5","5","5","5","5","5","5","2","2","1","2","2","2","2","2","5","5","5","5","5","4","4","4","5","4","7","7","8","8","6","8","7","8","7","5","7","4","7","7","7","6","7","7","7","6","7","7","7","6","7","7","7","5","7","7","7","7","7","7","7","7","7","7","7","7","7","7","7","7","7","7","7","7","1","590543915338170368","李","613","Female","[""好她"",""好我"",""坏她"",""坏我""]","[""强她"",""强我"",""弱她"",""弱我""]","","","","","","","","","","","","","","","","","","","","","","","","","","","","","","","","","","","","","",""
"743","","j","psychophysics","108","573045","0.0-8.0-0.0-4.0-0.0-0.0","6","7","7","5","5","5","5","5","5","5","5","2","2","1","2","2","2","2","2","5","5","5","5","5","4","4","4","5","4","7","7","8","8","6","8","7","8","7","5","7","4","7","7","7","6","7","7","7","6","7","7","7","6","7","7","7","5","7","7","7","7","7","7","7","7","7","7","7","7","7","7","7","7","7","7","7","7","1","590543915338170368","李","613","Female","[""好她"",""好我"",""坏她"",""坏我""]","[""强她"",""强我"",""弱她"",""弱我""]","","","","","","","","match","","","","","","","","","","key","j","8.33352657004849","853.3333333333334","476","j","true","match","img/triangle.png","坏她","坏她","ALT2","moral","","","","","","","",""
"null","<span style='color:GreenYellow; font-size: 70px;'>正确! </span>","null","html-keyboard-response","109","573552","0.0-8.0-0.0-4.0-0.0-1.0","6","7","7","5","5","5","5","5","5","5","5","2","2","1","2","2","2","2","2","5","5","5","5","5","4","4","4","5","4","7","7","8","8","6","8","7","8","7","5","7","4","7","7","7","6","7","7","7","6","7","7","7","6","7","7","7","5","7","7","7","7","7","7","7","7","7","7","7","7","7","7","7","7","7","7","7","7","1","590543915338170368","李","613","Female","[""好她"",""好我"",""坏她"",""坏我""]","[""强她"",""强我"",""弱她"",""弱我""]","","","","","","","","","","","","","","","","","","","","","","","","","","","","","","feedback_test","","","","","","","",""
"732","","f","psychophysics","110","575285","0.0-8.0-0.0-4.0-0.0-0.1","6","7","7","5","5","5","5","5","5","5","5","2","2","1","2","2","2","2","2","5","5","5","5","5","4","4","4","5","4","7","7","8","8","6","8","7","8","7","5","7","4","7","7","7","6","7","7","7","6","7","7","7","6","7","7","7","5","7","7","7","7","7","7","7","7","7","7","7","7","7","7","7","7","7","7","7","7","1","590543915338170368","李","613","Female","[""好她"",""好我"",""坏她"",""坏我""]","[""强她"",""强我"",""弱她"",""弱我""]","","","","","","","","nonmatch","","","","","","","","","","key","f","8.33287378640798","853.3333333333334","476","j","false","match","img/hexagon.png","好我","好我","ALT2","moral","","","","","","","",""
"null","<span style='color:red; font-size: 70px;'>错误! </span>","null","html-keyboard-response","111","575792","0.0-8.0-0.0-4.0-0.0-1.1","6","7","7","5","5","5","5","5","5","5","5","2","2","1","2","2","2","2","2","5","5","5","5","5","4","4","4","5","4","7","7","8","8","6","8","7","8","7","5","7","4","7","7","7","6","7","7","7","6","7","7","7","6","7","7","7","5","7","7","7","7","7","7","7","7","7","7","7","7","7","7","7","7","7","7","7","7","1","590543915338170368","李","613","Female","[""好她"",""好我"",""坏她"",""坏我""]","[""强她"",""强我"",""弱她"",""弱我""]","","","","","","","","","","","","","","","","","","","","","","","","","","","","","","feedback_test","","","","","","","",""
"828","","f","psychophysics","112","577621","0.0-8.0-0.0-4.0-0.0-0.2","6","7","7","5","5","5","5","5","5","5","5","2","2","1","2","2","2","2","2","5","5","5","5","5","4","4","4","5","4","7","7","8","8","6","8","7","8","7","5","7","4","7","7","7","6","7","7","7","6","7","7","7","6","7","7","7","5","7","7","7","7","7","7","7","7","7","7","7","7","7","7","7","7","7","7","7","7","1","590543915338170368","李","613","Female","[""好她"",""好我"",""坏她"",""坏我""]","[""强她"",""强我"",""弱她"",""弱我""]","","","","","","","","nonmatch","","","","","","","","","","key","f","8.334243119266013","853.3333333333334","476","f","true","nonmatch","img/hexagon.png","坏她","好我","ALT2","moral","","","","","","","",""
"null","<span style='color:GreenYellow; font-size: 70px;'>正确! </span>","null","html-keyboard-response","113","578129","0.0-8.0-0.0-4.0-0.0-1.2","6","7","7","5","5","5","5","5","5","5","5","2","2","1","2","2","2","2","2","5","5","5","5","5","4","4","4","5","4","7","7","8","8","6","8","7","8","7","5","7","4","7","7","7","6","7","7","7","6","7","7","7","6","7","7","7","5","7","7","7","7","7","7","7","7","7","7","7","7","7","7","7","7","7","7","7","7","1","590543915338170368","李","613","Female","[""好她"",""好我"",""坏她"",""坏我""]","[""强她"",""强我"",""弱她"",""弱我""]","","","","","","","","","","","","","","","","","","","","","","","","","","","","","","feedback_test","","","","","","","",""
"995","","j","psychophysics","114","580125","0.0-8.0-0.0-4.0-0.0-0.3","6","7","7","5","5","5","5","5","5","5","5","2","2","1","2","2","2","2","2","5","5","5","5","5","4","4","4","5","4","7","7","8","8","6","8","7","8","7","5","7","4","7","7","7","6","7","7","7","6","7","7","7","6","7","7","7","5","7","7","7","7","7","7","7","7","7","7","7","7","7","7","7","7","7","7","7","7","1","590543915338170368","李","613","Female","[""好她"",""好我"",""坏她"",""坏我""]","[""强她"",""强我"",""弱她"",""弱我""]","","","","","","","","match","","","","","","","","","","key","j","8.333298319327536","853.3333333333334","476","j","true","match","img/circle.png","好她","好她","ALT2","moral","","","","","","","",""
"null","<span style='color:GreenYellow; font-size: 70px;'>正确! </span>","null","html-keyboard-response","115","580626","0.0-8.0-0.0-4.0-0.0-1.3","6","7","7","5","5","5","5","5","5","5","5","2","2","1","2","2","2","2","2","5","5","5","5","5","4","4","4","5","4","7","7","8","8","6","8","7","8","7","5","7","4","7","7","7","6","7","7","7","6","7","7","7","6","7","7","7","5","7","7","7","7","7","7","7","7","7","7","7","7","7","7","7","7","7","7","7","7","1","590543915338170368","李","613","Female","[""好她"",""好我"",""坏她"",""坏我""]","[""强她"",""强我"",""弱她"",""弱我""]","","","","","","","","","","","","","","","","","","","","","","","","","","","","","","feedback_test","","","","","","","",""
"682","","j","psychophysics","116","582310","0.0-8.0-0.0-4.0-0.0-0.4","6","7","7","5","5","5","5","5","5","5","5","2","2","1","2","2","2","2","2","5","5","5","5","5","4","4","4","5","4","7","7","8","8","6","8","7","8","7","5","7","4","7","7","7","6","7","7","7","6","7","7","7","6","7","7","7","5","7","7","7","7","7","7","7","7","7","7","7","7","7","7","7","7","7","7","7","7","1","590543915338170368","李","613","Female","[""好她"",""好我"",""坏她"",""坏我""]","[""强她"",""强我"",""弱她"",""弱我""]","","","","","","","","match","","","","","","","","","","key","j","8.334840796019682","853.3333333333334","476","j","true","match","img/triangle.png","坏她","坏她","ALT2","moral","","","","","","","",""
"null","<span style='color:GreenYellow; font-size: 70px;'>正确! </span>","null","html-keyboard-response","117","582817","0.0-8.0-0.0-4.0-0.0-1.4","6","7","7","5","5","5","5","5","5","5","5","2","2","1","2","2","2","2","2","5","5","5","5","5","4","4","4","5","4","7","7","8","8","6","8","7","8","7","5","7","4","7","7","7","6","7","7","7","6","7","7","7","6","7","7","7","5","7","7","7","7","7","7","7","7","7","7","7","7","7","7","7","7","7","7","7","7","1","590543915338170368","李","613","Female","[""好她"",""好我"",""坏她"",""坏我""]","[""强她"",""强我"",""弱她"",""弱我""]","","","","","","","","","","","","","","","","","","","","","","","","","","","","","","feedback_test","","","","","","","",""
"996","","f","psychophysics","118","584813","0.0-8.0-0.0-4.0-0.0-0.5","6","7","7","5","5","5","5","5","5","5","5","2","2","1","2","2","2","2","2","5","5","5","5","5","4","4","4","5","4","7","7","8","8","6","8","7","8","7","5","7","4","7","7","7","6","7","7","7","6","7","7","7","6","7","7","7","5","7","7","7","7","7","7","7","7","7","7","7","7","7","7","7","7","7","7","7","7","1","590543915338170368","李","613","Female","[""好她"",""好我"",""坏她"",""坏我""]","[""强她"",""强我"",""弱她"",""弱我""]","","","","","","","","nonmatch","","","","","","","","","","key","f","8.333764705882299","853.3333333333334","476","f","true","nonmatch","img/trapezoid.png","好我","坏我","ALT2","moral","","","","","","","",""
"null","<span style='color:GreenYellow; font-size: 70px;'>正确! </span>","null","html-keyboard-response","119","585321","0.0-8.0-0.0-4.0-0.0-1.5","6","7","7","5","5","5","5","5","5","5","5","2","2","1","2","2","2","2","2","5","5","5","5","5","4","4","4","5","4","7","7","8","8","6","8","7","8","7","5","7","4","7","7","7","6","7","7","7","6","7","7","7","6","7","7","7","5","7","7","7","7","7","7","7","7","7","7","7","7","7","7","7","7","7","7","7","7","1","590543915338170368","李","613","Female","[""好她"",""好我"",""坏她"",""坏我""]","[""强她"",""强我"",""弱她"",""弱我""]","","","","","","","","","","","","","","","","","","","","","","","","","","","","","","feedback_test","","","","","","","",""
"1027","","f","psychophysics","120","587349","0.0-8.0-0.0-4.0-0.0-0.6","6","7","7","5","5","5","5","5","5","5","5","2","2","1","2","2","2","2","2","5","5","5","5","5","4","4","4","5","4","7","7","8","8","6","8","7","8","7","5","7","4","7","7","7","6","7","7","7","6","7","7","7","6","7","7","7","5","7","7","7","7","7","7","7","7","7","7","7","7","7","7","7","7","7","7","7","7","1","590543915338170368","李","613","Female","[""好她"",""好我"",""坏她"",""坏我""]","[""强她"",""强我"",""弱她"",""弱我""]","","","","","","","","nonmatch","","","","","","","","","","key","f","8.332421487603291","853.3333333333334","476","f","true","nonmatch","img/circle.png","坏她","好她","ALT2","moral","","","","","","","",""
"null","<span style='color:GreenYellow; font-size: 70px;'>正确! </span>","null","html-keyboard-response","121","587855","0.0-8.0-0.0-4.0-0.0-1.6","6","7","7","5","5","5","5","5","5","5","5","2","2","1","2","2","2","2","2","5","5","5","5","5","4","4","4","5","4","7","7","8","8","6","8","7","8","7","5","7","4","7","7","7","6","7","7","7","6","7","7","7","6","7","7","7","5","7","7","7","7","7","7","7","7","7","7","7","7","7","7","7","7","7","7","7","7","1","590543915338170368","李","613","Female","[""好她"",""好我"",""坏她"",""坏我""]","[""强她"",""强我"",""弱她"",""弱我""]","","","","","","","","","","","","","","","","","","","","","","","","","","","","","","feedback_test","","","","","","","",""
"717","","j","psychophysics","122","589573","0.0-8.0-0.0-4.0-0.0-0.7","6","7","7","5","5","5","5","5","5","5","5","2","2","1","2","2","2","2","2","5","5","5","5","5","4","4","4","5","4","7","7","8","8","6","8","7","8","7","5","7","4","7","7","7","6","7","7","7","6","7","7","7","6","7","7","7","5","7","7","7","7","7","7","7","7","7","7","7","7","7","7","7","7","7","7","7","7","1","590543915338170368","李","613","Female","[""好她"",""好我"",""坏她"",""坏我""]","[""强她"",""强我"",""弱她"",""弱我""]","","","","","","","","match","","","","","","","","","","key","j","8.33200490196046","853.3333333333334","476","j","true","match","img/hexagon.png","好我","好我","ALT2","moral","","","","","","","",""
"null","<span style='color:GreenYellow; font-size: 70px;'>正确! </span>","null","html-keyboard-response","123","590075","0.0-8.0-0.0-4.0-0.0-1.7","6","7","7","5","5","5","5","5","5","5","5","2","2","1","2","2","2","2","2","5","5","5","5","5","4","4","4","5","4","7","7","8","8","6","8","7","8","7","5","7","4","7","7","7","6","7","7","7","6","7","7","7","6","7","7","7","5","7","7","7","7","7","7","7","7","7","7","7","7","7","7","7","7","7","7","7","7","1","590543915338170368","李","613","Female","[""好她"",""好我"",""坏她"",""坏我""]","[""强她"",""强我"",""弱她"",""弱我""]","","","","","","","","","","","","","","","","","","","","","","","","","","","","","","feedback_test","","","","","","","",""
"993","","j","psychophysics","124","592069","0.0-8.0-0.0-4.0-0.0-0.8","6","7","7","5","5","5","5","5","5","5","5","2","2","1","2","2","2","2","2","5","5","5","5","5","4","4","4","5","4","7","7","8","8","6","8","7","8","7","5","7","4","7","7","7","6","7","7","7","6","7","7","7","6","7","7","7","5","7","7","7","7","7","7","7","7","7","7","7","7","7","7","7","7","7","7","7","7","1","590543915338170368","李","613","Female","[""好她"",""好我"",""坏她"",""坏我""]","[""强她"",""强我"",""弱她"",""弱我""]","","","","","","","","match","","","","","","","","","","key","j","8.33247257383955","853.3333333333334","476","j","true","match","img/trapezoid.png","坏我","坏我","ALT2","moral","","","","","","","",""
"null","<span style='color:GreenYellow; font-size: 70px;'>正确! </span>","null","html-keyboard-response","125","592576","0.0-8.0-0.0-4.0-0.0-1.8","6","7","7","5","5","5","5","5","5","5","5","2","2","1","2","2","2","2","2","5","5","5","5","5","4","4","4","5","4","7","7","8","8","6","8","7","8","7","5","7","4","7","7","7","6","7","7","7","6","7","7","7","6","7","7","7","5","7","7","7","7","7","7","7","7","7","7","7","7","7","7","7","7","7","7","7","7","1","590543915338170368","李","613","Female","[""好她"",""好我"",""坏她"",""坏我""]","[""强她"",""强我"",""弱她"",""弱我""]","","","","","","","","","","","","","","","","","","","","","","","","","","","","","","feedback_test","","","","","","","",""
"853","","f","psychophysics","126","594429","0.0-8.0-0.0-4.0-0.0-0.9","6","7","7","5","5","5","5","5","5","5","5","2","2","1","2","2","2","2","2","5","5","5","5","5","4","4","4","5","4","7","7","8","8","6","8","7","8","7","5","7","4","7","7","7","6","7","7","7","6","7","7","7","6","7","7","7","5","7","7","7","7","7","7","7","7","7","7","7","7","7","7","7","7","7","7","7","7","1","590543915338170368","李","613","Female","[""好她"",""好我"",""坏她"",""坏我""]","[""强她"",""强我"",""弱她"",""弱我""]","","","","","","","","nonmatch","","","","","","","","","","key","f","8.332429864253148","853.3333333333334","476","f","true","nonmatch","img/hexagon.png","坏我","好我","ALT2","moral","","","","","","","",""
"null","<span style='color:GreenYellow; font-size: 70px;'>正确! </span>","null","html-keyboard-response","127","594936","0.0-8.0-0.0-4.0-0.0-1.9","6","7","7","5","5","5","5","5","5","5","5","2","2","1","2","2","2","2","2","5","5","5","5","5","4","4","4","5","4","7","7","8","8","6","8","7","8","7","5","7","4","7","7","7","6","7","7","7","6","7","7","7","6","7","7","7","5","7","7","7","7","7","7","7","7","7","7","7","7","7","7","7","7","7","7","7","7","1","590543915338170368","李","613","Female","[""好她"",""好我"",""坏她"",""坏我""]","[""强她"",""强我"",""弱她"",""弱我""]","","","","","","","","","","","","","","","","","","","","","","","","","","","","","","feedback_test","","","","","","","",""
"780","","f","psychophysics","128","596717","0.0-8.0-0.0-4.0-0.0-0.10","6","7","7","5","5","5","5","5","5","5","5","2","2","1","2","2","2","2","2","5","5","5","5","5","4","4","4","5","4","7","7","8","8","6","8","7","8","7","5","7","4","7","7","7","6","7","7","7","6","7","7","7","6","7","7","7","5","7","7","7","7","7","7","7","7","7","7","7","7","7","7","7","7","7","7","7","7","1","590543915338170368","李","613","Female","[""好她"",""好我"",""坏她"",""坏我""]","[""强她"",""强我"",""弱她"",""弱我""]","","","","","","","","nonmatch","","","","","","","","","","key","f","8.333221698113396","853.3333333333334","476","f","true","nonmatch","img/triangle.png","好我","坏她","ALT2","moral","","","","","","","",""
"null","<span style='color:GreenYellow; font-size: 70px;'>正确! </span>","null","html-keyboard-response","129","597225","0.0-8.0-0.0-4.0-0.0-1.10","6","7","7","5","5","5","5","5","5","5","5","2","2","1","2","2","2","2","2","5","5","5","5","5","4","4","4","5","4","7","7","8","8","6","8","7","8","7","5","7","4","7","7","7","6","7","7","7","6","7","7","7","6","7","7","7","5","7","7","7","7","7","7","7","7","7","7","7","7","7","7","7","7","7","7","7","7","1","590543915338170368","李","613","Female","[""好她"",""好我"",""坏她"",""坏我""]","[""强她"",""强我"",""弱她"",""弱我""]","","","","","","","","","","","","","","","","","","","","","","","","","","","","","","feedback_test","","","","","","","",""
"764","","j","psychophysics","130","598989","0.0-8.0-0.0-4.0-0.0-0.11","6","7","7","5","5","5","5","5","5","5","5","2","2","1","2","2","2","2","2","5","5","5","5","5","4","4","4","5","4","7","7","8","8","6","8","7","8","7","5","7","4","7","7","7","6","7","7","7","6","7","7","7","6","7","7","7","5","7","7","7","7","7","7","7","7","7","7","7","7","7","7","7","7","7","7","7","7","1","590543915338170368","李","613","Female","[""好她"",""好我"",""坏她"",""坏我""]","[""强她"",""强我"",""弱她"",""弱我""]","","","","","","","","match","","","","","","","","","","key","j","8.334399999999663","853.3333333333334","476","j","true","match","img/circle.png","好她","好她","ALT2","moral","","","","","","","",""
"null","<span style='color:GreenYellow; font-size: 70px;'>正确! </span>","null","html-keyboard-response","131","599496","0.0-8.0-0.0-4.0-0.0-1.11","6","7","7","5","5","5","5","5","5","5","5","2","2","1","2","2","2","2","2","5","5","5","5","5","4","4","4","5","4","7","7","8","8","6","8","7","8","7","5","7","4","7","7","7","6","7","7","7","6","7","7","7","6","7","7","7","5","7","7","7","7","7","7","7","7","7","7","7","7","7","7","7","7","7","7","7","7","1","590543915338170368","李","613","Female","[""好她"",""好我"",""坏她"",""坏我""]","[""强她"",""强我"",""弱她"",""弱我""]","","","","","","","","","","","","","","","","","","","","","","","","","","","","","","feedback_test","","","","","","","",""
"909","","j","psychophysics","132","601405","0.0-8.0-0.0-4.0-0.0-0.12","6","7","7","5","5","5","5","5","5","5","5","2","2","1","2","2","2","2","2","5","5","5","5","5","4","4","4","5","4","7","7","8","8","6","8","7","8","7","5","7","4","7","7","7","6","7","7","7","6","7","7","7","6","7","7","7","5","7","7","7","7","7","7","7","7","7","7","7","7","7","7","7","7","7","7","7","7","1","590543915338170368","李","613","Female","[""好她"",""好我"",""坏她"",""坏我""]","[""强她"",""强我"",""弱她"",""弱我""]","","","","","","","","match","","","","","","","","","","key","j","8.331557017543737","853.3333333333334","476","f","false","nonmatch","img/triangle.png","坏我","坏她","ALT2","moral","","","","","","","",""
"null","<span style='color:red; font-size: 70px;'>错误! </span>","null","html-keyboard-response","133","601913","0.0-8.0-0.0-4.0-0.0-1.12","6","7","7","5","5","5","5","5","5","5","5","2","2","1","2","2","2","2","2","5","5","5","5","5","4","4","4","5","4","7","7","8","8","6","8","7","8","7","5","7","4","7","7","7","6","7","7","7","6","7","7","7","6","7","7","7","5","7","7","7","7","7","7","7","7","7","7","7","7","7","7","7","7","7","7","7","7","1","590543915338170368","李","613","Female","[""好她"",""好我"",""坏她"",""坏我""]","[""强她"",""强我"",""弱她"",""弱我""]","","","","","","","","","","","","","","","","","","","","","","","","","","","","","","feedback_test","","","","","","","",""
"588","","j","psychophysics","134","603501","0.0-8.0-0.0-4.0-0.0-0.13","6","7","7","5","5","5","5","5","5","5","5","2","2","1","2","2","2","2","2","5","5","5","5","5","4","4","4","5","4","7","7","8","8","6","8","7","8","7","5","7","4","7","7","7","6","7","7","7","6","7","7","7","6","7","7","7","5","7","7","7","7","7","7","7","7","7","7","7","7","7","7","7","7","7","7","7","7","1","590543915338170368","李","613","Female","[""好她"",""好我"",""坏她"",""坏我""]","[""强她"",""强我"",""弱她"",""弱我""]","","","","","","","","match","","","","","","","","","","key","j","8.33359788359813","853.3333333333334","476","f","false","nonmatch","img/circle.png","好我","好她","ALT2","moral","","","","","","","",""
"null","<span style='color:red; font-size: 70px;'>错误! </span>","null","html-keyboard-response","135","604002","0.0-8.0-0.0-4.0-0.0-1.13","6","7","7","5","5","5","5","5","5","5","5","2","2","1","2","2","2","2","2","5","5","5","5","5","4","4","4","5","4","7","7","8","8","6","8","7","8","7","5","7","4","7","7","7","6","7","7","7","6","7","7","7","6","7","7","7","5","7","7","7","7","7","7","7","7","7","7","7","7","7","7","7","7","7","7","7","7","1","590543915338170368","李","613","Female","[""好她"",""好我"",""坏她"",""坏我""]","[""强她"",""强我"",""弱她"",""弱我""]","","","","","","","","","","","","","","","","","","","","","","","","","","","","","","feedback_test","","","","","","","",""
"762","","j","psychophysics","136","605765","0.0-8.0-0.0-4.0-0.0-0.14","6","7","7","5","5","5","5","5","5","5","5","2","2","1","2","2","2","2","2","5","5","5","5","5","4","4","4","5","4","7","7","8","8","6","8","7","8","7","5","7","4","7","7","7","6","7","7","7","6","7","7","7","6","7","7","7","5","7","7","7","7","7","7","7","7","7","7","7","7","7","7","7","7","7","7","7","7","1","590543915338170368","李","613","Female","[""好她"",""好我"",""坏她"",""坏我""]","[""强她"",""强我"",""弱她"",""弱我""]","","","","","","","","match","","","","","","","","","","key","j","8.332875598086106","853.3333333333334","476","j","true","match","img/trapezoid.png","坏我","坏我","ALT2","moral","","","","","","","",""
"null","<span style='color:GreenYellow; font-size: 70px;'>正确! </span>","null","html-keyboard-response","137","606272","0.0-8.0-0.0-4.0-0.0-1.14","6","7","7","5","5","5","5","5","5","5","5","2","2","1","2","2","2","2","2","5","5","5","5","5","4","4","4","5","4","7","7","8","8","6","8","7","8","7","5","7","4","7","7","7","6","7","7","7","6","7","7","7","6","7","7","7","5","7","7","7","7","7","7","7","7","7","7","7","7","7","7","7","7","7","7","7","7","1","590543915338170368","李","613","Female","[""好她"",""好我"",""坏她"",""坏我""]","[""强她"",""强我"",""弱她"",""弱我""]","","","","","","","","","","","","","","","","","","","","","","","","","","","","","","feedback_test","","","","","","","",""
"837","","f","psychophysics","138","608109","0.0-8.0-0.0-4.0-0.0-0.15","6","7","7","5","5","5","5","5","5","5","5","2","2","1","2","2","2","2","2","5","5","5","5","5","4","4","4","5","4","7","7","8","8","6","8","7","8","7","5","7","4","7","7","7","6","7","7","7","6","7","7","7","6","7","7","7","5","7","7","7","7","7","7","7","7","7","7","7","7","7","7","7","7","7","7","7","7","1","590543915338170368","李","613","Female","[""好她"",""好我"",""坏她"",""坏我""]","[""强她"",""强我"",""弱她"",""弱我""]","","","","","","","","nonmatch","","","","","","","","","","key","f","8.332351598173133","853.3333333333334","476","f","true","nonmatch","img/circle.png","坏我","好她","ALT2","moral","","","","","","","",""
