"rt","stimulus","response","trial_type","trial_index","time_elapsed","internal_node_id","swb_1","swb_2","swb_3","swb_4","swb_5","LOT_1","LOT_2","LOT_3","LOT_4","LOT_5","LOT_6","IPC_1","IPC_2","IPC_3","IPC_4","IPC_5","IPC_6","IPC_7","IPC_8","MorIden_1","MorIden_2","MorIden_3","MorIden_4","MorIden_5","MorIden_6","MorIden_7","MorIden_8","MorIden_9","MorIden_10","moralSeImag_1","moralSeImag_2","moralSeImag_3","moralSeImag_4","moralSeImag_5","moralSeImag_6","moralSeImag_7","moralSeImag_8","moralSeImag_9","sde_1","sde_2","sde_3","sde_4","sde_5","sde_6","sde_7","sde_8","sde_9","sde_10","sde_11","sde_12","sde_13","sde_14","sde_15","sde_16","sde_17","sde_18","sde_19","sde_20","IM_1","IM_2","IM_3","IM_4","IM_5","IM_6","IM_7","IM_8","IM_9","IM_10","IM_11","IM_12","IM_13","IM_14","IM_15","IM_16","IM_17","IM_18","IM_19","IM_20","subj_idx","friend_name","ParticipantID","Sex","Word","Word2","value","success","timeout","failed_images","failed_audio","failed_video","user_agent","responses","item_order","radio_event_ids","radio_event_times","key_event_times","mouse_event_times","straightlining","zigzagging","honeypot","task_id","screen_id","time_stamp","response_type","key_press","avg_frame_time","center_x","center_y","person","word","valence","domain","math","correct_response","correct","status","view_history","identity","duration","Image","condition","question_order"
"3805","
   <p><div style='color:white; font-size: 25px'>您好，欢迎参加本次实验。</div></p>
   <p><div style='color:white; font-size: 25px'>为充分保障您的权利，请确保您已经知晓并同意《参与实验同意书》以及《数据公开知情同意书》。</div></p>
   <p><div style='color:white; font-size: 25px'>如果您未见过上述内容，请咨询实验员。</div></p>
   <p style='color:white; font-size: 25px'>如果您选择继续实验，则表示您已经清楚两份知情同意书的内容并同意。</p>
   <p> <div style = ""color: green""><按空格键至下页></div> </p>
   "," ","html-keyboard-response","0","3808","0.0-0.0","2","1","1","2","1","3","2","2","3","2","3","1","2","-1","0","-2","-1","0","0","4","5","5","5","3","2","4","1","3","3","4","7","3","7","4","3","6","5","8","4","1","2","5","5","2","4","1","2","2","3","3","4","3","2","4","3","7","2","3","4","3","5","2","4","5","2","4","5","7","3","4","7","2","4","3","7","2","2","4","754335804045922305","曹","38","Female","[""好她"",""坏我"",""好我"",""坏她""]","[""强她"",""弱我"",""强我"",""弱她""]","","","","","","","","","","","","","","","","","","","","","","","","","","","","","","","","","","","","","",""
"","","","call-function","1","3810","0.0-1.0-0.0","2","1","1","2","1","3","2","2","3","2","3","1","2","-1","0","-2","-1","0","0","4","5","5","5","3","2","4","1","3","3","4","7","3","7","4","3","6","5","8","4","1","2","5","5","2","4","1","2","2","3","3","4","3","2","4","3","7","2","3","4","3","5","2","4","5","2","4","5","7","3","4","7","2","4","3","7","2","2","4","754335804045922305","曹","38","Female","[""好她"",""坏我"",""好我"",""坏她""]","[""强她"",""弱我"",""强我"",""弱她""]","","","","","","","","","","","","","","","","","","","","","","","","","","","","","","","","","","","","","",""
"15548","","[{""name"":""Sex"",""value"":""1""},{""name"":""friend_name"",""value"":""曹""},{""name"":""ParticipantID"",""value"":""38""}]","survey-html-form","2","19358","0.0-1.0-1.0","2","1","1","2","1","3","2","2","3","2","3","1","2","-1","0","-2","-1","0","0","4","5","5","5","3","2","4","1","3","3","4","7","3","7","4","3","6","5","8","4","1","2","5","5","2","4","1","2","2","3","3","4","3","2","4","3","7","2","3","4","3","5","2","4","5","2","4","5","7","3","4","7","2","4","3","7","2","2","4","754335804045922305","曹","38","Female","[""好她"",""坏我"",""好我"",""坏她""]","[""强她"",""弱我"",""强我"",""弱她""]","","","","","","","","","","","","","","","","","","","","","","","","","","","","","","","","","","","","","",""
"","","","preload","3","19969","0.0-2.0","2","1","1","2","1","3","2","2","3","2","3","1","2","-1","0","-2","-1","0","0","4","5","5","5","3","2","4","1","3","3","4","7","3","7","4","3","6","5","8","4","1","2","5","5","2","4","1","2","2","3","3","4","3","2","4","3","7","2","3","4","3","5","2","4","5","2","4","5","7","3","4","7","2","4","3","7","2","2","4","754335804045922305","曹","38","Female","[""好她"",""坏我"",""好我"",""坏她""]","[""强她"",""弱我"",""强我"",""弱她""]","","true","false","[]","[]","[]","","","","","","","","","","","","","","","","","","","","","","","","","","","","","","","",""
"","","","fullscreen","4","23157","0.0-3.0","2","1","1","2","1","3","2","2","3","2","3","1","2","-1","0","-2","-1","0","0","4","5","5","5","3","2","4","1","3","3","4","7","3","7","4","3","6","5","8","4","1","2","5","5","2","4","1","2","2","3","3","4","3","2","4","3","7","2","3","4","3","5","2","4","5","2","4","5","7","3","4","7","2","4","3","7","2","2","4","754335804045922305","曹","38","Female","[""好她"",""坏我"",""好我"",""坏她""]","[""强她"",""弱我"",""强我"",""弱她""]","","true","","","","","{}","","","","","","","","","","","","","","","","","","","","","","","","","","","","","","",""
"21207.700000000186","","{""Q01"":""2"",""Q02"":""1"",""Q03"":""1"",""Q04"":""2"",""Q05"":""1""}","survey-template","5","44367","0.0-4.0","2","1","1","2","1","3","2","2","3","2","3","1","2","-1","0","-2","-1","0","0","4","5","5","5","3","2","4","1","3","3","4","7","3","7","4","3","6","5","8","4","1","2","5","5","2","4","1","2","2","3","3","4","3","2","4","3","7","2","3","4","3","5","2","4","5","2","4","5","7","3","4","7","2","4","3","7","2","2","4","754335804045922305","曹","38","Female","[""好她"",""坏我"",""好我"",""坏她""]","[""强她"",""弱我"",""强我"",""弱她""]","","","","","","","","{""Q01"":""2"",""Q02"":""1"",""Q03"":""1"",""Q04"":""2"",""Q05"":""1""}","[0,1,2,3,4]","[""Q01"",""Q02"",""Q03"",""Q04"",""Q05""]","[17735.200000000186,18558.5,19006.5,19870.700000000186,20598.299999999814]","[]","[17735.200000000186,18558.5,19006.5,19870.700000000186,20598.299999999814,21206.39999999944]","0.6","0.75","0","","","","","","","","","","","","","","","","","","","","","",""
"9555","","{""Q01"":""3"",""Q02"":""2"",""Q03"":""2"",""Q04"":""3"",""Q05"":""2"",""Q06"":""3""}","survey-template","6","53927","0.0-5.0","2","1","1","2","1","3","2","2","3","2","3","1","2","-1","0","-2","-1","0","0","4","5","5","5","3","2","4","1","3","3","4","7","3","7","4","3","6","5","8","4","1","2","5","5","2","4","1","2","2","3","3","4","3","2","4","3","7","2","3","4","3","5","2","4","5","2","4","5","7","3","4","7","2","4","3","7","2","2","4","754335804045922305","曹","38","Female","[""好她"",""坏我"",""好我"",""坏她""]","[""强她"",""弱我"",""强我"",""弱她""]","","","","","","","","{""Q01"":""3"",""Q02"":""2"",""Q03"":""2"",""Q04"":""3"",""Q05"":""2"",""Q06"":""3""}","[0,1,2,3,4,5]","[""Q01"",""Q02"",""Q03"",""Q04"",""Q05"",""Q06""]","[2585.5999999996275,3769.9000000003725,5433.5999999996275,6825.9000000003725,7761.700000000186,8961.5]","[]","[2585.5999999996275,3769.9000000003725,5433.5999999996275,6825.9000000003725,7761.700000000186,8610,8961.5,9553.799999999814]","0.5","0.8","0","","","","","","","","","","","","","","","","","","","","","",""
"13475.299999999814","","{""Q01"":""1"",""Q02"":""2"",""Q03"":""-1"",""Q04"":""0"",""Q05"":""-2"",""Q06"":""-1"",""Q07"":""0"",""Q08"":""0""}","survey-template","7","67408","0.0-6.0","2","1","1","2","1","3","2","2","3","2","3","1","2","-1","0","-2","-1","0","0","4","5","5","5","3","2","4","1","3","3","4","7","3","7","4","3","6","5","8","4","1","2","5","5","2","4","1","2","2","3","3","4","3","2","4","3","7","2","3","4","3","5","2","4","5","2","4","5","7","3","4","7","2","4","3","7","2","2","4","754335804045922305","曹","38","Female","[""好她"",""坏我"",""好我"",""坏她""]","[""强她"",""弱我"",""强我"",""弱她""]","","","","","","","","{""Q01"":""1"",""Q02"":""2"",""Q03"":""-1"",""Q04"":""0"",""Q05"":""-2"",""Q06"":""-1"",""Q07"":""0"",""Q08"":""0""}","[0,1,2,3,4,5,6,7]","[""Q01"",""Q02"",""Q03"",""Q04"",""Q05"",""Q06"",""Q07"",""Q08""]","[3953.7999999998137,5090.299999999814,7449.4000000003725,8441.900000000373,9306.400000000373,10097.5,11857.5,13089.5]","[]","[3113.5999999996275,3953.7999999998137,5090.299999999814,7449.4000000003725,8441.900000000373,9306.400000000373,10097.5,11857.5,13089.5,13474.400000000373]","0.375","0.5714285714285714","0","","","","","","","","","","","","","","","","","","","","","",""
"170131","
    <p><div style='color:white;font-size:35px; line-height:20px;'>词汇评估任务</div></p><br>
    <p><div style='color:white;font-size:25px; line-height:20px;'>请再次回忆该亲密的朋友，你们至少2年前就认识了，并且最近2年经常见面。</div></p>
    <p><div style='color:white;font-size:25px; line-height:20px;'>在本实验中，您将会看到一些形容词。</div></p>
    <p><div style='color:yellow;font-size:25px; line-height:20px;'>您的任务是判断这些形容词是否符合对您自己或您的朋友的描述。</div></p><p style='font-size:35px'>符合按<span style=""color:lightgreen""> f 键</span>，不符合按<span style=""color:red""> j 键</span></p>","0","html-button-response","8","237542","0.0-7.0-0.0","2","1","1","2","1","3","2","2","3","2","3","1","2","-1","0","-2","-1","0","0","4","5","5","5","3","2","4","1","3","3","4","7","3","7","4","3","6","5","8","4","1","2","5","5","2","4","1","2","2","3","3","4","3","2","4","3","7","2","3","4","3","5","2","4","5","2","4","5","7","3","4","7","2","4","3","7","2","2","4","754335804045922305","曹","38","Female","[""好她"",""坏我"",""好我"",""坏她""]","[""强她"",""弱我"",""强我"",""弱她""]","","","","","","","","","","","","","","","","","SRET_EW","EW_instructions","Wed Oct 18 2023 11:27:07 GMT+0800 (中国标准时间)","","","","","","","","","","","","","","","","","","",""
"4775","","j","psychophysics","9","243323","0.0-7.0-1.0-0.0","2","1","1","2","1","3","2","2","3","2","3","1","2","-1","0","-2","-1","0","0","4","5","5","5","3","2","4","1","3","3","4","7","3","7","4","3","6","5","8","4","1","2","5","5","2","4","1","2","2","3","3","4","3","2","4","3","7","2","3","4","3","5","2","4","5","2","4","5","7","3","4","7","2","4","3","7","2","2","4","754335804045922305","曹","38","Female","[""好她"",""坏我"",""好我"",""坏她""]","[""强她"",""弱我"",""强我"",""弱她""]","","","","","","","","no","","","","","","","","","SRET_EW","EW_practice","","key","j","16.66624495677235","768","428","自己","刻板","Negative","ability","","","","","","","","","",""
"1002","","f","psychophysics","10","245329","0.0-7.0-1.0-0.1","2","1","1","2","1","3","2","2","3","2","3","1","2","-1","0","-2","-1","0","0","4","5","5","5","3","2","4","1","3","3","4","7","3","7","4","3","6","5","8","4","1","2","5","5","2","4","1","2","2","3","3","4","3","2","4","3","7","2","3","4","3","5","2","4","5","2","4","5","7","3","4","7","2","4","3","7","2","2","4","754335804045922305","曹","38","Female","[""好她"",""坏我"",""好我"",""坏她""]","[""强她"",""弱我"",""强我"",""弱她""]","","","","","","","","yes","","","","","","","","","SRET_EW","EW_practice","","key","f","16.66650420168078","768","428","朋友","忠实","Positive","morality","","","","","","","","","",""
"1513","","j","psychophysics","11","247844","0.0-7.0-1.0-0.2","2","1","1","2","1","3","2","2","3","2","3","1","2","-1","0","-2","-1","0","0","4","5","5","5","3","2","4","1","3","3","4","7","3","7","4","3","6","5","8","4","1","2","5","5","2","4","1","2","2","3","3","4","3","2","4","3","7","2","3","4","3","5","2","4","5","2","4","5","7","3","4","7","2","4","3","7","2","2","4","754335804045922305","曹","38","Female","[""好她"",""坏我"",""好我"",""坏她""]","[""强她"",""弱我"",""强我"",""弱她""]","","","","","","","","no","","","","","","","","","SRET_EW","EW_practice","","key","j","16.66624000000011","768","428","朋友","徇私","Negative","morality","","","","","","","","","",""
"921","","f","psychophysics","12","249768","0.0-7.0-1.0-0.3","2","1","1","2","1","3","2","2","3","2","3","1","2","-1","0","-2","-1","0","0","4","5","5","5","3","2","4","1","3","3","4","7","3","7","4","3","6","5","8","4","1","2","5","5","2","4","1","2","2","3","3","4","3","2","4","3","7","2","3","4","3","5","2","4","5","2","4","5","7","3","4","7","2","4","3","7","2","2","4","754335804045922305","曹","38","Female","[""好她"",""坏我"",""好我"",""坏她""]","[""强她"",""弱我"",""强我"",""弱她""]","","","","","","","","yes","","","","","","","","","SRET_EW","EW_practice","","key","f","16.665991304347887","768","428","自己","严谨","Positive","ability","","","","","","","","","",""
"7101","
    <p><div style='color:white;font-size:35px; line-height:20px;'>请您再次阅读实验要求</div></p><br>
    <p><div style='color:white;font-size:25px; line-height:20px;'>请回忆某一个亲密的朋友，你们至少2年前就认识了，并且最近2年经常见面。</div></p>
    <p><div style='color:white;font-size:25px; line-height:20px;'>在本实验中，您将会看到一些形容词。</div></p>
    <p><div style='color:yellow;font-size:25px; line-height:20px;'>您的任务是判断这些形容词是否符合对您自己或您的朋友的描述。</div></p>
    <p><div class='footer' style='font-size:25px; line-height:20px;'>如果对本实验还有不清楚之处，请立即向实验员咨询。</p><p style='font-size:25px; line-height:20px;'>如果您明白了规则：</p><p style='font-size:22px; line-height:20px;'>请按 继续 进入正式实验</p>
    </div>
    <p style='font-size:35px'>符合按<span style=""color:lightgreen""> f 键</span>，不符合按<span style=""color:red""> j 键</span></p>","0","html-button-response","13","256870","0.0-7.0-2.0","2","1","1","2","1","3","2","2","3","2","3","1","2","-1","0","-2","-1","0","0","4","5","5","5","3","2","4","1","3","3","4","7","3","7","4","3","6","5","8","4","1","2","5","5","2","4","1","2","2","3","3","4","3","2","4","3","7","2","3","4","3","5","2","4","5","2","4","5","7","3","4","7","2","4","3","7","2","2","4","754335804045922305","曹","38","Female","[""好她"",""坏我"",""好我"",""坏她""]","[""强她"",""弱我"",""强我"",""弱她""]","","","","","","","","","","","","","","","","","SRET_EW","prac_instructions","Wed Oct 18 2023 11:27:07 GMT+0800 (中国标准时间)","","","","","","","","","","","","","","","","","","",""
"726","","f","psychophysics","14","258604","0.0-7.0-3.0-0.0","2","1","1","2","1","3","2","2","3","2","3","1","2","-1","0","-2","-1","0","0","4","5","5","5","3","2","4","1","3","3","4","7","3","7","4","3","6","5","8","4","1","2","5","5","2","4","1","2","2","3","3","4","3","2","4","3","7","2","3","4","3","5","2","4","5","2","4","5","7","3","4","7","2","4","3","7","2","2","4","754335804045922305","曹","38","Female","[""好她"",""坏我"",""好我"",""坏她""]","[""强她"",""弱我"",""强我"",""弱她""]","","","","","","","","yes","","","","","","","","","SRET","EW_formal","","key","f","16.746125000000085","768","428","自己","坚贞","Positive","morality","","","","","","","","","",""
"609","","f","psychophysics","15","260216","0.0-7.0-3.0-0.1","2","1","1","2","1","3","2","2","3","2","3","1","2","-1","0","-2","-1","0","0","4","5","5","5","3","2","4","1","3","3","4","7","3","7","4","3","6","5","8","4","1","2","5","5","2","4","1","2","2","3","3","4","3","2","4","3","7","2","3","4","3","5","2","4","5","2","4","5","7","3","4","7","2","4","3","7","2","2","4","754335804045922305","曹","38","Female","[""好她"",""坏我"",""好我"",""坏她""]","[""强她"",""弱我"",""强我"",""弱她""]","","","","","","","","yes","","","","","","","","","SRET","EW_formal","","key","f","16.666515789473564","768","428","朋友","务实","Positive","ability","","","","","","","","","",""
"554","","j","psychophysics","16","261771","0.0-7.0-3.0-0.2","2","1","1","2","1","3","2","2","3","2","3","1","2","-1","0","-2","-1","0","0","4","5","5","5","3","2","4","1","3","3","4","7","3","7","4","3","6","5","8","4","1","2","5","5","2","4","1","2","2","3","3","4","3","2","4","3","7","2","3","4","3","5","2","4","5","2","4","5","7","3","4","7","2","4","3","7","2","2","4","754335804045922305","曹","38","Female","[""好她"",""坏我"",""好我"",""坏她""]","[""强她"",""弱我"",""强我"",""弱她""]","","","","","","","","no","","","","","","","","","SRET","EW_formal","","key","j","16.666623655913813","768","428","自己","说谎","Negative","morality","","","","","","","","","",""
"1099","","j","psychophysics","17","263873","0.0-7.0-3.0-0.3","2","1","1","2","1","3","2","2","3","2","3","1","2","-1","0","-2","-1","0","0","4","5","5","5","3","2","4","1","3","3","4","7","3","7","4","3","6","5","8","4","1","2","5","5","2","4","1","2","2","3","3","4","3","2","4","3","7","2","3","4","3","5","2","4","5","2","4","5","7","3","4","7","2","4","3","7","2","2","4","754335804045922305","曹","38","Female","[""好她"",""坏我"",""好我"",""坏她""]","[""强她"",""弱我"",""强我"",""弱她""]","","","","","","","","no","","","","","","","","","SRET","EW_formal","","key","j","16.665032000000124","768","428","朋友","迷糊","Negative","ability","","","","","","","","","",""
"975","","f","psychophysics","18","265854","0.0-7.0-3.0-0.4","2","1","1","2","1","3","2","2","3","2","3","1","2","-1","0","-2","-1","0","0","4","5","5","5","3","2","4","1","3","3","4","7","3","7","4","3","6","5","8","4","1","2","5","5","2","4","1","2","2","3","3","4","3","2","4","3","7","2","3","4","3","5","2","4","5","2","4","5","7","3","4","7","2","4","3","7","2","2","4","754335804045922305","曹","38","Female","[""好她"",""坏我"",""好我"",""坏她""]","[""强她"",""弱我"",""强我"",""弱她""]","","","","","","","","yes","","","","","","","","","SRET","EW_formal","","key","f","16.666194915254028","768","428","自己","失信","Negative","morality","","","","","","","","","",""
"788","","j","psychophysics","19","267650","0.0-7.0-3.0-0.5","2","1","1","2","1","3","2","2","3","2","3","1","2","-1","0","-2","-1","0","0","4","5","5","5","3","2","4","1","3","3","4","7","3","7","4","3","6","5","8","4","1","2","5","5","2","4","1","2","2","3","3","4","3","2","4","3","7","2","3","4","3","5","2","4","5","2","4","5","7","3","4","7","2","4","3","7","2","2","4","754335804045922305","曹","38","Female","[""好她"",""坏我"",""好我"",""坏她""]","[""强她"",""弱我"",""强我"",""弱她""]","","","","","","","","no","","","","","","","","","SRET","EW_formal","","key","j","16.66572641509416","768","428","朋友","龌龊","Negative","morality","","","","","","","","","",""
"1094","","j","psychophysics","20","269746","0.0-7.0-3.0-0.6","2","1","1","2","1","3","2","2","3","2","3","1","2","-1","0","-2","-1","0","0","4","5","5","5","3","2","4","1","3","3","4","7","3","7","4","3","6","5","8","4","1","2","5","5","2","4","1","2","2","3","3","4","3","2","4","3","7","2","3","4","3","5","2","4","5","2","4","5","7","3","4","7","2","4","3","7","2","2","4","754335804045922305","曹","38","Female","[""好她"",""坏我"",""好我"",""坏她""]","[""强她"",""弱我"",""强我"",""弱她""]","","","","","","","","no","","","","","","","","","SRET","EW_formal","","key","j","16.66636800000025","768","428","自己","智慧","Positive","ability","","","","","","","","","",""
"1291","","f","psychophysics","21","272042","0.0-7.0-3.0-0.7","2","1","1","2","1","3","2","2","3","2","3","1","2","-1","0","-2","-1","0","0","4","5","5","5","3","2","4","1","3","3","4","7","3","7","4","3","6","5","8","4","1","2","5","5","2","4","1","2","2","3","3","4","3","2","4","3","7","2","3","4","3","5","2","4","5","2","4","5","7","3","4","7","2","4","3","7","2","2","4","754335804045922305","曹","38","Female","[""好她"",""坏我"",""好我"",""坏她""]","[""强她"",""弱我"",""强我"",""弱她""]","","","","","","","","yes","","","","","","","","","SRET","EW_formal","","key","f","16.666175182481776","768","428","朋友","孝顺","Positive","morality","","","","","","","","","",""
"1156","","f","psychophysics","22","274202","0.0-7.0-3.0-0.8","2","1","1","2","1","3","2","2","3","2","3","1","2","-1","0","-2","-1","0","0","4","5","5","5","3","2","4","1","3","3","4","7","3","7","4","3","6","5","8","4","1","2","5","5","2","4","1","2","2","3","3","4","3","2","4","3","7","2","3","4","3","5","2","4","5","2","4","5","7","3","4","7","2","4","3","7","2","2","4","754335804045922305","曹","38","Female","[""好她"",""坏我"",""好我"",""坏她""]","[""强她"",""弱我"",""强我"",""弱她""]","","","","","","","","yes","","","","","","","","","SRET","EW_formal","","key","f","16.665798449612225","768","428","自己","虚伪","Negative","morality","","","","","","","","","",""
"1123","","j","psychophysics","23","276329","0.0-7.0-3.0-0.9","2","1","1","2","1","3","2","2","3","2","3","1","2","-1","0","-2","-1","0","0","4","5","5","5","3","2","4","1","3","3","4","7","3","7","4","3","6","5","8","4","1","2","5","5","2","4","1","2","2","3","3","4","3","2","4","3","7","2","3","4","3","5","2","4","5","2","4","5","7","3","4","7","2","4","3","7","2","2","4","754335804045922305","曹","38","Female","[""好她"",""坏我"",""好我"",""坏她""]","[""强她"",""弱我"",""强我"",""弱她""]","","","","","","","","no","","","","","","","","","SRET","EW_formal","","key","j","16.666880952380968","768","428","朋友","逞能","Negative","ability","","","","","","","","","",""
"866","","j","psychophysics","24","278200","0.0-7.0-3.0-0.10","2","1","1","2","1","3","2","2","3","2","3","1","2","-1","0","-2","-1","0","0","4","5","5","5","3","2","4","1","3","3","4","7","3","7","4","3","6","5","8","4","1","2","5","5","2","4","1","2","2","3","3","4","3","2","4","3","7","2","3","4","3","5","2","4","5","2","4","5","7","3","4","7","2","4","3","7","2","2","4","754335804045922305","曹","38","Female","[""好她"",""坏我"",""好我"",""坏她""]","[""强她"",""弱我"",""强我"",""弱她""]","","","","","","","","no","","","","","","","","","SRET","EW_formal","","key","j","16.66668468468449","768","428","自己","勤奋","Positive","ability","","","","","","","","","",""
"967","","j","psychophysics","25","280170","0.0-7.0-3.0-0.11","2","1","1","2","1","3","2","2","3","2","3","1","2","-1","0","-2","-1","0","0","4","5","5","5","3","2","4","1","3","3","4","7","3","7","4","3","6","5","8","4","1","2","5","5","2","4","1","2","2","3","3","4","3","2","4","3","7","2","3","4","3","5","2","4","5","2","4","5","7","3","4","7","2","4","3","7","2","2","4","754335804045922305","曹","38","Female","[""好她"",""坏我"",""好我"",""坏她""]","[""强她"",""弱我"",""强我"",""弱她""]","","","","","","","","no","","","","","","","","","SRET","EW_formal","","key","j","16.665822033898635","768","428","朋友","废物","Negative","ability","","","","","","","","","",""
"955","","j","psychophysics","26","282130","0.0-7.0-3.0-0.12","2","1","1","2","1","3","2","2","3","2","3","1","2","-1","0","-2","-1","0","0","4","5","5","5","3","2","4","1","3","3","4","7","3","7","4","3","6","5","8","4","1","2","5","5","2","4","1","2","2","3","3","4","3","2","4","3","7","2","3","4","3","5","2","4","5","2","4","5","7","3","4","7","2","4","3","7","2","2","4","754335804045922305","曹","38","Female","[""好她"",""坏我"",""好我"",""坏她""]","[""强她"",""弱我"",""强我"",""弱她""]","","","","","","","","no","","","","","","","","","SRET","EW_formal","","key","j","16.663594827586323","768","428","自己","懂行","Positive","ability","","","","","","","","","",""
"732","","f","psychophysics","27","283865","0.0-7.0-3.0-0.13","2","1","1","2","1","3","2","2","3","2","3","1","2","-1","0","-2","-1","0","0","4","5","5","5","3","2","4","1","3","3","4","7","3","7","4","3","6","5","8","4","1","2","5","5","2","4","1","2","2","3","3","4","3","2","4","3","7","2","3","4","3","5","2","4","5","2","4","5","7","3","4","7","2","4","3","7","2","2","4","754335804045922305","曹","38","Female","[""好她"",""坏我"",""好我"",""坏她""]","[""强她"",""弱我"",""强我"",""弱她""]","","","","","","","","yes","","","","","","","","","SRET","EW_formal","","key","f","16.66627184466009","768","428","朋友","仗义","Positive","morality","","","","","","","","","",""
"728","","f","psychophysics","28","285595","0.0-7.0-3.0-0.14","2","1","1","2","1","3","2","2","3","2","3","1","2","-1","0","-2","-1","0","0","4","5","5","5","3","2","4","1","3","3","4","7","3","7","4","3","6","5","8","4","1","2","5","5","2","4","1","2","2","3","3","4","3","2","4","3","7","2","3","4","3","5","2","4","5","2","4","5","7","3","4","7","2","4","3","7","2","2","4","754335804045922305","曹","38","Female","[""好她"",""坏我"",""好我"",""坏她""]","[""强她"",""弱我"",""强我"",""弱她""]","","","","","","","","yes","","","","","","","","","SRET","EW_formal","","key","f","16.66690291262128","768","428","自己","守信","Positive","morality","","","","","","","","","",""
"589","","j","psychophysics","29","287188","0.0-7.0-3.0-0.15","2","1","1","2","1","3","2","2","3","2","3","1","2","-1","0","-2","-1","0","0","4","5","5","5","3","2","4","1","3","3","4","7","3","7","4","3","6","5","8","4","1","2","5","5","2","4","1","2","2","3","3","4","3","2","4","3","7","2","3","4","3","5","2","4","5","2","4","5","7","3","4","7","2","4","3","7","2","2","4","754335804045922305","曹","38","Female","[""好她"",""坏我"",""好我"",""坏她""]","[""强她"",""弱我"",""强我"",""弱她""]","","","","","","","","no","","","","","","","","","SRET","EW_formal","","key","j","16.666536842105224","768","428","朋友","黑心","Negative","morality","","","","","","","","","",""
"625","","f","psychophysics","30","288816","0.0-7.0-3.0-0.16","2","1","1","2","1","3","2","2","3","2","3","1","2","-1","0","-2","-1","0","0","4","5","5","5","3","2","4","1","3","3","4","7","3","7","4","3","6","5","8","4","1","2","5","5","2","4","1","2","2","3","3","4","3","2","4","3","7","2","3","4","3","5","2","4","5","2","4","5","7","3","4","7","2","4","3","7","2","2","4","754335804045922305","曹","38","Female","[""好她"",""坏我"",""好我"",""坏她""]","[""强她"",""弱我"",""强我"",""弱她""]","","","","","","","","yes","","","","","","","","","SRET","EW_formal","","key","f","16.6698750000002","768","428","自己","热心","Positive","morality","","","","","","","","","",""
"527","","j","psychophysics","31","290344","0.0-7.0-3.0-0.17","2","1","1","2","1","3","2","2","3","2","3","1","2","-1","0","-2","-1","0","0","4","5","5","5","3","2","4","1","3","3","4","7","3","7","4","3","6","5","8","4","1","2","5","5","2","4","1","2","2","3","3","4","3","2","4","3","7","2","3","4","3","5","2","4","5","2","4","5","7","3","4","7","2","4","3","7","2","2","4","754335804045922305","曹","38","Female","[""好她"",""坏我"",""好我"",""坏她""]","[""强她"",""弱我"",""强我"",""弱她""]","","","","","","","","no","","","","","","","","","SRET","EW_formal","","key","j","16.666791208791366","768","428","朋友","无耻","Negative","morality","","","","","","","","","",""
"766","","j","psychophysics","32","292116","0.0-7.0-3.0-0.18","2","1","1","2","1","3","2","2","3","2","3","1","2","-1","0","-2","-1","0","0","4","5","5","5","3","2","4","1","3","3","4","7","3","7","4","3","6","5","8","4","1","2","5","5","2","4","1","2","2","3","3","4","3","2","4","3","7","2","3","4","3","5","2","4","5","2","4","5","7","3","4","7","2","4","3","7","2","2","4","754335804045922305","曹","38","Female","[""好她"",""坏我"",""好我"",""坏她""]","[""强她"",""弱我"",""强我"",""弱她""]","","","","","","","","no","","","","","","","","","SRET","EW_formal","","key","j","16.666409523809506","768","428","朋友","愚蠢","Negative","ability","","","","","","","","","",""
"846","","j","psychophysics","33","293964","0.0-7.0-3.0-0.19","2","1","1","2","1","3","2","2","3","2","3","1","2","-1","0","-2","-1","0","0","4","5","5","5","3","2","4","1","3","3","4","7","3","7","4","3","6","5","8","4","1","2","5","5","2","4","1","2","2","3","3","4","3","2","4","3","7","2","3","4","3","5","2","4","5","2","4","5","7","3","4","7","2","4","3","7","2","2","4","754335804045922305","曹","38","Female","[""好她"",""坏我"",""好我"",""坏她""]","[""强她"",""弱我"",""强我"",""弱她""]","","","","","","","","no","","","","","","","","","SRET","EW_formal","","key","j","16.6674090909089","768","428","朋友","仁厚","Positive","morality","","","","","","","","","",""
"872","","j","psychophysics","34","295839","0.0-7.0-3.0-0.20","2","1","1","2","1","3","2","2","3","2","3","1","2","-1","0","-2","-1","0","0","4","5","5","5","3","2","4","1","3","3","4","7","3","7","4","3","6","5","8","4","1","2","5","5","2","4","1","2","2","3","3","4","3","2","4","3","7","2","3","4","3","5","2","4","5","2","4","5","7","3","4","7","2","4","3","7","2","2","4","754335804045922305","曹","38","Female","[""好她"",""坏我"",""好我"",""坏她""]","[""强她"",""弱我"",""强我"",""弱她""]","","","","","","","","no","","","","","","","","","SRET","EW_formal","","key","j","16.666464285714547","768","428","自己","聪明","Positive","ability","","","","","","","","","",""
"892","","j","psychophysics","35","297739","0.0-7.0-3.0-0.21","2","1","1","2","1","3","2","2","3","2","3","1","2","-1","0","-2","-1","0","0","4","5","5","5","3","2","4","1","3","3","4","7","3","7","4","3","6","5","8","4","1","2","5","5","2","4","1","2","2","3","3","4","3","2","4","3","7","2","3","4","3","5","2","4","5","2","4","5","7","3","4","7","2","4","3","7","2","2","4","754335804045922305","曹","38","Female","[""好她"",""坏我"",""好我"",""坏她""]","[""强她"",""弱我"",""强我"",""弱她""]","","","","","","","","no","","","","","","","","","SRET","EW_formal","","key","j","16.665999999999755","768","428","自己","淡泊","Positive","morality","","","","","","","","","",""
"988","","f","psychophysics","36","299730","0.0-7.0-3.0-0.22","2","1","1","2","1","3","2","2","3","2","3","1","2","-1","0","-2","-1","0","0","4","5","5","5","3","2","4","1","3","3","4","7","3","7","4","3","6","5","8","4","1","2","5","5","2","4","1","2","2","3","3","4","3","2","4","3","7","2","3","4","3","5","2","4","5","2","4","5","7","3","4","7","2","4","3","7","2","2","4","754335804045922305","曹","38","Female","[""好她"",""坏我"",""好我"",""坏她""]","[""强她"",""弱我"",""强我"",""弱她""]","","","","","","","","yes","","","","","","","","","SRET","EW_formal","","key","f","16.66612711864409","768","428","朋友","有力","Positive","ability","","","","","","","","","",""
"591","","j","psychophysics","37","301324","0.0-7.0-3.0-0.23","2","1","1","2","1","3","2","2","3","2","3","1","2","-1","0","-2","-1","0","0","4","5","5","5","3","2","4","1","3","3","4","7","3","7","4","3","6","5","8","4","1","2","5","5","2","4","1","2","2","3","3","4","3","2","4","3","7","2","3","4","3","5","2","4","5","2","4","5","7","3","4","7","2","4","3","7","2","2","4","754335804045922305","曹","38","Female","[""好她"",""坏我"",""好我"",""坏她""]","[""强她"",""弱我"",""强我"",""弱她""]","","","","","","","","no","","","","","","","","","SRET","EW_formal","","key","j","16.666400000000202","768","428","朋友","弱智","Negative","ability","","","","","","","","","",""
"676","","f","psychophysics","38","303003","0.0-7.0-3.0-0.24","2","1","1","2","1","3","2","2","3","2","3","1","2","-1","0","-2","-1","0","0","4","5","5","5","3","2","4","1","3","3","4","7","3","7","4","3","6","5","8","4","1","2","5","5","2","4","1","2","2","3","3","4","3","2","4","3","7","2","3","4","3","5","2","4","5","2","4","5","7","3","4","7","2","4","3","7","2","2","4","754335804045922305","曹","38","Female","[""好她"",""坏我"",""好我"",""坏她""]","[""强她"",""弱我"",""强我"",""弱她""]","","","","","","","","yes","","","","","","","","","SRET","EW_formal","","key","f","16.66551000000036","768","428","朋友","文明","Positive","morality","","","","","","","","","",""
"616","","j","psychophysics","39","304622","0.0-7.0-3.0-0.25","2","1","1","2","1","3","2","2","3","2","3","1","2","-1","0","-2","-1","0","0","4","5","5","5","3","2","4","1","3","3","4","7","3","7","4","3","6","5","8","4","1","2","5","5","2","4","1","2","2","3","3","4","3","2","4","3","7","2","3","4","3","5","2","4","5","2","4","5","7","3","4","7","2","4","3","7","2","2","4","754335804045922305","曹","38","Female","[""好她"",""坏我"",""好我"",""坏她""]","[""强她"",""弱我"",""强我"",""弱她""]","","","","","","","","no","","","","","","","","","SRET","EW_formal","","key","j","16.66568750000018","768","428","朋友","虚假","Negative","morality","","","","","","","","","",""
"879","","f","psychophysics","40","306509","0.0-7.0-3.0-0.26","2","1","1","2","1","3","2","2","3","2","3","1","2","-1","0","-2","-1","0","0","4","5","5","5","3","2","4","1","3","3","4","7","3","7","4","3","6","5","8","4","1","2","5","5","2","4","1","2","2","3","3","4","3","2","4","3","7","2","3","4","3","5","2","4","5","2","4","5","7","3","4","7","2","4","3","7","2","2","4","754335804045922305","曹","38","Female","[""好她"",""坏我"",""好我"",""坏她""]","[""强她"",""弱我"",""强我"",""弱她""]","","","","","","","","yes","","","","","","","","","SRET","EW_formal","","key","f","16.666303571428475","768","428","自己","拖拉","Negative","ability","","","","","","","","","",""
"872","","f","psychophysics","41","308382","0.0-7.0-3.0-0.27","2","1","1","2","1","3","2","2","3","2","3","1","2","-1","0","-2","-1","0","0","4","5","5","5","3","2","4","1","3","3","4","7","3","7","4","3","6","5","8","4","1","2","5","5","2","4","1","2","2","3","3","4","3","2","4","3","7","2","3","4","3","5","2","4","5","2","4","5","7","3","4","7","2","4","3","7","2","2","4","754335804045922305","曹","38","Female","[""好她"",""坏我"",""好我"",""坏她""]","[""强她"",""弱我"",""强我"",""弱她""]","","","","","","","","yes","","","","","","","","","SRET","EW_formal","","key","f","16.666297297297056","768","428","朋友","独断","Negative","ability","","","","","","","","","",""
"608","","f","psychophysics","42","309992","0.0-7.0-3.0-0.28","2","1","1","2","1","3","2","2","3","2","3","1","2","-1","0","-2","-1","0","0","4","5","5","5","3","2","4","1","3","3","4","7","3","7","4","3","6","5","8","4","1","2","5","5","2","4","1","2","2","3","3","4","3","2","4","3","7","2","3","4","3","5","2","4","5","2","4","5","7","3","4","7","2","4","3","7","2","2","4","754335804045922305","曹","38","Female","[""好她"",""坏我"",""好我"",""坏她""]","[""强她"",""弱我"",""强我"",""弱她""]","","","","","","","","yes","","","","","","","","","SRET","EW_formal","","key","f","16.666697916666333","768","428","朋友","厚道","Positive","morality","","","","","","","","","",""
"560","","j","psychophysics","43","311559","0.0-7.0-3.0-0.29","2","1","1","2","1","3","2","2","3","2","3","1","2","-1","0","-2","-1","0","0","4","5","5","5","3","2","4","1","3","3","4","7","3","7","4","3","6","5","8","4","1","2","5","5","2","4","1","2","2","3","3","4","3","2","4","3","7","2","3","4","3","5","2","4","5","2","4","5","7","3","4","7","2","4","3","7","2","2","4","754335804045922305","曹","38","Female","[""好她"",""坏我"",""好我"",""坏她""]","[""强她"",""弱我"",""强我"",""弱她""]","","","","","","","","no","","","","","","","","","SRET","EW_formal","","key","j","16.671311827956682","768","428","自己","迂拙","Negative","ability","","","","","","","","","",""
"760","","f","psychophysics","44","313327","0.0-7.0-3.0-0.30","2","1","1","2","1","3","2","2","3","2","3","1","2","-1","0","-2","-1","0","0","4","5","5","5","3","2","4","1","3","3","4","7","3","7","4","3","6","5","8","4","1","2","5","5","2","4","1","2","2","3","3","4","3","2","4","3","7","2","3","4","3","5","2","4","5","2","4","5","7","3","4","7","2","4","3","7","2","2","4","754335804045922305","曹","38","Female","[""好她"",""坏我"",""好我"",""坏她""]","[""强她"",""弱我"",""强我"",""弱她""]","","","","","","","","yes","","","","","","","","","SRET","EW_formal","","key","f","16.672695238094978","768","428","自己","自私","Negative","morality","","","","","","","","","",""
"626","","j","psychophysics","45","314959","0.0-7.0-3.0-0.31","2","1","1","2","1","3","2","2","3","2","3","1","2","-1","0","-2","-1","0","0","4","5","5","5","3","2","4","1","3","3","4","7","3","7","4","3","6","5","8","4","1","2","5","5","2","4","1","2","2","3","3","4","3","2","4","3","7","2","3","4","3","5","2","4","5","2","4","5","7","3","4","7","2","4","3","7","2","2","4","754335804045922305","曹","38","Female","[""好她"",""坏我"",""好我"",""坏她""]","[""强她"",""弱我"",""强我"",""弱她""]","","","","","","","","no","","","","","","","","","SRET","EW_formal","","key","j","16.66589690721654","768","428","朋友","业余","Negative","ability","","","","","","","","","",""
"465","","j","psychophysics","46","316431","0.0-7.0-3.0-0.32","2","1","1","2","1","3","2","2","3","2","3","1","2","-1","0","-2","-1","0","0","4","5","5","5","3","2","4","1","3","3","4","7","3","7","4","3","6","5","8","4","1","2","5","5","2","4","1","2","2","3","3","4","3","2","4","3","7","2","3","4","3","5","2","4","5","2","4","5","7","3","4","7","2","4","3","7","2","2","4","754335804045922305","曹","38","Female","[""好她"",""坏我"",""好我"",""坏她""]","[""强她"",""弱我"",""强我"",""弱她""]","","","","","","","","no","","","","","","","","","SRET","EW_formal","","key","j","16.6660344827587","768","428","朋友","混账","Negative","morality","","","","","","","","","",""
"612","","j","psychophysics","47","318045","0.0-7.0-3.0-0.33","2","1","1","2","1","3","2","2","3","2","3","1","2","-1","0","-2","-1","0","0","4","5","5","5","3","2","4","1","3","3","4","7","3","7","4","3","6","5","8","4","1","2","5","5","2","4","1","2","2","3","3","4","3","2","4","3","7","2","3","4","3","5","2","4","5","2","4","5","7","3","4","7","2","4","3","7","2","2","4","754335804045922305","曹","38","Female","[""好她"",""坏我"",""好我"",""坏她""]","[""强她"",""弱我"",""强我"",""弱她""]","","","","","","","","no","","","","","","","","","SRET","EW_formal","","key","j","16.66879166666634","768","428","自己","愚痴","Negative","ability","","","","","","","","","",""
"723","","j","psychophysics","48","319769","0.0-7.0-3.0-0.34","2","1","1","2","1","3","2","2","3","2","3","1","2","-1","0","-2","-1","0","0","4","5","5","5","3","2","4","1","3","3","4","7","3","7","4","3","6","5","8","4","1","2","5","5","2","4","1","2","2","3","3","4","3","2","4","3","7","2","3","4","3","5","2","4","5","2","4","5","7","3","4","7","2","4","3","7","2","2","4","754335804045922305","曹","38","Female","[""好她"",""坏我"",""好我"",""坏她""]","[""强她"",""弱我"",""强我"",""弱她""]","","","","","","","","no","","","","","","","","","SRET","EW_formal","","key","j","16.666378640777147","768","428","朋友","庸碌","Negative","ability","","","","","","","","","",""
"573","","f","psychophysics","49","321348","0.0-7.0-3.0-0.35","2","1","1","2","1","3","2","2","3","2","3","1","2","-1","0","-2","-1","0","0","4","5","5","5","3","2","4","1","3","3","4","7","3","7","4","3","6","5","8","4","1","2","5","5","2","4","1","2","2","3","3","4","3","2","4","3","7","2","3","4","3","5","2","4","5","2","4","5","7","3","4","7","2","4","3","7","2","2","4","754335804045922305","曹","38","Female","[""好她"",""坏我"",""好我"",""坏她""]","[""强她"",""弱我"",""强我"",""弱她""]","","","","","","","","yes","","","","","","","","","SRET","EW_formal","","key","f","16.666892473118363","768","428","自己","守时","Positive","morality","","","","","","","","","",""
"648","","f","psychophysics","50","322997","0.0-7.0-3.0-0.36","2","1","1","2","1","3","2","2","3","2","3","1","2","-1","0","-2","-1","0","0","4","5","5","5","3","2","4","1","3","3","4","7","3","7","4","3","6","5","8","4","1","2","5","5","2","4","1","2","2","3","3","4","3","2","4","3","7","2","3","4","3","5","2","4","5","2","4","5","7","3","4","7","2","4","3","7","2","2","4","754335804045922305","曹","38","Female","[""好她"",""坏我"",""好我"",""坏她""]","[""强她"",""弱我"",""强我"",""弱她""]","","","","","","","","yes","","","","","","","","","SRET","EW_formal","","key","f","16.67070408163257","768","428","自己","坦荡","Positive","morality","","","","","","","","","",""
"550","","j","psychophysics","51","324550","0.0-7.0-3.0-0.37","2","1","1","2","1","3","2","2","3","2","3","1","2","-1","0","-2","-1","0","0","4","5","5","5","3","2","4","1","3","3","4","7","3","7","4","3","6","5","8","4","1","2","5","5","2","4","1","2","2","3","3","4","3","2","4","3","7","2","3","4","3","5","2","4","5","2","4","5","7","3","4","7","2","4","3","7","2","2","4","754335804045922305","曹","38","Female","[""好她"",""坏我"",""好我"",""坏她""]","[""强她"",""弱我"",""强我"",""弱她""]","","","","","","","","no","","","","","","","","","SRET","EW_formal","","key","j","16.666728260869327","768","428","朋友","贪腐","Negative","morality","","","","","","","","","",""
"801","","j","psychophysics","52","326351","0.0-7.0-3.0-0.38","2","1","1","2","1","3","2","2","3","2","3","1","2","-1","0","-2","-1","0","0","4","5","5","5","3","2","4","1","3","3","4","7","3","7","4","3","6","5","8","4","1","2","5","5","2","4","1","2","2","3","3","4","3","2","4","3","7","2","3","4","3","5","2","4","5","2","4","5","7","3","4","7","2","4","3","7","2","2","4","754335804045922305","曹","38","Female","[""好她"",""坏我"",""好我"",""坏她""]","[""强她"",""弱我"",""强我"",""弱她""]","","","","","","","","no","","","","","","","","","SRET","EW_formal","","key","j","16.666194444444653","768","428","自己","高明","Positive","ability","","","","","","","","","",""
"1057","","j","psychophysics","53","328416","0.0-7.0-3.0-0.39","2","1","1","2","1","3","2","2","3","2","3","1","2","-1","0","-2","-1","0","0","4","5","5","5","3","2","4","1","3","3","4","7","3","7","4","3","6","5","8","4","1","2","5","5","2","4","1","2","2","3","3","4","3","2","4","3","7","2","3","4","3","5","2","4","5","2","4","5","7","3","4","7","2","4","3","7","2","2","4","754335804045922305","曹","38","Female","[""好她"",""坏我"",""好我"",""坏她""]","[""强她"",""弱我"",""强我"",""弱她""]","","","","","","","","no","","","","","","","","","SRET","EW_formal","","key","j","16.666450819672374","768","428","自己","努力","Positive","ability","","","","","","","","","",""
"735","","j","psychophysics","54","330152","0.0-7.0-3.0-0.40","2","1","1","2","1","3","2","2","3","2","3","1","2","-1","0","-2","-1","0","0","4","5","5","5","3","2","4","1","3","3","4","7","3","7","4","3","6","5","8","4","1","2","5","5","2","4","1","2","2","3","3","4","3","2","4","3","7","2","3","4","3","5","2","4","5","2","4","5","7","3","4","7","2","4","3","7","2","2","4","754335804045922305","曹","38","Female","[""好她"",""坏我"",""好我"",""坏她""]","[""强她"",""弱我"",""强我"",""弱她""]","","","","","","","","no","","","","","","","","","SRET","EW_formal","","key","j","16.666346153846042","768","428","自己","思辨","Positive","ability","","","","","","","","","",""
"701","","j","psychophysics","55","331860","0.0-7.0-3.0-0.41","2","1","1","2","1","3","2","2","3","2","3","1","2","-1","0","-2","-1","0","0","4","5","5","5","3","2","4","1","3","3","4","7","3","7","4","3","6","5","8","4","1","2","5","5","2","4","1","2","2","3","3","4","3","2","4","3","7","2","3","4","3","5","2","4","5","2","4","5","7","3","4","7","2","4","3","7","2","2","4","754335804045922305","曹","38","Female","[""好她"",""坏我"",""好我"",""坏她""]","[""强她"",""弱我"",""强我"",""弱她""]","","","","","","","","no","","","","","","","","","SRET","EW_formal","","key","j","16.66640594059378","768","428","朋友","高效","Positive","ability","","","","","","","","","",""
"521","","j","psychophysics","56","333384","0.0-7.0-3.0-0.42","2","1","1","2","1","3","2","2","3","2","3","1","2","-1","0","-2","-1","0","0","4","5","5","5","3","2","4","1","3","3","4","7","3","7","4","3","6","5","8","4","1","2","5","5","2","4","1","2","2","3","3","4","3","2","4","3","7","2","3","4","3","5","2","4","5","2","4","5","7","3","4","7","2","4","3","7","2","2","4","754335804045922305","曹","38","Female","[""好她"",""坏我"",""好我"",""坏她""]","[""强她"",""弱我"",""强我"",""弱她""]","","","","","","","","no","","","","","","","","","SRET","EW_formal","","key","j","16.6660989010988","768","428","自己","恶劣","Negative","morality","","","","","","","","","",""
"586","","j","psychophysics","57","334976","0.0-7.0-3.0-0.43","2","1","1","2","1","3","2","2","3","2","3","1","2","-1","0","-2","-1","0","0","4","5","5","5","3","2","4","1","3","3","4","7","3","7","4","3","6","5","8","4","1","2","5","5","2","4","1","2","2","3","3","4","3","2","4","3","7","2","3","4","3","5","2","4","5","2","4","5","7","3","4","7","2","4","3","7","2","2","4","754335804045922305","曹","38","Female","[""好她"",""坏我"",""好我"",""坏她""]","[""强她"",""弱我"",""强我"",""弱她""]","","","","","","","","no","","","","","","","","","SRET","EW_formal","","key","j","16.666414893616828","768","428","自己","缺德","Negative","morality","","","","","","","","","",""
"609","","j","psychophysics","58","336592","0.0-7.0-3.0-0.44","2","1","1","2","1","3","2","2","3","2","3","1","2","-1","0","-2","-1","0","0","4","5","5","5","3","2","4","1","3","3","4","7","3","7","4","3","6","5","8","4","1","2","5","5","2","4","1","2","2","3","3","4","3","2","4","3","7","2","3","4","3","5","2","4","5","2","4","5","7","3","4","7","2","4","3","7","2","2","4","754335804045922305","曹","38","Female","[""好她"",""坏我"",""好我"",""坏她""]","[""强她"",""弱我"",""强我"",""弱她""]","","","","","","","","no","","","","","","","","","SRET","EW_formal","","key","j","16.6663958333332","768","428","自己","无敌","Positive","ability","","","","","","","","","",""
"622","","j","psychophysics","59","338221","0.0-7.0-3.0-0.45","2","1","1","2","1","3","2","2","3","2","3","1","2","-1","0","-2","-1","0","0","4","5","5","5","3","2","4","1","3","3","4","7","3","7","4","3","6","5","8","4","1","2","5","5","2","4","1","2","2","3","3","4","3","2","4","3","7","2","3","4","3","5","2","4","5","2","4","5","7","3","4","7","2","4","3","7","2","2","4","754335804045922305","曹","38","Female","[""好她"",""坏我"",""好我"",""坏她""]","[""强她"",""弱我"",""强我"",""弱她""]","","","","","","","","no","","","","","","","","","SRET","EW_formal","","key","j","16.666474226803984","768","428","朋友","不良","Negative","morality","","","","","","","","","",""
"595","","f","psychophysics","60","339818","0.0-7.0-3.0-0.46","2","1","1","2","1","3","2","2","3","2","3","1","2","-1","0","-2","-1","0","0","4","5","5","5","3","2","4","1","3","3","4","7","3","7","4","3","6","5","8","4","1","2","5","5","2","4","1","2","2","3","3","4","3","2","4","3","7","2","3","4","3","5","2","4","5","2","4","5","7","3","4","7","2","4","3","7","2","2","4","754335804045922305","曹","38","Female","[""好她"",""坏我"",""好我"",""坏她""]","[""强她"",""弱我"",""强我"",""弱她""]","","","","","","","","yes","","","","","","","","","SRET","EW_formal","","key","f","16.66647368421055","768","428","朋友","能干","Positive","ability","","","","","","","","","",""
"611","","f","psychophysics","61","341433","0.0-7.0-3.0-0.47","2","1","1","2","1","3","2","2","3","2","3","1","2","-1","0","-2","-1","0","0","4","5","5","5","3","2","4","1","3","3","4","7","3","7","4","3","6","5","8","4","1","2","5","5","2","4","1","2","2","3","3","4","3","2","4","3","7","2","3","4","3","5","2","4","5","2","4","5","7","3","4","7","2","4","3","7","2","2","4","754335804045922305","曹","38","Female","[""好她"",""坏我"",""好我"",""坏她""]","[""强她"",""弱我"",""强我"",""弱她""]","","","","","","","","yes","","","","","","","","","SRET","EW_formal","","key","f","16.665187500000076","768","428","自己","忠良","Positive","morality","","","","","","","","","",""
"581","","j","psychophysics","62","343015","0.0-7.0-3.0-0.48","2","1","1","2","1","3","2","2","3","2","3","1","2","-1","0","-2","-1","0","0","4","5","5","5","3","2","4","1","3","3","4","7","3","7","4","3","6","5","8","4","1","2","5","5","2","4","1","2","2","3","3","4","3","2","4","3","7","2","3","4","3","5","2","4","5","2","4","5","7","3","4","7","2","4","3","7","2","2","4","754335804045922305","曹","38","Female","[""好她"",""坏我"",""好我"",""坏她""]","[""强她"",""弱我"",""强我"",""弱她""]","","","","","","","","no","","","","","","","","","SRET","EW_formal","","key","j","16.66663440860187","768","428","朋友","刻薄","Negative","morality","","","","","","","","","",""
"529","","j","psychophysics","63","344545","0.0-7.0-3.0-0.49","2","1","1","2","1","3","2","2","3","2","3","1","2","-1","0","-2","-1","0","0","4","5","5","5","3","2","4","1","3","3","4","7","3","7","4","3","6","5","8","4","1","2","5","5","2","4","1","2","2","3","3","4","3","2","4","3","7","2","3","4","3","5","2","4","5","2","4","5","7","3","4","7","2","4","3","7","2","2","4","754335804045922305","曹","38","Female","[""好她"",""坏我"",""好我"",""坏她""]","[""强她"",""弱我"",""强我"",""弱她""]","","","","","","","","no","","","","","","","","","SRET","EW_formal","","key","j","16.6669780219781","768","428","自己","狡诈","Negative","morality","","","","","","","","","",""
"739","","f","psychophysics","64","346289","0.0-7.0-3.0-0.50","2","1","1","2","1","3","2","2","3","2","3","1","2","-1","0","-2","-1","0","0","4","5","5","5","3","2","4","1","3","3","4","7","3","7","4","3","6","5","8","4","1","2","5","5","2","4","1","2","2","3","3","4","3","2","4","3","7","2","3","4","3","5","2","4","5","2","4","5","7","3","4","7","2","4","3","7","2","2","4","754335804045922305","曹","38","Female","[""好她"",""坏我"",""好我"",""坏她""]","[""强她"",""弱我"",""强我"",""弱她""]","","","","","","","","yes","","","","","","","","","SRET","EW_formal","","key","f","16.666567307692624","768","428","自己","笨蛋","Negative","ability","","","","","","","","","",""
"484","","j","psychophysics","65","347778","0.0-7.0-3.0-0.51","2","1","1","2","1","3","2","2","3","2","3","1","2","-1","0","-2","-1","0","0","4","5","5","5","3","2","4","1","3","3","4","7","3","7","4","3","6","5","8","4","1","2","5","5","2","4","1","2","2","3","3","4","3","2","4","3","7","2","3","4","3","5","2","4","5","2","4","5","7","3","4","7","2","4","3","7","2","2","4","754335804045922305","曹","38","Female","[""好她"",""坏我"",""好我"",""坏她""]","[""强她"",""弱我"",""强我"",""弱她""]","","","","","","","","no","","","","","","","","","SRET","EW_formal","","key","j","16.666329545454406","768","428","自己","歹毒","Negative","morality","","","","","","","","","",""
"537","","f","psychophysics","66","349320","0.0-7.0-3.0-0.52","2","1","1","2","1","3","2","2","3","2","3","1","2","-1","0","-2","-1","0","0","4","5","5","5","3","2","4","1","3","3","4","7","3","7","4","3","6","5","8","4","1","2","5","5","2","4","1","2","2","3","3","4","3","2","4","3","7","2","3","4","3","5","2","4","5","2","4","5","7","3","4","7","2","4","3","7","2","2","4","754335804045922305","曹","38","Female","[""好她"",""坏我"",""好我"",""坏她""]","[""强她"",""弱我"",""强我"",""弱她""]","","","","","","","","yes","","","","","","","","","SRET","EW_formal","","key","f","16.663771739130226","768","428","自己","细心","Positive","ability","","","","","","","","","",""
"597","","f","psychophysics","67","350923","0.0-7.0-3.0-0.53","2","1","1","2","1","3","2","2","3","2","3","1","2","-1","0","-2","-1","0","0","4","5","5","5","3","2","4","1","3","3","4","7","3","7","4","3","6","5","8","4","1","2","5","5","2","4","1","2","2","3","3","4","3","2","4","3","7","2","3","4","3","5","2","4","5","2","4","5","7","3","4","7","2","4","3","7","2","2","4","754335804045922305","曹","38","Female","[""好她"",""坏我"",""好我"",""坏她""]","[""强她"",""弱我"",""强我"",""弱她""]","","","","","","","","yes","","","","","","","","","SRET","EW_formal","","key","f","16.665799999999887","768","428","朋友","坚持","Positive","ability","","","","","","","","","",""
"584","","f","psychophysics","68","352510","0.0-7.0-3.0-0.54","2","1","1","2","1","3","2","2","3","2","3","1","2","-1","0","-2","-1","0","0","4","5","5","5","3","2","4","1","3","3","4","7","3","7","4","3","6","5","8","4","1","2","5","5","2","4","1","2","2","3","3","4","3","2","4","3","7","2","3","4","3","5","2","4","5","2","4","5","7","3","4","7","2","4","3","7","2","2","4","754335804045922305","曹","38","Female","[""好她"",""坏我"",""好我"",""坏她""]","[""强她"",""弱我"",""强我"",""弱她""]","","","","","","","","yes","","","","","","","","","SRET","EW_formal","","key","f","16.666074468084844","768","428","朋友","博识","Positive","ability","","","","","","","","","",""
"490","","f","psychophysics","69","354005","0.0-7.0-3.0-0.55","2","1","1","2","1","3","2","2","3","2","3","1","2","-1","0","-2","-1","0","0","4","5","5","5","3","2","4","1","3","3","4","7","3","7","4","3","6","5","8","4","1","2","5","5","2","4","1","2","2","3","3","4","3","2","4","3","7","2","3","4","3","5","2","4","5","2","4","5","7","3","4","7","2","4","3","7","2","2","4","754335804045922305","曹","38","Female","[""好她"",""坏我"",""好我"",""坏她""]","[""强她"",""弱我"",""强我"",""弱她""]","","","","","","","","yes","","","","","","","","","SRET","EW_formal","","key","f","16.666764044943868","768","428","朋友","干练","Positive","ability","","","","","","","","","",""
"593","","f","psychophysics","70","355600","0.0-7.0-3.0-0.56","2","1","1","2","1","3","2","2","3","2","3","1","2","-1","0","-2","-1","0","0","4","5","5","5","3","2","4","1","3","3","4","7","3","7","4","3","6","5","8","4","1","2","5","5","2","4","1","2","2","3","3","4","3","2","4","3","7","2","3","4","3","5","2","4","5","2","4","5","7","3","4","7","2","4","3","7","2","2","4","754335804045922305","曹","38","Female","[""好她"",""坏我"",""好我"",""坏她""]","[""强她"",""弱我"",""强我"",""弱她""]","","","","","","","","yes","","","","","","","","","SRET","EW_formal","","key","f","16.666231578946924","768","428","朋友","诚信","Positive","morality","","","","","","","","","",""
"590","","j","psychophysics","71","357198","0.0-7.0-3.0-0.57","2","1","1","2","1","3","2","2","3","2","3","1","2","-1","0","-2","-1","0","0","4","5","5","5","3","2","4","1","3","3","4","7","3","7","4","3","6","5","8","4","1","2","5","5","2","4","1","2","2","3","3","4","3","2","4","3","7","2","3","4","3","5","2","4","5","2","4","5","7","3","4","7","2","4","3","7","2","2","4","754335804045922305","曹","38","Female","[""好她"",""坏我"",""好我"",""坏她""]","[""强她"",""弱我"",""强我"",""弱她""]","","","","","","","","no","","","","","","","","","SRET","EW_formal","","key","j","16.665946808510505","768","428","自己","淫乱","Negative","morality","","","","","","","","","",""
"618","","j","psychophysics","72","358818","0.0-7.0-3.0-0.58","2","1","1","2","1","3","2","2","3","2","3","1","2","-1","0","-2","-1","0","0","4","5","5","5","3","2","4","1","3","3","4","7","3","7","4","3","6","5","8","4","1","2","5","5","2","4","1","2","2","3","3","4","3","2","4","3","7","2","3","4","3","5","2","4","5","2","4","5","7","3","4","7","2","4","3","7","2","2","4","754335804045922305","曹","38","Female","[""好她"",""坏我"",""好我"",""坏她""]","[""强她"",""弱我"",""强我"",""弱她""]","","","","","","","","no","","","","","","","","","SRET","EW_formal","","key","j","16.67335051546394","768","428","朋友","新手","Negative","ability","","","","","","","","","",""
"531","","j","psychophysics","73","360354","0.0-7.0-3.0-0.59","2","1","1","2","1","3","2","2","3","2","3","1","2","-1","0","-2","-1","0","0","4","5","5","5","3","2","4","1","3","3","4","7","3","7","4","3","6","5","8","4","1","2","5","5","2","4","1","2","2","3","3","4","3","2","4","3","7","2","3","4","3","5","2","4","5","2","4","5","7","3","4","7","2","4","3","7","2","2","4","754335804045922305","曹","38","Female","[""好她"",""坏我"",""好我"",""坏她""]","[""强她"",""弱我"",""强我"",""弱她""]","","","","","","","","no","","","","","","","","","SRET","EW_formal","","key","j","16.666868131868107","768","428","自己","盲目","Negative","ability","","","","","","","","","",""
"565","","f","psychophysics","74","361925","0.0-7.0-3.0-0.60","2","1","1","2","1","3","2","2","3","2","3","1","2","-1","0","-2","-1","0","0","4","5","5","5","3","2","4","1","3","3","4","7","3","7","4","3","6","5","8","4","1","2","5","5","2","4","1","2","2","3","3","4","3","2","4","3","7","2","3","4","3","5","2","4","5","2","4","5","7","3","4","7","2","4","3","7","2","2","4","754335804045922305","曹","38","Female","[""好她"",""坏我"",""好我"",""坏她""]","[""强她"",""弱我"",""强我"",""弱她""]","","","","","","","","yes","","","","","","","","","SRET","EW_formal","","key","f","16.66626881720418","768","428","自己","敬业","Positive","morality","","","","","","","","","",""
"562","","j","psychophysics","75","363489","0.0-7.0-3.0-0.61","2","1","1","2","1","3","2","2","3","2","3","1","2","-1","0","-2","-1","0","0","4","5","5","5","3","2","4","1","3","3","4","7","3","7","4","3","6","5","8","4","1","2","5","5","2","4","1","2","2","3","3","4","3","2","4","3","7","2","3","4","3","5","2","4","5","2","4","5","7","3","4","7","2","4","3","7","2","2","4","754335804045922305","曹","38","Female","[""好她"",""坏我"",""好我"",""坏她""]","[""强她"",""弱我"",""强我"",""弱她""]","","","","","","","","no","","","","","","","","","SRET","EW_formal","","key","j","16.66597849462414","768","428","朋友","全才","Positive","ability","","","","","","","","","",""
"486","","j","psychophysics","76","364982","0.0-7.0-3.0-0.62","2","1","1","2","1","3","2","2","3","2","3","1","2","-1","0","-2","-1","0","0","4","5","5","5","3","2","4","1","3","3","4","7","3","7","4","3","6","5","8","4","1","2","5","5","2","4","1","2","2","3","3","4","3","2","4","3","7","2","3","4","3","5","2","4","5","2","4","5","7","3","4","7","2","4","3","7","2","2","4","754335804045922305","曹","38","Female","[""好她"",""坏我"",""好我"",""坏她""]","[""强她"",""弱我"",""强我"",""弱她""]","","","","","","","","no","","","","","","","","","SRET","EW_formal","","key","j","16.667045454545587","768","428","自己","迟钝","Negative","ability","","","","","","","","","",""
"622","","f","psychophysics","77","366608","0.0-7.0-3.0-0.63","2","1","1","2","1","3","2","2","3","2","3","1","2","-1","0","-2","-1","0","0","4","5","5","5","3","2","4","1","3","3","4","7","3","7","4","3","6","5","8","4","1","2","5","5","2","4","1","2","2","3","3","4","3","2","4","3","7","2","3","4","3","5","2","4","5","2","4","5","7","3","4","7","2","4","3","7","2","2","4","754335804045922305","曹","38","Female","[""好她"",""坏我"",""好我"",""坏她""]","[""强她"",""弱我"",""强我"",""弱她""]","","","","","","","","yes","","","","","","","","","SRET","EW_formal","","key","f","16.6661443298967","768","428","自己","谦逊","Positive","morality","","","","","","","","","",""
"635","","j","psychophysics","78","368250","0.0-7.0-3.0-0.64","2","1","1","2","1","3","2","2","3","2","3","1","2","-1","0","-2","-1","0","0","4","5","5","5","3","2","4","1","3","3","4","7","3","7","4","3","6","5","8","4","1","2","5","5","2","4","1","2","2","3","3","4","3","2","4","3","7","2","3","4","3","5","2","4","5","2","4","5","7","3","4","7","2","4","3","7","2","2","4","754335804045922305","曹","38","Female","[""好她"",""坏我"",""好我"",""坏她""]","[""强她"",""弱我"",""强我"",""弱她""]","","","","","","","","no","","","","","","","","","SRET","EW_formal","","key","j","16.66635714285729","768","428","自己","无知","Negative","ability","","","","","","","","","",""
"552","","f","psychophysics","79","369807","0.0-7.0-3.0-0.65","2","1","1","2","1","3","2","2","3","2","3","1","2","-1","0","-2","-1","0","0","4","5","5","5","3","2","4","1","3","3","4","7","3","7","4","3","6","5","8","4","1","2","5","5","2","4","1","2","2","3","3","4","3","2","4","3","7","2","3","4","3","5","2","4","5","2","4","5","7","3","4","7","2","4","3","7","2","2","4","754335804045922305","曹","38","Female","[""好她"",""坏我"",""好我"",""坏她""]","[""强她"",""弱我"",""强我"",""弱她""]","","","","","","","","yes","","","","","","","","","SRET","EW_formal","","key","f","16.6668043478263","768","428","自己","无助","Negative","ability","","","","","","","","","",""
"647","","j","psychophysics","80","371462","0.0-7.0-3.0-0.66","2","1","1","2","1","3","2","2","3","2","3","1","2","-1","0","-2","-1","0","0","4","5","5","5","3","2","4","1","3","3","4","7","3","7","4","3","6","5","8","4","1","2","5","5","2","4","1","2","2","3","3","4","3","2","4","3","7","2","3","4","3","5","2","4","5","2","4","5","7","3","4","7","2","4","3","7","2","2","4","754335804045922305","曹","38","Female","[""好她"",""坏我"",""好我"",""坏她""]","[""强她"",""弱我"",""强我"",""弱她""]","","","","","","","","no","","","","","","","","","SRET","EW_formal","","key","j","16.666561224489538","768","428","自己","才尽","Negative","ability","","","","","","","","","",""
"620","","f","psychophysics","81","373086","0.0-7.0-3.0-0.67","2","1","1","2","1","3","2","2","3","2","3","1","2","-1","0","-2","-1","0","0","4","5","5","5","3","2","4","1","3","3","4","7","3","7","4","3","6","5","8","4","1","2","5","5","2","4","1","2","2","3","3","4","3","2","4","3","7","2","3","4","3","5","2","4","5","2","4","5","7","3","4","7","2","4","3","7","2","2","4","754335804045922305","曹","38","Female","[""好她"",""坏我"",""好我"",""坏她""]","[""强她"",""弱我"",""强我"",""弱她""]","","","","","","","","yes","","","","","","","","","SRET","EW_formal","","key","f","16.66607216494842","768","428","朋友","侠义","Positive","morality","","","","","","","","","",""
"849","","j","psychophysics","82","374936","0.0-7.0-3.0-0.68","2","1","1","2","1","3","2","2","3","2","3","1","2","-1","0","-2","-1","0","0","4","5","5","5","3","2","4","1","3","3","4","7","3","7","4","3","6","5","8","4","1","2","5","5","2","4","1","2","2","3","3","4","3","2","4","3","7","2","3","4","3","5","2","4","5","2","4","5","7","3","4","7","2","4","3","7","2","2","4","754335804045922305","曹","38","Female","[""好她"",""坏我"",""好我"",""坏她""]","[""强她"",""弱我"",""强我"",""弱她""]","","","","","","","","no","","","","","","","","","SRET","EW_formal","","key","j","16.665709090909115","768","428","自己","娴熟","Positive","ability","","","","","","","","","",""
"530","","j","psychophysics","83","376474","0.0-7.0-3.0-0.69","2","1","1","2","1","3","2","2","3","2","3","1","2","-1","0","-2","-1","0","0","4","5","5","5","3","2","4","1","3","3","4","7","3","7","4","3","6","5","8","4","1","2","5","5","2","4","1","2","2","3","3","4","3","2","4","3","7","2","3","4","3","5","2","4","5","2","4","5","7","3","4","7","2","4","3","7","2","2","4","754335804045922305","曹","38","Female","[""好她"",""坏我"",""好我"",""坏她""]","[""强她"",""弱我"",""强我"",""弱她""]","","","","","","","","no","","","","","","","","","SRET","EW_formal","","key","j","16.659912087911724","768","428","自己","狡狯","Negative","morality","","","","","","","","","",""
"559","","f","psychophysics","84","378039","0.0-7.0-3.0-0.70","2","1","1","2","1","3","2","2","3","2","3","1","2","-1","0","-2","-1","0","0","4","5","5","5","3","2","4","1","3","3","4","7","3","7","4","3","6","5","8","4","1","2","5","5","2","4","1","2","2","3","3","4","3","2","4","3","7","2","3","4","3","5","2","4","5","2","4","5","7","3","4","7","2","4","3","7","2","2","4","754335804045922305","曹","38","Female","[""好她"",""坏我"",""好我"",""坏她""]","[""强她"",""弱我"",""强我"",""弱她""]","","","","","","","","yes","","","","","","","","","SRET","EW_formal","","key","f","16.662580645161242","768","428","朋友","无私","Positive","morality","","","","","","","","","",""
"661","","f","psychophysics","85","379708","0.0-7.0-3.0-0.71","2","1","1","2","1","3","2","2","3","2","3","1","2","-1","0","-2","-1","0","0","4","5","5","5","3","2","4","1","3","3","4","7","3","7","4","3","6","5","8","4","1","2","5","5","2","4","1","2","2","3","3","4","3","2","4","3","7","2","3","4","3","5","2","4","5","2","4","5","7","3","4","7","2","4","3","7","2","2","4","754335804045922305","曹","38","Female","[""好她"",""坏我"",""好我"",""坏她""]","[""强她"",""弱我"",""强我"",""弱她""]","","","","","","","","yes","","","","","","","","","SRET","EW_formal","","key","f","16.666646464646092","768","428","自己","高尚","Positive","morality","","","","","","","","","",""
"710","","j","psychophysics","86","381422","0.0-7.0-3.0-0.72","2","1","1","2","1","3","2","2","3","2","3","1","2","-1","0","-2","-1","0","0","4","5","5","5","3","2","4","1","3","3","4","7","3","7","4","3","6","5","8","4","1","2","5","5","2","4","1","2","2","3","3","4","3","2","4","3","7","2","3","4","3","5","2","4","5","2","4","5","7","3","4","7","2","4","3","7","2","2","4","754335804045922305","曹","38","Female","[""好她"",""坏我"",""好我"",""坏她""]","[""强她"",""弱我"",""强我"",""弱她""]","","","","","","","","no","","","","","","","","","SRET","EW_formal","","key","j","16.666539215685926","768","428","朋友","利落","Positive","ability","","","","","","","","","",""
"569","","j","psychophysics","87","383001","0.0-7.0-3.0-0.73","2","1","1","2","1","3","2","2","3","2","3","1","2","-1","0","-2","-1","0","0","4","5","5","5","3","2","4","1","3","3","4","7","3","7","4","3","6","5","8","4","1","2","5","5","2","4","1","2","2","3","3","4","3","2","4","3","7","2","3","4","3","5","2","4","5","2","4","5","7","3","4","7","2","4","3","7","2","2","4","754335804045922305","曹","38","Female","[""好她"",""坏我"",""好我"",""坏她""]","[""强她"",""弱我"",""强我"",""弱她""]","","","","","","","","no","","","","","","","","","SRET","EW_formal","","key","j","16.66517021276547","768","428","朋友","低劣","Negative","morality","","","","","","","","","",""
"926","","f","psychophysics","88","384933","0.0-7.0-3.0-0.74","2","1","1","2","1","3","2","2","3","2","3","1","2","-1","0","-2","-1","0","0","4","5","5","5","3","2","4","1","3","3","4","7","3","7","4","3","6","5","8","4","1","2","5","5","2","4","1","2","2","3","3","4","3","2","4","3","7","2","3","4","3","5","2","4","5","2","4","5","7","3","4","7","2","4","3","7","2","2","4","754335804045922305","曹","38","Female","[""好她"",""坏我"",""好我"",""坏她""]","[""强她"",""弱我"",""强我"",""弱她""]","","","","","","","","yes","","","","","","","","","SRET","EW_formal","","key","f","16.66645217391298","768","428","朋友","忠诚","Positive","morality","","","","","","","","","",""
"1058","","f","psychophysics","89","386993","0.0-7.0-3.0-0.75","2","1","1","2","1","3","2","2","3","2","3","1","2","-1","0","-2","-1","0","0","4","5","5","5","3","2","4","1","3","3","4","7","3","7","4","3","6","5","8","4","1","2","5","5","2","4","1","2","2","3","3","4","3","2","4","3","7","2","3","4","3","5","2","4","5","2","4","5","7","3","4","7","2","4","3","7","2","2","4","754335804045922305","曹","38","Female","[""好她"",""坏我"",""好我"",""坏她""]","[""强她"",""弱我"",""强我"",""弱她""]","","","","","","","","yes","","","","","","","","","SRET","EW_formal","","key","f","16.668098360655513","768","428","自己","慷慨","Positive","morality","","","","","","","","","",""
"846","","f","psychophysics","90","388845","0.0-7.0-3.0-0.76","2","1","1","2","1","3","2","2","3","2","3","1","2","-1","0","-2","-1","0","0","4","5","5","5","3","2","4","1","3","3","4","7","3","7","4","3","6","5","8","4","1","2","5","5","2","4","1","2","2","3","3","4","3","2","4","3","7","2","3","4","3","5","2","4","5","2","4","5","7","3","4","7","2","4","3","7","2","2","4","754335804045922305","曹","38","Female","[""好她"",""坏我"",""好我"",""坏她""]","[""强她"",""弱我"",""强我"",""弱她""]","","","","","","","","yes","","","","","","","","","SRET","EW_formal","","key","f","16.669036363636735","768","428","朋友","果断","Positive","ability","","","","","","","","","",""
"514","","j","psychophysics","91","390362","0.0-7.0-3.0-0.77","2","1","1","2","1","3","2","2","3","2","3","1","2","-1","0","-2","-1","0","0","4","5","5","5","3","2","4","1","3","3","4","7","3","7","4","3","6","5","8","4","1","2","5","5","2","4","1","2","2","3","3","4","3","2","4","3","7","2","3","4","3","5","2","4","5","2","4","5","7","3","4","7","2","4","3","7","2","2","4","754335804045922305","曹","38","Female","[""好她"",""坏我"",""好我"",""坏她""]","[""强她"",""弱我"",""强我"",""弱她""]","","","","","","","","no","","","","","","","","","SRET","EW_formal","","key","j","16.666377777777637","768","428","朋友","不孝","Negative","morality","","","","","","","","","",""
"479","","j","psychophysics","92","391845","0.0-7.0-3.0-0.78","2","1","1","2","1","3","2","2","3","2","3","1","2","-1","0","-2","-1","0","0","4","5","5","5","3","2","4","1","3","3","4","7","3","7","4","3","6","5","8","4","1","2","5","5","2","4","1","2","2","3","3","4","3","2","4","3","7","2","3","4","3","5","2","4","5","2","4","5","7","3","4","7","2","4","3","7","2","2","4","754335804045922305","曹","38","Female","[""好她"",""坏我"",""好我"",""坏她""]","[""强她"",""弱我"",""强我"",""弱她""]","","","","","","","","no","","","","","","","","","SRET","EW_formal","","key","j","16.66648863636378","768","428","自己","邪恶","Negative","morality","","","","","","","","","",""
"683","","f","psychophysics","93","393530","0.0-7.0-3.0-0.79","2","1","1","2","1","3","2","2","3","2","3","1","2","-1","0","-2","-1","0","0","4","5","5","5","3","2","4","1","3","3","4","7","3","7","4","3","6","5","8","4","1","2","5","5","2","4","1","2","2","3","3","4","3","2","4","3","7","2","3","4","3","5","2","4","5","2","4","5","7","3","4","7","2","4","3","7","2","2","4","754335804045922305","曹","38","Female","[""好她"",""坏我"",""好我"",""坏她""]","[""强她"",""弱我"",""强我"",""弱她""]","","","","","","","","yes","","","","","","","","","SRET","EW_formal","","key","f","16.66656999999948","768","428","自己","马虎","Negative","ability","","","","","","","","","",""
"606","","j","psychophysics","94","395138","0.0-7.0-3.0-0.80","2","1","1","2","1","3","2","2","3","2","3","1","2","-1","0","-2","-1","0","0","4","5","5","5","3","2","4","1","3","3","4","7","3","7","4","3","6","5","8","4","1","2","5","5","2","4","1","2","2","3","3","4","3","2","4","3","7","2","3","4","3","5","2","4","5","2","4","5","7","3","4","7","2","4","3","7","2","2","4","754335804045922305","曹","38","Female","[""好她"",""坏我"",""好我"",""坏她""]","[""强她"",""弱我"",""强我"",""弱她""]","","","","","","","","no","","","","","","","","","SRET","EW_formal","","key","j","16.666770833332823","768","428","朋友","博学","Positive","ability","","","","","","","","","",""
"423","","f","psychophysics","95","396566","0.0-7.0-3.0-0.81","2","1","1","2","1","3","2","2","3","2","3","1","2","-1","0","-2","-1","0","0","4","5","5","5","3","2","4","1","3","3","4","7","3","7","4","3","6","5","8","4","1","2","5","5","2","4","1","2","2","3","3","4","3","2","4","3","7","2","3","4","3","5","2","4","5","2","4","5","7","3","4","7","2","4","3","7","2","2","4","754335804045922305","曹","38","Female","[""好她"",""坏我"",""好我"",""坏她""]","[""强她"",""弱我"",""强我"",""弱她""]","","","","","","","","yes","","","","","","","","","SRET","EW_formal","","key","f","16.66581176470568","768","428","朋友","宽容","Positive","morality","","","","","","","","","",""
"588","","j","psychophysics","96","398156","0.0-7.0-3.0-0.82","2","1","1","2","1","3","2","2","3","2","3","1","2","-1","0","-2","-1","0","0","4","5","5","5","3","2","4","1","3","3","4","7","3","7","4","3","6","5","8","4","1","2","5","5","2","4","1","2","2","3","3","4","3","2","4","3","7","2","3","4","3","5","2","4","5","2","4","5","7","3","4","7","2","4","3","7","2","2","4","754335804045922305","曹","38","Female","[""好她"",""坏我"",""好我"",""坏她""]","[""强她"",""弱我"",""强我"",""弱她""]","","","","","","","","no","","","","","","","","","SRET","EW_formal","","key","j","16.669202127659254","768","428","朋友","毛糙","Negative","ability","","","","","","","","","",""
"1038","","f","psychophysics","97","400197","0.0-7.0-3.0-0.83","2","1","1","2","1","3","2","2","3","2","3","1","2","-1","0","-2","-1","0","0","4","5","5","5","3","2","4","1","3","3","4","7","3","7","4","3","6","5","8","4","1","2","5","5","2","4","1","2","2","3","3","4","3","2","4","3","7","2","3","4","3","5","2","4","5","2","4","5","7","3","4","7","2","4","3","7","2","2","4","754335804045922305","曹","38","Female","[""好她"",""坏我"",""好我"",""坏她""]","[""强她"",""弱我"",""强我"",""弱她""]","","","","","","","","yes","","","","","","","","","SRET","EW_formal","","key","f","16.665595041321925","768","428","朋友","拖延","Negative","ability","","","","","","","","","",""
"632","","f","psychophysics","98","401830","0.0-7.0-3.0-0.84","2","1","1","2","1","3","2","2","3","2","3","1","2","-1","0","-2","-1","0","0","4","5","5","5","3","2","4","1","3","3","4","7","3","7","4","3","6","5","8","4","1","2","5","5","2","4","1","2","2","3","3","4","3","2","4","3","7","2","3","4","3","5","2","4","5","2","4","5","7","3","4","7","2","4","3","7","2","2","4","754335804045922305","曹","38","Female","[""好她"",""坏我"",""好我"",""坏她""]","[""强她"",""弱我"",""强我"",""弱她""]","","","","","","","","yes","","","","","","","","","SRET","EW_formal","","key","f","16.66608247422666","768","428","朋友","素养","Positive","morality","","","","","","","","","",""
"1512","","j","psychophysics","99","404344","0.0-7.0-3.0-0.85","2","1","1","2","1","3","2","2","3","2","3","1","2","-1","0","-2","-1","0","0","4","5","5","5","3","2","4","1","3","3","4","7","3","7","4","3","6","5","8","4","1","2","5","5","2","4","1","2","2","3","3","4","3","2","4","3","7","2","3","4","3","5","2","4","5","2","4","5","7","3","4","7","2","4","3","7","2","2","4","754335804045922305","曹","38","Female","[""好她"",""坏我"",""好我"",""坏她""]","[""强她"",""弱我"",""强我"",""弱她""]","","","","","","","","no","","","","","","","","","SRET","EW_formal","","key","j","16.666186666666764","768","428","自己","主见","Positive","ability","","","","","","","","","",""
"529","","f","psychophysics","100","405878","0.0-7.0-3.0-0.86","2","1","1","2","1","3","2","2","3","2","3","1","2","-1","0","-2","-1","0","0","4","5","5","5","3","2","4","1","3","3","4","7","3","7","4","3","6","5","8","4","1","2","5","5","2","4","1","2","2","3","3","4","3","2","4","3","7","2","3","4","3","5","2","4","5","2","4","5","7","3","4","7","2","4","3","7","2","2","4","754335804045922305","曹","38","Female","[""好她"",""坏我"",""好我"",""坏她""]","[""强她"",""弱我"",""强我"",""弱她""]","","","","","","","","yes","","","","","","","","","SRET","EW_formal","","key","f","16.66629670329704","768","428","自己","缓慢","Negative","ability","","","","","","","","","",""
"615","","j","psychophysics","101","407497","0.0-7.0-3.0-0.87","2","1","1","2","1","3","2","2","3","2","3","1","2","-1","0","-2","-1","0","0","4","5","5","5","3","2","4","1","3","3","4","7","3","7","4","3","6","5","8","4","1","2","5","5","2","4","1","2","2","3","3","4","3","2","4","3","7","2","3","4","3","5","2","4","5","2","4","5","7","3","4","7","2","4","3","7","2","2","4","754335804045922305","曹","38","Female","[""好她"",""坏我"",""好我"",""坏她""]","[""强她"",""弱我"",""强我"",""弱她""]","","","","","","","","no","","","","","","","","","SRET","EW_formal","","key","j","16.66634374999982","768","428","朋友","低俗","Negative","morality","","","","","","","","","",""
"11581","
    <p><div style='color:white;font-size:35px; line-height:20px;'>计算任务</div></p><br>
    <p><div style='color:red;font-size:25px; line-height:20px;'>接下来，您将看到一些四则运算题，<b>请从键盘选择 0-9 进行反应。</b></div></p>
    <p><div class='footer' style='color:white;font-size:25px; line-height:20px;'>如果对本实验还有不清楚之处，请立即向实验员咨询。</p><p style='color:white;font-size:25px; line-height:20px;'>如果您明白了规则：</p><p style='color:white;font-size:22px; line-height:20px;'>请按 继续 进入练习</p>
    </div>
    ","0","html-button-response","102","419079","0.0-7.0-4.0","2","1","1","2","1","3","2","2","3","2","3","1","2","-1","0","-2","-1","0","0","4","5","5","5","3","2","4","1","3","3","4","7","3","7","4","3","6","5","8","4","1","2","5","5","2","4","1","2","2","3","3","4","3","2","4","3","7","2","3","4","3","5","2","4","5","2","4","5","7","3","4","7","2","4","3","7","2","2","4","754335804045922305","曹","38","Female","[""好她"",""坏我"",""好我"",""坏她""]","[""强她"",""弱我"",""强我"",""弱她""]","","","","","","","","","","","","","","","","","SRET_math","math_instructions","Wed Oct 18 2023 11:27:07 GMT+0800 (中国标准时间)","","","","","","","","","","","","","","","","","","",""
"2384","","3","psychophysics","103","421466","0.0-7.0-5.0-0.0","2","1","1","2","1","3","2","2","3","2","3","1","2","-1","0","-2","-1","0","0","4","5","5","5","3","2","4","1","3","3","4","7","3","7","4","3","6","5","8","4","1","2","5","5","2","4","1","2","2","3","3","4","3","2","4","3","7","2","3","4","3","5","2","4","5","2","4","5","7","3","4","7","2","4","3","7","2","2","4","754335804045922305","曹","38","Female","[""好她"",""坏我"",""好我"",""坏她""]","[""强她"",""弱我"",""强我"",""弱她""]","","","","","","","","3","","","","","","","","","SRET","SRET_math_calculate","","key","3","16.668181818181736","768","428","","","","","3*1= ?","3","1","","","","","","",""
"2014","","3","psychophysics","104","423481","0.0-7.0-5.0-0.1","2","1","1","2","1","3","2","2","3","2","3","1","2","-1","0","-2","-1","0","0","4","5","5","5","3","2","4","1","3","3","4","7","3","7","4","3","6","5","8","4","1","2","5","5","2","4","1","2","2","3","3","4","3","2","4","3","7","2","3","4","3","5","2","4","5","2","4","5","7","3","4","7","2","4","3","7","2","2","4","754335804045922305","曹","38","Female","[""好她"",""坏我"",""好我"",""坏她""]","[""强她"",""弱我"",""强我"",""弱她""]","","","","","","","","3","","","","","","","","","SRET","SRET_math_calculate","","key","3","16.666658333333423","768","428","","","","","3+0= ?","3","1","","","","","","",""
"1921","","4","psychophysics","105","425404","0.0-7.0-5.0-0.2","2","1","1","2","1","3","2","2","3","2","3","1","2","-1","0","-2","-1","0","0","4","5","5","5","3","2","4","1","3","3","4","7","3","7","4","3","6","5","8","4","1","2","5","5","2","4","1","2","2","3","3","4","3","2","4","3","7","2","3","4","3","5","2","4","5","2","4","5","7","3","4","7","2","4","3","7","2","2","4","754335804045922305","曹","38","Female","[""好她"",""坏我"",""好我"",""坏她""]","[""强她"",""弱我"",""强我"",""弱她""]","","","","","","","","4","","","","","","","","","SRET","SRET_math_calculate","","key","4","16.66658260869571","768","428","","","","","3+1= ?","4","1","","","","","","",""
"1838","","6","psychophysics","106","427243","0.0-7.0-5.0-0.3","2","1","1","2","1","3","2","2","3","2","3","1","2","-1","0","-2","-1","0","0","4","5","5","5","3","2","4","1","3","3","4","7","3","7","4","3","6","5","8","4","1","2","5","5","2","4","1","2","2","3","3","4","3","2","4","3","7","2","3","4","3","5","2","4","5","2","4","5","7","3","4","7","2","4","3","7","2","2","4","754335804045922305","曹","38","Female","[""好她"",""坏我"",""好我"",""坏她""]","[""强她"",""弱我"",""强我"",""弱她""]","","","","","","","","6","","","","","","","","","SRET","SRET_math_calculate","","key","6","16.667073394495507","768","428","","","","","5+1= ?","6","1","","","","","","",""
"6598","","8","psychophysics","107","433842","0.0-7.0-5.0-0.4","2","1","1","2","1","3","2","2","3","2","3","1","2","-1","0","-2","-1","0","0","4","5","5","5","3","2","4","1","3","3","4","7","3","7","4","3","6","5","8","4","1","2","5","5","2","4","1","2","2","3","3","4","3","2","4","3","7","2","3","4","3","5","2","4","5","2","4","5","7","3","4","7","2","4","3","7","2","2","4","754335804045922305","曹","38","Female","[""好她"",""坏我"",""好我"",""坏她""]","[""强她"",""弱我"",""强我"",""弱她""]","","","","","","","","8","","","","","","","","","SRET","SRET_math_calculate","","key","8","16.666443037974673","768","428","","","","","13-5= ?","8","1","","","","","","",""
"2178","","1","psychophysics","108","436022","0.0-7.0-5.0-0.5","2","1","1","2","1","3","2","2","3","2","3","1","2","-1","0","-2","-1","0","0","4","5","5","5","3","2","4","1","3","3","4","7","3","7","4","3","6","5","8","4","1","2","5","5","2","4","1","2","2","3","3","4","3","2","4","3","7","2","3","4","3","5","2","4","5","2","4","5","7","3","4","7","2","4","3","7","2","2","4","754335804045922305","曹","38","Female","[""好她"",""坏我"",""好我"",""坏她""]","[""强她"",""弱我"",""强我"",""弱她""]","","","","","","","","1","","","","","","","","","SRET","SRET_math_calculate","","key","1","16.666292307692437","768","428","","","","","12/12= ?","1","1","","","","","","",""
"2799","","3","psychophysics","109","438822","0.0-7.0-5.0-0.6","2","1","1","2","1","3","2","2","3","2","3","1","2","-1","0","-2","-1","0","0","4","5","5","5","3","2","4","1","3","3","4","7","3","7","4","3","6","5","8","4","1","2","5","5","2","4","1","2","2","3","3","4","3","2","4","3","7","2","3","4","3","5","2","4","5","2","4","5","7","3","4","7","2","4","3","7","2","2","4","754335804045922305","曹","38","Female","[""好她"",""坏我"",""好我"",""坏她""]","[""强她"",""弱我"",""强我"",""弱她""]","","","","","","","","3","","","","","","","","","SRET","SRET_math_calculate","","key","3","16.666329341317375","768","428","","","","","6/2= ?","3","1","","","","","","",""
"1870","","5","psychophysics","110","440693","0.0-7.0-5.0-0.7","2","1","1","2","1","3","2","2","3","2","3","1","2","-1","0","-2","-1","0","0","4","5","5","5","3","2","4","1","3","3","4","7","3","7","4","3","6","5","8","4","1","2","5","5","2","4","1","2","2","3","3","4","3","2","4","3","7","2","3","4","3","5","2","4","5","2","4","5","7","3","4","7","2","4","3","7","2","2","4","754335804045922305","曹","38","Female","[""好她"",""坏我"",""好我"",""坏她""]","[""强她"",""弱我"",""强我"",""弱她""]","","","","","","","","5","","","","","","","","","SRET","SRET_math_calculate","","key","5","16.66621621621632","768","428","","","","","10-5= ?","5","1","","","","","","",""
"2885","","9","psychophysics","111","443579","0.0-7.0-5.0-0.8","2","1","1","2","1","3","2","2","3","2","3","1","2","-1","0","-2","-1","0","0","4","5","5","5","3","2","4","1","3","3","4","7","3","7","4","3","6","5","8","4","1","2","5","5","2","4","1","2","2","3","3","4","3","2","4","3","7","2","3","4","3","5","2","4","5","2","4","5","7","3","4","7","2","4","3","7","2","2","4","754335804045922305","曹","38","Female","[""好她"",""坏我"",""好我"",""坏她""]","[""强她"",""弱我"",""强我"",""弱她""]","","","","","","","","9","","","","","","","","","SRET","SRET_math_calculate","","key","9","16.66743604651162","768","428","","","","","18/2= ?","9","1","","","","","","",""
"4448","","9","psychophysics","112","448029","0.0-7.0-5.0-0.9","2","1","1","2","1","3","2","2","3","2","3","1","2","-1","0","-2","-1","0","0","4","5","5","5","3","2","4","1","3","3","4","7","3","7","4","3","6","5","8","4","1","2","5","5","2","4","1","2","2","3","3","4","3","2","4","3","7","2","3","4","3","5","2","4","5","2","4","5","7","3","4","7","2","4","3","7","2","2","4","754335804045922305","曹","38","Female","[""好她"",""坏我"",""好我"",""坏她""]","[""强她"",""弱我"",""强我"",""弱她""]","","","","","","","","9","","","","","","","","","SRET","SRET_math_calculate","","key","9","16.667274436090207","768","428","","","","","6+3= ?","9","1","","","","","","",""
"1783","","3","psychophysics","113","449814","0.0-7.0-5.0-0.10","2","1","1","2","1","3","2","2","3","2","3","1","2","-1","0","-2","-1","0","0","4","5","5","5","3","2","4","1","3","3","4","7","3","7","4","3","6","5","8","4","1","2","5","5","2","4","1","2","2","3","3","4","3","2","4","3","7","2","3","4","3","5","2","4","5","2","4","5","7","3","4","7","2","4","3","7","2","2","4","754335804045922305","曹","38","Female","[""好她"",""坏我"",""好我"",""坏她""]","[""强她"",""弱我"",""强我"",""弱她""]","","","","","","","","3","","","","","","","","","SRET","SRET_math_calculate","","key","3","16.66531132075459","768","428","","","","","1+2= ?","3","1","","","","","","",""
"3498","","3","psychophysics","114","453313","0.0-7.0-5.0-0.11","2","1","1","2","1","3","2","2","3","2","3","1","2","-1","0","-2","-1","0","0","4","5","5","5","3","2","4","1","3","3","4","7","3","7","4","3","6","5","8","4","1","2","5","5","2","4","1","2","2","3","3","4","3","2","4","3","7","2","3","4","3","5","2","4","5","2","4","5","7","3","4","7","2","4","3","7","2","2","4","754335804045922305","曹","38","Female","[""好她"",""坏我"",""好我"",""坏她""]","[""强她"",""弱我"",""强我"",""弱她""]","","","","","","","","3","","","","","","","","","SRET","SRET_math_calculate","","key","3","16.66662679425843","768","428","","","","","11-8= ?","3","1","","","","","","",""
"1936","","8","psychophysics","115","455251","0.0-7.0-5.0-0.12","2","1","1","2","1","3","2","2","3","2","3","1","2","-1","0","-2","-1","0","0","4","5","5","5","3","2","4","1","3","3","4","7","3","7","4","3","6","5","8","4","1","2","5","5","2","4","1","2","2","3","3","4","3","2","4","3","7","2","3","4","3","5","2","4","5","2","4","5","7","3","4","7","2","4","3","7","2","2","4","754335804045922305","曹","38","Female","[""好她"",""坏我"",""好我"",""坏她""]","[""强她"",""弱我"",""强我"",""弱她""]","","","","","","","","8","","","","","","","","","SRET","SRET_math_calculate","","key","8","16.666426086956736","768","428","","","","","5+3= ?","8","1","","","","","","",""
"2330","","0","psychophysics","116","457583","0.0-7.0-5.0-0.13","2","1","1","2","1","3","2","2","3","2","3","1","2","-1","0","-2","-1","0","0","4","5","5","5","3","2","4","1","3","3","4","7","3","7","4","3","6","5","8","4","1","2","5","5","2","4","1","2","2","3","3","4","3","2","4","3","7","2","3","4","3","5","2","4","5","2","4","5","7","3","4","7","2","4","3","7","2","2","4","754335804045922305","曹","38","Female","[""好她"",""坏我"",""好我"",""坏她""]","[""强她"",""弱我"",""强我"",""弱她""]","","","","","","","","0","","","","","","","","","SRET","SRET_math_calculate","","key","0","16.66679856115106","768","428","","","","","7*0= ?","0","1","","","","","","",""
"4789","","6","psychophysics","117","462376","0.0-7.0-5.0-0.14","2","1","1","2","1","3","2","2","3","2","3","1","2","-1","0","-2","-1","0","0","4","5","5","5","3","2","4","1","3","3","4","7","3","7","4","3","6","5","8","4","1","2","5","5","2","4","1","2","2","3","3","4","3","2","4","3","7","2","3","4","3","5","2","4","5","2","4","5","7","3","4","7","2","4","3","7","2","2","4","754335804045922305","曹","38","Female","[""好她"",""坏我"",""好我"",""坏她""]","[""强她"",""弱我"",""强我"",""弱她""]","","","","","","","","6","","","","","","","","","SRET","SRET_math_calculate","","key","6","16.666414634146335","768","428","","","","","11-5= ?","6","1","","","","","","",""
"1893","","3","psychophysics","118","464270","0.0-7.0-5.0-0.15","2","1","1","2","1","3","2","2","3","2","3","1","2","-1","0","-2","-1","0","0","4","5","5","5","3","2","4","1","3","3","4","7","3","7","4","3","6","5","8","4","1","2","5","5","2","4","1","2","2","3","3","4","3","2","4","3","7","2","3","4","3","5","2","4","5","2","4","5","7","3","4","7","2","4","3","7","2","2","4","754335804045922305","曹","38","Female","[""好她"",""坏我"",""好我"",""坏她""]","[""强她"",""弱我"",""强我"",""弱她""]","","","","","","","","3","","","","","","","","","SRET","SRET_math_calculate","","key","3","16.6651592920354","768","428","","","","","2+1= ?","3","1","","","","","","",""
"1849","","9","psychophysics","119","466120","0.0-7.0-5.0-0.16","2","1","1","2","1","3","2","2","3","2","3","1","2","-1","0","-2","-1","0","0","4","5","5","5","3","2","4","1","3","3","4","7","3","7","4","3","6","5","8","4","1","2","5","5","2","4","1","2","2","3","3","4","3","2","4","3","7","2","3","4","3","5","2","4","5","2","4","5","7","3","4","7","2","4","3","7","2","2","4","754335804045922305","曹","38","Female","[""好她"",""坏我"",""好我"",""坏她""]","[""强她"",""弱我"",""强我"",""弱她""]","","","","","","","","9","","","","","","","","","SRET","SRET_math_calculate","","key","9","16.665736363636096","768","428","","","","","1+8= ?","9","1","","","","","","",""
"2029","","8","psychophysics","120","468151","0.0-7.0-5.0-0.17","2","1","1","2","1","3","2","2","3","2","3","1","2","-1","0","-2","-1","0","0","4","5","5","5","3","2","4","1","3","3","4","7","3","7","4","3","6","5","8","4","1","2","5","5","2","4","1","2","2","3","3","4","3","2","4","3","7","2","3","4","3","5","2","4","5","2","4","5","7","3","4","7","2","4","3","7","2","2","4","754335804045922305","曹","38","Female","[""好她"",""坏我"",""好我"",""坏她""]","[""强她"",""弱我"",""强我"",""弱她""]","","","","","","","","8","","","","","","","","","SRET","SRET_math_calculate","","key","8","16.666608333333475","768","428","","","","","4*2= ?","8","1","","","","","","",""
"5037","","5","psychophysics","121","473191","0.0-7.0-5.0-0.18","2","1","1","2","1","3","2","2","3","2","3","1","2","-1","0","-2","-1","0","0","4","5","5","5","3","2","4","1","3","3","4","7","3","7","4","3","6","5","8","4","1","2","5","5","2","4","1","2","2","3","3","4","3","2","4","3","7","2","3","4","3","5","2","4","5","2","4","5","7","3","4","7","2","4","3","7","2","2","4","754335804045922305","曹","38","Female","[""好她"",""坏我"",""好我"",""坏她""]","[""强她"",""弱我"",""强我"",""弱她""]","","","","","","","","5","","","","","","","","","SRET","SRET_math_calculate","","key","5","16.666450331125766","768","428","","","","","14-9= ?","5","1","","","","","","",""
"2406","","6","psychophysics","122","475599","0.0-7.0-5.0-0.19","2","1","1","2","1","3","2","2","3","2","3","1","2","-1","0","-2","-1","0","0","4","5","5","5","3","2","4","1","3","3","4","7","3","7","4","3","6","5","8","4","1","2","5","5","2","4","1","2","2","3","3","4","3","2","4","3","7","2","3","4","3","5","2","4","5","2","4","5","7","3","4","7","2","4","3","7","2","2","4","754335804045922305","曹","38","Female","[""好她"",""坏我"",""好我"",""坏她""]","[""强她"",""弱我"",""强我"",""弱她""]","","","","","","","","6","","","","","","","","","SRET","SRET_math_calculate","","key","6","16.66635664335698","768","428","","","","","9-3= ?","6","1","","","","","","",""
"1929","","8","psychophysics","123","477530","0.0-7.0-5.0-0.20","2","1","1","2","1","3","2","2","3","2","3","1","2","-1","0","-2","-1","0","0","4","5","5","5","3","2","4","1","3","3","4","7","3","7","4","3","6","5","8","4","1","2","5","5","2","4","1","2","2","3","3","4","3","2","4","3","7","2","3","4","3","5","2","4","5","2","4","5","7","3","4","7","2","4","3","7","2","2","4","754335804045922305","曹","38","Female","[""好她"",""坏我"",""好我"",""坏她""]","[""强她"",""弱我"",""强我"",""弱她""]","","","","","","","","8","","","","","","","","","SRET","SRET_math_calculate","","key","8","16.6665391304348","768","428","","","","","6+2= ?","8","1","","","","","","",""
"1983","","5","psychophysics","124","479515","0.0-7.0-5.0-0.21","2","1","1","2","1","3","2","2","3","2","3","1","2","-1","0","-2","-1","0","0","4","5","5","5","3","2","4","1","3","3","4","7","3","7","4","3","6","5","8","4","1","2","5","5","2","4","1","2","2","3","3","4","3","2","4","3","7","2","3","4","3","5","2","4","5","2","4","5","7","3","4","7","2","4","3","7","2","2","4","754335804045922305","曹","38","Female","[""好她"",""坏我"",""好我"",""坏她""]","[""强她"",""弱我"",""强我"",""弱她""]","","","","","","","","5","","","","","","","","","SRET","SRET_math_calculate","","key","5","16.666728813559313","768","428","","","","","2+3= ?","5","1","","","","","","",""
"2405","","8","psychophysics","125","481922","0.0-7.0-5.0-0.22","2","1","1","2","1","3","2","2","3","2","3","1","2","-1","0","-2","-1","0","0","4","5","5","5","3","2","4","1","3","3","4","7","3","7","4","3","6","5","8","4","1","2","5","5","2","4","1","2","2","3","3","4","3","2","4","3","7","2","3","4","3","5","2","4","5","2","4","5","7","3","4","7","2","4","3","7","2","2","4","754335804045922305","曹","38","Female","[""好她"",""坏我"",""好我"",""坏她""]","[""强她"",""弱我"",""强我"",""弱她""]","","","","","","","","8","","","","","","","","","SRET","SRET_math_calculate","","key","8","16.665979166666755","768","428","","","","","7+1= ?","8","1","","","","","","",""
"2016","","4","psychophysics","126","483941","0.0-7.0-5.0-0.23","2","1","1","2","1","3","2","2","3","2","3","1","2","-1","0","-2","-1","0","0","4","5","5","5","3","2","4","1","3","3","4","7","3","7","4","3","6","5","8","4","1","2","5","5","2","4","1","2","2","3","3","4","3","2","4","3","7","2","3","4","3","5","2","4","5","2","4","5","7","3","4","7","2","4","3","7","2","2","4","754335804045922305","曹","38","Female","[""好她"",""坏我"",""好我"",""坏她""]","[""强她"",""弱我"",""强我"",""弱她""]","","","","","","","","4","","","","","","","","","SRET","SRET_math_calculate","","key","4","16.666483333333357","768","428","","","","","20/5= ?","4","1","","","","","","",""
"2003","","9","psychophysics","127","485945","0.0-7.0-5.0-0.24","2","1","1","2","1","3","2","2","3","2","3","1","2","-1","0","-2","-1","0","0","4","5","5","5","3","2","4","1","3","3","4","7","3","7","4","3","6","5","8","4","1","2","5","5","2","4","1","2","2","3","3","4","3","2","4","3","7","2","3","4","3","5","2","4","5","2","4","5","7","3","4","7","2","4","3","7","2","2","4","754335804045922305","曹","38","Female","[""好她"",""坏我"",""好我"",""坏她""]","[""强她"",""弱我"",""强我"",""弱她""]","","","","","","","","9","","","","","","","","","SRET","SRET_math_calculate","","key","9","16.665756302520812","768","428","","","","","2+7= ?","9","1","","","","","","",""
"2100","","5","psychophysics","128","488047","0.0-7.0-5.0-0.25","2","1","1","2","1","3","2","2","3","2","3","1","2","-1","0","-2","-1","0","0","4","5","5","5","3","2","4","1","3","3","4","7","3","7","4","3","6","5","8","4","1","2","5","5","2","4","1","2","2","3","3","4","3","2","4","3","7","2","3","4","3","5","2","4","5","2","4","5","7","3","4","7","2","4","3","7","2","2","4","754335804045922305","曹","38","Female","[""好她"",""坏我"",""好我"",""坏她""]","[""强她"",""弱我"",""强我"",""弱她""]","","","","","","","","5","","","","","","","","","SRET","SRET_math_calculate","","key","5","16.66671999999974","768","428","","","","","17-12= ? ","5","1","","","","","","",""
"2366","","7","psychophysics","129","490416","0.0-7.0-5.0-0.26","2","1","1","2","1","3","2","2","3","2","3","1","2","-1","0","-2","-1","0","0","4","5","5","5","3","2","4","1","3","3","4","7","3","7","4","3","6","5","8","4","1","2","5","5","2","4","1","2","2","3","3","4","3","2","4","3","7","2","3","4","3","5","2","4","5","2","4","5","7","3","4","7","2","4","3","7","2","2","4","754335804045922305","曹","38","Female","[""好她"",""坏我"",""好我"",""坏她""]","[""强她"",""弱我"",""强我"",""弱她""]","","","","","","","","7","","","","","","","","","SRET","SRET_math_calculate","","key","7","16.666751773049974","768","428","","","","","9-2= ?","7","1","","","","","","",""
"2609","","7","psychophysics","130","493026","0.0-7.0-5.0-0.27","2","1","1","2","1","3","2","2","3","2","3","1","2","-1","0","-2","-1","0","0","4","5","5","5","3","2","4","1","3","3","4","7","3","7","4","3","6","5","8","4","1","2","5","5","2","4","1","2","2","3","3","4","3","2","4","3","7","2","3","4","3","5","2","4","5","2","4","5","7","3","4","7","2","4","3","7","2","2","4","754335804045922305","曹","38","Female","[""好她"",""坏我"",""好我"",""坏她""]","[""强她"",""弱我"",""强我"",""弱她""]","","","","","","","","7","","","","","","","","","SRET","SRET_math_calculate","","key","7","16.666211538461564","768","428","","","","","12-5= ?","7","1","","","","","","",""
"2134","","8","psychophysics","131","495162","0.0-7.0-5.0-0.28","2","1","1","2","1","3","2","2","3","2","3","1","2","-1","0","-2","-1","0","0","4","5","5","5","3","2","4","1","3","3","4","7","3","7","4","3","6","5","8","4","1","2","5","5","2","4","1","2","2","3","3","4","3","2","4","3","7","2","3","4","3","5","2","4","5","2","4","5","7","3","4","7","2","4","3","7","2","2","4","754335804045922305","曹","38","Female","[""好她"",""坏我"",""好我"",""坏她""]","[""强她"",""弱我"",""强我"",""弱她""]","","","","","","","","8","","","","","","","","","SRET","SRET_math_calculate","","key","8","16.666267716535277","768","428","","","","","9-1= ?","8","1","","","","","","",""
"1894","","2","psychophysics","132","497057","0.0-7.0-5.0-0.29","2","1","1","2","1","3","2","2","3","2","3","1","2","-1","0","-2","-1","0","0","4","5","5","5","3","2","4","1","3","3","4","7","3","7","4","3","6","5","8","4","1","2","5","5","2","4","1","2","2","3","3","4","3","2","4","3","7","2","3","4","3","5","2","4","5","2","4","5","7","3","4","7","2","4","3","7","2","2","4","754335804045922305","曹","38","Female","[""好她"",""坏我"",""好我"",""坏她""]","[""强她"",""弱我"",""强我"",""弱她""]","","","","","","","","2","","","","","","","","","SRET","SRET_math_calculate","","key","2","16.66716814159253","768","428","","","","","12/6= ?","2","1","","","","","","",""
"1749","","9","psychophysics","133","498807","0.0-7.0-5.0-0.30","2","1","1","2","1","3","2","2","3","2","3","1","2","-1","0","-2","-1","0","0","4","5","5","5","3","2","4","1","3","3","4","7","3","7","4","3","6","5","8","4","1","2","5","5","2","4","1","2","2","3","3","4","3","2","4","3","7","2","3","4","3","5","2","4","5","2","4","5","7","3","4","7","2","4","3","7","2","2","4","754335804045922305","曹","38","Female","[""好她"",""坏我"",""好我"",""坏她""]","[""强她"",""弱我"",""强我"",""弱她""]","","","","","","","","9","","","","","","","","","SRET","SRET_math_calculate","","key","9","16.668134615384936","768","428","","","","","8+1= ?","9","1","","","","","","",""
"1698","","6","psychophysics","134","500506","0.0-7.0-5.0-0.31","2","1","1","2","1","3","2","2","3","2","3","1","2","-1","0","-2","-1","0","0","4","5","5","5","3","2","4","1","3","3","4","7","3","7","4","3","6","5","8","4","1","2","5","5","2","4","1","2","2","3","3","4","3","2","4","3","7","2","3","4","3","5","2","4","5","2","4","5","7","3","4","7","2","4","3","7","2","2","4","754335804045922305","曹","38","Female","[""好她"",""坏我"",""好我"",""坏她""]","[""强她"",""弱我"",""强我"",""弱她""]","","","","","","","","6","","","","","","","","","SRET","SRET_math_calculate","","key","6","16.666445544554904","768","428","","","","","3+3= ?","6","1","","","","","","",""
"3136","","3","psychophysics","135","503644","0.0-7.0-5.0-0.32","2","1","1","2","1","3","2","2","3","2","3","1","2","-1","0","-2","-1","0","0","4","5","5","5","3","2","4","1","3","3","4","7","3","7","4","3","6","5","8","4","1","2","5","5","2","4","1","2","2","3","3","4","3","2","4","3","7","2","3","4","3","5","2","4","5","2","4","5","7","3","4","7","2","4","3","7","2","2","4","754335804045922305","曹","38","Female","[""好她"",""坏我"",""好我"",""坏她""]","[""强她"",""弱我"",""强我"",""弱她""]","","","","","","","","3","","","","","","","","","SRET","SRET_math_calculate","","key","3","16.666839572192632","768","428","","","","","9/3= ?","3","1","","","","","","",""
"2268","","2","psychophysics","136","505913","0.0-7.0-5.0-0.33","2","1","1","2","1","3","2","2","3","2","3","1","2","-1","0","-2","-1","0","0","4","5","5","5","3","2","4","1","3","3","4","7","3","7","4","3","6","5","8","4","1","2","5","5","2","4","1","2","2","3","3","4","3","2","4","3","7","2","3","4","3","5","2","4","5","2","4","5","7","3","4","7","2","4","3","7","2","2","4","754335804045922305","曹","38","Female","[""好她"",""坏我"",""好我"",""坏她""]","[""强她"",""弱我"",""强我"",""弱她""]","","","","","","","","2","","","","","","","","","SRET","SRET_math_calculate","","key","2","16.666718518518394","768","428","","","","","22/11= ?","2","1","","","","","","",""
"2241","","1","psychophysics","137","508156","0.0-7.0-5.0-0.34","2","1","1","2","1","3","2","2","3","2","3","1","2","-1","0","-2","-1","0","0","4","5","5","5","3","2","4","1","3","3","4","7","3","7","4","3","6","5","8","4","1","2","5","5","2","4","1","2","2","3","3","4","3","2","4","3","7","2","3","4","3","5","2","4","5","2","4","5","7","3","4","7","2","4","3","7","2","2","4","754335804045922305","曹","38","Female","[""好她"",""坏我"",""好我"",""坏她""]","[""强她"",""弱我"",""强我"",""弱她""]","","","","","","","","1","","","","","","","","","SRET","SRET_math_calculate","","key","1","16.666679104477335","768","428","","","","","10-9= ?","1","1","","","","","","",""
"1950","","9","psychophysics","138","510107","0.0-7.0-5.0-0.35","2","1","1","2","1","3","2","2","3","2","3","1","2","-1","0","-2","-1","0","0","4","5","5","5","3","2","4","1","3","3","4","7","3","7","4","3","6","5","8","4","1","2","5","5","2","4","1","2","2","3","3","4","3","2","4","3","7","2","3","4","3","5","2","4","5","2","4","5","7","3","4","7","2","4","3","7","2","2","4","754335804045922305","曹","38","Female","[""好她"",""坏我"",""好我"",""坏她""]","[""强她"",""弱我"",""强我"",""弱她""]","","","","","","","","9","","","","","","","","","SRET","SRET_math_calculate","","key","9","16.666043103448263","768","428","","","","","7+2= ?","9","1","","","","","","",""
"4170","","9","psychophysics","139","514279","0.0-7.0-5.0-0.36","2","1","1","2","1","3","2","2","3","2","3","1","2","-1","0","-2","-1","0","0","4","5","5","5","3","2","4","1","3","3","4","7","3","7","4","3","6","5","8","4","1","2","5","5","2","4","1","2","2","3","3","4","3","2","4","3","7","2","3","4","3","5","2","4","5","2","4","5","7","3","4","7","2","4","3","7","2","2","4","754335804045922305","曹","38","Female","[""好她"",""坏我"",""好我"",""坏她""]","[""强她"",""弱我"",""强我"",""弱她""]","","","","","","","","9","","","","","","","","","SRET","SRET_math_calculate","","key","9","16.666128514056144","768","428","","","","","43-34= ?","9","1","","","","","","",""
"1984","","8","psychophysics","140","516264","0.0-7.0-5.0-0.37","2","1","1","2","1","3","2","2","3","2","3","1","2","-1","0","-2","-1","0","0","4","5","5","5","3","2","4","1","3","3","4","7","3","7","4","3","6","5","8","4","1","2","5","5","2","4","1","2","2","3","3","4","3","2","4","3","7","2","3","4","3","5","2","4","5","2","4","5","7","3","4","7","2","4","3","7","2","2","4","754335804045922305","曹","38","Female","[""好她"",""坏我"",""好我"",""坏她""]","[""强她"",""弱我"",""强我"",""弱她""]","","","","","","","","8","","","","","","","","","SRET","SRET_math_calculate","","key","8","16.666559322033734","768","428","","","","","2+6= ?","8","1","","","","","","",""
"1820","","8","psychophysics","141","518085","0.0-7.0-5.0-0.38","2","1","1","2","1","3","2","2","3","2","3","1","2","-1","0","-2","-1","0","0","4","5","5","5","3","2","4","1","3","3","4","7","3","7","4","3","6","5","8","4","1","2","5","5","2","4","1","2","2","3","3","4","3","2","4","3","7","2","3","4","3","5","2","4","5","2","4","5","7","3","4","7","2","4","3","7","2","2","4","754335804045922305","曹","38","Female","[""好她"",""坏我"",""好我"",""坏她""]","[""强她"",""弱我"",""强我"",""弱她""]","","","","","","","","8","","","","","","","","","SRET","SRET_math_calculate","","key","8","16.66616513761489","768","428","","","","","1+7= ?","8","1","","","","","","",""
"3648","","9","psychophysics","142","521735","0.0-7.0-5.0-0.39","2","1","1","2","1","3","2","2","3","2","3","1","2","-1","0","-2","-1","0","0","4","5","5","5","3","2","4","1","3","3","4","7","3","7","4","3","6","5","8","4","1","2","5","5","2","4","1","2","2","3","3","4","3","2","4","3","7","2","3","4","3","5","2","4","5","2","4","5","7","3","4","7","2","4","3","7","2","2","4","754335804045922305","曹","38","Female","[""好她"",""坏我"",""好我"",""坏她""]","[""强她"",""弱我"",""强我"",""弱她""]","","","","","","","","9","","","","","","","","","SRET","SRET_math_calculate","","key","9","16.66604587155952","768","428","","","","","32-23= ?","9","1","","","","","","",""
"2317","","9","psychophysics","143","524054","0.0-7.0-5.0-0.40","2","1","1","2","1","3","2","2","3","2","3","1","2","-1","0","-2","-1","0","0","4","5","5","5","3","2","4","1","3","3","4","7","3","7","4","3","6","5","8","4","1","2","5","5","2","4","1","2","2","3","3","4","3","2","4","3","7","2","3","4","3","5","2","4","5","2","4","5","7","3","4","7","2","4","3","7","2","2","4","754335804045922305","曹","38","Female","[""好她"",""坏我"",""好我"",""坏她""]","[""强她"",""弱我"",""强我"",""弱她""]","","","","","","","","9","","","","","","","","","SRET","SRET_math_calculate","","key","9","16.66603623188406","768","428","","","","","81/9= ?","9","1","","","","","","",""
"2025","","8","psychophysics","144","526080","0.0-7.0-5.0-0.41","2","1","1","2","1","3","2","2","3","2","3","1","2","-1","0","-2","-1","0","0","4","5","5","5","3","2","4","1","3","3","4","7","3","7","4","3","6","5","8","4","1","2","5","5","2","4","1","2","2","3","3","4","3","2","4","3","7","2","3","4","3","5","2","4","5","2","4","5","7","3","4","7","2","4","3","7","2","2","4","754335804045922305","曹","38","Female","[""好她"",""坏我"",""好我"",""坏她""]","[""强她"",""弱我"",""强我"",""弱她""]","","","","","","","","8","","","","","","","","","SRET","SRET_math_calculate","","key","8","16.666683333333154","768","428","","","","","8*1= ?","8","1","","","","","","",""
