"rt","stimulus","response","trial_type","trial_index","time_elapsed","internal_node_id","swb_1","swb_2","swb_3","swb_4","swb_5","LOT_1","LOT_2","LOT_3","LOT_4","LOT_5","LOT_6","IPC_1","IPC_2","IPC_3","IPC_4","IPC_5","IPC_6","IPC_7","IPC_8","MorIden_1","MorIden_2","MorIden_3","MorIden_4","MorIden_5","MorIden_6","MorIden_7","MorIden_8","MorIden_9","MorIden_10","moralSeImag_1","moralSeImag_2","moralSeImag_3","moralSeImag_4","moralSeImag_5","moralSeImag_6","moralSeImag_7","moralSeImag_8","moralSeImag_9","sde_1","sde_2","sde_3","sde_4","sde_5","sde_6","sde_7","sde_8","sde_9","sde_10","sde_11","sde_12","sde_13","sde_14","sde_15","sde_16","sde_17","sde_18","sde_19","sde_20","IM_1","IM_2","IM_3","IM_4","IM_5","IM_6","IM_7","IM_8","IM_9","IM_10","IM_11","IM_12","IM_13","IM_14","IM_15","IM_16","IM_17","IM_18","IM_19","IM_20","subj_idx","friend_name","ParticipantID","Sex","Word","Word2","value","success","timeout","failed_images","failed_audio","failed_video","user_agent","responses","item_order","radio_event_ids","radio_event_times","key_event_times","mouse_event_times","straightlining","zigzagging","honeypot","view_history","response_type","key_press","avg_frame_time","center_x","center_y","correct_response","correct","identity","Image","word","condition","task_id","screen_id","time_stamp","person","valence","domain","math","status","duration","question_order"
"1798","
   <p><div style='color:white; font-size: 25px'>您好，欢迎参加本次实验。</div></p>
   <p><div style='color:white; font-size: 25px'>为充分保障您的权利，请确保您已经知晓并同意《参与实验同意书》以及《数据公开知情同意书》。</div></p>
   <p><div style='color:white; font-size: 25px'>如果您未见过上述内容，请咨询实验员。</div></p>
   <p style='color:white; font-size: 25px'>如果您选择继续实验，则表示您已经清楚两份知情同意书的内容并同意。</p>
   <p> <div style = ""color: green""><按空格键至下页></div> </p>
   "," ","html-keyboard-response","0","1829","0.0-0.0","6","5","7","5","7","4","4","5","5","5","4","-2","-3","1","0","2","2","1","1","4","5","5","4","4","4","5","4","5","4","5","7","6","7","6","8","5","7","6","3","6","1","6","5","7","2","5","6","7","7","6","3","7","6","6","5","7","5","6","3","7","3","3","7","6","5","5","7","7","5","6","7","2","7","5","7","7","5","5","612329083165999104","罗","378","Male","[""坏他"",""好我"",""坏我"",""好他""]","[""弱他"",""强我"",""弱我"",""强他""]","","","","","","","","","","","","","","","","","","","","","","","","","","","","","","","","","","","","","",""
"","","","call-function","1","1829","0.0-1.0-0.0","6","5","7","5","7","4","4","5","5","5","4","-2","-3","1","0","2","2","1","1","4","5","5","4","4","4","5","4","5","4","5","7","6","7","6","8","5","7","6","3","6","1","6","5","7","2","5","6","7","7","6","3","7","6","6","5","7","5","6","3","7","3","3","7","6","5","5","7","7","5","6","7","2","7","5","7","7","5","5","612329083165999104","罗","378","Male","[""坏他"",""好我"",""坏我"",""好他""]","[""弱他"",""强我"",""弱我"",""强他""]","","","","","","","","","","","","","","","","","","","","","","","","","","","","","","","","","","","","","",""
"186699","","[{""name"":""Sex"",""value"":""0""},{""name"":""friend_name"",""value"":""罗""},{""name"":""ParticipantID"",""value"":""378""}]","survey-html-form","2","188949","0.0-1.0-1.0","6","5","7","5","7","4","4","5","5","5","4","-2","-3","1","0","2","2","1","1","4","5","5","4","4","4","5","4","5","4","5","7","6","7","6","8","5","7","6","3","6","1","6","5","7","2","5","6","7","7","6","3","7","6","6","5","7","5","6","3","7","3","3","7","6","5","5","7","7","5","6","7","2","7","5","7","7","5","5","612329083165999104","罗","378","Male","[""坏他"",""好我"",""坏我"",""好他""]","[""弱他"",""强我"",""弱我"",""强他""]","","","","","","","","","","","","","","","","","","","","","","","","","","","","","","","","","","","","","",""
"","","","preload","3","193799","0.0-2.0","6","5","7","5","7","4","4","5","5","5","4","-2","-3","1","0","2","2","1","1","4","5","5","4","4","4","5","4","5","4","5","7","6","7","6","8","5","7","6","3","6","1","6","5","7","2","5","6","7","7","6","3","7","6","6","5","7","5","6","3","7","3","3","7","6","5","5","7","7","5","6","7","2","7","5","7","7","5","5","612329083165999104","罗","378","Male","[""坏他"",""好我"",""坏我"",""好他""]","[""弱他"",""强我"",""弱我"",""强他""]","","true","false","[]","[]","[]","","","","","","","","","","","","","","","","","","","","","","","","","","","","","","","",""
"","","","fullscreen","4","195961","0.0-3.0","6","5","7","5","7","4","4","5","5","5","4","-2","-3","1","0","2","2","1","1","4","5","5","4","4","4","5","4","5","4","5","7","6","7","6","8","5","7","6","3","6","1","6","5","7","2","5","6","7","7","6","3","7","6","6","5","7","5","6","3","7","3","3","7","6","5","5","7","7","5","6","7","2","7","5","7","7","5","5","612329083165999104","罗","378","Male","[""坏他"",""好我"",""坏我"",""好他""]","[""弱他"",""强我"",""弱我"",""强他""]","","true","","","","","","","","","","","","","","","","","","","","","","","","","","","","","","","","","","","",""
"21591","","{""Q01"":""6"",""Q02"":""5"",""Q03"":""7"",""Q04"":""5"",""Q05"":""7""}","survey-template","5","217716","0.0-4.0","6","5","7","5","7","4","4","5","5","5","4","-2","-3","1","0","2","2","1","1","4","5","5","4","4","4","5","4","5","4","5","7","6","7","6","8","5","7","6","3","6","1","6","5","7","2","5","6","7","7","6","3","7","6","6","5","7","5","6","3","7","3","3","7","6","5","5","7","7","5","6","7","2","7","5","7","7","5","5","612329083165999104","罗","378","Male","[""坏他"",""好我"",""坏我"",""好他""]","[""弱他"",""强我"",""弱我"",""强他""]","","","","","","","","{""Q01"":""6"",""Q02"":""5"",""Q03"":""7"",""Q04"":""5"",""Q05"":""7""}","[0,1,2,3,4]","[""Q01"",""Q02"",""Q03"",""Q04"",""Q05"",""Q03""]","[3159,4935,6111,10253,14297,18294]","[]","[3159,4935,6111,10253,13738,14297,17690,18294,21590]","0.4","0.25","0","","","","","","","","","","","","","","","","","","","","","",""
"21202","","{""Q01"":""4"",""Q02"":""4"",""Q03"":""5"",""Q04"":""5"",""Q05"":""5"",""Q06"":""4""}","survey-template","6","238993","0.0-5.0","6","5","7","5","7","4","4","5","5","5","4","-2","-3","1","0","2","2","1","1","4","5","5","4","4","4","5","4","5","4","5","7","6","7","6","8","5","7","6","3","6","1","6","5","7","2","5","6","7","7","6","3","7","6","6","5","7","5","6","3","7","3","3","7","6","5","5","7","7","5","6","7","2","7","5","7","7","5","5","612329083165999104","罗","378","Male","[""坏他"",""好我"",""坏我"",""好他""]","[""弱他"",""强我"",""弱我"",""强他""]","","","","","","","","{""Q01"":""4"",""Q02"":""4"",""Q03"":""5"",""Q04"":""5"",""Q05"":""5"",""Q06"":""4""}","[0,1,2,3,4,5]","[""Q01"",""Q02"",""Q03"",""Q04"",""Q05"",""Q06""]","[4307,5809,8580,10382,11333,15590]","[]","[3343,3785,4307,5809,8247,8580,10382,11106,11333,15590,21202]","0.3333333333333333","0.2","0","","","","","","","","","","","","","","","","","","","","","",""
"31021","","{""Q01"":""-2"",""Q02"":""-3"",""Q03"":""1"",""Q04"":""0"",""Q05"":""2"",""Q06"":""2"",""Q07"":""1"",""Q08"":""1""}","survey-template","7","270021","0.0-6.0","6","5","7","5","7","4","4","5","5","5","4","-2","-3","1","0","2","2","1","1","4","5","5","4","4","4","5","4","5","4","5","7","6","7","6","8","5","7","6","3","6","1","6","5","7","2","5","6","7","7","6","3","7","6","6","5","7","5","6","3","7","3","3","7","6","5","5","7","7","5","6","7","2","7","5","7","7","5","5","612329083165999104","罗","378","Male","[""坏他"",""好我"",""坏我"",""好他""]","[""弱他"",""强我"",""弱我"",""强他""]","","","","","","","","{""Q01"":""-2"",""Q02"":""-3"",""Q03"":""1"",""Q04"":""0"",""Q05"":""2"",""Q06"":""2"",""Q07"":""1"",""Q08"":""1""}","[0,1,2,3,4,5,6,7]","[""Q01"",""Q02"",""Q02"",""Q03"",""Q04"",""Q05"",""Q06"",""Q07"",""Q08""]","[2377,4138,4754,6421,10767,13626,14479,16930,19116]","[]","[2377,4138,4754,5946,6421,10767,12394,13323,13626,14479,16930,19116,31021]","0.375","0.42857142857142855","0","","","","","","","","","","","","","","","","","","","","","",""
"9802","","","instructions","8","279828","0.0-7.0","6","5","7","5","7","4","4","5","5","5","4","-2","-3","1","0","2","2","1","1","4","5","5","4","4","4","5","4","5","4","5","7","6","7","6","8","5","7","6","3","6","1","6","5","7","2","5","6","7","7","6","3","7","6","6","5","7","5","6","3","7","3","3","7","6","5","5","7","7","5","6","7","2","7","5","7","7","5","5","612329083165999104","罗","378","Male","[""坏他"",""好我"",""坏我"",""好他""]","[""弱他"",""强我"",""弱我"",""强他""]","","","","","","","","","","","","","","","","","[{""page_index"":0,""viewing_time"":9802}]","","","","","","","","","","","","","","","","","","","","",""
"43490","","","instructions","9","323322","0.0-8.0-0.0-0.0","6","5","7","5","7","4","4","5","5","5","4","-2","-3","1","0","2","2","1","1","4","5","5","4","4","4","5","4","5","4","5","7","6","7","6","8","5","7","6","3","6","1","6","5","7","2","5","6","7","7","6","3","7","6","6","5","7","5","6","3","7","3","3","7","6","5","5","7","7","5","6","7","2","7","5","7","7","5","5","612329083165999104","罗","378","Male","[""坏他"",""好我"",""坏我"",""好他""]","[""弱他"",""强我"",""弱我"",""强他""]","","","","","","","","","","","","","","","","","[{""page_index"":0,""viewing_time"":12407},{""page_index"":1,""viewing_time"":24276},{""page_index"":2,""viewing_time"":5291},{""page_index"":3,""viewing_time"":1516}]","","","","","","","","","","","","","","","","","","","","",""
"null","","null","psychophysics","10","326058","0.0-8.0-0.0-1.0-0.0-0.0","6","5","7","5","7","4","4","5","5","5","4","-2","-3","1","0","2","2","1","1","4","5","5","4","4","4","5","4","5","4","5","7","6","7","6","8","5","7","6","3","6","1","6","5","7","2","5","6","7","7","6","3","7","6","6","5","7","5","6","3","7","3","3","7","6","5","5","7","7","5","6","7","2","7","5","7","7","5","5","612329083165999104","罗","378","Male","[""坏他"",""好我"",""坏我"",""好他""]","[""弱他"",""强我"",""弱我"",""强他""]","","","","","","","","null","","","","","","","","","","key","null","20.232523364486024","640","356","j","false","nonmatch","img/diamond.png","好他","坏我","prac_ALT2_moral","practice_moral","","","","","","","",""
"null","<span class='add_' style='color:yellow; font-size: 70px;'> 太慢! </span>","null","html-keyboard-response","11","326616","0.0-8.0-0.0-1.0-0.0-1.0","6","5","7","5","7","4","4","5","5","5","4","-2","-3","1","0","2","2","1","1","4","5","5","4","4","4","5","4","5","4","5","7","6","7","6","8","5","7","6","3","6","1","6","5","7","2","5","6","7","7","6","3","7","6","6","5","7","5","6","3","7","3","3","7","6","5","5","7","7","5","6","7","2","7","5","7","7","5","5","612329083165999104","罗","378","Male","[""坏他"",""好我"",""坏我"",""好他""]","[""弱他"",""强我"",""弱我"",""强他""]","","","","","","","","","","","","","","","","","","","","","","","","","","","","","","feedback_test","","","","","","","",""
"882","","j","psychophysics","12","328538","0.0-8.0-0.0-1.0-0.0-0.1","6","5","7","5","7","4","4","5","5","5","4","-2","-3","1","0","2","2","1","1","4","5","5","4","4","4","5","4","5","4","5","7","6","7","6","8","5","7","6","3","6","1","6","5","7","2","5","6","7","7","6","3","7","6","6","5","7","5","6","3","7","3","3","7","6","5","5","7","7","5","6","7","2","7","5","7","7","5","5","612329083165999104","罗","378","Male","[""坏他"",""好我"",""坏我"",""好他""]","[""弱他"",""强我"",""弱我"",""强他""]","","","","","","","","nonmatch","","","","","","","","","","key","j","16.65303571428532","640","356","f","false","match","img/diamond.png","坏我","坏我","prac_ALT2_moral","practice_moral","","","","","","","",""
"null","<span style='color:red; font-size: 70px;'>错误! </span>","null","html-keyboard-response","13","329078","0.0-8.0-0.0-1.0-0.0-1.1","6","5","7","5","7","4","4","5","5","5","4","-2","-3","1","0","2","2","1","1","4","5","5","4","4","4","5","4","5","4","5","7","6","7","6","8","5","7","6","3","6","1","6","5","7","2","5","6","7","7","6","3","7","6","6","5","7","5","6","3","7","3","3","7","6","5","5","7","7","5","6","7","2","7","5","7","7","5","5","612329083165999104","罗","378","Male","[""坏他"",""好我"",""坏我"",""好他""]","[""弱他"",""强我"",""弱我"",""强他""]","","","","","","","","","","","","","","","","","","","","","","","","","","","","","","feedback_test","","","","","","","",""
"1017","","j","psychophysics","14","331108","0.0-8.0-0.0-1.0-0.0-0.2","6","5","7","5","7","4","4","5","5","5","4","-2","-3","1","0","2","2","1","1","4","5","5","4","4","4","5","4","5","4","5","7","6","7","6","8","5","7","6","3","6","1","6","5","7","2","5","6","7","7","6","3","7","6","6","5","7","5","6","3","7","3","3","7","6","5","5","7","7","5","6","7","2","7","5","7","7","5","5","612329083165999104","罗","378","Male","[""坏他"",""好我"",""坏我"",""好他""]","[""弱他"",""强我"",""弱我"",""强他""]","","","","","","","","nonmatch","","","","","","","","","","key","j","16.65099999999996","640","356","j","true","nonmatch","img/hexagon.png","坏我","坏他","prac_ALT2_moral","practice_moral","","","","","","","",""
"null","<span style='color:GreenYellow; font-size: 70px;'>正确! </span>","null","html-keyboard-response","15","331623","0.0-8.0-0.0-1.0-0.0-1.2","6","5","7","5","7","4","4","5","5","5","4","-2","-3","1","0","2","2","1","1","4","5","5","4","4","4","5","4","5","4","5","7","6","7","6","8","5","7","6","3","6","1","6","5","7","2","5","6","7","7","6","3","7","6","6","5","7","5","6","3","7","3","3","7","6","5","5","7","7","5","6","7","2","7","5","7","7","5","5","612329083165999104","罗","378","Male","[""坏他"",""好我"",""坏我"",""好他""]","[""弱他"",""强我"",""弱我"",""强他""]","","","","","","","","","","","","","","","","","","","","","","","","","","","","","","feedback_test","","","","","","","",""
"950","","f","psychophysics","16","333669","0.0-8.0-0.0-1.0-0.0-0.3","6","5","7","5","7","4","4","5","5","5","4","-2","-3","1","0","2","2","1","1","4","5","5","4","4","4","5","4","5","4","5","7","6","7","6","8","5","7","6","3","6","1","6","5","7","2","5","6","7","7","6","3","7","6","6","5","7","5","6","3","7","3","3","7","6","5","5","7","7","5","6","7","2","7","5","7","7","5","5","612329083165999104","罗","378","Male","[""坏他"",""好我"",""坏我"",""好他""]","[""弱他"",""强我"",""弱我"",""强他""]","","","","","","","","match","","","","","","","","","","key","f","16.653057851239822","640","356","f","true","match","img/square.png","好他","好他","prac_ALT2_moral","practice_moral","","","","","","","",""
"null","<span style='color:GreenYellow; font-size: 70px;'>正确! </span>","null","html-keyboard-response","17","334171","0.0-8.0-0.0-1.0-0.0-1.3","6","5","7","5","7","4","4","5","5","5","4","-2","-3","1","0","2","2","1","1","4","5","5","4","4","4","5","4","5","4","5","7","6","7","6","8","5","7","6","3","6","1","6","5","7","2","5","6","7","7","6","3","7","6","6","5","7","5","6","3","7","3","3","7","6","5","5","7","7","5","6","7","2","7","5","7","7","5","5","612329083165999104","罗","378","Male","[""坏他"",""好我"",""坏我"",""好他""]","[""弱他"",""强我"",""弱我"",""强他""]","","","","","","","","","","","","","","","","","","","","","","","","","","","","","","feedback_test","","","","","","","",""
"1019","","j","psychophysics","18","336202","0.0-8.0-0.0-1.0-0.0-0.4","6","5","7","5","7","4","4","5","5","5","4","-2","-3","1","0","2","2","1","1","4","5","5","4","4","4","5","4","5","4","5","7","6","7","6","8","5","7","6","3","6","1","6","5","7","2","5","6","7","7","6","3","7","6","6","5","7","5","6","3","7","3","3","7","6","5","5","7","7","5","6","7","2","7","5","7","7","5","5","612329083165999104","罗","378","Male","[""坏他"",""好我"",""坏我"",""好他""]","[""弱他"",""强我"",""弱我"",""强他""]","","","","","","","","nonmatch","","","","","","","","","","key","j","16.653000000000368","640","356","j","true","nonmatch","img/hexagon.png","好我","坏他","prac_ALT2_moral","practice_moral","","","","","","","",""
"null","<span style='color:GreenYellow; font-size: 70px;'>正确! </span>","null","html-keyboard-response","19","336773","0.0-8.0-0.0-1.0-0.0-1.4","6","5","7","5","7","4","4","5","5","5","4","-2","-3","1","0","2","2","1","1","4","5","5","4","4","4","5","4","5","4","5","7","6","7","6","8","5","7","6","3","6","1","6","5","7","2","5","6","7","7","6","3","7","6","6","5","7","5","6","3","7","3","3","7","6","5","5","7","7","5","6","7","2","7","5","7","7","5","5","612329083165999104","罗","378","Male","[""坏他"",""好我"",""坏我"",""好他""]","[""弱他"",""强我"",""弱我"",""强他""]","","","","","","","","","","","","","","","","","","","","","","","","","","","","","","feedback_test","","","","","","","",""
"937","","f","psychophysics","20","338815","0.0-8.0-0.0-1.0-0.0-0.5","6","5","7","5","7","4","4","5","5","5","4","-2","-3","1","0","2","2","1","1","4","5","5","4","4","4","5","4","5","4","5","7","6","7","6","8","5","7","6","3","6","1","6","5","7","2","5","6","7","7","6","3","7","6","6","5","7","5","6","3","7","3","3","7","6","5","5","7","7","5","6","7","2","7","5","7","7","5","5","612329083165999104","罗","378","Male","[""坏他"",""好我"",""坏我"",""好他""]","[""弱他"",""强我"",""弱我"",""强他""]","","","","","","","","match","","","","","","","","","","key","f","16.652869565217532","640","356","f","true","match","img/square.png","好他","好他","prac_ALT2_moral","practice_moral","","","","","","","",""
"null","<span style='color:GreenYellow; font-size: 70px;'>正确! </span>","null","html-keyboard-response","21","339319","0.0-8.0-0.0-1.0-0.0-1.5","6","5","7","5","7","4","4","5","5","5","4","-2","-3","1","0","2","2","1","1","4","5","5","4","4","4","5","4","5","4","5","7","6","7","6","8","5","7","6","3","6","1","6","5","7","2","5","6","7","7","6","3","7","6","6","5","7","5","6","3","7","3","3","7","6","5","5","7","7","5","6","7","2","7","5","7","7","5","5","612329083165999104","罗","378","Male","[""坏他"",""好我"",""坏我"",""好他""]","[""弱他"",""强我"",""弱我"",""强他""]","","","","","","","","","","","","","","","","","","","","","","","","","","","","","","feedback_test","","","","","","","",""
"863","","j","psychophysics","22","341199","0.0-8.0-0.0-1.0-0.0-0.6","6","5","7","5","7","4","4","5","5","5","4","-2","-3","1","0","2","2","1","1","4","5","5","4","4","4","5","4","5","4","5","7","6","7","6","8","5","7","6","3","6","1","6","5","7","2","5","6","7","7","6","3","7","6","6","5","7","5","6","3","7","3","3","7","6","5","5","7","7","5","6","7","2","7","5","7","7","5","5","612329083165999104","罗","378","Male","[""坏他"",""好我"",""坏我"",""好他""]","[""弱他"",""强我"",""弱我"",""强他""]","","","","","","","","nonmatch","","","","","","","","","","key","j","16.804363636363465","640","356","j","true","nonmatch","img/circle.png","坏他","好我","prac_ALT2_moral","practice_moral","","","","","","","",""
"null","<span style='color:GreenYellow; font-size: 70px;'>正确! </span>","null","html-keyboard-response","23","341707","0.0-8.0-0.0-1.0-0.0-1.6","6","5","7","5","7","4","4","5","5","5","4","-2","-3","1","0","2","2","1","1","4","5","5","4","4","4","5","4","5","4","5","7","6","7","6","8","5","7","6","3","6","1","6","5","7","2","5","6","7","7","6","3","7","6","6","5","7","5","6","3","7","3","3","7","6","5","5","7","7","5","6","7","2","7","5","7","7","5","5","612329083165999104","罗","378","Male","[""坏他"",""好我"",""坏我"",""好他""]","[""弱他"",""强我"",""弱我"",""强他""]","","","","","","","","","","","","","","","","","","","","","","","","","","","","","","feedback_test","","","","","","","",""
"1072","","j","psychophysics","24","343798","0.0-8.0-0.0-1.0-0.0-0.7","6","5","7","5","7","4","4","5","5","5","4","-2","-3","1","0","2","2","1","1","4","5","5","4","4","4","5","4","5","4","5","7","6","7","6","8","5","7","6","3","6","1","6","5","7","2","5","6","7","7","6","3","7","6","6","5","7","5","6","3","7","3","3","7","6","5","5","7","7","5","6","7","2","7","5","7","7","5","5","612329083165999104","罗","378","Male","[""坏他"",""好我"",""坏我"",""好他""]","[""弱他"",""强我"",""弱我"",""强他""]","","","","","","","","nonmatch","","","","","","","","","","key","j","16.65112903225799","640","356","j","true","nonmatch","img/circle.png","坏我","好我","prac_ALT2_moral","practice_moral","","","","","","","",""
"null","<span style='color:GreenYellow; font-size: 70px;'>正确! </span>","null","html-keyboard-response","25","344369","0.0-8.0-0.0-1.0-0.0-1.7","6","5","7","5","7","4","4","5","5","5","4","-2","-3","1","0","2","2","1","1","4","5","5","4","4","4","5","4","5","4","5","7","6","7","6","8","5","7","6","3","6","1","6","5","7","2","5","6","7","7","6","3","7","6","6","5","7","5","6","3","7","3","3","7","6","5","5","7","7","5","6","7","2","7","5","7","7","5","5","612329083165999104","罗","378","Male","[""坏他"",""好我"",""坏我"",""好他""]","[""弱他"",""强我"",""弱我"",""强他""]","","","","","","","","","","","","","","","","","","","","","","","","","","","","","","feedback_test","","","","","","","",""
"836","","j","psychophysics","26","346223","0.0-8.0-0.0-1.0-0.0-0.8","6","5","7","5","7","4","4","5","5","5","4","-2","-3","1","0","2","2","1","1","4","5","5","4","4","4","5","4","5","4","5","7","6","7","6","8","5","7","6","3","6","1","6","5","7","2","5","6","7","7","6","3","7","6","6","5","7","5","6","3","7","3","3","7","6","5","5","7","7","5","6","7","2","7","5","7","7","5","5","612329083165999104","罗","378","Male","[""坏他"",""好我"",""坏我"",""好他""]","[""弱他"",""强我"",""弱我"",""强他""]","","","","","","","","nonmatch","","","","","","","","","","key","j","18.136831683168385","640","356","j","true","nonmatch","img/square.png","好我","好他","prac_ALT2_moral","practice_moral","","","","","","","",""
"null","<span style='color:GreenYellow; font-size: 70px;'>正确! </span>","null","html-keyboard-response","27","346727","0.0-8.0-0.0-1.0-0.0-1.8","6","5","7","5","7","4","4","5","5","5","4","-2","-3","1","0","2","2","1","1","4","5","5","4","4","4","5","4","5","4","5","7","6","7","6","8","5","7","6","3","6","1","6","5","7","2","5","6","7","7","6","3","7","6","6","5","7","5","6","3","7","3","3","7","6","5","5","7","7","5","6","7","2","7","5","7","7","5","5","612329083165999104","罗","378","Male","[""坏他"",""好我"",""坏我"",""好他""]","[""弱他"",""强我"",""弱我"",""强他""]","","","","","","","","","","","","","","","","","","","","","","","","","","","","","","feedback_test","","","","","","","",""
"803","","f","psychophysics","28","348544","0.0-8.0-0.0-1.0-0.0-0.9","6","5","7","5","7","4","4","5","5","5","4","-2","-3","1","0","2","2","1","1","4","5","5","4","4","4","5","4","5","4","5","7","6","7","6","8","5","7","6","3","6","1","6","5","7","2","5","6","7","7","6","3","7","6","6","5","7","5","6","3","7","3","3","7","6","5","5","7","7","5","6","7","2","7","5","7","7","5","5","612329083165999104","罗","378","Male","[""坏他"",""好我"",""坏我"",""好他""]","[""弱他"",""强我"",""弱我"",""强他""]","","","","","","","","match","","","","","","","","","","key","f","16.653084112149575","640","356","f","true","match","img/square.png","好他","好他","prac_ALT2_moral","practice_moral","","","","","","","",""
"null","<span style='color:GreenYellow; font-size: 70px;'>正确! </span>","null","html-keyboard-response","29","349061","0.0-8.0-0.0-1.0-0.0-1.9","6","5","7","5","7","4","4","5","5","5","4","-2","-3","1","0","2","2","1","1","4","5","5","4","4","4","5","4","5","4","5","7","6","7","6","8","5","7","6","3","6","1","6","5","7","2","5","6","7","7","6","3","7","6","6","5","7","5","6","3","7","3","3","7","6","5","5","7","7","5","6","7","2","7","5","7","7","5","5","612329083165999104","罗","378","Male","[""坏他"",""好我"",""坏我"",""好他""]","[""弱他"",""强我"",""弱我"",""强他""]","","","","","","","","","","","","","","","","","","","","","","","","","","","","","","feedback_test","","","","","","","",""
"895","","f","psychophysics","30","350969","0.0-8.0-0.0-1.0-0.0-0.10","6","5","7","5","7","4","4","5","5","5","4","-2","-3","1","0","2","2","1","1","4","5","5","4","4","4","5","4","5","4","5","7","6","7","6","8","5","7","6","3","6","1","6","5","7","2","5","6","7","7","6","3","7","6","6","5","7","5","6","3","7","3","3","7","6","5","5","7","7","5","6","7","2","7","5","7","7","5","5","612329083165999104","罗","378","Male","[""坏他"",""好我"",""坏我"",""好他""]","[""弱他"",""强我"",""弱我"",""强他""]","","","","","","","","match","","","","","","","","","","key","f","18.26951456310689","640","356","f","true","match","img/circle.png","好我","好我","prac_ALT2_moral","practice_moral","","","","","","","",""
"null","<span style='color:GreenYellow; font-size: 70px;'>正确! </span>","null","html-keyboard-response","31","351472","0.0-8.0-0.0-1.0-0.0-1.10","6","5","7","5","7","4","4","5","5","5","4","-2","-3","1","0","2","2","1","1","4","5","5","4","4","4","5","4","5","4","5","7","6","7","6","8","5","7","6","3","6","1","6","5","7","2","5","6","7","7","6","3","7","6","6","5","7","5","6","3","7","3","3","7","6","5","5","7","7","5","6","7","2","7","5","7","7","5","5","612329083165999104","罗","378","Male","[""坏他"",""好我"",""坏我"",""好他""]","[""弱他"",""强我"",""弱我"",""强他""]","","","","","","","","","","","","","","","","","","","","","","","","","","","","","","feedback_test","","","","","","","",""
"966","","f","psychophysics","32","353443","0.0-8.0-0.0-1.0-0.0-0.11","6","5","7","5","7","4","4","5","5","5","4","-2","-3","1","0","2","2","1","1","4","5","5","4","4","4","5","4","5","4","5","7","6","7","6","8","5","7","6","3","6","1","6","5","7","2","5","6","7","7","6","3","7","6","6","5","7","5","6","3","7","3","3","7","6","5","5","7","7","5","6","7","2","7","5","7","7","5","5","612329083165999104","罗","378","Male","[""坏他"",""好我"",""坏我"",""好他""]","[""弱他"",""强我"",""弱我"",""强他""]","","","","","","","","match","","","","","","","","","","key","f","16.652931034482677","640","356","f","true","match","img/diamond.png","坏我","坏我","prac_ALT2_moral","practice_moral","","","","","","","",""
"null","<span style='color:GreenYellow; font-size: 70px;'>正确! </span>","null","html-keyboard-response","33","353953","0.0-8.0-0.0-1.0-0.0-1.11","6","5","7","5","7","4","4","5","5","5","4","-2","-3","1","0","2","2","1","1","4","5","5","4","4","4","5","4","5","4","5","7","6","7","6","8","5","7","6","3","6","1","6","5","7","2","5","6","7","7","6","3","7","6","6","5","7","5","6","3","7","3","3","7","6","5","5","7","7","5","6","7","2","7","5","7","7","5","5","612329083165999104","罗","378","Male","[""坏他"",""好我"",""坏我"",""好他""]","[""弱他"",""强我"",""弱我"",""强他""]","","","","","","","","","","","","","","","","","","","","","","","","","","","","","","feedback_test","","","","","","","",""
"776","","j","psychophysics","34","355739","0.0-8.0-0.0-1.0-0.0-0.12","6","5","7","5","7","4","4","5","5","5","4","-2","-3","1","0","2","2","1","1","4","5","5","4","4","4","5","4","5","4","5","7","6","7","6","8","5","7","6","3","6","1","6","5","7","2","5","6","7","7","6","3","7","6","6","5","7","5","6","3","7","3","3","7","6","5","5","7","7","5","6","7","2","7","5","7","7","5","5","612329083165999104","罗","378","Male","[""坏他"",""好我"",""坏我"",""好他""]","[""弱他"",""强我"",""弱我"",""强他""]","","","","","","","","nonmatch","","","","","","","","","","key","j","16.65295238095236","640","356","j","true","nonmatch","img/square.png","坏我","好他","prac_ALT2_moral","practice_moral","","","","","","","",""
"null","<span style='color:GreenYellow; font-size: 70px;'>正确! </span>","null","html-keyboard-response","35","356242","0.0-8.0-0.0-1.0-0.0-1.12","6","5","7","5","7","4","4","5","5","5","4","-2","-3","1","0","2","2","1","1","4","5","5","4","4","4","5","4","5","4","5","7","6","7","6","8","5","7","6","3","6","1","6","5","7","2","5","6","7","7","6","3","7","6","6","5","7","5","6","3","7","3","3","7","6","5","5","7","7","5","6","7","2","7","5","7","7","5","5","612329083165999104","罗","378","Male","[""坏他"",""好我"",""坏我"",""好他""]","[""弱他"",""强我"",""弱我"",""强他""]","","","","","","","","","","","","","","","","","","","","","","","","","","","","","","feedback_test","","","","","","","",""
"857","","j","psychophysics","36","358120","0.0-8.0-0.0-1.0-0.0-0.13","6","5","7","5","7","4","4","5","5","5","4","-2","-3","1","0","2","2","1","1","4","5","5","4","4","4","5","4","5","4","5","7","6","7","6","8","5","7","6","3","6","1","6","5","7","2","5","6","7","7","6","3","7","6","6","5","7","5","6","3","7","3","3","7","6","5","5","7","7","5","6","7","2","7","5","7","7","5","5","612329083165999104","罗","378","Male","[""坏他"",""好我"",""坏我"",""好他""]","[""弱他"",""强我"",""弱我"",""强他""]","","","","","","","","nonmatch","","","","","","","","","","key","j","16.652432432432285","640","356","j","true","nonmatch","img/diamond.png","坏他","坏我","prac_ALT2_moral","practice_moral","","","","","","","",""
"null","<span style='color:GreenYellow; font-size: 70px;'>正确! </span>","null","html-keyboard-response","37","358623","0.0-8.0-0.0-1.0-0.0-1.13","6","5","7","5","7","4","4","5","5","5","4","-2","-3","1","0","2","2","1","1","4","5","5","4","4","4","5","4","5","4","5","7","6","7","6","8","5","7","6","3","6","1","6","5","7","2","5","6","7","7","6","3","7","6","6","5","7","5","6","3","7","3","3","7","6","5","5","7","7","5","6","7","2","7","5","7","7","5","5","612329083165999104","罗","378","Male","[""坏他"",""好我"",""坏我"",""好他""]","[""弱他"",""强我"",""弱我"",""强他""]","","","","","","","","","","","","","","","","","","","","","","","","","","","","","","feedback_test","","","","","","","",""
"811","","j","psychophysics","38","360445","0.0-8.0-0.0-1.0-0.0-0.14","6","5","7","5","7","4","4","5","5","5","4","-2","-3","1","0","2","2","1","1","4","5","5","4","4","4","5","4","5","4","5","7","6","7","6","8","5","7","6","3","6","1","6","5","7","2","5","6","7","7","6","3","7","6","6","5","7","5","6","3","7","3","3","7","6","5","5","7","7","5","6","7","2","7","5","7","7","5","5","612329083165999104","罗","378","Male","[""坏他"",""好我"",""坏我"",""好他""]","[""弱他"",""强我"",""弱我"",""强他""]","","","","","","","","nonmatch","","","","","","","","","","key","j","16.652962962963134","640","356","j","true","nonmatch","img/circle.png","好他","好我","prac_ALT2_moral","practice_moral","","","","","","","",""
"null","<span style='color:GreenYellow; font-size: 70px;'>正确! </span>","null","html-keyboard-response","39","360955","0.0-8.0-0.0-1.0-0.0-1.14","6","5","7","5","7","4","4","5","5","5","4","-2","-3","1","0","2","2","1","1","4","5","5","4","4","4","5","4","5","4","5","7","6","7","6","8","5","7","6","3","6","1","6","5","7","2","5","6","7","7","6","3","7","6","6","5","7","5","6","3","7","3","3","7","6","5","5","7","7","5","6","7","2","7","5","7","7","5","5","612329083165999104","罗","378","Male","[""坏他"",""好我"",""坏我"",""好他""]","[""弱他"",""强我"",""弱我"",""强他""]","","","","","","","","","","","","","","","","","","","","","","","","","","","","","","feedback_test","","","","","","","",""
"820","","j","psychophysics","40","362795","0.0-8.0-0.0-1.0-0.0-0.15","6","5","7","5","7","4","4","5","5","5","4","-2","-3","1","0","2","2","1","1","4","5","5","4","4","4","5","4","5","4","5","7","6","7","6","8","5","7","6","3","6","1","6","5","7","2","5","6","7","7","6","3","7","6","6","5","7","5","6","3","7","3","3","7","6","5","5","7","7","5","6","7","2","7","5","7","7","5","5","612329083165999104","罗","378","Male","[""坏他"",""好我"",""坏我"",""好他""]","[""弱他"",""强我"",""弱我"",""强他""]","","","","","","","","nonmatch","","","","","","","","","","key","j","16.652660550458844","640","356","f","false","match","img/diamond.png","坏我","坏我","prac_ALT2_moral","practice_moral","","","","","","","",""
"null","<span style='color:red; font-size: 70px;'>错误! </span>","null","html-keyboard-response","41","363304","0.0-8.0-0.0-1.0-0.0-1.15","6","5","7","5","7","4","4","5","5","5","4","-2","-3","1","0","2","2","1","1","4","5","5","4","4","4","5","4","5","4","5","7","6","7","6","8","5","7","6","3","6","1","6","5","7","2","5","6","7","7","6","3","7","6","6","5","7","5","6","3","7","3","3","7","6","5","5","7","7","5","6","7","2","7","5","7","7","5","5","612329083165999104","罗","378","Male","[""坏他"",""好我"",""坏我"",""好他""]","[""弱他"",""强我"",""弱我"",""强他""]","","","","","","","","","","","","","","","","","","","","","","","","","","","","","","feedback_test","","","","","","","",""
"873","","j","psychophysics","42","365181","0.0-8.0-0.0-1.0-0.0-0.16","6","5","7","5","7","4","4","5","5","5","4","-2","-3","1","0","2","2","1","1","4","5","5","4","4","4","5","4","5","4","5","7","6","7","6","8","5","7","6","3","6","1","6","5","7","2","5","6","7","7","6","3","7","6","6","5","7","5","6","3","7","3","3","7","6","5","5","7","7","5","6","7","2","7","5","7","7","5","5","612329083165999104","罗","378","Male","[""坏他"",""好我"",""坏我"",""好他""]","[""弱他"",""强我"",""弱我"",""强他""]","","","","","","","","nonmatch","","","","","","","","","","key","j","16.553571428571427","640","356","j","true","nonmatch","img/hexagon.png","好他","坏他","prac_ALT2_moral","practice_moral","","","","","","","",""
"null","<span style='color:GreenYellow; font-size: 70px;'>正确! </span>","null","html-keyboard-response","43","365695","0.0-8.0-0.0-1.0-0.0-1.16","6","5","7","5","7","4","4","5","5","5","4","-2","-3","1","0","2","2","1","1","4","5","5","4","4","4","5","4","5","4","5","7","6","7","6","8","5","7","6","3","6","1","6","5","7","2","5","6","7","7","6","3","7","6","6","5","7","5","6","3","7","3","3","7","6","5","5","7","7","5","6","7","2","7","5","7","7","5","5","612329083165999104","罗","378","Male","[""坏他"",""好我"",""坏我"",""好他""]","[""弱他"",""强我"",""弱我"",""强他""]","","","","","","","","","","","","","","","","","","","","","","","","","","","","","","feedback_test","","","","","","","",""
"992","","f","psychophysics","44","367698","0.0-8.0-0.0-1.0-0.0-0.17","6","5","7","5","7","4","4","5","5","5","4","-2","-3","1","0","2","2","1","1","4","5","5","4","4","4","5","4","5","4","5","7","6","7","6","8","5","7","6","3","6","1","6","5","7","2","5","6","7","7","6","3","7","6","6","5","7","5","6","3","7","3","3","7","6","5","5","7","7","5","6","7","2","7","5","7","7","5","5","612329083165999104","罗","378","Male","[""坏他"",""好我"",""坏我"",""好他""]","[""弱他"",""强我"",""弱我"",""强他""]","","","","","","","","match","","","","","","","","","","key","f","16.652881355932024","640","356","f","true","match","img/hexagon.png","坏他","坏他","prac_ALT2_moral","practice_moral","","","","","","","",""
"null","<span style='color:GreenYellow; font-size: 70px;'>正确! </span>","null","html-keyboard-response","45","368203","0.0-8.0-0.0-1.0-0.0-1.17","6","5","7","5","7","4","4","5","5","5","4","-2","-3","1","0","2","2","1","1","4","5","5","4","4","4","5","4","5","4","5","7","6","7","6","8","5","7","6","3","6","1","6","5","7","2","5","6","7","7","6","3","7","6","6","5","7","5","6","3","7","3","3","7","6","5","5","7","7","5","6","7","2","7","5","7","7","5","5","612329083165999104","罗","378","Male","[""坏他"",""好我"",""坏我"",""好他""]","[""弱他"",""强我"",""弱我"",""强他""]","","","","","","","","","","","","","","","","","","","","","","","","","","","","","","feedback_test","","","","","","","",""
"820","","f","psychophysics","46","370040","0.0-8.0-0.0-1.0-0.0-0.18","6","5","7","5","7","4","4","5","5","5","4","-2","-3","1","0","2","2","1","1","4","5","5","4","4","4","5","4","5","4","5","7","6","7","6","8","5","7","6","3","6","1","6","5","7","2","5","6","7","7","6","3","7","6","6","5","7","5","6","3","7","3","3","7","6","5","5","7","7","5","6","7","2","7","5","7","7","5","5","612329083165999104","罗","378","Male","[""坏他"",""好我"",""坏我"",""好他""]","[""弱他"",""强我"",""弱我"",""强他""]","","","","","","","","match","","","","","","","","","","key","f","16.65027522935784","640","356","f","true","match","img/circle.png","好我","好我","prac_ALT2_moral","practice_moral","","","","","","","",""
"null","<span style='color:GreenYellow; font-size: 70px;'>正确! </span>","null","html-keyboard-response","47","370553","0.0-8.0-0.0-1.0-0.0-1.18","6","5","7","5","7","4","4","5","5","5","4","-2","-3","1","0","2","2","1","1","4","5","5","4","4","4","5","4","5","4","5","7","6","7","6","8","5","7","6","3","6","1","6","5","7","2","5","6","7","7","6","3","7","6","6","5","7","5","6","3","7","3","3","7","6","5","5","7","7","5","6","7","2","7","5","7","7","5","5","612329083165999104","罗","378","Male","[""坏他"",""好我"",""坏我"",""好他""]","[""弱他"",""强我"",""弱我"",""强他""]","","","","","","","","","","","","","","","","","","","","","","","","","","","","","","feedback_test","","","","","","","",""
"851","","f","psychophysics","48","372417","0.0-8.0-0.0-1.0-0.0-0.19","6","5","7","5","7","4","4","5","5","5","4","-2","-3","1","0","2","2","1","1","4","5","5","4","4","4","5","4","5","4","5","7","6","7","6","8","5","7","6","3","6","1","6","5","7","2","5","6","7","7","6","3","7","6","6","5","7","5","6","3","7","3","3","7","6","5","5","7","7","5","6","7","2","7","5","7","7","5","5","612329083165999104","罗","378","Male","[""坏他"",""好我"",""坏我"",""好他""]","[""弱他"",""强我"",""弱我"",""强他""]","","","","","","","","match","","","","","","","","","","key","f","16.652432432432285","640","356","f","true","match","img/circle.png","好我","好我","prac_ALT2_moral","practice_moral","","","","","","","",""
"null","<span style='color:GreenYellow; font-size: 70px;'>正确! </span>","null","html-keyboard-response","49","372924","0.0-8.0-0.0-1.0-0.0-1.19","6","5","7","5","7","4","4","5","5","5","4","-2","-3","1","0","2","2","1","1","4","5","5","4","4","4","5","4","5","4","5","7","6","7","6","8","5","7","6","3","6","1","6","5","7","2","5","6","7","7","6","3","7","6","6","5","7","5","6","3","7","3","3","7","6","5","5","7","7","5","6","7","2","7","5","7","7","5","5","612329083165999104","罗","378","Male","[""坏他"",""好我"",""坏我"",""好他""]","[""弱他"",""强我"",""弱我"",""强他""]","","","","","","","","","","","","","","","","","","","","","","","","","","","","","","feedback_test","","","","","","","",""
"899","","j","psychophysics","50","374834","0.0-8.0-0.0-1.0-0.0-0.20","6","5","7","5","7","4","4","5","5","5","4","-2","-3","1","0","2","2","1","1","4","5","5","4","4","4","5","4","5","4","5","7","6","7","6","8","5","7","6","3","6","1","6","5","7","2","5","6","7","7","6","3","7","6","6","5","7","5","6","3","7","3","3","7","6","5","5","7","7","5","6","7","2","7","5","7","7","5","5","612329083165999104","罗","378","Male","[""坏他"",""好我"",""坏我"",""好他""]","[""弱他"",""强我"",""弱我"",""强他""]","","","","","","","","nonmatch","","","","","","","","","","key","j","16.652920353982548","640","356","f","false","match","img/hexagon.png","坏他","坏他","prac_ALT2_moral","practice_moral","","","","","","","",""
"null","<span style='color:red; font-size: 70px;'>错误! </span>","null","html-keyboard-response","51","375340","0.0-8.0-0.0-1.0-0.0-1.20","6","5","7","5","7","4","4","5","5","5","4","-2","-3","1","0","2","2","1","1","4","5","5","4","4","4","5","4","5","4","5","7","6","7","6","8","5","7","6","3","6","1","6","5","7","2","5","6","7","7","6","3","7","6","6","5","7","5","6","3","7","3","3","7","6","5","5","7","7","5","6","7","2","7","5","7","7","5","5","612329083165999104","罗","378","Male","[""坏他"",""好我"",""坏我"",""好他""]","[""弱他"",""强我"",""弱我"",""强他""]","","","","","","","","","","","","","","","","","","","","","","","","","","","","","","feedback_test","","","","","","","",""
"956","","f","psychophysics","52","377370","0.0-8.0-0.0-1.0-0.0-0.21","6","5","7","5","7","4","4","5","5","5","4","-2","-3","1","0","2","2","1","1","4","5","5","4","4","4","5","4","5","4","5","7","6","7","6","8","5","7","6","3","6","1","6","5","7","2","5","6","7","7","6","3","7","6","6","5","7","5","6","3","7","3","3","7","6","5","5","7","7","5","6","7","2","7","5","7","7","5","5","612329083165999104","罗","378","Male","[""坏他"",""好我"",""坏我"",""好他""]","[""弱他"",""强我"",""弱我"",""强他""]","","","","","","","","match","","","","","","","","","","key","f","16.652999999999885","640","356","j","false","nonmatch","img/diamond.png","好我","坏我","prac_ALT2_moral","practice_moral","","","","","","","",""
"null","<span style='color:red; font-size: 70px;'>错误! </span>","null","html-keyboard-response","53","377881","0.0-8.0-0.0-1.0-0.0-1.21","6","5","7","5","7","4","4","5","5","5","4","-2","-3","1","0","2","2","1","1","4","5","5","4","4","4","5","4","5","4","5","7","6","7","6","8","5","7","6","3","6","1","6","5","7","2","5","6","7","7","6","3","7","6","6","5","7","5","6","3","7","3","3","7","6","5","5","7","7","5","6","7","2","7","5","7","7","5","5","612329083165999104","罗","378","Male","[""坏他"",""好我"",""坏我"",""好他""]","[""弱他"",""强我"",""弱我"",""强他""]","","","","","","","","","","","","","","","","","","","","","","","","","","","","","","feedback_test","","","","","","","",""
"679","","j","psychophysics","54","379563","0.0-8.0-0.0-1.0-0.0-0.22","6","5","7","5","7","4","4","5","5","5","4","-2","-3","1","0","2","2","1","1","4","5","5","4","4","4","5","4","5","4","5","7","6","7","6","8","5","7","6","3","6","1","6","5","7","2","5","6","7","7","6","3","7","6","6","5","7","5","6","3","7","3","3","7","6","5","5","7","7","5","6","7","2","7","5","7","7","5","5","612329083165999104","罗","378","Male","[""坏他"",""好我"",""坏我"",""好他""]","[""弱他"",""强我"",""弱我"",""强他""]","","","","","","","","nonmatch","","","","","","","","","","key","j","16.64540000000037","640","356","j","true","nonmatch","img/square.png","坏他","好他","prac_ALT2_moral","practice_moral","","","","","","","",""
"null","<span style='color:GreenYellow; font-size: 70px;'>正确! </span>","null","html-keyboard-response","55","380076","0.0-8.0-0.0-1.0-0.0-1.22","6","5","7","5","7","4","4","5","5","5","4","-2","-3","1","0","2","2","1","1","4","5","5","4","4","4","5","4","5","4","5","7","6","7","6","8","5","7","6","3","6","1","6","5","7","2","5","6","7","7","6","3","7","6","6","5","7","5","6","3","7","3","3","7","6","5","5","7","7","5","6","7","2","7","5","7","7","5","5","612329083165999104","罗","378","Male","[""坏他"",""好我"",""坏我"",""好他""]","[""弱他"",""强我"",""弱我"",""强他""]","","","","","","","","","","","","","","","","","","","","","","","","","","","","","","feedback_test","","","","","","","",""
"815","","f","psychophysics","56","381894","0.0-8.0-0.0-1.0-0.0-0.23","6","5","7","5","7","4","4","5","5","5","4","-2","-3","1","0","2","2","1","1","4","5","5","4","4","4","5","4","5","4","5","7","6","7","6","8","5","7","6","3","6","1","6","5","7","2","5","6","7","7","6","3","7","6","6","5","7","5","6","3","7","3","3","7","6","5","5","7","7","5","6","7","2","7","5","7","7","5","5","612329083165999104","罗","378","Male","[""坏他"",""好我"",""坏我"",""好他""]","[""弱他"",""强我"",""弱我"",""强他""]","","","","","","","","match","","","","","","","","","","key","f","16.65166666666671","640","356","f","true","match","img/hexagon.png","坏他","坏他","prac_ALT2_moral","practice_moral","","","","","","","",""
"null","<span style='color:GreenYellow; font-size: 70px;'>正确! </span>","null","html-keyboard-response","57","382426","0.0-8.0-0.0-1.0-0.0-1.23","6","5","7","5","7","4","4","5","5","5","4","-2","-3","1","0","2","2","1","1","4","5","5","4","4","4","5","4","5","4","5","7","6","7","6","8","5","7","6","3","6","1","6","5","7","2","5","6","7","7","6","3","7","6","6","5","7","5","6","3","7","3","3","7","6","5","5","7","7","5","6","7","2","7","5","7","7","5","5","612329083165999104","罗","378","Male","[""坏他"",""好我"",""坏我"",""好他""]","[""弱他"",""强我"",""弱我"",""强他""]","","","","","","","","","","","","","","","","","","","","","","","","","","","","","","feedback_test","","","","","","","",""
"832","","f","psychophysics","58","384339","0.0-8.0-0.0-1.0-0.0-0.24","6","5","7","5","7","4","4","5","5","5","4","-2","-3","1","0","2","2","1","1","4","5","5","4","4","4","5","4","5","4","5","7","6","7","6","8","5","7","6","3","6","1","6","5","7","2","5","6","7","7","6","3","7","6","6","5","7","5","6","3","7","3","3","7","6","5","5","7","7","5","6","7","2","7","5","7","7","5","5","612329083165999104","罗","378","Male","[""坏他"",""好我"",""坏我"",""好他""]","[""弱他"",""强我"",""弱我"",""强他""]","","","","","","","","match","","","","","","","","","","key","f","16.6528571428571","640","356","f","true","match","img/square.png","好他","好他","prac_ALT2_moral","practice_moral","","","","","","","",""
"null","<span style='color:GreenYellow; font-size: 70px;'>正确! </span>","null","html-keyboard-response","59","384851","0.0-8.0-0.0-1.0-0.0-1.24","6","5","7","5","7","4","4","5","5","5","4","-2","-3","1","0","2","2","1","1","4","5","5","4","4","4","5","4","5","4","5","7","6","7","6","8","5","7","6","3","6","1","6","5","7","2","5","6","7","7","6","3","7","6","6","5","7","5","6","3","7","3","3","7","6","5","5","7","7","5","6","7","2","7","5","7","7","5","5","612329083165999104","罗","378","Male","[""坏他"",""好我"",""坏我"",""好他""]","[""弱他"",""强我"",""弱我"",""强他""]","","","","","","","","","","","","","","","","","","","","","","","","","","","","","","feedback_test","","","","","","","",""
"834","","f","psychophysics","60","386774","0.0-8.0-0.0-1.0-0.0-0.25","6","5","7","5","7","4","4","5","5","5","4","-2","-3","1","0","2","2","1","1","4","5","5","4","4","4","5","4","5","4","5","7","6","7","6","8","5","7","6","3","6","1","6","5","7","2","5","6","7","7","6","3","7","6","6","5","7","5","6","3","7","3","3","7","6","5","5","7","7","5","6","7","2","7","5","7","7","5","5","612329083165999104","罗","378","Male","[""坏他"",""好我"",""坏我"",""好他""]","[""弱他"",""强我"",""弱我"",""强他""]","","","","","","","","match","","","","","","","","","","key","f","16.65298245614037","640","356","j","false","nonmatch","img/hexagon.png","好他","坏他","prac_ALT2_moral","practice_moral","","","","","","","",""
"null","<span style='color:red; font-size: 70px;'>错误! </span>","null","html-keyboard-response","61","387288","0.0-8.0-0.0-1.0-0.0-1.25","6","5","7","5","7","4","4","5","5","5","4","-2","-3","1","0","2","2","1","1","4","5","5","4","4","4","5","4","5","4","5","7","6","7","6","8","5","7","6","3","6","1","6","5","7","2","5","6","7","7","6","3","7","6","6","5","7","5","6","3","7","3","3","7","6","5","5","7","7","5","6","7","2","7","5","7","7","5","5","612329083165999104","罗","378","Male","[""坏他"",""好我"",""坏我"",""好他""]","[""弱他"",""强我"",""弱我"",""强他""]","","","","","","","","","","","","","","","","","","","","","","","","","","","","","","feedback_test","","","","","","","",""
"874","","f","psychophysics","62","389245","0.0-8.0-0.0-1.0-0.0-0.26","6","5","7","5","7","4","4","5","5","5","4","-2","-3","1","0","2","2","1","1","4","5","5","4","4","4","5","4","5","4","5","7","6","7","6","8","5","7","6","3","6","1","6","5","7","2","5","6","7","7","6","3","7","6","6","5","7","5","6","3","7","3","3","7","6","5","5","7","7","5","6","7","2","7","5","7","7","5","5","612329083165999104","罗","378","Male","[""坏他"",""好我"",""坏我"",""好他""]","[""弱他"",""强我"",""弱我"",""强他""]","","","","","","","","match","","","","","","","","","","key","f","16.650689655172254","640","356","f","true","match","img/hexagon.png","坏他","坏他","prac_ALT2_moral","practice_moral","","","","","","","",""
"null","<span style='color:GreenYellow; font-size: 70px;'>正确! </span>","null","html-keyboard-response","63","389761","0.0-8.0-0.0-1.0-0.0-1.26","6","5","7","5","7","4","4","5","5","5","4","-2","-3","1","0","2","2","1","1","4","5","5","4","4","4","5","4","5","4","5","7","6","7","6","8","5","7","6","3","6","1","6","5","7","2","5","6","7","7","6","3","7","6","6","5","7","5","6","3","7","3","3","7","6","5","5","7","7","5","6","7","2","7","5","7","7","5","5","612329083165999104","罗","378","Male","[""坏他"",""好我"",""坏我"",""好他""]","[""弱他"",""强我"",""弱我"",""强他""]","","","","","","","","","","","","","","","","","","","","","","","","","","","","","","feedback_test","","","","","","","",""
"960","","j","psychophysics","64","391726","0.0-8.0-0.0-1.0-0.0-0.27","6","5","7","5","7","4","4","5","5","5","4","-2","-3","1","0","2","2","1","1","4","5","5","4","4","4","5","4","5","4","5","7","6","7","6","8","5","7","6","3","6","1","6","5","7","2","5","6","7","7","6","3","7","6","6","5","7","5","6","3","7","3","3","7","6","5","5","7","7","5","6","7","2","7","5","7","7","5","5","612329083165999104","罗","378","Male","[""坏他"",""好我"",""坏我"",""好他""]","[""弱他"",""强我"",""弱我"",""强他""]","","","","","","","","nonmatch","","","","","","","","","","key","j","16.652758620689415","640","356","j","true","nonmatch","img/square.png","好我","好他","prac_ALT2_moral","practice_moral","","","","","","","",""
"null","<span style='color:GreenYellow; font-size: 70px;'>正确! </span>","null","html-keyboard-response","65","392236","0.0-8.0-0.0-1.0-0.0-1.27","6","5","7","5","7","4","4","5","5","5","4","-2","-3","1","0","2","2","1","1","4","5","5","4","4","4","5","4","5","4","5","7","6","7","6","8","5","7","6","3","6","1","6","5","7","2","5","6","7","7","6","3","7","6","6","5","7","5","6","3","7","3","3","7","6","5","5","7","7","5","6","7","2","7","5","7","7","5","5","612329083165999104","罗","378","Male","[""坏他"",""好我"",""坏我"",""好他""]","[""弱他"",""强我"",""弱我"",""强他""]","","","","","","","","","","","","","","","","","","","","","","","","","","","","","","feedback_test","","","","","","","",""
"827","","j","psychophysics","66","394101","0.0-8.0-0.0-1.0-0.0-0.28","6","5","7","5","7","4","4","5","5","5","4","-2","-3","1","0","2","2","1","1","4","5","5","4","4","4","5","4","5","4","5","7","6","7","6","8","5","7","6","3","6","1","6","5","7","2","5","6","7","7","6","3","7","6","6","5","7","5","6","3","7","3","3","7","6","5","5","7","7","5","6","7","2","7","5","7","7","5","5","612329083165999104","罗","378","Male","[""坏他"",""好我"",""坏我"",""好他""]","[""弱他"",""强我"",""弱我"",""强他""]","","","","","","","","nonmatch","","","","","","","","","","key","j","16.652972972972805","640","356","j","true","nonmatch","img/square.png","坏我","好他","prac_ALT2_moral","practice_moral","","","","","","","",""
"null","<span style='color:GreenYellow; font-size: 70px;'>正确! </span>","null","html-keyboard-response","67","394606","0.0-8.0-0.0-1.0-0.0-1.28","6","5","7","5","7","4","4","5","5","5","4","-2","-3","1","0","2","2","1","1","4","5","5","4","4","4","5","4","5","4","5","7","6","7","6","8","5","7","6","3","6","1","6","5","7","2","5","6","7","7","6","3","7","6","6","5","7","5","6","3","7","3","3","7","6","5","5","7","7","5","6","7","2","7","5","7","7","5","5","612329083165999104","罗","378","Male","[""坏他"",""好我"",""坏我"",""好他""]","[""弱他"",""强我"",""弱我"",""强他""]","","","","","","","","","","","","","","","","","","","","","","","","","","","","","","feedback_test","","","","","","","",""
"697","","f","psychophysics","68","396315","0.0-8.0-0.0-1.0-0.0-0.29","6","5","7","5","7","4","4","5","5","5","4","-2","-3","1","0","2","2","1","1","4","5","5","4","4","4","5","4","5","4","5","7","6","7","6","8","5","7","6","3","6","1","6","5","7","2","5","6","7","7","6","3","7","6","6","5","7","5","6","3","7","3","3","7","6","5","5","7","7","5","6","7","2","7","5","7","7","5","5","612329083165999104","罗","378","Male","[""坏他"",""好我"",""坏我"",""好他""]","[""弱他"",""强我"",""弱我"",""强他""]","","","","","","","","match","","","","","","","","","","key","f","16.652871287128736","640","356","f","true","match","img/hexagon.png","坏他","坏他","prac_ALT2_moral","practice_moral","","","","","","","",""
"null","<span style='color:GreenYellow; font-size: 70px;'>正确! </span>","null","html-keyboard-response","69","396835","0.0-8.0-0.0-1.0-0.0-1.29","6","5","7","5","7","4","4","5","5","5","4","-2","-3","1","0","2","2","1","1","4","5","5","4","4","4","5","4","5","4","5","7","6","7","6","8","5","7","6","3","6","1","6","5","7","2","5","6","7","7","6","3","7","6","6","5","7","5","6","3","7","3","3","7","6","5","5","7","7","5","6","7","2","7","5","7","7","5","5","612329083165999104","罗","378","Male","[""坏他"",""好我"",""坏我"",""好他""]","[""弱他"",""强我"",""弱我"",""强他""]","","","","","","","","","","","","","","","","","","","","","","","","","","","","","","feedback_test","","","","","","","",""
"713","","j","psychophysics","70","398563","0.0-8.0-0.0-1.0-0.0-0.30","6","5","7","5","7","4","4","5","5","5","4","-2","-3","1","0","2","2","1","1","4","5","5","4","4","4","5","4","5","4","5","7","6","7","6","8","5","7","6","3","6","1","6","5","7","2","5","6","7","7","6","3","7","6","6","5","7","5","6","3","7","3","3","7","6","5","5","7","7","5","6","7","2","7","5","7","7","5","5","612329083165999104","罗","378","Male","[""坏他"",""好我"",""坏我"",""好他""]","[""弱他"",""强我"",""弱我"",""强他""]","","","","","","","","nonmatch","","","","","","","","","","key","j","16.652941176470932","640","356","j","true","nonmatch","img/diamond.png","坏他","坏我","prac_ALT2_moral","practice_moral","","","","","","","",""
"null","<span style='color:GreenYellow; font-size: 70px;'>正确! </span>","null","html-keyboard-response","71","399073","0.0-8.0-0.0-1.0-0.0-1.30","6","5","7","5","7","4","4","5","5","5","4","-2","-3","1","0","2","2","1","1","4","5","5","4","4","4","5","4","5","4","5","7","6","7","6","8","5","7","6","3","6","1","6","5","7","2","5","6","7","7","6","3","7","6","6","5","7","5","6","3","7","3","3","7","6","5","5","7","7","5","6","7","2","7","5","7","7","5","5","612329083165999104","罗","378","Male","[""坏他"",""好我"",""坏我"",""好他""]","[""弱他"",""强我"",""弱我"",""强他""]","","","","","","","","","","","","","","","","","","","","","","","","","","","","","","feedback_test","","","","","","","",""
"585","","f","psychophysics","72","400696","0.0-8.0-0.0-1.0-0.0-0.31","6","5","7","5","7","4","4","5","5","5","4","-2","-3","1","0","2","2","1","1","4","5","5","4","4","4","5","4","5","4","5","7","6","7","6","8","5","7","6","3","6","1","6","5","7","2","5","6","7","7","6","3","7","6","6","5","7","5","6","3","7","3","3","7","6","5","5","7","7","5","6","7","2","7","5","7","7","5","5","612329083165999104","罗","378","Male","[""坏他"",""好我"",""坏我"",""好他""]","[""弱他"",""强我"",""弱我"",""强他""]","","","","","","","","match","","","","","","","","","","key","f","16.828210526315715","640","356","j","false","nonmatch","img/square.png","坏他","好他","prac_ALT2_moral","practice_moral","","","","","","","",""
"null","<span style='color:red; font-size: 70px;'>错误! </span>","null","html-keyboard-response","73","401211","0.0-8.0-0.0-1.0-0.0-1.31","6","5","7","5","7","4","4","5","5","5","4","-2","-3","1","0","2","2","1","1","4","5","5","4","4","4","5","4","5","4","5","7","6","7","6","8","5","7","6","3","6","1","6","5","7","2","5","6","7","7","6","3","7","6","6","5","7","5","6","3","7","3","3","7","6","5","5","7","7","5","6","7","2","7","5","7","7","5","5","612329083165999104","罗","378","Male","[""坏他"",""好我"",""坏我"",""好他""]","[""弱他"",""强我"",""弱我"",""强他""]","","","","","","","","","","","","","","","","","","","","","","","","","","","","","","feedback_test","","","","","","","",""
"968","","j","psychophysics","74","403193","0.0-8.0-0.0-1.0-0.0-0.32","6","5","7","5","7","4","4","5","5","5","4","-2","-3","1","0","2","2","1","1","4","5","5","4","4","4","5","4","5","4","5","7","6","7","6","8","5","7","6","3","6","1","6","5","7","2","5","6","7","7","6","3","7","6","6","5","7","5","6","3","7","3","3","7","6","5","5","7","7","5","6","7","2","7","5","7","7","5","5","612329083165999104","罗","378","Male","[""坏他"",""好我"",""坏我"",""好他""]","[""弱他"",""强我"",""弱我"",""强他""]","","","","","","","","nonmatch","","","","","","","","","","key","j","16.642542372881415","640","356","j","true","nonmatch","img/hexagon.png","坏我","坏他","prac_ALT2_moral","practice_moral","","","","","","","",""
"null","<span style='color:GreenYellow; font-size: 70px;'>正确! </span>","null","html-keyboard-response","75","403701","0.0-8.0-0.0-1.0-0.0-1.32","6","5","7","5","7","4","4","5","5","5","4","-2","-3","1","0","2","2","1","1","4","5","5","4","4","4","5","4","5","4","5","7","6","7","6","8","5","7","6","3","6","1","6","5","7","2","5","6","7","7","6","3","7","6","6","5","7","5","6","3","7","3","3","7","6","5","5","7","7","5","6","7","2","7","5","7","7","5","5","612329083165999104","罗","378","Male","[""坏他"",""好我"",""坏我"",""好他""]","[""弱他"",""强我"",""弱我"",""强他""]","","","","","","","","","","","","","","","","","","","","","","","","","","","","","","feedback_test","","","","","","","",""
"683","","f","psychophysics","76","405390","0.0-8.0-0.0-1.0-0.0-0.33","6","5","7","5","7","4","4","5","5","5","4","-2","-3","1","0","2","2","1","1","4","5","5","4","4","4","5","4","5","4","5","7","6","7","6","8","5","7","6","3","6","1","6","5","7","2","5","6","7","7","6","3","7","6","6","5","7","5","6","3","7","3","3","7","6","5","5","7","7","5","6","7","2","7","5","7","7","5","5","612329083165999104","罗","378","Male","[""坏他"",""好我"",""坏我"",""好他""]","[""弱他"",""强我"",""弱我"",""强他""]","","","","","","","","match","","","","","","","","","","key","f","16.652999999999885","640","356","f","true","match","img/circle.png","好我","好我","prac_ALT2_moral","practice_moral","","","","","","","",""
"null","<span style='color:GreenYellow; font-size: 70px;'>正确! </span>","null","html-keyboard-response","77","405897","0.0-8.0-0.0-1.0-0.0-1.33","6","5","7","5","7","4","4","5","5","5","4","-2","-3","1","0","2","2","1","1","4","5","5","4","4","4","5","4","5","4","5","7","6","7","6","8","5","7","6","3","6","1","6","5","7","2","5","6","7","7","6","3","7","6","6","5","7","5","6","3","7","3","3","7","6","5","5","7","7","5","6","7","2","7","5","7","7","5","5","612329083165999104","罗","378","Male","[""坏他"",""好我"",""坏我"",""好他""]","[""弱他"",""强我"",""弱我"",""强他""]","","","","","","","","","","","","","","","","","","","","","","","","","","","","","","feedback_test","","","","","","","",""
"767","","j","psychophysics","78","407791","0.0-8.0-0.0-1.0-0.0-0.34","6","5","7","5","7","4","4","5","5","5","4","-2","-3","1","0","2","2","1","1","4","5","5","4","4","4","5","4","5","4","5","7","6","7","6","8","5","7","6","3","6","1","6","5","7","2","5","6","7","7","6","3","7","6","6","5","7","5","6","3","7","3","3","7","6","5","5","7","7","5","6","7","2","7","5","7","7","5","5","612329083165999104","罗","378","Male","[""坏他"",""好我"",""坏我"",""好他""]","[""弱他"",""强我"",""弱我"",""强他""]","","","","","","","","nonmatch","","","","","","","","","","key","j","16.65303571428584","640","356","j","true","nonmatch","img/circle.png","坏我","好我","prac_ALT2_moral","practice_moral","","","","","","","",""
"null","<span style='color:GreenYellow; font-size: 70px;'>正确! </span>","null","html-keyboard-response","79","408303","0.0-8.0-0.0-1.0-0.0-1.34","6","5","7","5","7","4","4","5","5","5","4","-2","-3","1","0","2","2","1","1","4","5","5","4","4","4","5","4","5","4","5","7","6","7","6","8","5","7","6","3","6","1","6","5","7","2","5","6","7","7","6","3","7","6","6","5","7","5","6","3","7","3","3","7","6","5","5","7","7","5","6","7","2","7","5","7","7","5","5","612329083165999104","罗","378","Male","[""坏他"",""好我"",""坏我"",""好他""]","[""弱他"",""强我"",""弱我"",""强他""]","","","","","","","","","","","","","","","","","","","","","","","","","","","","","","feedback_test","","","","","","","",""
"818","","f","psychophysics","80","410127","0.0-8.0-0.0-1.0-0.0-0.35","6","5","7","5","7","4","4","5","5","5","4","-2","-3","1","0","2","2","1","1","4","5","5","4","4","4","5","4","5","4","5","7","6","7","6","8","5","7","6","3","6","1","6","5","7","2","5","6","7","7","6","3","7","6","6","5","7","5","6","3","7","3","3","7","6","5","5","7","7","5","6","7","2","7","5","7","7","5","5","612329083165999104","罗","378","Male","[""坏他"",""好我"",""坏我"",""好他""]","[""弱他"",""强我"",""弱我"",""强他""]","","","","","","","","match","","","","","","","","","","key","f","16.652037037036887","640","356","f","true","match","img/square.png","好他","好他","prac_ALT2_moral","practice_moral","","","","","","","",""
"null","<span style='color:GreenYellow; font-size: 70px;'>正确! </span>","null","html-keyboard-response","81","410640","0.0-8.0-0.0-1.0-0.0-1.35","6","5","7","5","7","4","4","5","5","5","4","-2","-3","1","0","2","2","1","1","4","5","5","4","4","4","5","4","5","4","5","7","6","7","6","8","5","7","6","3","6","1","6","5","7","2","5","6","7","7","6","3","7","6","6","5","7","5","6","3","7","3","3","7","6","5","5","7","7","5","6","7","2","7","5","7","7","5","5","612329083165999104","罗","378","Male","[""坏他"",""好我"",""坏我"",""好他""]","[""弱他"",""强我"",""弱我"",""强他""]","","","","","","","","","","","","","","","","","","","","","","","","","","","","","","feedback_test","","","","","","","",""
"1029","","f","psychophysics","82","412684","0.0-8.0-0.0-1.0-0.0-0.36","6","5","7","5","7","4","4","5","5","5","4","-2","-3","1","0","2","2","1","1","4","5","5","4","4","4","5","4","5","4","5","7","6","7","6","8","5","7","6","3","6","1","6","5","7","2","5","6","7","7","6","3","7","6","6","5","7","5","6","3","7","3","3","7","6","5","5","7","7","5","6","7","2","7","5","7","7","5","5","612329083165999104","罗","378","Male","[""坏他"",""好我"",""坏我"",""好他""]","[""弱他"",""强我"",""弱我"",""强他""]","","","","","","","","match","","","","","","","","","","key","f","16.653057851239343","640","356","f","true","match","img/circle.png","好我","好我","prac_ALT2_moral","practice_moral","","","","","","","",""
"null","<span style='color:GreenYellow; font-size: 70px;'>正确! </span>","null","html-keyboard-response","83","413190","0.0-8.0-0.0-1.0-0.0-1.36","6","5","7","5","7","4","4","5","5","5","4","-2","-3","1","0","2","2","1","1","4","5","5","4","4","4","5","4","5","4","5","7","6","7","6","8","5","7","6","3","6","1","6","5","7","2","5","6","7","7","6","3","7","6","6","5","7","5","6","3","7","3","3","7","6","5","5","7","7","5","6","7","2","7","5","7","7","5","5","612329083165999104","罗","378","Male","[""坏他"",""好我"",""坏我"",""好他""]","[""弱他"",""强我"",""弱我"",""强他""]","","","","","","","","","","","","","","","","","","","","","","","","","","","","","","feedback_test","","","","","","","",""
"832","","j","psychophysics","84","415034","0.0-8.0-0.0-1.0-0.0-0.37","6","5","7","5","7","4","4","5","5","5","4","-2","-3","1","0","2","2","1","1","4","5","5","4","4","4","5","4","5","4","5","7","6","7","6","8","5","7","6","3","6","1","6","5","7","2","5","6","7","7","6","3","7","6","6","5","7","5","6","3","7","3","3","7","6","5","5","7","7","5","6","7","2","7","5","7","7","5","5","612329083165999104","罗","378","Male","[""坏他"",""好我"",""坏我"",""好他""]","[""弱他"",""强我"",""弱我"",""强他""]","","","","","","","","nonmatch","","","","","","","","","","key","j","16.65284403669701","640","356","j","true","nonmatch","img/hexagon.png","好我","坏他","prac_ALT2_moral","practice_moral","","","","","","","",""
"null","<span style='color:GreenYellow; font-size: 70px;'>正确! </span>","null","html-keyboard-response","85","415545","0.0-8.0-0.0-1.0-0.0-1.37","6","5","7","5","7","4","4","5","5","5","4","-2","-3","1","0","2","2","1","1","4","5","5","4","4","4","5","4","5","4","5","7","6","7","6","8","5","7","6","3","6","1","6","5","7","2","5","6","7","7","6","3","7","6","6","5","7","5","6","3","7","3","3","7","6","5","5","7","7","5","6","7","2","7","5","7","7","5","5","612329083165999104","罗","378","Male","[""坏他"",""好我"",""坏我"",""好他""]","[""弱他"",""强我"",""弱我"",""强他""]","","","","","","","","","","","","","","","","","","","","","","","","","","","","","","feedback_test","","","","","","","",""
"804","","f","psychophysics","86","417356","0.0-8.0-0.0-1.0-0.0-0.38","6","5","7","5","7","4","4","5","5","5","4","-2","-3","1","0","2","2","1","1","4","5","5","4","4","4","5","4","5","4","5","7","6","7","6","8","5","7","6","3","6","1","6","5","7","2","5","6","7","7","6","3","7","6","6","5","7","5","6","3","7","3","3","7","6","5","5","7","7","5","6","7","2","7","5","7","7","5","5","612329083165999104","罗","378","Male","[""坏他"",""好我"",""坏我"",""好他""]","[""弱他"",""强我"",""弱我"",""强他""]","","","","","","","","match","","","","","","","","","","key","f","16.65140186915899","640","356","f","true","match","img/square.png","好他","好他","prac_ALT2_moral","practice_moral","","","","","","","",""
"null","<span style='color:GreenYellow; font-size: 70px;'>正确! </span>","null","html-keyboard-response","87","417870","0.0-8.0-0.0-1.0-0.0-1.38","6","5","7","5","7","4","4","5","5","5","4","-2","-3","1","0","2","2","1","1","4","5","5","4","4","4","5","4","5","4","5","7","6","7","6","8","5","7","6","3","6","1","6","5","7","2","5","6","7","7","6","3","7","6","6","5","7","5","6","3","7","3","3","7","6","5","5","7","7","5","6","7","2","7","5","7","7","5","5","612329083165999104","罗","378","Male","[""坏他"",""好我"",""坏我"",""好他""]","[""弱他"",""强我"",""弱我"",""强他""]","","","","","","","","","","","","","","","","","","","","","","","","","","","","","","feedback_test","","","","","","","",""
"1185","","j","psychophysics","88","420065","0.0-8.0-0.0-1.0-0.0-0.39","6","5","7","5","7","4","4","5","5","5","4","-2","-3","1","0","2","2","1","1","4","5","5","4","4","4","5","4","5","4","5","7","6","7","6","8","5","7","6","3","6","1","6","5","7","2","5","6","7","7","6","3","7","6","6","5","7","5","6","3","7","3","3","7","6","5","5","7","7","5","6","7","2","7","5","7","7","5","5","612329083165999104","罗","378","Male","[""坏他"",""好我"",""坏我"",""好他""]","[""弱他"",""强我"",""弱我"",""强他""]","","","","","","","","nonmatch","","","","","","","","","","key","j","16.652923076923113","640","356","f","false","match","img/hexagon.png","坏他","坏他","prac_ALT2_moral","practice_moral","","","","","","","",""
"null","<span style='color:red; font-size: 70px;'>错误! </span>","null","html-keyboard-response","89","420579","0.0-8.0-0.0-1.0-0.0-1.39","6","5","7","5","7","4","4","5","5","5","4","-2","-3","1","0","2","2","1","1","4","5","5","4","4","4","5","4","5","4","5","7","6","7","6","8","5","7","6","3","6","1","6","5","7","2","5","6","7","7","6","3","7","6","6","5","7","5","6","3","7","3","3","7","6","5","5","7","7","5","6","7","2","7","5","7","7","5","5","612329083165999104","罗","378","Male","[""坏他"",""好我"",""坏我"",""好他""]","[""弱他"",""强我"",""弱我"",""强他""]","","","","","","","","","","","","","","","","","","","","","","","","","","","","","","feedback_test","","","","","","","",""
"956","","f","psychophysics","90","422551","0.0-8.0-0.0-1.0-0.0-0.40","6","5","7","5","7","4","4","5","5","5","4","-2","-3","1","0","2","2","1","1","4","5","5","4","4","4","5","4","5","4","5","7","6","7","6","8","5","7","6","3","6","1","6","5","7","2","5","6","7","7","6","3","7","6","6","5","7","5","6","3","7","3","3","7","6","5","5","7","7","5","6","7","2","7","5","7","7","5","5","612329083165999104","罗","378","Male","[""坏他"",""好我"",""坏我"",""好他""]","[""弱他"",""强我"",""弱我"",""强他""]","","","","","","","","match","","","","","","","","","","key","f","16.652991452991156","640","356","f","true","match","img/diamond.png","坏我","坏我","prac_ALT2_moral","practice_moral","","","","","","","",""
"null","<span style='color:GreenYellow; font-size: 70px;'>正确! </span>","null","html-keyboard-response","91","423064","0.0-8.0-0.0-1.0-0.0-1.40","6","5","7","5","7","4","4","5","5","5","4","-2","-3","1","0","2","2","1","1","4","5","5","4","4","4","5","4","5","4","5","7","6","7","6","8","5","7","6","3","6","1","6","5","7","2","5","6","7","7","6","3","7","6","6","5","7","5","6","3","7","3","3","7","6","5","5","7","7","5","6","7","2","7","5","7","7","5","5","612329083165999104","罗","378","Male","[""坏他"",""好我"",""坏我"",""好他""]","[""弱他"",""强我"",""弱我"",""强他""]","","","","","","","","","","","","","","","","","","","","","","","","","","","","","","feedback_test","","","","","","","",""
"816","","f","psychophysics","92","424891","0.0-8.0-0.0-1.0-0.0-0.41","6","5","7","5","7","4","4","5","5","5","4","-2","-3","1","0","2","2","1","1","4","5","5","4","4","4","5","4","5","4","5","7","6","7","6","8","5","7","6","3","6","1","6","5","7","2","5","6","7","7","6","3","7","6","6","5","7","5","6","3","7","3","3","7","6","5","5","7","7","5","6","7","2","7","5","7","7","5","5","612329083165999104","罗","378","Male","[""坏他"",""好我"",""坏我"",""好他""]","[""弱他"",""强我"",""弱我"",""强他""]","","","","","","","","match","","","","","","","","","","key","f","16.65277777777778","640","356","f","true","match","img/circle.png","好我","好我","prac_ALT2_moral","practice_moral","","","","","","","",""
"null","<span style='color:GreenYellow; font-size: 70px;'>正确! </span>","null","html-keyboard-response","93","425453","0.0-8.0-0.0-1.0-0.0-1.41","6","5","7","5","7","4","4","5","5","5","4","-2","-3","1","0","2","2","1","1","4","5","5","4","4","4","5","4","5","4","5","7","6","7","6","8","5","7","6","3","6","1","6","5","7","2","5","6","7","7","6","3","7","6","6","5","7","5","6","3","7","3","3","7","6","5","5","7","7","5","6","7","2","7","5","7","7","5","5","612329083165999104","罗","378","Male","[""坏他"",""好我"",""坏我"",""好他""]","[""弱他"",""强我"",""弱我"",""强他""]","","","","","","","","","","","","","","","","","","","","","","","","","","","","","","feedback_test","","","","","","","",""
"909","","j","psychophysics","94","427381","0.0-8.0-0.0-1.0-0.0-0.42","6","5","7","5","7","4","4","5","5","5","4","-2","-3","1","0","2","2","1","1","4","5","5","4","4","4","5","4","5","4","5","7","6","7","6","8","5","7","6","3","6","1","6","5","7","2","5","6","7","7","6","3","7","6","6","5","7","5","6","3","7","3","3","7","6","5","5","7","7","5","6","7","2","7","5","7","7","5","5","612329083165999104","罗","378","Male","[""坏他"",""好我"",""坏我"",""好他""]","[""弱他"",""强我"",""弱我"",""强他""]","","","","","","","","nonmatch","","","","","","","","","","key","j","16.652807017544227","640","356","f","false","match","img/diamond.png","坏我","坏我","prac_ALT2_moral","practice_moral","","","","","","","",""
"null","<span style='color:red; font-size: 70px;'>错误! </span>","null","html-keyboard-response","95","427886","0.0-8.0-0.0-1.0-0.0-1.42","6","5","7","5","7","4","4","5","5","5","4","-2","-3","1","0","2","2","1","1","4","5","5","4","4","4","5","4","5","4","5","7","6","7","6","8","5","7","6","3","6","1","6","5","7","2","5","6","7","7","6","3","7","6","6","5","7","5","6","3","7","3","3","7","6","5","5","7","7","5","6","7","2","7","5","7","7","5","5","612329083165999104","罗","378","Male","[""坏他"",""好我"",""坏我"",""好他""]","[""弱他"",""强我"",""弱我"",""强他""]","","","","","","","","","","","","","","","","","","","","","","","","","","","","","","feedback_test","","","","","","","",""
"875","","f","psychophysics","96","429771","0.0-8.0-0.0-1.0-0.0-0.43","6","5","7","5","7","4","4","5","5","5","4","-2","-3","1","0","2","2","1","1","4","5","5","4","4","4","5","4","5","4","5","7","6","7","6","8","5","7","6","3","6","1","6","5","7","2","5","6","7","7","6","3","7","6","6","5","7","5","6","3","7","3","3","7","6","5","5","7","7","5","6","7","2","7","5","7","7","5","5","612329083165999104","罗","378","Male","[""坏他"",""好我"",""坏我"",""好他""]","[""弱他"",""强我"",""弱我"",""强他""]","","","","","","","","match","","","","","","","","","","key","f","16.650178571428633","640","356","j","false","nonmatch","img/diamond.png","好我","坏我","prac_ALT2_moral","practice_moral","","","","","","","",""
"null","<span style='color:red; font-size: 70px;'>错误! </span>","null","html-keyboard-response","97","430273","0.0-8.0-0.0-1.0-0.0-1.43","6","5","7","5","7","4","4","5","5","5","4","-2","-3","1","0","2","2","1","1","4","5","5","4","4","4","5","4","5","4","5","7","6","7","6","8","5","7","6","3","6","1","6","5","7","2","5","6","7","7","6","3","7","6","6","5","7","5","6","3","7","3","3","7","6","5","5","7","7","5","6","7","2","7","5","7","7","5","5","612329083165999104","罗","378","Male","[""坏他"",""好我"",""坏我"",""好他""]","[""弱他"",""强我"",""弱我"",""强他""]","","","","","","","","","","","","","","","","","","","","","","","","","","","","","","feedback_test","","","","","","","",""
"798","","f","psychophysics","98","432089","0.0-8.0-0.0-1.0-0.0-0.44","6","5","7","5","7","4","4","5","5","5","4","-2","-3","1","0","2","2","1","1","4","5","5","4","4","4","5","4","5","4","5","7","6","7","6","8","5","7","6","3","6","1","6","5","7","2","5","6","7","7","6","3","7","6","6","5","7","5","6","3","7","3","3","7","6","5","5","7","7","5","6","7","2","7","5","7","7","5","5","612329083165999104","罗","378","Male","[""坏他"",""好我"",""坏我"",""好他""]","[""弱他"",""强我"",""弱我"",""强他""]","","","","","","","","match","","","","","","","","","","key","f","16.652962962963134","640","356","j","false","nonmatch","img/circle.png","坏他","好我","prac_ALT2_moral","practice_moral","","","","","","","",""
"null","<span style='color:red; font-size: 70px;'>错误! </span>","null","html-keyboard-response","99","432598","0.0-8.0-0.0-1.0-0.0-1.44","6","5","7","5","7","4","4","5","5","5","4","-2","-3","1","0","2","2","1","1","4","5","5","4","4","4","5","4","5","4","5","7","6","7","6","8","5","7","6","3","6","1","6","5","7","2","5","6","7","7","6","3","7","6","6","5","7","5","6","3","7","3","3","7","6","5","5","7","7","5","6","7","2","7","5","7","7","5","5","612329083165999104","罗","378","Male","[""坏他"",""好我"",""坏我"",""好他""]","[""弱他"",""强我"",""弱我"",""强他""]","","","","","","","","","","","","","","","","","","","","","","","","","","","","","","feedback_test","","","","","","","",""
"1009","","f","psychophysics","100","434609","0.0-8.0-0.0-1.0-0.0-0.45","6","5","7","5","7","4","4","5","5","5","4","-2","-3","1","0","2","2","1","1","4","5","5","4","4","4","5","4","5","4","5","7","6","7","6","8","5","7","6","3","6","1","6","5","7","2","5","6","7","7","6","3","7","6","6","5","7","5","6","3","7","3","3","7","6","5","5","7","7","5","6","7","2","7","5","7","7","5","5","612329083165999104","罗","378","Male","[""坏他"",""好我"",""坏我"",""好他""]","[""弱他"",""强我"",""弱我"",""强他""]","","","","","","","","match","","","","","","","","","","key","f","16.65243697479003","640","356","f","true","match","img/diamond.png","坏我","坏我","prac_ALT2_moral","practice_moral","","","","","","","",""
"null","<span style='color:GreenYellow; font-size: 70px;'>正确! </span>","null","html-keyboard-response","101","435163","0.0-8.0-0.0-1.0-0.0-1.45","6","5","7","5","7","4","4","5","5","5","4","-2","-3","1","0","2","2","1","1","4","5","5","4","4","4","5","4","5","4","5","7","6","7","6","8","5","7","6","3","6","1","6","5","7","2","5","6","7","7","6","3","7","6","6","5","7","5","6","3","7","3","3","7","6","5","5","7","7","5","6","7","2","7","5","7","7","5","5","612329083165999104","罗","378","Male","[""坏他"",""好我"",""坏我"",""好他""]","[""弱他"",""强我"",""弱我"",""强他""]","","","","","","","","","","","","","","","","","","","","","","","","","","","","","","feedback_test","","","","","","","",""
"820","","j","psychophysics","102","437002","0.0-8.0-0.0-1.0-0.0-0.46","6","5","7","5","7","4","4","5","5","5","4","-2","-3","1","0","2","2","1","1","4","5","5","4","4","4","5","4","5","4","5","7","6","7","6","8","5","7","6","3","6","1","6","5","7","2","5","6","7","7","6","3","7","6","6","5","7","5","6","3","7","3","3","7","6","5","5","7","7","5","6","7","2","7","5","7","7","5","5","612329083165999104","罗","378","Male","[""坏他"",""好我"",""坏我"",""好他""]","[""弱他"",""强我"",""弱我"",""强他""]","","","","","","","","nonmatch","","","","","","","","","","key","j","16.653027522935716","640","356","j","true","nonmatch","img/circle.png","好他","好我","prac_ALT2_moral","practice_moral","","","","","","","",""
"null","<span style='color:GreenYellow; font-size: 70px;'>正确! </span>","null","html-keyboard-response","103","437511","0.0-8.0-0.0-1.0-0.0-1.46","6","5","7","5","7","4","4","5","5","5","4","-2","-3","1","0","2","2","1","1","4","5","5","4","4","4","5","4","5","4","5","7","6","7","6","8","5","7","6","3","6","1","6","5","7","2","5","6","7","7","6","3","7","6","6","5","7","5","6","3","7","3","3","7","6","5","5","7","7","5","6","7","2","7","5","7","7","5","5","612329083165999104","罗","378","Male","[""坏他"",""好我"",""坏我"",""好他""]","[""弱他"",""强我"",""弱我"",""强他""]","","","","","","","","","","","","","","","","","","","","","","","","","","","","","","feedback_test","","","","","","","",""
"984","","j","psychophysics","104","439596","0.0-8.0-0.0-1.0-0.0-0.47","6","5","7","5","7","4","4","5","5","5","4","-2","-3","1","0","2","2","1","1","4","5","5","4","4","4","5","4","5","4","5","7","6","7","6","8","5","7","6","3","6","1","6","5","7","2","5","6","7","7","6","3","7","6","6","5","7","5","6","3","7","3","3","7","6","5","5","7","7","5","6","7","2","7","5","7","7","5","5","612329083165999104","罗","378","Male","[""坏他"",""好我"",""坏我"",""好他""]","[""弱他"",""强我"",""弱我"",""强他""]","","","","","","","","nonmatch","","","","","","","","","","key","j","16.65290322580662","640","356","j","true","nonmatch","img/diamond.png","好他","坏我","prac_ALT2_moral","practice_moral","","","","","","","",""
"null","<span style='color:GreenYellow; font-size: 70px;'>正确! </span>","null","html-keyboard-response","105","440104","0.0-8.0-0.0-1.0-0.0-1.47","6","5","7","5","7","4","4","5","5","5","4","-2","-3","1","0","2","2","1","1","4","5","5","4","4","4","5","4","5","4","5","7","6","7","6","8","5","7","6","3","6","1","6","5","7","2","5","6","7","7","6","3","7","6","6","5","7","5","6","3","7","3","3","7","6","5","5","7","7","5","6","7","2","7","5","7","7","5","5","612329083165999104","罗","378","Male","[""坏他"",""好我"",""坏我"",""好他""]","[""弱他"",""强我"",""弱我"",""强他""]","","","","","","","","","","","","","","","","","","","","","","","","","","","","","","feedback_test","","","","","","","",""
"11747","<style>.context{color:white; font-size: 35px; line-height:40px}</style>                            <div><p class='context'>您正确回答了77% 的试次。</p><p class='context'>您的平均反应时为871毫秒。</p><p class='context'>恭喜您完成练习。按空格键进入正式实验。</p><p class='footer' style='font-size: 35px; line-height:40px;'>请在进入正式实验实验之前将您的<span style='color: lightgreen;'>食指</span>放在电脑键盘的相应键位上进行按键。</p>"," ","html-keyboard-response","106","451857","0.0-8.0-0.0-2.0","6","5","7","5","7","4","4","5","5","5","4","-2","-3","1","0","2","2","1","1","4","5","5","4","4","4","5","4","5","4","5","7","6","7","6","8","5","7","6","3","6","1","6","5","7","2","5","6","7","7","6","3","7","6","6","5","7","5","6","3","7","3","3","7","6","5","5","7","7","5","6","7","2","7","5","7","7","5","5","612329083165999104","罗","378","Male","[""坏他"",""好我"",""坏我"",""好他""]","[""弱他"",""强我"",""弱我"",""强他""]","","","","","","","","","","","","","","","","","","","","","","","","","","","","","","","","","","","","","",""
"1368","
    <p style='color: white; font-size: 22px'>请您将手指放在按键上，准备进入正式的匹配任务。</p>
    <p> <div style = ""color: green""><按空格键进入下一阶段的匹配任务></div></p>
    "," ","html-keyboard-response","107","453266","0.0-8.0-0.0-3.0","6","5","7","5","7","4","4","5","5","5","4","-2","-3","1","0","2","2","1","1","4","5","5","4","4","4","5","4","5","4","5","7","6","7","6","8","5","7","6","3","6","1","6","5","7","2","5","6","7","7","6","3","7","6","6","5","7","5","6","3","7","3","3","7","6","5","5","7","7","5","6","7","2","7","5","7","7","5","5","612329083165999104","罗","378","Male","[""坏他"",""好我"",""坏我"",""好他""]","[""弱他"",""强我"",""弱我"",""强他""]","","","","","","","","","","","","","","","","","","","","","","","","","","","","","","","","","","","","","",""
"790","","j","psychophysics","108","455126","0.0-8.0-0.0-4.0-0.0-0.0","6","5","7","5","7","4","4","5","5","5","4","-2","-3","1","0","2","2","1","1","4","5","5","4","4","4","5","4","5","4","5","7","6","7","6","8","5","7","6","3","6","1","6","5","7","2","5","6","7","7","6","3","7","6","6","5","7","5","6","3","7","3","3","7","6","5","5","7","7","5","6","7","2","7","5","7","7","5","5","612329083165999104","罗","378","Male","[""坏他"",""好我"",""坏我"",""好他""]","[""弱他"",""强我"",""弱我"",""强他""]","","","","","","","","nonmatch","","","","","","","","","","key","j","16.652909090909155","640","356","j","true","nonmatch","img/square.png","坏他","好他","ALT2","moral","","","","","","","",""
"null","<span style='color:GreenYellow; font-size: 70px;'>正确! </span>","null","html-keyboard-response","109","455632","0.0-8.0-0.0-4.0-0.0-1.0","6","5","7","5","7","4","4","5","5","5","4","-2","-3","1","0","2","2","1","1","4","5","5","4","4","4","5","4","5","4","5","7","6","7","6","8","5","7","6","3","6","1","6","5","7","2","5","6","7","7","6","3","7","6","6","5","7","5","6","3","7","3","3","7","6","5","5","7","7","5","6","7","2","7","5","7","7","5","5","612329083165999104","罗","378","Male","[""坏他"",""好我"",""坏我"",""好他""]","[""弱他"",""强我"",""弱我"",""强他""]","","","","","","","","","","","","","","","","","","","","","","","","","","","","","","feedback_test","","","","","","","",""
"951","","f","psychophysics","110","457599","0.0-8.0-0.0-4.0-0.0-0.1","6","5","7","5","7","4","4","5","5","5","4","-2","-3","1","0","2","2","1","1","4","5","5","4","4","4","5","4","5","4","5","7","6","7","6","8","5","7","6","3","6","1","6","5","7","2","5","6","7","7","6","3","7","6","6","5","7","5","6","3","7","3","3","7","6","5","5","7","7","5","6","7","2","7","5","7","7","5","5","612329083165999104","罗","378","Male","[""坏他"",""好我"",""坏我"",""好他""]","[""弱他"",""强我"",""弱我"",""强他""]","","","","","","","","match","","","","","","","","","","key","f","17.39642857142826","640","356","f","true","match","img/diamond.png","坏我","坏我","ALT2","moral","","","","","","","",""
"null","<span style='color:GreenYellow; font-size: 70px;'>正确! </span>","null","html-keyboard-response","111","458113","0.0-8.0-0.0-4.0-0.0-1.1","6","5","7","5","7","4","4","5","5","5","4","-2","-3","1","0","2","2","1","1","4","5","5","4","4","4","5","4","5","4","5","7","6","7","6","8","5","7","6","3","6","1","6","5","7","2","5","6","7","7","6","3","7","6","6","5","7","5","6","3","7","3","3","7","6","5","5","7","7","5","6","7","2","7","5","7","7","5","5","612329083165999104","罗","378","Male","[""坏他"",""好我"",""坏我"",""好他""]","[""弱他"",""强我"",""弱我"",""强他""]","","","","","","","","","","","","","","","","","","","","","","","","","","","","","","feedback_test","","","","","","","",""
"895","","f","psychophysics","112","460012","0.0-8.0-0.0-4.0-0.0-0.2","6","5","7","5","7","4","4","5","5","5","4","-2","-3","1","0","2","2","1","1","4","5","5","4","4","4","5","4","5","4","5","7","6","7","6","8","5","7","6","3","6","1","6","5","7","2","5","6","7","7","6","3","7","6","6","5","7","5","6","3","7","3","3","7","6","5","5","7","7","5","6","7","2","7","5","7","7","5","5","612329083165999104","罗","378","Male","[""坏他"",""好我"",""坏我"",""好他""]","[""弱他"",""强我"",""弱我"",""强他""]","","","","","","","","match","","","","","","","","","","key","f","16.65274336283194","640","356","f","true","match","img/hexagon.png","坏他","坏他","ALT2","moral","","","","","","","",""
"null","<span style='color:GreenYellow; font-size: 70px;'>正确! </span>","null","html-keyboard-response","113","460522","0.0-8.0-0.0-4.0-0.0-1.2","6","5","7","5","7","4","4","5","5","5","4","-2","-3","1","0","2","2","1","1","4","5","5","4","4","4","5","4","5","4","5","7","6","7","6","8","5","7","6","3","6","1","6","5","7","2","5","6","7","7","6","3","7","6","6","5","7","5","6","3","7","3","3","7","6","5","5","7","7","5","6","7","2","7","5","7","7","5","5","612329083165999104","罗","378","Male","[""坏他"",""好我"",""坏我"",""好他""]","[""弱他"",""强我"",""弱我"",""强他""]","","","","","","","","","","","","","","","","","","","","","","","","","","","","","","feedback_test","","","","","","","",""
"756","","f","psychophysics","114","462300","0.0-8.0-0.0-4.0-0.0-0.3","6","5","7","5","7","4","4","5","5","5","4","-2","-3","1","0","2","2","1","1","4","5","5","4","4","4","5","4","5","4","5","7","6","7","6","8","5","7","6","3","6","1","6","5","7","2","5","6","7","7","6","3","7","6","6","5","7","5","6","3","7","3","3","7","6","5","5","7","7","5","6","7","2","7","5","7","7","5","5","612329083165999104","罗","378","Male","[""坏他"",""好我"",""坏我"",""好他""]","[""弱他"",""强我"",""弱我"",""强他""]","","","","","","","","match","","","","","","","","","","key","f","16.65295238095236","640","356","f","true","match","img/circle.png","好我","好我","ALT2","moral","","","","","","","",""
"null","<span style='color:GreenYellow; font-size: 70px;'>正确! </span>","null","html-keyboard-response","115","462813","0.0-8.0-0.0-4.0-0.0-1.3","6","5","7","5","7","4","4","5","5","5","4","-2","-3","1","0","2","2","1","1","4","5","5","4","4","4","5","4","5","4","5","7","6","7","6","8","5","7","6","3","6","1","6","5","7","2","5","6","7","7","6","3","7","6","6","5","7","5","6","3","7","3","3","7","6","5","5","7","7","5","6","7","2","7","5","7","7","5","5","612329083165999104","罗","378","Male","[""坏他"",""好我"",""坏我"",""好他""]","[""弱他"",""强我"",""弱我"",""强他""]","","","","","","","","","","","","","","","","","","","","","","","","","","","","","","feedback_test","","","","","","","",""
"977","","f","psychophysics","116","464806","0.0-8.0-0.0-4.0-0.0-0.4","6","5","7","5","7","4","4","5","5","5","4","-2","-3","1","0","2","2","1","1","4","5","5","4","4","4","5","4","5","4","5","7","6","7","6","8","5","7","6","3","6","1","6","5","7","2","5","6","7","7","6","3","7","6","6","5","7","5","6","3","7","3","3","7","6","5","5","7","7","5","6","7","2","7","5","7","7","5","5","612329083165999104","罗","378","Male","[""坏他"",""好我"",""坏我"",""好他""]","[""弱他"",""强我"",""弱我"",""强他""]","","","","","","","","match","","","","","","","","","","key","f","16.65271186440694","640","356","f","true","match","img/square.png","好他","好他","ALT2","moral","","","","","","","",""
"null","<span style='color:GreenYellow; font-size: 70px;'>正确! </span>","null","html-keyboard-response","117","465314","0.0-8.0-0.0-4.0-0.0-1.4","6","5","7","5","7","4","4","5","5","5","4","-2","-3","1","0","2","2","1","1","4","5","5","4","4","4","5","4","5","4","5","7","6","7","6","8","5","7","6","3","6","1","6","5","7","2","5","6","7","7","6","3","7","6","6","5","7","5","6","3","7","3","3","7","6","5","5","7","7","5","6","7","2","7","5","7","7","5","5","612329083165999104","罗","378","Male","[""坏他"",""好我"",""坏我"",""好他""]","[""弱他"",""强我"",""弱我"",""强他""]","","","","","","","","","","","","","","","","","","","","","","","","","","","","","","feedback_test","","","","","","","",""
"776","","j","psychophysics","118","467106","0.0-8.0-0.0-4.0-0.0-0.5","6","5","7","5","7","4","4","5","5","5","4","-2","-3","1","0","2","2","1","1","4","5","5","4","4","4","5","4","5","4","5","7","6","7","6","8","5","7","6","3","6","1","6","5","7","2","5","6","7","7","6","3","7","6","6","5","7","5","6","3","7","3","3","7","6","5","5","7","7","5","6","7","2","7","5","7","7","5","5","612329083165999104","罗","378","Male","[""坏他"",""好我"",""坏我"",""好他""]","[""弱他"",""强我"",""弱我"",""强他""]","","","","","","","","nonmatch","","","","","","","","","","key","j","16.652641509433895","640","356","j","true","nonmatch","img/circle.png","坏我","好我","ALT2","moral","","","","","","","",""
"null","<span style='color:GreenYellow; font-size: 70px;'>正确! </span>","null","html-keyboard-response","119","467616","0.0-8.0-0.0-4.0-0.0-1.5","6","5","7","5","7","4","4","5","5","5","4","-2","-3","1","0","2","2","1","1","4","5","5","4","4","4","5","4","5","4","5","7","6","7","6","8","5","7","6","3","6","1","6","5","7","2","5","6","7","7","6","3","7","6","6","5","7","5","6","3","7","3","3","7","6","5","5","7","7","5","6","7","2","7","5","7","7","5","5","612329083165999104","罗","378","Male","[""坏他"",""好我"",""坏我"",""好他""]","[""弱他"",""强我"",""弱我"",""强他""]","","","","","","","","","","","","","","","","","","","","","","","","","","","","","","feedback_test","","","","","","","",""
"767","","j","psychophysics","120","469504","0.0-8.0-0.0-4.0-0.0-0.6","6","5","7","5","7","4","4","5","5","5","4","-2","-3","1","0","2","2","1","1","4","5","5","4","4","4","5","4","5","4","5","7","6","7","6","8","5","7","6","3","6","1","6","5","7","2","5","6","7","7","6","3","7","6","6","5","7","5","6","3","7","3","3","7","6","5","5","7","7","5","6","7","2","7","5","7","7","5","5","612329083165999104","罗","378","Male","[""坏他"",""好我"",""坏我"",""好他""]","[""弱他"",""强我"",""弱我"",""强他""]","","","","","","","","nonmatch","","","","","","","","","","key","j","16.65303571428532","640","356","j","true","nonmatch","img/hexagon.png","坏我","坏他","ALT2","moral","","","","","","","",""
"null","<span style='color:GreenYellow; font-size: 70px;'>正确! </span>","null","html-keyboard-response","121","470012","0.0-8.0-0.0-4.0-0.0-1.6","6","5","7","5","7","4","4","5","5","5","4","-2","-3","1","0","2","2","1","1","4","5","5","4","4","4","5","4","5","4","5","7","6","7","6","8","5","7","6","3","6","1","6","5","7","2","5","6","7","7","6","3","7","6","6","5","7","5","6","3","7","3","3","7","6","5","5","7","7","5","6","7","2","7","5","7","7","5","5","612329083165999104","罗","378","Male","[""坏他"",""好我"",""坏我"",""好他""]","[""弱他"",""强我"",""弱我"",""强他""]","","","","","","","","","","","","","","","","","","","","","","","","","","","","","","feedback_test","","","","","","","",""
"864","","f","psychophysics","122","471886","0.0-8.0-0.0-4.0-0.0-0.7","6","5","7","5","7","4","4","5","5","5","4","-2","-3","1","0","2","2","1","1","4","5","5","4","4","4","5","4","5","4","5","7","6","7","6","8","5","7","6","3","6","1","6","5","7","2","5","6","7","7","6","3","7","6","6","5","7","5","6","3","7","3","3","7","6","5","5","7","7","5","6","7","2","7","5","7","7","5","5","612329083165999104","罗","378","Male","[""坏他"",""好我"",""坏我"",""好他""]","[""弱他"",""强我"",""弱我"",""强他""]","","","","","","","","match","","","","","","","","","","key","f","16.652972972972805","640","356","f","true","match","img/hexagon.png","坏他","坏他","ALT2","moral","","","","","","","",""
"null","<span style='color:GreenYellow; font-size: 70px;'>正确! </span>","null","html-keyboard-response","123","472401","0.0-8.0-0.0-4.0-0.0-1.7","6","5","7","5","7","4","4","5","5","5","4","-2","-3","1","0","2","2","1","1","4","5","5","4","4","4","5","4","5","4","5","7","6","7","6","8","5","7","6","3","6","1","6","5","7","2","5","6","7","7","6","3","7","6","6","5","7","5","6","3","7","3","3","7","6","5","5","7","7","5","6","7","2","7","5","7","7","5","5","612329083165999104","罗","378","Male","[""坏他"",""好我"",""坏我"",""好他""]","[""弱他"",""强我"",""弱我"",""强他""]","","","","","","","","","","","","","","","","","","","","","","","","","","","","","","feedback_test","","","","","","","",""
"829","","f","psychophysics","124","474232","0.0-8.0-0.0-4.0-0.0-0.8","6","5","7","5","7","4","4","5","5","5","4","-2","-3","1","0","2","2","1","1","4","5","5","4","4","4","5","4","5","4","5","7","6","7","6","8","5","7","6","3","6","1","6","5","7","2","5","6","7","7","6","3","7","6","6","5","7","5","6","3","7","3","3","7","6","5","5","7","7","5","6","7","2","7","5","7","7","5","5","612329083165999104","罗","378","Male","[""坏他"",""好我"",""坏我"",""好他""]","[""弱他"",""强我"",""弱我"",""强他""]","","","","","","","","match","","","","","","","","","","key","f","16.652962962963134","640","356","f","true","match","img/hexagon.png","坏他","坏他","ALT2","moral","","","","","","","",""
"null","<span style='color:GreenYellow; font-size: 70px;'>正确! </span>","null","html-keyboard-response","125","474741","0.0-8.0-0.0-4.0-0.0-1.8","6","5","7","5","7","4","4","5","5","5","4","-2","-3","1","0","2","2","1","1","4","5","5","4","4","4","5","4","5","4","5","7","6","7","6","8","5","7","6","3","6","1","6","5","7","2","5","6","7","7","6","3","7","6","6","5","7","5","6","3","7","3","3","7","6","5","5","7","7","5","6","7","2","7","5","7","7","5","5","612329083165999104","罗","378","Male","[""坏他"",""好我"",""坏我"",""好他""]","[""弱他"",""强我"",""弱我"",""强他""]","","","","","","","","","","","","","","","","","","","","","","","","","","","","","","feedback_test","","","","","","","",""
"1005","","j","psychophysics","126","476761","0.0-8.0-0.0-4.0-0.0-0.9","6","5","7","5","7","4","4","5","5","5","4","-2","-3","1","0","2","2","1","1","4","5","5","4","4","4","5","4","5","4","5","7","6","7","6","8","5","7","6","3","6","1","6","5","7","2","5","6","7","7","6","3","7","6","6","5","7","5","6","3","7","3","3","7","6","5","5","7","7","5","6","7","2","7","5","7","7","5","5","612329083165999104","罗","378","Male","[""坏他"",""好我"",""坏我"",""好他""]","[""弱他"",""强我"",""弱我"",""强他""]","","","","","","","","nonmatch","","","","","","","","","","key","j","16.652941176470687","640","356","j","true","nonmatch","img/diamond.png","好我","坏我","ALT2","moral","","","","","","","",""
"null","<span style='color:GreenYellow; font-size: 70px;'>正确! </span>","null","html-keyboard-response","127","477304","0.0-8.0-0.0-4.0-0.0-1.9","6","5","7","5","7","4","4","5","5","5","4","-2","-3","1","0","2","2","1","1","4","5","5","4","4","4","5","4","5","4","5","7","6","7","6","8","5","7","6","3","6","1","6","5","7","2","5","6","7","7","6","3","7","6","6","5","7","5","6","3","7","3","3","7","6","5","5","7","7","5","6","7","2","7","5","7","7","5","5","612329083165999104","罗","378","Male","[""坏他"",""好我"",""坏我"",""好他""]","[""弱他"",""强我"",""弱我"",""强他""]","","","","","","","","","","","","","","","","","","","","","","","","","","","","","","feedback_test","","","","","","","",""
"822","","j","psychophysics","128","479136","0.0-8.0-0.0-4.0-0.0-0.10","6","5","7","5","7","4","4","5","5","5","4","-2","-3","1","0","2","2","1","1","4","5","5","4","4","4","5","4","5","4","5","7","6","7","6","8","5","7","6","3","6","1","6","5","7","2","5","6","7","7","6","3","7","6","6","5","7","5","6","3","7","3","3","7","6","5","5","7","7","5","6","7","2","7","5","7","7","5","5","612329083165999104","罗","378","Male","[""坏他"",""好我"",""坏我"",""好他""]","[""弱他"",""强我"",""弱我"",""强他""]","","","","","","","","nonmatch","","","","","","","","","","key","j","16.652962962963134","640","356","j","true","nonmatch","img/square.png","好我","好他","ALT2","moral","","","","","","","",""
"null","<span style='color:GreenYellow; font-size: 70px;'>正确! </span>","null","html-keyboard-response","129","479652","0.0-8.0-0.0-4.0-0.0-1.10","6","5","7","5","7","4","4","5","5","5","4","-2","-3","1","0","2","2","1","1","4","5","5","4","4","4","5","4","5","4","5","7","6","7","6","8","5","7","6","3","6","1","6","5","7","2","5","6","7","7","6","3","7","6","6","5","7","5","6","3","7","3","3","7","6","5","5","7","7","5","6","7","2","7","5","7","7","5","5","612329083165999104","罗","378","Male","[""坏他"",""好我"",""坏我"",""好他""]","[""弱他"",""强我"",""弱我"",""强他""]","","","","","","","","","","","","","","","","","","","","","","","","","","","","","","feedback_test","","","","","","","",""
"1135","","j","psychophysics","130","481795","0.0-8.0-0.0-4.0-0.0-0.11","6","5","7","5","7","4","4","5","5","5","4","-2","-3","1","0","2","2","1","1","4","5","5","4","4","4","5","4","5","4","5","7","6","7","6","8","5","7","6","3","6","1","6","5","7","2","5","6","7","7","6","3","7","6","6","5","7","5","6","3","7","3","3","7","6","5","5","7","7","5","6","7","2","7","5","7","7","5","5","612329083165999104","罗","378","Male","[""坏他"",""好我"",""坏我"",""好他""]","[""弱他"",""强我"",""弱我"",""强他""]","","","","","","","","nonmatch","","","","","","","","","","key","j","16.6529133858271","640","356","j","true","nonmatch","img/hexagon.png","好他","坏他","ALT2","moral","","","","","","","",""
"null","<span style='color:GreenYellow; font-size: 70px;'>正确! </span>","null","html-keyboard-response","131","482369","0.0-8.0-0.0-4.0-0.0-1.11","6","5","7","5","7","4","4","5","5","5","4","-2","-3","1","0","2","2","1","1","4","5","5","4","4","4","5","4","5","4","5","7","6","7","6","8","5","7","6","3","6","1","6","5","7","2","5","6","7","7","6","3","7","6","6","5","7","5","6","3","7","3","3","7","6","5","5","7","7","5","6","7","2","7","5","7","7","5","5","612329083165999104","罗","378","Male","[""坏他"",""好我"",""坏我"",""好他""]","[""弱他"",""强我"",""弱我"",""强他""]","","","","","","","","","","","","","","","","","","","","","","","","","","","","","","feedback_test","","","","","","","",""
"702","","f","psychophysics","132","484084","0.0-8.0-0.0-4.0-0.0-0.12","6","5","7","5","7","4","4","5","5","5","4","-2","-3","1","0","2","2","1","1","4","5","5","4","4","4","5","4","5","4","5","7","6","7","6","8","5","7","6","3","6","1","6","5","7","2","5","6","7","7","6","3","7","6","6","5","7","5","6","3","7","3","3","7","6","5","5","7","7","5","6","7","2","7","5","7","7","5","5","612329083165999104","罗","378","Male","[""坏他"",""好我"",""坏我"",""好他""]","[""弱他"",""强我"",""弱我"",""强他""]","","","","","","","","match","","","","","","","","","","key","f","16.6530693069309","640","356","f","true","match","img/circle.png","好我","好我","ALT2","moral","","","","","","","",""
"null","<span style='color:GreenYellow; font-size: 70px;'>正确! </span>","null","html-keyboard-response","133","484600","0.0-8.0-0.0-4.0-0.0-1.12","6","5","7","5","7","4","4","5","5","5","4","-2","-3","1","0","2","2","1","1","4","5","5","4","4","4","5","4","5","4","5","7","6","7","6","8","5","7","6","3","6","1","6","5","7","2","5","6","7","7","6","3","7","6","6","5","7","5","6","3","7","3","3","7","6","5","5","7","7","5","6","7","2","7","5","7","7","5","5","612329083165999104","罗","378","Male","[""坏他"",""好我"",""坏我"",""好他""]","[""弱他"",""强我"",""弱我"",""强他""]","","","","","","","","","","","","","","","","","","","","","","","","","","","","","","feedback_test","","","","","","","",""
"762","","j","psychophysics","134","486376","0.0-8.0-0.0-4.0-0.0-0.13","6","5","7","5","7","4","4","5","5","5","4","-2","-3","1","0","2","2","1","1","4","5","5","4","4","4","5","4","5","4","5","7","6","7","6","8","5","7","6","3","6","1","6","5","7","2","5","6","7","7","6","3","7","6","6","5","7","5","6","3","7","3","3","7","6","5","5","7","7","5","6","7","2","7","5","7","7","5","5","612329083165999104","罗","378","Male","[""坏他"",""好我"",""坏我"",""好他""]","[""弱他"",""强我"",""弱我"",""强他""]","","","","","","","","nonmatch","","","","","","","","","","key","j","16.610476190475968","640","356","j","true","nonmatch","img/hexagon.png","好我","坏他","ALT2","moral","","","","","","","",""
"null","<span style='color:GreenYellow; font-size: 70px;'>正确! </span>","null","html-keyboard-response","135","486889","0.0-8.0-0.0-4.0-0.0-1.13","6","5","7","5","7","4","4","5","5","5","4","-2","-3","1","0","2","2","1","1","4","5","5","4","4","4","5","4","5","4","5","7","6","7","6","8","5","7","6","3","6","1","6","5","7","2","5","6","7","7","6","3","7","6","6","5","7","5","6","3","7","3","3","7","6","5","5","7","7","5","6","7","2","7","5","7","7","5","5","612329083165999104","罗","378","Male","[""坏他"",""好我"",""坏我"",""好他""]","[""弱他"",""强我"",""弱我"",""强他""]","","","","","","","","","","","","","","","","","","","","","","","","","","","","","","feedback_test","","","","","","","",""
"967","","f","psychophysics","136","488873","0.0-8.0-0.0-4.0-0.0-0.14","6","5","7","5","7","4","4","5","5","5","4","-2","-3","1","0","2","2","1","1","4","5","5","4","4","4","5","4","5","4","5","7","6","7","6","8","5","7","6","3","6","1","6","5","7","2","5","6","7","7","6","3","7","6","6","5","7","5","6","3","7","3","3","7","6","5","5","7","7","5","6","7","2","7","5","7","7","5","5","612329083165999104","罗","378","Male","[""坏他"",""好我"",""坏我"",""好他""]","[""弱他"",""强我"",""弱我"",""强他""]","","","","","","","","match","","","","","","","","","","key","f","16.651864406780017","640","356","f","true","match","img/circle.png","好我","好我","ALT2","moral","","","","","","","",""
"null","<span style='color:GreenYellow; font-size: 70px;'>正确! </span>","null","html-keyboard-response","137","489373","0.0-8.0-0.0-4.0-0.0-1.14","6","5","7","5","7","4","4","5","5","5","4","-2","-3","1","0","2","2","1","1","4","5","5","4","4","4","5","4","5","4","5","7","6","7","6","8","5","7","6","3","6","1","6","5","7","2","5","6","7","7","6","3","7","6","6","5","7","5","6","3","7","3","3","7","6","5","5","7","7","5","6","7","2","7","5","7","7","5","5","612329083165999104","罗","378","Male","[""坏他"",""好我"",""坏我"",""好他""]","[""弱他"",""强我"",""弱我"",""强他""]","","","","","","","","","","","","","","","","","","","","","","","","","","","","","","feedback_test","","","","","","","",""
"649","","j","psychophysics","138","491041","0.0-8.0-0.0-4.0-0.0-0.15","6","5","7","5","7","4","4","5","5","5","4","-2","-3","1","0","2","2","1","1","4","5","5","4","4","4","5","4","5","4","5","7","6","7","6","8","5","7","6","3","6","1","6","5","7","2","5","6","7","7","6","3","7","6","6","5","7","5","6","3","7","3","3","7","6","5","5","7","7","5","6","7","2","7","5","7","7","5","5","612329083165999104","罗","378","Male","[""坏他"",""好我"",""坏我"",""好他""]","[""弱他"",""强我"",""弱我"",""强他""]","","","","","","","","nonmatch","","","","","","","","","","key","j","16.652929292929436","640","356","f","false","match","img/diamond.png","坏我","坏我","ALT2","moral","","","","","","","",""
"null","<span style='color:red; font-size: 70px;'>错误! </span>","null","html-keyboard-response","139","491577","0.0-8.0-0.0-4.0-0.0-1.15","6","5","7","5","7","4","4","5","5","5","4","-2","-3","1","0","2","2","1","1","4","5","5","4","4","4","5","4","5","4","5","7","6","7","6","8","5","7","6","3","6","1","6","5","7","2","5","6","7","7","6","3","7","6","6","5","7","5","6","3","7","3","3","7","6","5","5","7","7","5","6","7","2","7","5","7","7","5","5","612329083165999104","罗","378","Male","[""坏他"",""好我"",""坏我"",""好他""]","[""弱他"",""强我"",""弱我"",""强他""]","","","","","","","","","","","","","","","","","","","","","","","","","","","","","","feedback_test","","","","","","","",""
"615","","f","psychophysics","140","493219","0.0-8.0-0.0-4.0-0.0-0.16","6","5","7","5","7","4","4","5","5","5","4","-2","-3","1","0","2","2","1","1","4","5","5","4","4","4","5","4","5","4","5","7","6","7","6","8","5","7","6","3","6","1","6","5","7","2","5","6","7","7","6","3","7","6","6","5","7","5","6","3","7","3","3","7","6","5","5","7","7","5","6","7","2","7","5","7","7","5","5","612329083165999104","罗","378","Male","[""坏他"",""好我"",""坏我"",""好他""]","[""弱他"",""强我"",""弱我"",""强他""]","","","","","","","","match","","","","","","","","","","key","f","16.652989690721913","640","356","f","true","match","img/diamond.png","坏我","坏我","ALT2","moral","","","","","","","",""
