"rt","stimulus","response","trial_type","trial_index","time_elapsed","internal_node_id","swb_1","swb_2","swb_3","swb_4","swb_5","LOT_1","LOT_2","LOT_3","LOT_4","LOT_5","LOT_6","IPC_1","IPC_2","IPC_3","IPC_4","IPC_5","IPC_6","IPC_7","IPC_8","MorIden_1","MorIden_2","MorIden_3","MorIden_4","MorIden_5","MorIden_6","MorIden_7","MorIden_8","MorIden_9","MorIden_10","moralSeImag_1","moralSeImag_2","moralSeImag_3","moralSeImag_4","moralSeImag_5","moralSeImag_6","moralSeImag_7","moralSeImag_8","moralSeImag_9","sde_1","sde_2","sde_3","sde_4","sde_5","sde_6","sde_7","sde_8","sde_9","sde_10","sde_11","sde_12","sde_13","sde_14","sde_15","sde_16","sde_17","sde_18","sde_19","sde_20","IM_1","IM_2","IM_3","IM_4","IM_5","IM_6","IM_7","IM_8","IM_9","IM_10","IM_11","IM_12","IM_13","IM_14","IM_15","IM_16","IM_17","IM_18","IM_19","IM_20","subj_idx","friend_name","ParticipantID","Sex","Word","Word2","value","success","timeout","failed_images","failed_audio","failed_video","user_agent","responses","item_order","radio_event_ids","radio_event_times","key_event_times","mouse_event_times","straightlining","zigzagging","honeypot","view_history","response_type","key_press","avg_frame_time","center_x","center_y","correct_response","correct","identity","Image","word","condition","task_id","screen_id","time_stamp","person","valence","domain","math","status","duration","question_order"
"1628","
   <p><div style='color:white; font-size: 25px'>您好，欢迎参加本次实验。</div></p>
   <p><div style='color:white; font-size: 25px'>为充分保障您的权利，请确保您已经知晓并同意《参与实验同意书》以及《数据公开知情同意书》。</div></p>
   <p><div style='color:white; font-size: 25px'>如果您未见过上述内容，请咨询实验员。</div></p>
   <p style='color:white; font-size: 25px'>如果您选择继续实验，则表示您已经清楚两份知情同意书的内容并同意。</p>
   <p> <div style = ""color: green""><按空格键至下页></div> </p>
   "," ","html-keyboard-response","0","1639","0.0-0.0","6","6","6","5","6","4","3","4","5","5","4","1","-3","1","1","1","1","1","1","5","4","5","5","4","5","4","5","4","5","6","4","3","5","3","5","6","5","4","6","7","5","2","6","3","4","2","5","6","4","3","6","6","5","5","4","4","6","2","2","5","2","2","3","4","3","5","3","6","3","5","3","3","2","5","3","6","3","5","672546881741520896","刘","162","Male","[""坏他"",""好我"",""坏我"",""好他""]","[""弱他"",""强我"",""弱我"",""强他""]","","","","","","","","","","","","","","","","","","","","","","","","","","","","","","","","","","","","","",""
"","","","call-function","1","1642","0.0-1.0-0.0","6","6","6","5","6","4","3","4","5","5","4","1","-3","1","1","1","1","1","1","5","4","5","5","4","5","4","5","4","5","6","4","3","5","3","5","6","5","4","6","7","5","2","6","3","4","2","5","6","4","3","6","6","5","5","4","4","6","2","2","5","2","2","3","4","3","5","3","6","3","5","3","3","2","5","3","6","3","5","672546881741520896","刘","162","Male","[""坏他"",""好我"",""坏我"",""好他""]","[""弱他"",""强我"",""弱我"",""强他""]","","","","","","","","","","","","","","","","","","","","","","","","","","","","","","","","","","","","","",""
"22909","","[{""name"":""Sex"",""value"":""0""},{""name"":""friend_name"",""value"":""刘""},{""name"":""ParticipantID"",""value"":""162""}]","survey-html-form","2","24553","0.0-1.0-1.0","6","6","6","5","6","4","3","4","5","5","4","1","-3","1","1","1","1","1","1","5","4","5","5","4","5","4","5","4","5","6","4","3","5","3","5","6","5","4","6","7","5","2","6","3","4","2","5","6","4","3","6","6","5","5","4","4","6","2","2","5","2","2","3","4","3","5","3","6","3","5","3","3","2","5","3","6","3","5","672546881741520896","刘","162","Male","[""坏他"",""好我"",""坏我"",""好他""]","[""弱他"",""强我"",""弱我"",""强他""]","","","","","","","","","","","","","","","","","","","","","","","","","","","","","","","","","","","","","",""
"","","","preload","3","25042","0.0-2.0","6","6","6","5","6","4","3","4","5","5","4","1","-3","1","1","1","1","1","1","5","4","5","5","4","5","4","5","4","5","6","4","3","5","3","5","6","5","4","6","7","5","2","6","3","4","2","5","6","4","3","6","6","5","5","4","4","6","2","2","5","2","2","3","4","3","5","3","6","3","5","3","3","2","5","3","6","3","5","672546881741520896","刘","162","Male","[""坏他"",""好我"",""坏我"",""好他""]","[""弱他"",""强我"",""弱我"",""强他""]","","true","false","[]","[]","[]","","","","","","","","","","","","","","","","","","","","","","","","","","","","","","","",""
"","","","fullscreen","4","43751","0.0-3.0","6","6","6","5","6","4","3","4","5","5","4","1","-3","1","1","1","1","1","1","5","4","5","5","4","5","4","5","4","5","6","4","3","5","3","5","6","5","4","6","7","5","2","6","3","4","2","5","6","4","3","6","6","5","5","4","4","6","2","2","5","2","2","3","4","3","5","3","6","3","5","3","3","2","5","3","6","3","5","672546881741520896","刘","162","Male","[""坏他"",""好我"",""坏我"",""好他""]","[""弱他"",""强我"",""弱我"",""强他""]","","true","","","","","{}","","","","","","","","","","","","","","","","","","","","","","","","","","","","","","",""
"11960.299999999988","","{""Q01"":""6"",""Q02"":""6"",""Q03"":""6"",""Q04"":""5"",""Q05"":""6""}","survey-template","5","55724","0.0-4.0","6","6","6","5","6","4","3","4","5","5","4","1","-3","1","1","1","1","1","1","5","4","5","5","4","5","4","5","4","5","6","4","3","5","3","5","6","5","4","6","7","5","2","6","3","4","2","5","6","4","3","6","6","5","5","4","4","6","2","2","5","2","2","3","4","3","5","3","6","3","5","3","3","2","5","3","6","3","5","672546881741520896","刘","162","Male","[""坏他"",""好我"",""坏我"",""好他""]","[""弱他"",""强我"",""弱我"",""强他""]","","","","","","","","{""Q01"":""6"",""Q02"":""6"",""Q03"":""6"",""Q04"":""5"",""Q05"":""6""}","[0,1,2,3,4]","[""Q01"",""Q02"",""Q03"",""Q04"",""Q05""]","[2237.899999999965,3821.5999999999767,4661.899999999965,7037.799999999988,11197.700000000012]","[]","[2237.899999999965,3821.5999999999767,4661.899999999965,7037.799999999988,11197.700000000012,11957.700000000012]","0.8","0.5","0","","","","","","","","","","","","","","","","","","","","","",""
"46457.09999999998","","{""Q01"":""4"",""Q02"":""3"",""Q03"":""4"",""Q04"":""5"",""Q05"":""5"",""Q06"":""4""}","survey-template","6","102195","0.0-5.0","6","6","6","5","6","4","3","4","5","5","4","1","-3","1","1","1","1","1","1","5","4","5","5","4","5","4","5","4","5","6","4","3","5","3","5","6","5","4","6","7","5","2","6","3","4","2","5","6","4","3","6","6","5","5","4","4","6","2","2","5","2","2","3","4","3","5","3","6","3","5","3","3","2","5","3","6","3","5","672546881741520896","刘","162","Male","[""坏他"",""好我"",""坏我"",""好他""]","[""弱他"",""强我"",""弱我"",""强他""]","","","","","","","","{""Q01"":""4"",""Q02"":""3"",""Q03"":""4"",""Q04"":""5"",""Q05"":""5"",""Q06"":""4""}","[0,1,2,3,4,5]","[""Q01"",""Q02"",""Q02"",""Q03"",""Q04"",""Q04"",""Q04"",""Q05"",""Q06""]","[14438.699999999953,20326.399999999965,21590.399999999965,25048.099999999977,34887.79999999999,37790.899999999965,38510.69999999995,40414.59999999998,45767.399999999965]","[]","[14438.699999999953,20326.399999999965,21590.399999999965,23487,25048.099999999977,34887.79999999999,37790.899999999965,38510.69999999995,40414.59999999998,45767.399999999965,46454.79999999999]","0.5","0.4","0","","","","","","","","","","","","","","","","","","","","","",""
"29376.600000000035","","{""Q01"":""1"",""Q02"":""-3"",""Q03"":""1"",""Q04"":""1"",""Q05"":""1"",""Q06"":""1"",""Q07"":""1"",""Q08"":""1""}","survey-template","7","131588","0.0-6.0","6","6","6","5","6","4","3","4","5","5","4","1","-3","1","1","1","1","1","1","5","4","5","5","4","5","4","5","4","5","6","4","3","5","3","5","6","5","4","6","7","5","2","6","3","4","2","5","6","4","3","6","6","5","5","4","4","6","2","2","5","2","2","3","4","3","5","3","6","3","5","3","3","2","5","3","6","3","5","672546881741520896","刘","162","Male","[""坏他"",""好我"",""坏我"",""好他""]","[""弱他"",""强我"",""弱我"",""强他""]","","","","","","","","{""Q01"":""1"",""Q02"":""-3"",""Q03"":""1"",""Q04"":""1"",""Q05"":""1"",""Q06"":""1"",""Q07"":""1"",""Q08"":""1""}","[0,1,2,3,4,5,6,7]","[""Q01"",""Q02"",""Q03"",""Q04"",""Q05"",""Q06"",""Q06"",""Q07"",""Q08""]","[5119.800000000047,7206.300000000047,12654.300000000047,16174.200000000012,19790.300000000047,21222.800000000047,23894.5,27302.400000000023,28806.400000000023]","[]","[5119.800000000047,7206.300000000047,11590.400000000023,12238.100000000035,12654.300000000047,16174.200000000012,18670.900000000023,19790.300000000047,21222.800000000047,23319.300000000047,23894.5,27302.400000000023,28806.400000000023,29374.5]","0.875","0","0","","","","","","","","","","","","","","","","","","","","","",""
"11837","","","instructions","8","143433","0.0-7.0","6","6","6","5","6","4","3","4","5","5","4","1","-3","1","1","1","1","1","1","5","4","5","5","4","5","4","5","4","5","6","4","3","5","3","5","6","5","4","6","7","5","2","6","3","4","2","5","6","4","3","6","6","5","5","4","4","6","2","2","5","2","2","3","4","3","5","3","6","3","5","3","3","2","5","3","6","3","5","672546881741520896","刘","162","Male","[""坏他"",""好我"",""坏我"",""好他""]","[""弱他"",""强我"",""弱我"",""强他""]","","","","","","","","","","","","","","","","","[{""page_index"":0,""viewing_time"":11836}]","","","","","","","","","","","","","","","","","","","","",""
"51363","","","instructions","9","194799","0.0-8.0-0.0-0.0","6","6","6","5","6","4","3","4","5","5","4","1","-3","1","1","1","1","1","1","5","4","5","5","4","5","4","5","4","5","6","4","3","5","3","5","6","5","4","6","7","5","2","6","3","4","2","5","6","4","3","6","6","5","5","4","4","6","2","2","5","2","2","3","4","3","5","3","6","3","5","3","3","2","5","3","6","3","5","672546881741520896","刘","162","Male","[""坏他"",""好我"",""坏我"",""好他""]","[""弱他"",""强我"",""弱我"",""强他""]","","","","","","","","","","","","","","","","","[{""page_index"":0,""viewing_time"":4074},{""page_index"":1,""viewing_time"":43568},{""page_index"":2,""viewing_time"":2312},{""page_index"":3,""viewing_time"":1408}]","","","","","","","","","","","","","","","","","","","","",""
"1063","","f","psychophysics","10","196870","0.0-8.0-0.0-1.0-0.0-0.0","6","6","6","5","6","4","3","4","5","5","4","1","-3","1","1","1","1","1","1","5","4","5","5","4","5","4","5","4","5","6","4","3","5","3","5","6","5","4","6","7","5","2","6","3","4","2","5","6","4","3","6","6","5","5","4","4","6","2","2","5","2","2","3","4","3","5","3","6","3","5","3","3","2","5","3","6","3","5","672546881741520896","刘","162","Male","[""坏他"",""好我"",""坏我"",""好他""]","[""弱他"",""强我"",""弱我"",""强他""]","","","","","","","","match","","","","","","","","","","key","f","16.64767213114757","683","380","f","true","match","img/diamond.png","坏他","坏他","prac_ALT2_moral","practice_moral","","","","","","","",""
"null","<span style='color:GreenYellow; font-size: 70px;'>正确! </span>","null","html-keyboard-response","11","197373","0.0-8.0-0.0-1.0-0.0-1.0","6","6","6","5","6","4","3","4","5","5","4","1","-3","1","1","1","1","1","1","5","4","5","5","4","5","4","5","4","5","6","4","3","5","3","5","6","5","4","6","7","5","2","6","3","4","2","5","6","4","3","6","6","5","5","4","4","6","2","2","5","2","2","3","4","3","5","3","6","3","5","3","3","2","5","3","6","3","5","672546881741520896","刘","162","Male","[""坏他"",""好我"",""坏我"",""好他""]","[""弱他"",""强我"",""弱我"",""强他""]","","","","","","","","","","","","","","","","","","","","","","","","","","","","","","feedback_test","","","","","","","",""
"null","","null","psychophysics","12","199577","0.0-8.0-0.0-1.0-0.0-0.1","6","6","6","5","6","4","3","4","5","5","4","1","-3","1","1","1","1","1","1","5","4","5","5","4","5","4","5","4","5","6","4","3","5","3","5","6","5","4","6","7","5","2","6","3","4","2","5","6","4","3","6","6","5","5","4","4","6","2","2","5","2","2","3","4","3","5","3","6","3","5","3","3","2","5","3","6","3","5","672546881741520896","刘","162","Male","[""坏他"",""好我"",""坏我"",""好他""]","[""弱他"",""强我"",""弱我"",""强他""]","","","","","","","","null","","","","","","","","","","key","null","16.64728244274805","683","380","f","false","match","img/pentagon.png","坏我","坏我","prac_ALT2_moral","practice_moral","","","","","","","",""
"null","<span class='add_' style='color:yellow; font-size: 70px;'> 太慢! </span>","null","html-keyboard-response","13","200079","0.0-8.0-0.0-1.0-0.0-1.1","6","6","6","5","6","4","3","4","5","5","4","1","-3","1","1","1","1","1","1","5","4","5","5","4","5","4","5","4","5","6","4","3","5","3","5","6","5","4","6","7","5","2","6","3","4","2","5","6","4","3","6","6","5","5","4","4","6","2","2","5","2","2","3","4","3","5","3","6","3","5","3","3","2","5","3","6","3","5","672546881741520896","刘","162","Male","[""坏他"",""好我"",""坏我"",""好他""]","[""弱他"",""强我"",""弱我"",""强他""]","","","","","","","","","","","","","","","","","","","","","","","","","","","","","","feedback_test","","","","","","","",""
"744","","f","psychophysics","14","201825","0.0-8.0-0.0-1.0-0.0-0.2","6","6","6","5","6","4","3","4","5","5","4","1","-3","1","1","1","1","1","1","5","4","5","5","4","5","4","5","4","5","6","4","3","5","3","5","6","5","4","6","7","5","2","6","3","4","2","5","6","4","3","6","6","5","5","4","4","6","2","2","5","2","2","3","4","3","5","3","6","3","5","3","3","2","5","3","6","3","5","672546881741520896","刘","162","Male","[""坏他"",""好我"",""坏我"",""好他""]","[""弱他"",""强我"",""弱我"",""强他""]","","","","","","","","match","","","","","","","","","","key","f","16.647250000000124","683","380","f","true","match","img/pentagon.png","坏我","坏我","prac_ALT2_moral","practice_moral","","","","","","","",""
"null","<span style='color:GreenYellow; font-size: 70px;'>正确! </span>","null","html-keyboard-response","15","202328","0.0-8.0-0.0-1.0-0.0-1.2","6","6","6","5","6","4","3","4","5","5","4","1","-3","1","1","1","1","1","1","5","4","5","5","4","5","4","5","4","5","6","4","3","5","3","5","6","5","4","6","7","5","2","6","3","4","2","5","6","4","3","6","6","5","5","4","4","6","2","2","5","2","2","3","4","3","5","3","6","3","5","3","3","2","5","3","6","3","5","672546881741520896","刘","162","Male","[""坏他"",""好我"",""坏我"",""好他""]","[""弱他"",""强我"",""弱我"",""强他""]","","","","","","","","","","","","","","","","","","","","","","","","","","","","","","feedback_test","","","","","","","",""
"965","","j","psychophysics","16","204296","0.0-8.0-0.0-1.0-0.0-0.3","6","6","6","5","6","4","3","4","5","5","4","1","-3","1","1","1","1","1","1","5","4","5","5","4","5","4","5","4","5","6","4","3","5","3","5","6","5","4","6","7","5","2","6","3","4","2","5","6","4","3","6","6","5","5","4","4","6","2","2","5","2","2","3","4","3","5","3","6","3","5","3","3","2","5","3","6","3","5","672546881741520896","刘","162","Male","[""坏他"",""好我"",""坏我"",""好他""]","[""弱他"",""强我"",""弱我"",""强他""]","","","","","","","","nonmatch","","","","","","","","","","key","j","16.647393162393122","683","380","j","true","nonmatch","img/pentagon.png","好我","坏我","prac_ALT2_moral","practice_moral","","","","","","","",""
"null","<span style='color:GreenYellow; font-size: 70px;'>正确! </span>","null","html-keyboard-response","17","204799","0.0-8.0-0.0-1.0-0.0-1.3","6","6","6","5","6","4","3","4","5","5","4","1","-3","1","1","1","1","1","1","5","4","5","5","4","5","4","5","4","5","6","4","3","5","3","5","6","5","4","6","7","5","2","6","3","4","2","5","6","4","3","6","6","5","5","4","4","6","2","2","5","2","2","3","4","3","5","3","6","3","5","3","3","2","5","3","6","3","5","672546881741520896","刘","162","Male","[""坏他"",""好我"",""坏我"",""好他""]","[""弱他"",""强我"",""弱我"",""强他""]","","","","","","","","","","","","","","","","","","","","","","","","","","","","","","feedback_test","","","","","","","",""
"934","","f","psychophysics","18","206736","0.0-8.0-0.0-1.0-0.0-0.4","6","6","6","5","6","4","3","4","5","5","4","1","-3","1","1","1","1","1","1","5","4","5","5","4","5","4","5","4","5","6","4","3","5","3","5","6","5","4","6","7","5","2","6","3","4","2","5","6","4","3","6","6","5","5","4","4","6","2","2","5","2","2","3","4","3","5","3","6","3","5","3","3","2","5","3","6","3","5","672546881741520896","刘","162","Male","[""坏他"",""好我"",""坏我"",""好他""]","[""弱他"",""强我"",""弱我"",""强他""]","","","","","","","","match","","","","","","","","","","key","f","16.64722608695662","683","380","f","true","match","img/square.png","好我","好我","prac_ALT2_moral","practice_moral","","","","","","","",""
"null","<span style='color:GreenYellow; font-size: 70px;'>正确! </span>","null","html-keyboard-response","19","207238","0.0-8.0-0.0-1.0-0.0-1.4","6","6","6","5","6","4","3","4","5","5","4","1","-3","1","1","1","1","1","1","5","4","5","5","4","5","4","5","4","5","6","4","3","5","3","5","6","5","4","6","7","5","2","6","3","4","2","5","6","4","3","6","6","5","5","4","4","6","2","2","5","2","2","3","4","3","5","3","6","3","5","3","3","2","5","3","6","3","5","672546881741520896","刘","162","Male","[""坏他"",""好我"",""坏我"",""好他""]","[""弱他"",""强我"",""弱我"",""强他""]","","","","","","","","","","","","","","","","","","","","","","","","","","","","","","feedback_test","","","","","","","",""
"935","","j","psychophysics","20","209177","0.0-8.0-0.0-1.0-0.0-0.5","6","6","6","5","6","4","3","4","5","5","4","1","-3","1","1","1","1","1","1","5","4","5","5","4","5","4","5","4","5","6","4","3","5","3","5","6","5","4","6","7","5","2","6","3","4","2","5","6","4","3","6","6","5","5","4","4","6","2","2","5","2","2","3","4","3","5","3","6","3","5","3","3","2","5","3","6","3","5","672546881741520896","刘","162","Male","[""坏他"",""好我"",""坏我"",""好他""]","[""弱他"",""强我"",""弱我"",""强他""]","","","","","","","","nonmatch","","","","","","","","","","key","j","16.647439655172438","683","380","j","true","nonmatch","img/ellipse.png","好我","好他","prac_ALT2_moral","practice_moral","","","","","","","",""
"null","<span style='color:GreenYellow; font-size: 70px;'>正确! </span>","null","html-keyboard-response","21","209678","0.0-8.0-0.0-1.0-0.0-1.5","6","6","6","5","6","4","3","4","5","5","4","1","-3","1","1","1","1","1","1","5","4","5","5","4","5","4","5","4","5","6","4","3","5","3","5","6","5","4","6","7","5","2","6","3","4","2","5","6","4","3","6","6","5","5","4","4","6","2","2","5","2","2","3","4","3","5","3","6","3","5","3","3","2","5","3","6","3","5","672546881741520896","刘","162","Male","[""坏他"",""好我"",""坏我"",""好他""]","[""弱他"",""强我"",""弱我"",""强他""]","","","","","","","","","","","","","","","","","","","","","","","","","","","","","","feedback_test","","","","","","","",""
"902","","j","psychophysics","22","211582","0.0-8.0-0.0-1.0-0.0-0.6","6","6","6","5","6","4","3","4","5","5","4","1","-3","1","1","1","1","1","1","5","4","5","5","4","5","4","5","4","5","6","4","3","5","3","5","6","5","4","6","7","5","2","6","3","4","2","5","6","4","3","6","6","5","5","4","4","6","2","2","5","2","2","3","4","3","5","3","6","3","5","3","3","2","5","3","6","3","5","672546881741520896","刘","162","Male","[""坏他"",""好我"",""坏我"",""好他""]","[""弱他"",""强我"",""弱我"",""强他""]","","","","","","","","nonmatch","","","","","","","","","","key","j","16.647187499999877","683","380","f","false","match","img/ellipse.png","好他","好他","prac_ALT2_moral","practice_moral","","","","","","","",""
"null","<span style='color:red; font-size: 70px;'>错误! </span>","null","html-keyboard-response","23","212086","0.0-8.0-0.0-1.0-0.0-1.6","6","6","6","5","6","4","3","4","5","5","4","1","-3","1","1","1","1","1","1","5","4","5","5","4","5","4","5","4","5","6","4","3","5","3","5","6","5","4","6","7","5","2","6","3","4","2","5","6","4","3","6","6","5","5","4","4","6","2","2","5","2","2","3","4","3","5","3","6","3","5","3","3","2","5","3","6","3","5","672546881741520896","刘","162","Male","[""坏他"",""好我"",""坏我"",""好他""]","[""弱他"",""强我"",""弱我"",""强他""]","","","","","","","","","","","","","","","","","","","","","","","","","","","","","","feedback_test","","","","","","","",""
"1143","","f","psychophysics","24","214231","0.0-8.0-0.0-1.0-0.0-0.7","6","6","6","5","6","4","3","4","5","5","4","1","-3","1","1","1","1","1","1","5","4","5","5","4","5","4","5","4","5","6","4","3","5","3","5","6","5","4","6","7","5","2","6","3","4","2","5","6","4","3","6","6","5","5","4","4","6","2","2","5","2","2","3","4","3","5","3","6","3","5","3","3","2","5","3","6","3","5","672546881741520896","刘","162","Male","[""坏他"",""好我"",""坏我"",""好他""]","[""弱他"",""强我"",""弱我"",""强他""]","","","","","","","","match","","","","","","","","","","key","f","16.647433070866043","683","380","j","false","nonmatch","img/diamond.png","好他","坏他","prac_ALT2_moral","practice_moral","","","","","","","",""
"null","<span style='color:red; font-size: 70px;'>错误! </span>","null","html-keyboard-response","25","214733","0.0-8.0-0.0-1.0-0.0-1.7","6","6","6","5","6","4","3","4","5","5","4","1","-3","1","1","1","1","1","1","5","4","5","5","4","5","4","5","4","5","6","4","3","5","3","5","6","5","4","6","7","5","2","6","3","4","2","5","6","4","3","6","6","5","5","4","4","6","2","2","5","2","2","3","4","3","5","3","6","3","5","3","3","2","5","3","6","3","5","672546881741520896","刘","162","Male","[""坏他"",""好我"",""坏我"",""好他""]","[""弱他"",""强我"",""弱我"",""强他""]","","","","","","","","","","","","","","","","","","","","","","","","","","","","","","feedback_test","","","","","","","",""
"null","","null","psychophysics","26","216936","0.0-8.0-0.0-1.0-0.0-0.8","6","6","6","5","6","4","3","4","5","5","4","1","-3","1","1","1","1","1","1","5","4","5","5","4","5","4","5","4","5","6","4","3","5","3","5","6","5","4","6","7","5","2","6","3","4","2","5","6","4","3","6","6","5","5","4","4","6","2","2","5","2","2","3","4","3","5","3","6","3","5","3","3","2","5","3","6","3","5","672546881741520896","刘","162","Male","[""坏他"",""好我"",""坏我"",""好他""]","[""弱他"",""强我"",""弱我"",""强他""]","","","","","","","","null","","","","","","","","","","key","null","16.647320610687014","683","380","f","false","match","img/ellipse.png","好他","好他","prac_ALT2_moral","practice_moral","","","","","","","",""
"null","<span class='add_' style='color:yellow; font-size: 70px;'> 太慢! </span>","null","html-keyboard-response","27","217437","0.0-8.0-0.0-1.0-0.0-1.8","6","6","6","5","6","4","3","4","5","5","4","1","-3","1","1","1","1","1","1","5","4","5","5","4","5","4","5","4","5","6","4","3","5","3","5","6","5","4","6","7","5","2","6","3","4","2","5","6","4","3","6","6","5","5","4","4","6","2","2","5","2","2","3","4","3","5","3","6","3","5","3","3","2","5","3","6","3","5","672546881741520896","刘","162","Male","[""坏他"",""好我"",""坏我"",""好他""]","[""弱他"",""强我"",""弱我"",""强他""]","","","","","","","","","","","","","","","","","","","","","","","","","","","","","","feedback_test","","","","","","","",""
"990","","j","psychophysics","28","219431","0.0-8.0-0.0-1.0-0.0-0.9","6","6","6","5","6","4","3","4","5","5","4","1","-3","1","1","1","1","1","1","5","4","5","5","4","5","4","5","4","5","6","4","3","5","3","5","6","5","4","6","7","5","2","6","3","4","2","5","6","4","3","6","6","5","5","4","4","6","2","2","5","2","2","3","4","3","5","3","6","3","5","3","3","2","5","3","6","3","5","672546881741520896","刘","162","Male","[""坏他"",""好我"",""坏我"",""好他""]","[""弱他"",""强我"",""弱我"",""强他""]","","","","","","","","nonmatch","","","","","","","","","","key","j","16.64744537815128","683","380","j","true","nonmatch","img/square.png","坏他","好我","prac_ALT2_moral","practice_moral","","","","","","","",""
"null","<span style='color:GreenYellow; font-size: 70px;'>正确! </span>","null","html-keyboard-response","29","219933","0.0-8.0-0.0-1.0-0.0-1.9","6","6","6","5","6","4","3","4","5","5","4","1","-3","1","1","1","1","1","1","5","4","5","5","4","5","4","5","4","5","6","4","3","5","3","5","6","5","4","6","7","5","2","6","3","4","2","5","6","4","3","6","6","5","5","4","4","6","2","2","5","2","2","3","4","3","5","3","6","3","5","3","3","2","5","3","6","3","5","672546881741520896","刘","162","Male","[""坏他"",""好我"",""坏我"",""好他""]","[""弱他"",""强我"",""弱我"",""强他""]","","","","","","","","","","","","","","","","","","","","","","","","","","","","","","feedback_test","","","","","","","",""
"921","","j","psychophysics","30","221856","0.0-8.0-0.0-1.0-0.0-0.10","6","6","6","5","6","4","3","4","5","5","4","1","-3","1","1","1","1","1","1","5","4","5","5","4","5","4","5","4","5","6","4","3","5","3","5","6","5","4","6","7","5","2","6","3","4","2","5","6","4","3","6","6","5","5","4","4","6","2","2","5","2","2","3","4","3","5","3","6","3","5","3","3","2","5","3","6","3","5","672546881741520896","刘","162","Male","[""坏他"",""好我"",""坏我"",""好他""]","[""弱他"",""强我"",""弱我"",""强他""]","","","","","","","","nonmatch","","","","","","","","","","key","j","16.647008771929745","683","380","f","false","match","img/diamond.png","坏他","坏他","prac_ALT2_moral","practice_moral","","","","","","","",""
"null","<span style='color:red; font-size: 70px;'>错误! </span>","null","html-keyboard-response","31","222359","0.0-8.0-0.0-1.0-0.0-1.10","6","6","6","5","6","4","3","4","5","5","4","1","-3","1","1","1","1","1","1","5","4","5","5","4","5","4","5","4","5","6","4","3","5","3","5","6","5","4","6","7","5","2","6","3","4","2","5","6","4","3","6","6","5","5","4","4","6","2","2","5","2","2","3","4","3","5","3","6","3","5","3","3","2","5","3","6","3","5","672546881741520896","刘","162","Male","[""坏他"",""好我"",""坏我"",""好他""]","[""弱他"",""强我"",""弱我"",""强他""]","","","","","","","","","","","","","","","","","","","","","","","","","","","","","","feedback_test","","","","","","","",""
"827","","f","psychophysics","32","224189","0.0-8.0-0.0-1.0-0.0-0.11","6","6","6","5","6","4","3","4","5","5","4","1","-3","1","1","1","1","1","1","5","4","5","5","4","5","4","5","4","5","6","4","3","5","3","5","6","5","4","6","7","5","2","6","3","4","2","5","6","4","3","6","6","5","5","4","4","6","2","2","5","2","2","3","4","3","5","3","6","3","5","3","3","2","5","3","6","3","5","672546881741520896","刘","162","Male","[""坏他"",""好我"",""坏我"",""好他""]","[""弱他"",""强我"",""弱我"",""强他""]","","","","","","","","match","","","","","","","","","","key","f","16.647388888888937","683","380","j","false","nonmatch","img/square.png","好他","好我","prac_ALT2_moral","practice_moral","","","","","","","",""
"null","<span style='color:red; font-size: 70px;'>错误! </span>","null","html-keyboard-response","33","224690","0.0-8.0-0.0-1.0-0.0-1.11","6","6","6","5","6","4","3","4","5","5","4","1","-3","1","1","1","1","1","1","5","4","5","5","4","5","4","5","4","5","6","4","3","5","3","5","6","5","4","6","7","5","2","6","3","4","2","5","6","4","3","6","6","5","5","4","4","6","2","2","5","2","2","3","4","3","5","3","6","3","5","3","3","2","5","3","6","3","5","672546881741520896","刘","162","Male","[""坏他"",""好我"",""坏我"",""好他""]","[""弱他"",""强我"",""弱我"",""强他""]","","","","","","","","","","","","","","","","","","","","","","","","","","","","","","feedback_test","","","","","","","",""
"1102","","f","psychophysics","34","226795","0.0-8.0-0.0-1.0-0.0-0.12","6","6","6","5","6","4","3","4","5","5","4","1","-3","1","1","1","1","1","1","5","4","5","5","4","5","4","5","4","5","6","4","3","5","3","5","6","5","4","6","7","5","2","6","3","4","2","5","6","4","3","6","6","5","5","4","4","6","2","2","5","2","2","3","4","3","5","3","6","3","5","3","3","2","5","3","6","3","5","672546881741520896","刘","162","Male","[""坏他"",""好我"",""坏我"",""好他""]","[""弱他"",""强我"",""弱我"",""强他""]","","","","","","","","match","","","","","","","","","","key","f","16.647456000000005","683","380","j","false","nonmatch","img/ellipse.png","坏我","好他","prac_ALT2_moral","practice_moral","","","","","","","",""
"null","<span style='color:red; font-size: 70px;'>错误! </span>","null","html-keyboard-response","35","227297","0.0-8.0-0.0-1.0-0.0-1.12","6","6","6","5","6","4","3","4","5","5","4","1","-3","1","1","1","1","1","1","5","4","5","5","4","5","4","5","4","5","6","4","3","5","3","5","6","5","4","6","7","5","2","6","3","4","2","5","6","4","3","6","6","5","5","4","4","6","2","2","5","2","2","3","4","3","5","3","6","3","5","3","3","2","5","3","6","3","5","672546881741520896","刘","162","Male","[""坏他"",""好我"",""坏我"",""好他""]","[""弱他"",""强我"",""弱我"",""强他""]","","","","","","","","","","","","","","","","","","","","","","","","","","","","","","feedback_test","","","","","","","",""
"787","","j","psychophysics","36","229088","0.0-8.0-0.0-1.0-0.0-0.13","6","6","6","5","6","4","3","4","5","5","4","1","-3","1","1","1","1","1","1","5","4","5","5","4","5","4","5","4","5","6","4","3","5","3","5","6","5","4","6","7","5","2","6","3","4","2","5","6","4","3","6","6","5","5","4","4","6","2","2","5","2","2","3","4","3","5","3","6","3","5","3","3","2","5","3","6","3","5","672546881741520896","刘","162","Male","[""坏他"",""好我"",""坏我"",""好他""]","[""弱他"",""强我"",""弱我"",""强他""]","","","","","","","","nonmatch","","","","","","","","","","key","j","16.64713084112138","683","380","j","true","nonmatch","img/square.png","坏我","好我","prac_ALT2_moral","practice_moral","","","","","","","",""
"null","<span style='color:GreenYellow; font-size: 70px;'>正确! </span>","null","html-keyboard-response","37","229589","0.0-8.0-0.0-1.0-0.0-1.13","6","6","6","5","6","4","3","4","5","5","4","1","-3","1","1","1","1","1","1","5","4","5","5","4","5","4","5","4","5","6","4","3","5","3","5","6","5","4","6","7","5","2","6","3","4","2","5","6","4","3","6","6","5","5","4","4","6","2","2","5","2","2","3","4","3","5","3","6","3","5","3","3","2","5","3","6","3","5","672546881741520896","刘","162","Male","[""坏他"",""好我"",""坏我"",""好他""]","[""弱他"",""强我"",""弱我"",""强他""]","","","","","","","","","","","","","","","","","","","","","","","","","","","","","","feedback_test","","","","","","","",""
"699","","f","psychophysics","38","231291","0.0-8.0-0.0-1.0-0.0-0.14","6","6","6","5","6","4","3","4","5","5","4","1","-3","1","1","1","1","1","1","5","4","5","5","4","5","4","5","4","5","6","4","3","5","3","5","6","5","4","6","7","5","2","6","3","4","2","5","6","4","3","6","6","5","5","4","4","6","2","2","5","2","2","3","4","3","5","3","6","3","5","3","3","2","5","3","6","3","5","672546881741520896","刘","162","Male","[""坏他"",""好我"",""坏我"",""好他""]","[""弱他"",""强我"",""弱我"",""强他""]","","","","","","","","match","","","","","","","","","","key","f","16.64692079207928","683","380","f","true","match","img/square.png","好我","好我","prac_ALT2_moral","practice_moral","","","","","","","",""
"null","<span style='color:GreenYellow; font-size: 70px;'>正确! </span>","null","html-keyboard-response","39","231794","0.0-8.0-0.0-1.0-0.0-1.14","6","6","6","5","6","4","3","4","5","5","4","1","-3","1","1","1","1","1","1","5","4","5","5","4","5","4","5","4","5","6","4","3","5","3","5","6","5","4","6","7","5","2","6","3","4","2","5","6","4","3","6","6","5","5","4","4","6","2","2","5","2","2","3","4","3","5","3","6","3","5","3","3","2","5","3","6","3","5","672546881741520896","刘","162","Male","[""坏他"",""好我"",""坏我"",""好他""]","[""弱他"",""强我"",""弱我"",""强他""]","","","","","","","","","","","","","","","","","","","","","","","","","","","","","","feedback_test","","","","","","","",""
"949","","j","psychophysics","40","233746","0.0-8.0-0.0-1.0-0.0-0.15","6","6","6","5","6","4","3","4","5","5","4","1","-3","1","1","1","1","1","1","5","4","5","5","4","5","4","5","4","5","6","4","3","5","3","5","6","5","4","6","7","5","2","6","3","4","2","5","6","4","3","6","6","5","5","4","4","6","2","2","5","2","2","3","4","3","5","3","6","3","5","3","3","2","5","3","6","3","5","672546881741520896","刘","162","Male","[""坏他"",""好我"",""坏我"",""好他""]","[""弱他"",""强我"",""弱我"",""强他""]","","","","","","","","nonmatch","","","","","","","","","","key","j","16.64731623931603","683","380","j","true","nonmatch","img/diamond.png","坏我","坏他","prac_ALT2_moral","practice_moral","","","","","","","",""
"null","<span style='color:GreenYellow; font-size: 70px;'>正确! </span>","null","html-keyboard-response","41","234250","0.0-8.0-0.0-1.0-0.0-1.15","6","6","6","5","6","4","3","4","5","5","4","1","-3","1","1","1","1","1","1","5","4","5","5","4","5","4","5","4","5","6","4","3","5","3","5","6","5","4","6","7","5","2","6","3","4","2","5","6","4","3","6","6","5","5","4","4","6","2","2","5","2","2","3","4","3","5","3","6","3","5","3","3","2","5","3","6","3","5","672546881741520896","刘","162","Male","[""坏他"",""好我"",""坏我"",""好他""]","[""弱他"",""强我"",""弱我"",""强他""]","","","","","","","","","","","","","","","","","","","","","","","","","","","","","","feedback_test","","","","","","","",""
"824","","j","psychophysics","42","236076","0.0-8.0-0.0-1.0-0.0-0.16","6","6","6","5","6","4","3","4","5","5","4","1","-3","1","1","1","1","1","1","5","4","5","5","4","5","4","5","4","5","6","4","3","5","3","5","6","5","4","6","7","5","2","6","3","4","2","5","6","4","3","6","6","5","5","4","4","6","2","2","5","2","2","3","4","3","5","3","6","3","5","3","3","2","5","3","6","3","5","672546881741520896","刘","162","Male","[""坏他"",""好我"",""坏我"",""好他""]","[""弱他"",""强我"",""弱我"",""强他""]","","","","","","","","nonmatch","","","","","","","","","","key","j","16.647192660550406","683","380","j","true","nonmatch","img/ellipse.png","坏他","好他","prac_ALT2_moral","practice_moral","","","","","","","",""
"null","<span style='color:GreenYellow; font-size: 70px;'>正确! </span>","null","html-keyboard-response","43","236579","0.0-8.0-0.0-1.0-0.0-1.16","6","6","6","5","6","4","3","4","5","5","4","1","-3","1","1","1","1","1","1","5","4","5","5","4","5","4","5","4","5","6","4","3","5","3","5","6","5","4","6","7","5","2","6","3","4","2","5","6","4","3","6","6","5","5","4","4","6","2","2","5","2","2","3","4","3","5","3","6","3","5","3","3","2","5","3","6","3","5","672546881741520896","刘","162","Male","[""坏他"",""好我"",""坏我"",""好他""]","[""弱他"",""强我"",""弱我"",""强他""]","","","","","","","","","","","","","","","","","","","","","","","","","","","","","","feedback_test","","","","","","","",""
"1194","","j","psychophysics","44","238776","0.0-8.0-0.0-1.0-0.0-0.17","6","6","6","5","6","4","3","4","5","5","4","1","-3","1","1","1","1","1","1","5","4","5","5","4","5","4","5","4","5","6","4","3","5","3","5","6","5","4","6","7","5","2","6","3","4","2","5","6","4","3","6","6","5","5","4","4","6","2","2","5","2","2","3","4","3","5","3","6","3","5","3","3","2","5","3","6","3","5","672546881741520896","刘","162","Male","[""坏他"",""好我"",""坏我"",""好他""]","[""弱他"",""强我"",""弱我"",""强他""]","","","","","","","","nonmatch","","","","","","","","","","key","j","16.647198473282412","683","380","f","false","match","img/ellipse.png","好他","好他","prac_ALT2_moral","practice_moral","","","","","","","",""
"null","<span style='color:red; font-size: 70px;'>错误! </span>","null","html-keyboard-response","45","239277","0.0-8.0-0.0-1.0-0.0-1.17","6","6","6","5","6","4","3","4","5","5","4","1","-3","1","1","1","1","1","1","5","4","5","5","4","5","4","5","4","5","6","4","3","5","3","5","6","5","4","6","7","5","2","6","3","4","2","5","6","4","3","6","6","5","5","4","4","6","2","2","5","2","2","3","4","3","5","3","6","3","5","3","3","2","5","3","6","3","5","672546881741520896","刘","162","Male","[""坏他"",""好我"",""坏我"",""好他""]","[""弱他"",""强我"",""弱我"",""强他""]","","","","","","","","","","","","","","","","","","","","","","","","","","","","","","feedback_test","","","","","","","",""
"988","","j","psychophysics","46","241269","0.0-8.0-0.0-1.0-0.0-0.18","6","6","6","5","6","4","3","4","5","5","4","1","-3","1","1","1","1","1","1","5","4","5","5","4","5","4","5","4","5","6","4","3","5","3","5","6","5","4","6","7","5","2","6","3","4","2","5","6","4","3","6","6","5","5","4","4","6","2","2","5","2","2","3","4","3","5","3","6","3","5","3","3","2","5","3","6","3","5","672546881741520896","刘","162","Male","[""坏他"",""好我"",""坏我"",""好他""]","[""弱他"",""强我"",""弱我"",""强他""]","","","","","","","","nonmatch","","","","","","","","","","key","j","16.64697457627113","683","380","j","true","nonmatch","img/diamond.png","好我","坏他","prac_ALT2_moral","practice_moral","","","","","","","",""
"null","<span style='color:GreenYellow; font-size: 70px;'>正确! </span>","null","html-keyboard-response","47","241773","0.0-8.0-0.0-1.0-0.0-1.18","6","6","6","5","6","4","3","4","5","5","4","1","-3","1","1","1","1","1","1","5","4","5","5","4","5","4","5","4","5","6","4","3","5","3","5","6","5","4","6","7","5","2","6","3","4","2","5","6","4","3","6","6","5","5","4","4","6","2","2","5","2","2","3","4","3","5","3","6","3","5","3","3","2","5","3","6","3","5","672546881741520896","刘","162","Male","[""坏他"",""好我"",""坏我"",""好他""]","[""弱他"",""强我"",""弱我"",""强他""]","","","","","","","","","","","","","","","","","","","","","","","","","","","","","","feedback_test","","","","","","","",""
"1063","","f","psychophysics","48","243838","0.0-8.0-0.0-1.0-0.0-0.19","6","6","6","5","6","4","3","4","5","5","4","1","-3","1","1","1","1","1","1","5","4","5","5","4","5","4","5","4","5","6","4","3","5","3","5","6","5","4","6","7","5","2","6","3","4","2","5","6","4","3","6","6","5","5","4","4","6","2","2","5","2","2","3","4","3","5","3","6","3","5","3","3","2","5","3","6","3","5","672546881741520896","刘","162","Male","[""坏他"",""好我"",""坏我"",""好他""]","[""弱他"",""强我"",""弱我"",""强他""]","","","","","","","","match","","","","","","","","","","key","f","16.647382113821113","683","380","f","true","match","img/square.png","好我","好我","prac_ALT2_moral","practice_moral","","","","","","","",""
"null","<span style='color:GreenYellow; font-size: 70px;'>正确! </span>","null","html-keyboard-response","49","244341","0.0-8.0-0.0-1.0-0.0-1.19","6","6","6","5","6","4","3","4","5","5","4","1","-3","1","1","1","1","1","1","5","4","5","5","4","5","4","5","4","5","6","4","3","5","3","5","6","5","4","6","7","5","2","6","3","4","2","5","6","4","3","6","6","5","5","4","4","6","2","2","5","2","2","3","4","3","5","3","6","3","5","3","3","2","5","3","6","3","5","672546881741520896","刘","162","Male","[""坏他"",""好我"",""坏我"",""好他""]","[""弱他"",""强我"",""弱我"",""强他""]","","","","","","","","","","","","","","","","","","","","","","","","","","","","","","feedback_test","","","","","","","",""
"1082","","j","psychophysics","50","246425","0.0-8.0-0.0-1.0-0.0-0.20","6","6","6","5","6","4","3","4","5","5","4","1","-3","1","1","1","1","1","1","5","4","5","5","4","5","4","5","4","5","6","4","3","5","3","5","6","5","4","6","7","5","2","6","3","4","2","5","6","4","3","6","6","5","5","4","4","6","2","2","5","2","2","3","4","3","5","3","6","3","5","3","3","2","5","3","6","3","5","672546881741520896","刘","162","Male","[""坏他"",""好我"",""坏我"",""好他""]","[""弱他"",""强我"",""弱我"",""强他""]","","","","","","","","nonmatch","","","","","","","","","","key","j","16.647258064516205","683","380","j","true","nonmatch","img/pentagon.png","坏他","坏我","prac_ALT2_moral","practice_moral","","","","","","","",""
"null","<span style='color:GreenYellow; font-size: 70px;'>正确! </span>","null","html-keyboard-response","51","246926","0.0-8.0-0.0-1.0-0.0-1.20","6","6","6","5","6","4","3","4","5","5","4","1","-3","1","1","1","1","1","1","5","4","5","5","4","5","4","5","4","5","6","4","3","5","3","5","6","5","4","6","7","5","2","6","3","4","2","5","6","4","3","6","6","5","5","4","4","6","2","2","5","2","2","3","4","3","5","3","6","3","5","3","3","2","5","3","6","3","5","672546881741520896","刘","162","Male","[""坏他"",""好我"",""坏我"",""好他""]","[""弱他"",""强我"",""弱我"",""强他""]","","","","","","","","","","","","","","","","","","","","","","","","","","","","","","feedback_test","","","","","","","",""
"1004","","f","psychophysics","52","248931","0.0-8.0-0.0-1.0-0.0-0.21","6","6","6","5","6","4","3","4","5","5","4","1","-3","1","1","1","1","1","1","5","4","5","5","4","5","4","5","4","5","6","4","3","5","3","5","6","5","4","6","7","5","2","6","3","4","2","5","6","4","3","6","6","5","5","4","4","6","2","2","5","2","2","3","4","3","5","3","6","3","5","3","3","2","5","3","6","3","5","672546881741520896","刘","162","Male","[""坏他"",""好我"",""坏我"",""好他""]","[""弱他"",""强我"",""弱我"",""强他""]","","","","","","","","match","","","","","","","","","","key","f","16.64737499999998","683","380","f","true","match","img/diamond.png","坏他","坏他","prac_ALT2_moral","practice_moral","","","","","","","",""
"null","<span style='color:GreenYellow; font-size: 70px;'>正确! </span>","null","html-keyboard-response","53","249433","0.0-8.0-0.0-1.0-0.0-1.21","6","6","6","5","6","4","3","4","5","5","4","1","-3","1","1","1","1","1","1","5","4","5","5","4","5","4","5","4","5","6","4","3","5","3","5","6","5","4","6","7","5","2","6","3","4","2","5","6","4","3","6","6","5","5","4","4","6","2","2","5","2","2","3","4","3","5","3","6","3","5","3","3","2","5","3","6","3","5","672546881741520896","刘","162","Male","[""坏他"",""好我"",""坏我"",""好他""]","[""弱他"",""强我"",""弱我"",""强他""]","","","","","","","","","","","","","","","","","","","","","","","","","","","","","","feedback_test","","","","","","","",""
"935","","f","psychophysics","54","251369","0.0-8.0-0.0-1.0-0.0-0.22","6","6","6","5","6","4","3","4","5","5","4","1","-3","1","1","1","1","1","1","5","4","5","5","4","5","4","5","4","5","6","4","3","5","3","5","6","5","4","6","7","5","2","6","3","4","2","5","6","4","3","6","6","5","5","4","4","6","2","2","5","2","2","3","4","3","5","3","6","3","5","3","3","2","5","3","6","3","5","672546881741520896","刘","162","Male","[""坏他"",""好我"",""坏我"",""好他""]","[""弱他"",""强我"",""弱我"",""强他""]","","","","","","","","match","","","","","","","","","","key","f","16.647252173912864","683","380","j","false","nonmatch","img/pentagon.png","好他","坏我","prac_ALT2_moral","practice_moral","","","","","","","",""
"null","<span style='color:red; font-size: 70px;'>错误! </span>","null","html-keyboard-response","55","251870","0.0-8.0-0.0-1.0-0.0-1.22","6","6","6","5","6","4","3","4","5","5","4","1","-3","1","1","1","1","1","1","5","4","5","5","4","5","4","5","4","5","6","4","3","5","3","5","6","5","4","6","7","5","2","6","3","4","2","5","6","4","3","6","6","5","5","4","4","6","2","2","5","2","2","3","4","3","5","3","6","3","5","3","3","2","5","3","6","3","5","672546881741520896","刘","162","Male","[""坏他"",""好我"",""坏我"",""好他""]","[""弱他"",""强我"",""弱我"",""强他""]","","","","","","","","","","","","","","","","","","","","","","","","","","","","","","feedback_test","","","","","","","",""
"711","","f","psychophysics","56","253584","0.0-8.0-0.0-1.0-0.0-0.23","6","6","6","5","6","4","3","4","5","5","4","1","-3","1","1","1","1","1","1","5","4","5","5","4","5","4","5","4","5","6","4","3","5","3","5","6","5","4","6","7","5","2","6","3","4","2","5","6","4","3","6","6","5","5","4","4","6","2","2","5","2","2","3","4","3","5","3","6","3","5","3","3","2","5","3","6","3","5","672546881741520896","刘","162","Male","[""坏他"",""好我"",""坏我"",""好他""]","[""弱他"",""强我"",""弱我"",""强他""]","","","","","","","","match","","","","","","","","","","key","f","16.647186274509867","683","380","f","true","match","img/pentagon.png","坏我","坏我","prac_ALT2_moral","practice_moral","","","","","","","",""
"null","<span style='color:GreenYellow; font-size: 70px;'>正确! </span>","null","html-keyboard-response","57","254085","0.0-8.0-0.0-1.0-0.0-1.23","6","6","6","5","6","4","3","4","5","5","4","1","-3","1","1","1","1","1","1","5","4","5","5","4","5","4","5","4","5","6","4","3","5","3","5","6","5","4","6","7","5","2","6","3","4","2","5","6","4","3","6","6","5","5","4","4","6","2","2","5","2","2","3","4","3","5","3","6","3","5","3","3","2","5","3","6","3","5","672546881741520896","刘","162","Male","[""坏他"",""好我"",""坏我"",""好他""]","[""弱他"",""强我"",""弱我"",""强他""]","","","","","","","","","","","","","","","","","","","","","","","","","","","","","","feedback_test","","","","","","","",""
"803","","j","psychophysics","58","255926","0.0-8.0-0.0-1.0-0.0-0.24","6","6","6","5","6","4","3","4","5","5","4","1","-3","1","1","1","1","1","1","5","4","5","5","4","5","4","5","4","5","6","4","3","5","3","5","6","5","4","6","7","5","2","6","3","4","2","5","6","4","3","6","6","5","5","4","4","6","2","2","5","2","2","3","4","3","5","3","6","3","5","3","3","2","5","3","6","3","5","672546881741520896","刘","162","Male","[""坏他"",""好我"",""坏我"",""好他""]","[""弱他"",""强我"",""弱我"",""强他""]","","","","","","","","nonmatch","","","","","","","","","","key","j","16.64714814814808","683","380","j","true","nonmatch","img/diamond.png","坏我","坏他","prac_ALT2_moral","practice_moral","","","","","","","",""
"null","<span style='color:GreenYellow; font-size: 70px;'>正确! </span>","null","html-keyboard-response","59","256429","0.0-8.0-0.0-1.0-0.0-1.24","6","6","6","5","6","4","3","4","5","5","4","1","-3","1","1","1","1","1","1","5","4","5","5","4","5","4","5","4","5","6","4","3","5","3","5","6","5","4","6","7","5","2","6","3","4","2","5","6","4","3","6","6","5","5","4","4","6","2","2","5","2","2","3","4","3","5","3","6","3","5","3","3","2","5","3","6","3","5","672546881741520896","刘","162","Male","[""坏他"",""好我"",""坏我"",""好他""]","[""弱他"",""强我"",""弱我"",""强他""]","","","","","","","","","","","","","","","","","","","","","","","","","","","","","","feedback_test","","","","","","","",""
"1155","","f","psychophysics","60","258587","0.0-8.0-0.0-1.0-0.0-0.25","6","6","6","5","6","4","3","4","5","5","4","1","-3","1","1","1","1","1","1","5","4","5","5","4","5","4","5","4","5","6","4","3","5","3","5","6","5","4","6","7","5","2","6","3","4","2","5","6","4","3","6","6","5","5","4","4","6","2","2","5","2","2","3","4","3","5","3","6","3","5","3","3","2","5","3","6","3","5","672546881741520896","刘","162","Male","[""坏他"",""好我"",""坏我"",""好他""]","[""弱他"",""强我"",""弱我"",""强他""]","","","","","","","","match","","","","","","","","","","key","f","16.647325581395386","683","380","f","true","match","img/square.png","好我","好我","prac_ALT2_moral","practice_moral","","","","","","","",""
"null","<span style='color:GreenYellow; font-size: 70px;'>正确! </span>","null","html-keyboard-response","61","259088","0.0-8.0-0.0-1.0-0.0-1.25","6","6","6","5","6","4","3","4","5","5","4","1","-3","1","1","1","1","1","1","5","4","5","5","4","5","4","5","4","5","6","4","3","5","3","5","6","5","4","6","7","5","2","6","3","4","2","5","6","4","3","6","6","5","5","4","4","6","2","2","5","2","2","3","4","3","5","3","6","3","5","3","3","2","5","3","6","3","5","672546881741520896","刘","162","Male","[""坏他"",""好我"",""坏我"",""好他""]","[""弱他"",""强我"",""弱我"",""强他""]","","","","","","","","","","","","","","","","","","","","","","","","","","","","","","feedback_test","","","","","","","",""
"799","","j","psychophysics","62","260890","0.0-8.0-0.0-1.0-0.0-0.26","6","6","6","5","6","4","3","4","5","5","4","1","-3","1","1","1","1","1","1","5","4","5","5","4","5","4","5","4","5","6","4","3","5","3","5","6","5","4","6","7","5","2","6","3","4","2","5","6","4","3","6","6","5","5","4","4","6","2","2","5","2","2","3","4","3","5","3","6","3","5","3","3","2","5","3","6","3","5","672546881741520896","刘","162","Male","[""坏他"",""好我"",""坏我"",""好他""]","[""弱他"",""强我"",""弱我"",""强他""]","","","","","","","","nonmatch","","","","","","","","","","key","j","16.647252336448542","683","380","f","false","match","img/diamond.png","坏他","坏他","prac_ALT2_moral","practice_moral","","","","","","","",""
"null","<span style='color:red; font-size: 70px;'>错误! </span>","null","html-keyboard-response","63","261391","0.0-8.0-0.0-1.0-0.0-1.26","6","6","6","5","6","4","3","4","5","5","4","1","-3","1","1","1","1","1","1","5","4","5","5","4","5","4","5","4","5","6","4","3","5","3","5","6","5","4","6","7","5","2","6","3","4","2","5","6","4","3","6","6","5","5","4","4","6","2","2","5","2","2","3","4","3","5","3","6","3","5","3","3","2","5","3","6","3","5","672546881741520896","刘","162","Male","[""坏他"",""好我"",""坏我"",""好他""]","[""弱他"",""强我"",""弱我"",""强他""]","","","","","","","","","","","","","","","","","","","","","","","","","","","","","","feedback_test","","","","","","","",""
"910","","f","psychophysics","64","263302","0.0-8.0-0.0-1.0-0.0-0.27","6","6","6","5","6","4","3","4","5","5","4","1","-3","1","1","1","1","1","1","5","4","5","5","4","5","4","5","4","5","6","4","3","5","3","5","6","5","4","6","7","5","2","6","3","4","2","5","6","4","3","6","6","5","5","4","4","6","2","2","5","2","2","3","4","3","5","3","6","3","5","3","3","2","5","3","6","3","5","672546881741520896","刘","162","Male","[""坏他"",""好我"",""坏我"",""好他""]","[""弱他"",""强我"",""弱我"",""强他""]","","","","","","","","match","","","","","","","","","","key","f","16.647403508771962","683","380","j","false","nonmatch","img/diamond.png","好我","坏他","prac_ALT2_moral","practice_moral","","","","","","","",""
"null","<span style='color:red; font-size: 70px;'>错误! </span>","null","html-keyboard-response","65","263803","0.0-8.0-0.0-1.0-0.0-1.27","6","6","6","5","6","4","3","4","5","5","4","1","-3","1","1","1","1","1","1","5","4","5","5","4","5","4","5","4","5","6","4","3","5","3","5","6","5","4","6","7","5","2","6","3","4","2","5","6","4","3","6","6","5","5","4","4","6","2","2","5","2","2","3","4","3","5","3","6","3","5","3","3","2","5","3","6","3","5","672546881741520896","刘","162","Male","[""坏他"",""好我"",""坏我"",""好他""]","[""弱他"",""强我"",""弱我"",""强他""]","","","","","","","","","","","","","","","","","","","","","","","","","","","","","","feedback_test","","","","","","","",""
"958","","f","psychophysics","66","265763","0.0-8.0-0.0-1.0-0.0-0.28","6","6","6","5","6","4","3","4","5","5","4","1","-3","1","1","1","1","1","1","5","4","5","5","4","5","4","5","4","5","6","4","3","5","3","5","6","5","4","6","7","5","2","6","3","4","2","5","6","4","3","6","6","5","5","4","4","6","2","2","5","2","2","3","4","3","5","3","6","3","5","3","3","2","5","3","6","3","5","672546881741520896","刘","162","Male","[""坏他"",""好我"",""坏我"",""好他""]","[""弱他"",""强我"",""弱我"",""强他""]","","","","","","","","match","","","","","","","","","","key","f","16.790818965517122","683","380","j","false","nonmatch","img/pentagon.png","好他","坏我","prac_ALT2_moral","practice_moral","","","","","","","",""
"null","<span style='color:red; font-size: 70px;'>错误! </span>","null","html-keyboard-response","67","266264","0.0-8.0-0.0-1.0-0.0-1.28","6","6","6","5","6","4","3","4","5","5","4","1","-3","1","1","1","1","1","1","5","4","5","5","4","5","4","5","4","5","6","4","3","5","3","5","6","5","4","6","7","5","2","6","3","4","2","5","6","4","3","6","6","5","5","4","4","6","2","2","5","2","2","3","4","3","5","3","6","3","5","3","3","2","5","3","6","3","5","672546881741520896","刘","162","Male","[""坏他"",""好我"",""坏我"",""好他""]","[""弱他"",""强我"",""弱我"",""强他""]","","","","","","","","","","","","","","","","","","","","","","","","","","","","","","feedback_test","","","","","","","",""
"1151","","j","psychophysics","68","268417","0.0-8.0-0.0-1.0-0.0-0.29","6","6","6","5","6","4","3","4","5","5","4","1","-3","1","1","1","1","1","1","5","4","5","5","4","5","4","5","4","5","6","4","3","5","3","5","6","5","4","6","7","5","2","6","3","4","2","5","6","4","3","6","6","5","5","4","4","6","2","2","5","2","2","3","4","3","5","3","6","3","5","3","3","2","5","3","6","3","5","672546881741520896","刘","162","Male","[""坏他"",""好我"",""坏我"",""好他""]","[""弱他"",""强我"",""弱我"",""强他""]","","","","","","","","nonmatch","","","","","","","","","","key","j","16.647281250000106","683","380","j","true","nonmatch","img/pentagon.png","坏他","坏我","prac_ALT2_moral","practice_moral","","","","","","","",""
"null","<span style='color:GreenYellow; font-size: 70px;'>正确! </span>","null","html-keyboard-response","69","268918","0.0-8.0-0.0-1.0-0.0-1.29","6","6","6","5","6","4","3","4","5","5","4","1","-3","1","1","1","1","1","1","5","4","5","5","4","5","4","5","4","5","6","4","3","5","3","5","6","5","4","6","7","5","2","6","3","4","2","5","6","4","3","6","6","5","5","4","4","6","2","2","5","2","2","3","4","3","5","3","6","3","5","3","3","2","5","3","6","3","5","672546881741520896","刘","162","Male","[""坏他"",""好我"",""坏我"",""好他""]","[""弱他"",""强我"",""弱我"",""强他""]","","","","","","","","","","","","","","","","","","","","","","","","","","","","","","feedback_test","","","","","","","",""
"null","","null","psychophysics","70","271122","0.0-8.0-0.0-1.0-0.0-0.30","6","6","6","5","6","4","3","4","5","5","4","1","-3","1","1","1","1","1","1","5","4","5","5","4","5","4","5","4","5","6","4","3","5","3","5","6","5","4","6","7","5","2","6","3","4","2","5","6","4","3","6","6","5","5","4","4","6","2","2","5","2","2","3","4","3","5","3","6","3","5","3","3","2","5","3","6","3","5","672546881741520896","刘","162","Male","[""坏他"",""好我"",""坏我"",""好他""]","[""弱他"",""强我"",""弱我"",""强他""]","","","","","","","","null","","","","","","","","","","key","null","16.64746969696981","683","380","f","false","match","img/ellipse.png","好他","好他","prac_ALT2_moral","practice_moral","","","","","","","",""
"null","<span class='add_' style='color:yellow; font-size: 70px;'> 太慢! </span>","null","html-keyboard-response","71","271624","0.0-8.0-0.0-1.0-0.0-1.30","6","6","6","5","6","4","3","4","5","5","4","1","-3","1","1","1","1","1","1","5","4","5","5","4","5","4","5","4","5","6","4","3","5","3","5","6","5","4","6","7","5","2","6","3","4","2","5","6","4","3","6","6","5","5","4","4","6","2","2","5","2","2","3","4","3","5","3","6","3","5","3","3","2","5","3","6","3","5","672546881741520896","刘","162","Male","[""坏他"",""好我"",""坏我"",""好他""]","[""弱他"",""强我"",""弱我"",""强他""]","","","","","","","","","","","","","","","","","","","","","","","","","","","","","","feedback_test","","","","","","","",""
"1069","","f","psychophysics","72","273695","0.0-8.0-0.0-1.0-0.0-0.31","6","6","6","5","6","4","3","4","5","5","4","1","-3","1","1","1","1","1","1","5","4","5","5","4","5","4","5","4","5","6","4","3","5","3","5","6","5","4","6","7","5","2","6","3","4","2","5","6","4","3","6","6","5","5","4","4","6","2","2","5","2","2","3","4","3","5","3","6","3","5","3","3","2","5","3","6","3","5","672546881741520896","刘","162","Male","[""坏他"",""好我"",""坏我"",""好他""]","[""弱他"",""强我"",""弱我"",""强他""]","","","","","","","","match","","","","","","","","","","key","f","16.647284552845367","683","380","f","true","match","img/square.png","好我","好我","prac_ALT2_moral","practice_moral","","","","","","","",""
"null","<span style='color:GreenYellow; font-size: 70px;'>正确! </span>","null","html-keyboard-response","73","274196","0.0-8.0-0.0-1.0-0.0-1.31","6","6","6","5","6","4","3","4","5","5","4","1","-3","1","1","1","1","1","1","5","4","5","5","4","5","4","5","4","5","6","4","3","5","3","5","6","5","4","6","7","5","2","6","3","4","2","5","6","4","3","6","6","5","5","4","4","6","2","2","5","2","2","3","4","3","5","3","6","3","5","3","3","2","5","3","6","3","5","672546881741520896","刘","162","Male","[""坏他"",""好我"",""坏我"",""好他""]","[""弱他"",""强我"",""弱我"",""强他""]","","","","","","","","","","","","","","","","","","","","","","","","","","","","","","feedback_test","","","","","","","",""
"903","","f","psychophysics","74","276100","0.0-8.0-0.0-1.0-0.0-0.32","6","6","6","5","6","4","3","4","5","5","4","1","-3","1","1","1","1","1","1","5","4","5","5","4","5","4","5","4","5","6","4","3","5","3","5","6","5","4","6","7","5","2","6","3","4","2","5","6","4","3","6","6","5","5","4","4","6","2","2","5","2","2","3","4","3","5","3","6","3","5","3","3","2","5","3","6","3","5","672546881741520896","刘","162","Male","[""坏他"",""好我"",""坏我"",""好他""]","[""弱他"",""强我"",""弱我"",""强他""]","","","","","","","","match","","","","","","","","","","key","f","16.647140350877493","683","380","j","false","nonmatch","img/ellipse.png","坏我","好他","prac_ALT2_moral","practice_moral","","","","","","","",""
"null","<span style='color:red; font-size: 70px;'>错误! </span>","null","html-keyboard-response","75","276601","0.0-8.0-0.0-1.0-0.0-1.32","6","6","6","5","6","4","3","4","5","5","4","1","-3","1","1","1","1","1","1","5","4","5","5","4","5","4","5","4","5","6","4","3","5","3","5","6","5","4","6","7","5","2","6","3","4","2","5","6","4","3","6","6","5","5","4","4","6","2","2","5","2","2","3","4","3","5","3","6","3","5","3","3","2","5","3","6","3","5","672546881741520896","刘","162","Male","[""坏他"",""好我"",""坏我"",""好他""]","[""弱他"",""强我"",""弱我"",""强他""]","","","","","","","","","","","","","","","","","","","","","","","","","","","","","","feedback_test","","","","","","","",""
"743","","f","psychophysics","76","278346","0.0-8.0-0.0-1.0-0.0-0.33","6","6","6","5","6","4","3","4","5","5","4","1","-3","1","1","1","1","1","1","5","4","5","5","4","5","4","5","4","5","6","4","3","5","3","5","6","5","4","6","7","5","2","6","3","4","2","5","6","4","3","6","6","5","5","4","4","6","2","2","5","2","2","3","4","3","5","3","6","3","5","3","3","2","5","3","6","3","5","672546881741520896","刘","162","Male","[""坏他"",""好我"",""坏我"",""好他""]","[""弱他"",""强我"",""弱我"",""强他""]","","","","","","","","match","","","","","","","","","","key","f","16.647346153846367","683","380","f","true","match","img/pentagon.png","坏我","坏我","prac_ALT2_moral","practice_moral","","","","","","","",""
"null","<span style='color:GreenYellow; font-size: 70px;'>正确! </span>","null","html-keyboard-response","77","278849","0.0-8.0-0.0-1.0-0.0-1.33","6","6","6","5","6","4","3","4","5","5","4","1","-3","1","1","1","1","1","1","5","4","5","5","4","5","4","5","4","5","6","4","3","5","3","5","6","5","4","6","7","5","2","6","3","4","2","5","6","4","3","6","6","5","5","4","4","6","2","2","5","2","2","3","4","3","5","3","6","3","5","3","3","2","5","3","6","3","5","672546881741520896","刘","162","Male","[""坏他"",""好我"",""坏我"",""好他""]","[""弱他"",""强我"",""弱我"",""强他""]","","","","","","","","","","","","","","","","","","","","","","","","","","","","","","feedback_test","","","","","","","",""
"990","","f","psychophysics","78","280841","0.0-8.0-0.0-1.0-0.0-0.34","6","6","6","5","6","4","3","4","5","5","4","1","-3","1","1","1","1","1","1","5","4","5","5","4","5","4","5","4","5","6","4","3","5","3","5","6","5","4","6","7","5","2","6","3","4","2","5","6","4","3","6","6","5","5","4","4","6","2","2","5","2","2","3","4","3","5","3","6","3","5","3","3","2","5","3","6","3","5","672546881741520896","刘","162","Male","[""坏他"",""好我"",""坏我"",""好他""]","[""弱他"",""强我"",""弱我"",""强他""]","","","","","","","","match","","","","","","","","","","key","f","16.647254237288045","683","380","f","true","match","img/pentagon.png","坏我","坏我","prac_ALT2_moral","practice_moral","","","","","","","",""
"null","<span style='color:GreenYellow; font-size: 70px;'>正确! </span>","null","html-keyboard-response","79","281345","0.0-8.0-0.0-1.0-0.0-1.34","6","6","6","5","6","4","3","4","5","5","4","1","-3","1","1","1","1","1","1","5","4","5","5","4","5","4","5","4","5","6","4","3","5","3","5","6","5","4","6","7","5","2","6","3","4","2","5","6","4","3","6","6","5","5","4","4","6","2","2","5","2","2","3","4","3","5","3","6","3","5","3","3","2","5","3","6","3","5","672546881741520896","刘","162","Male","[""坏他"",""好我"",""坏我"",""好他""]","[""弱他"",""强我"",""弱我"",""强他""]","","","","","","","","","","","","","","","","","","","","","","","","","","","","","","feedback_test","","","","","","","",""
"1167","","j","psychophysics","80","283513","0.0-8.0-0.0-1.0-0.0-0.35","6","6","6","5","6","4","3","4","5","5","4","1","-3","1","1","1","1","1","1","5","4","5","5","4","5","4","5","4","5","6","4","3","5","3","5","6","5","4","6","7","5","2","6","3","4","2","5","6","4","3","6","6","5","5","4","4","6","2","2","5","2","2","3","4","3","5","3","6","3","5","3","3","2","5","3","6","3","5","672546881741520896","刘","162","Male","[""坏他"",""好我"",""坏我"",""好他""]","[""弱他"",""强我"",""弱我"",""强他""]","","","","","","","","nonmatch","","","","","","","","","","key","j","16.64734883720954","683","380","j","true","nonmatch","img/ellipse.png","好我","好他","prac_ALT2_moral","practice_moral","","","","","","","",""
"null","<span style='color:GreenYellow; font-size: 70px;'>正确! </span>","null","html-keyboard-response","81","284016","0.0-8.0-0.0-1.0-0.0-1.35","6","6","6","5","6","4","3","4","5","5","4","1","-3","1","1","1","1","1","1","5","4","5","5","4","5","4","5","4","5","6","4","3","5","3","5","6","5","4","6","7","5","2","6","3","4","2","5","6","4","3","6","6","5","5","4","4","6","2","2","5","2","2","3","4","3","5","3","6","3","5","3","3","2","5","3","6","3","5","672546881741520896","刘","162","Male","[""坏他"",""好我"",""坏我"",""好他""]","[""弱他"",""强我"",""弱我"",""强他""]","","","","","","","","","","","","","","","","","","","","","","","","","","","","","","feedback_test","","","","","","","",""
"1149","","j","psychophysics","82","286166","0.0-8.0-0.0-1.0-0.0-0.36","6","6","6","5","6","4","3","4","5","5","4","1","-3","1","1","1","1","1","1","5","4","5","5","4","5","4","5","4","5","6","4","3","5","3","5","6","5","4","6","7","5","2","6","3","4","2","5","6","4","3","6","6","5","5","4","4","6","2","2","5","2","2","3","4","3","5","3","6","3","5","3","3","2","5","3","6","3","5","672546881741520896","刘","162","Male","[""坏他"",""好我"",""坏我"",""好他""]","[""弱他"",""强我"",""弱我"",""强他""]","","","","","","","","nonmatch","","","","","","","","","","key","j","16.64724218750007","683","380","j","true","nonmatch","img/pentagon.png","好我","坏我","prac_ALT2_moral","practice_moral","","","","","","","",""
"null","<span style='color:GreenYellow; font-size: 70px;'>正确! </span>","null","html-keyboard-response","83","286667","0.0-8.0-0.0-1.0-0.0-1.36","6","6","6","5","6","4","3","4","5","5","4","1","-3","1","1","1","1","1","1","5","4","5","5","4","5","4","5","4","5","6","4","3","5","3","5","6","5","4","6","7","5","2","6","3","4","2","5","6","4","3","6","6","5","5","4","4","6","2","2","5","2","2","3","4","3","5","3","6","3","5","3","3","2","5","3","6","3","5","672546881741520896","刘","162","Male","[""坏他"",""好我"",""坏我"",""好他""]","[""弱他"",""强我"",""弱我"",""强他""]","","","","","","","","","","","","","","","","","","","","","","","","","","","","","","feedback_test","","","","","","","",""
"938","","j","psychophysics","84","288607","0.0-8.0-0.0-1.0-0.0-0.37","6","6","6","5","6","4","3","4","5","5","4","1","-3","1","1","1","1","1","1","5","4","5","5","4","5","4","5","4","5","6","4","3","5","3","5","6","5","4","6","7","5","2","6","3","4","2","5","6","4","3","6","6","5","5","4","4","6","2","2","5","2","2","3","4","3","5","3","6","3","5","3","3","2","5","3","6","3","5","672546881741520896","刘","162","Male","[""坏他"",""好我"",""坏我"",""好他""]","[""弱他"",""强我"",""弱我"",""强他""]","","","","","","","","nonmatch","","","","","","","","","","key","j","16.64724347826053","683","380","f","false","match","img/pentagon.png","坏我","坏我","prac_ALT2_moral","practice_moral","","","","","","","",""
"null","<span style='color:red; font-size: 70px;'>错误! </span>","null","html-keyboard-response","85","289108","0.0-8.0-0.0-1.0-0.0-1.37","6","6","6","5","6","4","3","4","5","5","4","1","-3","1","1","1","1","1","1","5","4","5","5","4","5","4","5","4","5","6","4","3","5","3","5","6","5","4","6","7","5","2","6","3","4","2","5","6","4","3","6","6","5","5","4","4","6","2","2","5","2","2","3","4","3","5","3","6","3","5","3","3","2","5","3","6","3","5","672546881741520896","刘","162","Male","[""坏他"",""好我"",""坏我"",""好他""]","[""弱他"",""强我"",""弱我"",""强他""]","","","","","","","","","","","","","","","","","","","","","","","","","","","","","","feedback_test","","","","","","","",""
"1051","","j","psychophysics","86","291161","0.0-8.0-0.0-1.0-0.0-0.38","6","6","6","5","6","4","3","4","5","5","4","1","-3","1","1","1","1","1","1","5","4","5","5","4","5","4","5","4","5","6","4","3","5","3","5","6","5","4","6","7","5","2","6","3","4","2","5","6","4","3","6","6","5","5","4","4","6","2","2","5","2","2","3","4","3","5","3","6","3","5","3","3","2","5","3","6","3","5","672546881741520896","刘","162","Male","[""坏他"",""好我"",""坏我"",""好他""]","[""弱他"",""强我"",""弱我"",""强他""]","","","","","","","","nonmatch","","","","","","","","","","key","j","16.647409836065545","683","380","f","false","match","img/diamond.png","坏他","坏他","prac_ALT2_moral","practice_moral","","","","","","","",""
"null","<span style='color:red; font-size: 70px;'>错误! </span>","null","html-keyboard-response","87","291665","0.0-8.0-0.0-1.0-0.0-1.38","6","6","6","5","6","4","3","4","5","5","4","1","-3","1","1","1","1","1","1","5","4","5","5","4","5","4","5","4","5","6","4","3","5","3","5","6","5","4","6","7","5","2","6","3","4","2","5","6","4","3","6","6","5","5","4","4","6","2","2","5","2","2","3","4","3","5","3","6","3","5","3","3","2","5","3","6","3","5","672546881741520896","刘","162","Male","[""坏他"",""好我"",""坏我"",""好他""]","[""弱他"",""强我"",""弱我"",""强他""]","","","","","","","","","","","","","","","","","","","","","","","","","","","","","","feedback_test","","","","","","","",""
"null","","null","psychophysics","88","293869","0.0-8.0-0.0-1.0-0.0-0.39","6","6","6","5","6","4","3","4","5","5","4","1","-3","1","1","1","1","1","1","5","4","5","5","4","5","4","5","4","5","6","4","3","5","3","5","6","5","4","6","7","5","2","6","3","4","2","5","6","4","3","6","6","5","5","4","4","6","2","2","5","2","2","3","4","3","5","3","6","3","5","3","3","2","5","3","6","3","5","672546881741520896","刘","162","Male","[""坏他"",""好我"",""坏我"",""好他""]","[""弱他"",""强我"",""弱我"",""强他""]","","","","","","","","null","","","","","","","","","","key","null","16.64715267175574","683","380","f","false","match","img/ellipse.png","好他","好他","prac_ALT2_moral","practice_moral","","","","","","","",""
"null","<span class='add_' style='color:yellow; font-size: 70px;'> 太慢! </span>","null","html-keyboard-response","89","294371","0.0-8.0-0.0-1.0-0.0-1.39","6","6","6","5","6","4","3","4","5","5","4","1","-3","1","1","1","1","1","1","5","4","5","5","4","5","4","5","4","5","6","4","3","5","3","5","6","5","4","6","7","5","2","6","3","4","2","5","6","4","3","6","6","5","5","4","4","6","2","2","5","2","2","3","4","3","5","3","6","3","5","3","3","2","5","3","6","3","5","672546881741520896","刘","162","Male","[""坏他"",""好我"",""坏我"",""好他""]","[""弱他"",""强我"",""弱我"",""强他""]","","","","","","","","","","","","","","","","","","","","","","","","","","","","","","feedback_test","","","","","","","",""
"874","","j","psychophysics","90","296248","0.0-8.0-0.0-1.0-0.0-0.40","6","6","6","5","6","4","3","4","5","5","4","1","-3","1","1","1","1","1","1","5","4","5","5","4","5","4","5","4","5","6","4","3","5","3","5","6","5","4","6","7","5","2","6","3","4","2","5","6","4","3","6","6","5","5","4","4","6","2","2","5","2","2","3","4","3","5","3","6","3","5","3","3","2","5","3","6","3","5","672546881741520896","刘","162","Male","[""坏他"",""好我"",""坏我"",""好他""]","[""弱他"",""强我"",""弱我"",""强他""]","","","","","","","","nonmatch","","","","","","","","","","key","j","16.647294642857428","683","380","j","true","nonmatch","img/diamond.png","好他","坏他","prac_ALT2_moral","practice_moral","","","","","","","",""
"null","<span style='color:GreenYellow; font-size: 70px;'>正确! </span>","null","html-keyboard-response","91","296750","0.0-8.0-0.0-1.0-0.0-1.40","6","6","6","5","6","4","3","4","5","5","4","1","-3","1","1","1","1","1","1","5","4","5","5","4","5","4","5","4","5","6","4","3","5","3","5","6","5","4","6","7","5","2","6","3","4","2","5","6","4","3","6","6","5","5","4","4","6","2","2","5","2","2","3","4","3","5","3","6","3","5","3","3","2","5","3","6","3","5","672546881741520896","刘","162","Male","[""坏他"",""好我"",""坏我"",""好他""]","[""弱他"",""强我"",""弱我"",""强他""]","","","","","","","","","","","","","","","","","","","","","","","","","","","","","","feedback_test","","","","","","","",""
"895","","f","psychophysics","92","298648","0.0-8.0-0.0-1.0-0.0-0.41","6","6","6","5","6","4","3","4","5","5","4","1","-3","1","1","1","1","1","1","5","4","5","5","4","5","4","5","4","5","6","4","3","5","3","5","6","5","4","6","7","5","2","6","3","4","2","5","6","4","3","6","6","5","5","4","4","6","2","2","5","2","2","3","4","3","5","3","6","3","5","3","3","2","5","3","6","3","5","672546881741520896","刘","162","Male","[""坏他"",""好我"",""坏我"",""好他""]","[""弱他"",""强我"",""弱我"",""强他""]","","","","","","","","match","","","","","","","","","","key","f","16.647283185840546","683","380","f","true","match","img/ellipse.png","好他","好他","prac_ALT2_moral","practice_moral","","","","","","","",""
"null","<span style='color:GreenYellow; font-size: 70px;'>正确! </span>","null","html-keyboard-response","93","299151","0.0-8.0-0.0-1.0-0.0-1.41","6","6","6","5","6","4","3","4","5","5","4","1","-3","1","1","1","1","1","1","5","4","5","5","4","5","4","5","4","5","6","4","3","5","3","5","6","5","4","6","7","5","2","6","3","4","2","5","6","4","3","6","6","5","5","4","4","6","2","2","5","2","2","3","4","3","5","3","6","3","5","3","3","2","5","3","6","3","5","672546881741520896","刘","162","Male","[""坏他"",""好我"",""坏我"",""好他""]","[""弱他"",""强我"",""弱我"",""强他""]","","","","","","","","","","","","","","","","","","","","","","","","","","","","","","feedback_test","","","","","","","",""
"880","","j","psychophysics","94","301033","0.0-8.0-0.0-1.0-0.0-0.42","6","6","6","5","6","4","3","4","5","5","4","1","-3","1","1","1","1","1","1","5","4","5","5","4","5","4","5","4","5","6","4","3","5","3","5","6","5","4","6","7","5","2","6","3","4","2","5","6","4","3","6","6","5","5","4","4","6","2","2","5","2","2","3","4","3","5","3","6","3","5","3","3","2","5","3","6","3","5","672546881741520896","刘","162","Male","[""坏他"",""好我"",""坏我"",""好他""]","[""弱他"",""强我"",""弱我"",""强他""]","","","","","","","","nonmatch","","","","","","","","","","key","j","16.647428571428463","683","380","f","false","match","img/diamond.png","坏他","坏他","prac_ALT2_moral","practice_moral","","","","","","","",""
"null","<span style='color:red; font-size: 70px;'>错误! </span>","null","html-keyboard-response","95","301535","0.0-8.0-0.0-1.0-0.0-1.42","6","6","6","5","6","4","3","4","5","5","4","1","-3","1","1","1","1","1","1","5","4","5","5","4","5","4","5","4","5","6","4","3","5","3","5","6","5","4","6","7","5","2","6","3","4","2","5","6","4","3","6","6","5","5","4","4","6","2","2","5","2","2","3","4","3","5","3","6","3","5","3","3","2","5","3","6","3","5","672546881741520896","刘","162","Male","[""坏他"",""好我"",""坏我"",""好他""]","[""弱他"",""强我"",""弱我"",""强他""]","","","","","","","","","","","","","","","","","","","","","","","","","","","","","","feedback_test","","","","","","","",""
"1108","","j","psychophysics","96","303645","0.0-8.0-0.0-1.0-0.0-0.43","6","6","6","5","6","4","3","4","5","5","4","1","-3","1","1","1","1","1","1","5","4","5","5","4","5","4","5","4","5","6","4","3","5","3","5","6","5","4","6","7","5","2","6","3","4","2","5","6","4","3","6","6","5","5","4","4","6","2","2","5","2","2","3","4","3","5","3","6","3","5","3","3","2","5","3","6","3","5","672546881741520896","刘","162","Male","[""坏他"",""好我"",""坏我"",""好他""]","[""弱他"",""强我"",""弱我"",""强他""]","","","","","","","","nonmatch","","","","","","","","","","key","j","16.647016000000296","683","380","j","true","nonmatch","img/ellipse.png","坏他","好他","prac_ALT2_moral","practice_moral","","","","","","","",""
"null","<span style='color:GreenYellow; font-size: 70px;'>正确! </span>","null","html-keyboard-response","97","304147","0.0-8.0-0.0-1.0-0.0-1.43","6","6","6","5","6","4","3","4","5","5","4","1","-3","1","1","1","1","1","1","5","4","5","5","4","5","4","5","4","5","6","4","3","5","3","5","6","5","4","6","7","5","2","6","3","4","2","5","6","4","3","6","6","5","5","4","4","6","2","2","5","2","2","3","4","3","5","3","6","3","5","3","3","2","5","3","6","3","5","672546881741520896","刘","162","Male","[""坏他"",""好我"",""坏我"",""好他""]","[""弱他"",""强我"",""弱我"",""强他""]","","","","","","","","","","","","","","","","","","","","","","","","","","","","","","feedback_test","","","","","","","",""
"869","","j","psychophysics","98","306018","0.0-8.0-0.0-1.0-0.0-0.44","6","6","6","5","6","4","3","4","5","5","4","1","-3","1","1","1","1","1","1","5","4","5","5","4","5","4","5","4","5","6","4","3","5","3","5","6","5","4","6","7","5","2","6","3","4","2","5","6","4","3","6","6","5","5","4","4","6","2","2","5","2","2","3","4","3","5","3","6","3","5","3","3","2","5","3","6","3","5","672546881741520896","刘","162","Male","[""坏他"",""好我"",""坏我"",""好他""]","[""弱他"",""强我"",""弱我"",""强他""]","","","","","","","","nonmatch","","","","","","","","","","key","j","16.647207207206915","683","380","j","true","nonmatch","img/square.png","好他","好我","prac_ALT2_moral","practice_moral","","","","","","","",""
"null","<span style='color:GreenYellow; font-size: 70px;'>正确! </span>","null","html-keyboard-response","99","306519","0.0-8.0-0.0-1.0-0.0-1.44","6","6","6","5","6","4","3","4","5","5","4","1","-3","1","1","1","1","1","1","5","4","5","5","4","5","4","5","4","5","6","4","3","5","3","5","6","5","4","6","7","5","2","6","3","4","2","5","6","4","3","6","6","5","5","4","4","6","2","2","5","2","2","3","4","3","5","3","6","3","5","3","3","2","5","3","6","3","5","672546881741520896","刘","162","Male","[""坏他"",""好我"",""坏我"",""好他""]","[""弱他"",""强我"",""弱我"",""强他""]","","","","","","","","","","","","","","","","","","","","","","","","","","","","","","feedback_test","","","","","","","",""
"985","","f","psychophysics","100","308505","0.0-8.0-0.0-1.0-0.0-0.45","6","6","6","5","6","4","3","4","5","5","4","1","-3","1","1","1","1","1","1","5","4","5","5","4","5","4","5","4","5","6","4","3","5","3","5","6","5","4","6","7","5","2","6","3","4","2","5","6","4","3","6","6","5","5","4","4","6","2","2","5","2","2","3","4","3","5","3","6","3","5","3","3","2","5","3","6","3","5","672546881741520896","刘","162","Male","[""坏他"",""好我"",""坏我"",""好他""]","[""弱他"",""强我"",""弱我"",""强他""]","","","","","","","","match","","","","","","","","","","key","f","16.647415254236954","683","380","j","false","nonmatch","img/square.png","坏他","好我","prac_ALT2_moral","practice_moral","","","","","","","",""
"null","<span style='color:red; font-size: 70px;'>错误! </span>","null","html-keyboard-response","101","309006","0.0-8.0-0.0-1.0-0.0-1.45","6","6","6","5","6","4","3","4","5","5","4","1","-3","1","1","1","1","1","1","5","4","5","5","4","5","4","5","4","5","6","4","3","5","3","5","6","5","4","6","7","5","2","6","3","4","2","5","6","4","3","6","6","5","5","4","4","6","2","2","5","2","2","3","4","3","5","3","6","3","5","3","3","2","5","3","6","3","5","672546881741520896","刘","162","Male","[""坏他"",""好我"",""坏我"",""好他""]","[""弱他"",""强我"",""弱我"",""强他""]","","","","","","","","","","","","","","","","","","","","","","","","","","","","","","feedback_test","","","","","","","",""
"786","","j","psychophysics","102","310794","0.0-8.0-0.0-1.0-0.0-0.46","6","6","6","5","6","4","3","4","5","5","4","1","-3","1","1","1","1","1","1","5","4","5","5","4","5","4","5","4","5","6","4","3","5","3","5","6","5","4","6","7","5","2","6","3","4","2","5","6","4","3","6","6","5","5","4","4","6","2","2","5","2","2","3","4","3","5","3","6","3","5","3","3","2","5","3","6","3","5","672546881741520896","刘","162","Male","[""坏他"",""好我"",""坏我"",""好他""]","[""弱他"",""强我"",""弱我"",""强他""]","","","","","","","","nonmatch","","","","","","","","","","key","j","16.647056074766226","683","380","f","false","match","img/square.png","好我","好我","prac_ALT2_moral","practice_moral","","","","","","","",""
"null","<span style='color:red; font-size: 70px;'>错误! </span>","null","html-keyboard-response","103","311295","0.0-8.0-0.0-1.0-0.0-1.46","6","6","6","5","6","4","3","4","5","5","4","1","-3","1","1","1","1","1","1","5","4","5","5","4","5","4","5","4","5","6","4","3","5","3","5","6","5","4","6","7","5","2","6","3","4","2","5","6","4","3","6","6","5","5","4","4","6","2","2","5","2","2","3","4","3","5","3","6","3","5","3","3","2","5","3","6","3","5","672546881741520896","刘","162","Male","[""坏他"",""好我"",""坏我"",""好他""]","[""弱他"",""强我"",""弱我"",""强他""]","","","","","","","","","","","","","","","","","","","","","","","","","","","","","","feedback_test","","","","","","","",""
"967","","f","psychophysics","104","313264","0.0-8.0-0.0-1.0-0.0-0.47","6","6","6","5","6","4","3","4","5","5","4","1","-3","1","1","1","1","1","1","5","4","5","5","4","5","4","5","4","5","6","4","3","5","3","5","6","5","4","6","7","5","2","6","3","4","2","5","6","4","3","6","6","5","5","4","4","6","2","2","5","2","2","3","4","3","5","3","6","3","5","3","3","2","5","3","6","3","5","672546881741520896","刘","162","Male","[""坏他"",""好我"",""坏我"",""好他""]","[""弱他"",""强我"",""弱我"",""强他""]","","","","","","","","match","","","","","","","","","","key","f","16.64711111111111","683","380","j","false","nonmatch","img/square.png","坏我","好我","prac_ALT2_moral","practice_moral","","","","","","","",""
"null","<span style='color:red; font-size: 70px;'>错误! </span>","null","html-keyboard-response","105","313766","0.0-8.0-0.0-1.0-0.0-1.47","6","6","6","5","6","4","3","4","5","5","4","1","-3","1","1","1","1","1","1","5","4","5","5","4","5","4","5","4","5","6","4","3","5","3","5","6","5","4","6","7","5","2","6","3","4","2","5","6","4","3","6","6","5","5","4","4","6","2","2","5","2","2","3","4","3","5","3","6","3","5","3","3","2","5","3","6","3","5","672546881741520896","刘","162","Male","[""坏他"",""好我"",""坏我"",""好他""]","[""弱他"",""强我"",""弱我"",""强他""]","","","","","","","","","","","","","","","","","","","","","","","","","","","","","","feedback_test","","","","","","","",""
"1764","<style>.context{color:white; font-size: 35px; line-height:40px}</style>                            <div><p class='context'>您正确回答了56% 的试次。</p><p class='context'>您的平均反应时为952毫秒。</p><p class='context'>按空格键继续。</p></div>"," ","html-keyboard-response","106","315533","0.0-8.0-0.0-1.0-1.0-0.0","6","6","6","5","6","4","3","4","5","5","4","1","-3","1","1","1","1","1","1","5","4","5","5","4","5","4","5","4","5","6","4","3","5","3","5","6","5","4","6","7","5","2","6","3","4","2","5","6","4","3","6","6","5","5","4","4","6","2","2","5","2","2","3","4","3","5","3","6","3","5","3","3","2","5","3","6","3","5","672546881741520896","刘","162","Male","[""坏他"",""好我"",""坏我"",""好他""]","[""弱他"",""强我"",""弱我"",""强他""]","","","","","","","","","","","","","","","","","","","","","","","","","","","","","","","","","","","","","",""
"13916","","","instructions","107","329455","0.0-8.0-0.0-1.0-1.0-1.0","6","6","6","5","6","4","3","4","5","5","4","1","-3","1","1","1","1","1","1","5","4","5","5","4","5","4","5","4","5","6","4","3","5","3","5","6","5","4","6","7","5","2","6","3","4","2","5","6","4","3","6","6","5","5","4","4","6","2","2","5","2","2","3","4","3","5","3","6","3","5","3","3","2","5","3","6","3","5","672546881741520896","刘","162","Male","[""坏他"",""好我"",""坏我"",""好他""]","[""弱他"",""强我"",""弱我"",""强他""]","","","","","","","","","","","","","","","","","[{""page_index"":0,""viewing_time"":2485},{""page_index"":1,""viewing_time"":9711},{""page_index"":2,""viewing_time"":1720}]","","","","","","","","","","","","","","","","","","","","",""
"1031","","j","psychophysics","108","331489","0.0-8.0-0.0-1.1-0.1-0.48","6","6","6","5","6","4","3","4","5","5","4","1","-3","1","1","1","1","1","1","5","4","5","5","4","5","4","5","4","5","6","4","3","5","3","5","6","5","4","6","7","5","2","6","3","4","2","5","6","4","3","6","6","5","5","4","4","6","2","2","5","2","2","3","4","3","5","3","6","3","5","3","3","2","5","3","6","3","5","672546881741520896","刘","162","Male","[""坏他"",""好我"",""坏我"",""好他""]","[""弱他"",""强我"",""弱我"",""强他""]","","","","","","","","nonmatch","","","","","","","","","","key","j","16.648297520661302","683","380","f","false","match","img/square.png","好我","好我","prac_ALT2_moral","practice_moral","","","","","","","",""
"null","<span style='color:red; font-size: 70px;'>错误! </span>","null","html-keyboard-response","109","331990","0.0-8.0-0.0-1.1-0.1-1.48","6","6","6","5","6","4","3","4","5","5","4","1","-3","1","1","1","1","1","1","5","4","5","5","4","5","4","5","4","5","6","4","3","5","3","5","6","5","4","6","7","5","2","6","3","4","2","5","6","4","3","6","6","5","5","4","4","6","2","2","5","2","2","3","4","3","5","3","6","3","5","3","3","2","5","3","6","3","5","672546881741520896","刘","162","Male","[""坏他"",""好我"",""坏我"",""好他""]","[""弱他"",""强我"",""弱我"",""强他""]","","","","","","","","","","","","","","","","","","","","","","","","","","","","","","feedback_test","","","","","","","",""
"976","","j","psychophysics","110","333970","0.0-8.0-0.0-1.1-0.1-0.49","6","6","6","5","6","4","3","4","5","5","4","1","-3","1","1","1","1","1","1","5","4","5","5","4","5","4","5","4","5","6","4","3","5","3","5","6","5","4","6","7","5","2","6","3","4","2","5","6","4","3","6","6","5","5","4","4","6","2","2","5","2","2","3","4","3","5","3","6","3","5","3","3","2","5","3","6","3","5","672546881741520896","刘","162","Male","[""坏他"",""好我"",""坏我"",""好他""]","[""弱他"",""强我"",""弱我"",""强他""]","","","","","","","","nonmatch","","","","","","","","","","key","j","16.64794067796606","683","380","j","true","nonmatch","img/ellipse.png","坏他","好他","prac_ALT2_moral","practice_moral","","","","","","","",""
"null","<span style='color:GreenYellow; font-size: 70px;'>正确! </span>","null","html-keyboard-response","111","334471","0.0-8.0-0.0-1.1-0.1-1.49","6","6","6","5","6","4","3","4","5","5","4","1","-3","1","1","1","1","1","1","5","4","5","5","4","5","4","5","4","5","6","4","3","5","3","5","6","5","4","6","7","5","2","6","3","4","2","5","6","4","3","6","6","5","5","4","4","6","2","2","5","2","2","3","4","3","5","3","6","3","5","3","3","2","5","3","6","3","5","672546881741520896","刘","162","Male","[""坏他"",""好我"",""坏我"",""好他""]","[""弱他"",""强我"",""弱我"",""强他""]","","","","","","","","","","","","","","","","","","","","","","","","","","","","","","feedback_test","","","","","","","",""
"760","","f","psychophysics","112","336231","0.0-8.0-0.0-1.1-0.1-0.50","6","6","6","5","6","4","3","4","5","5","4","1","-3","1","1","1","1","1","1","5","4","5","5","4","5","4","5","4","5","6","4","3","5","3","5","6","5","4","6","7","5","2","6","3","4","2","5","6","4","3","6","6","5","5","4","4","6","2","2","5","2","2","3","4","3","5","3","6","3","5","3","3","2","5","3","6","3","5","672546881741520896","刘","162","Male","[""坏他"",""好我"",""坏我"",""好他""]","[""弱他"",""强我"",""弱我"",""强他""]","","","","","","","","match","","","","","","","","","","key","f","16.647523809523722","683","380","f","true","match","img/pentagon.png","坏我","坏我","prac_ALT2_moral","practice_moral","","","","","","","",""
"null","<span style='color:GreenYellow; font-size: 70px;'>正确! </span>","null","html-keyboard-response","113","336733","0.0-8.0-0.0-1.1-0.1-1.50","6","6","6","5","6","4","3","4","5","5","4","1","-3","1","1","1","1","1","1","5","4","5","5","4","5","4","5","4","5","6","4","3","5","3","5","6","5","4","6","7","5","2","6","3","4","2","5","6","4","3","6","6","5","5","4","4","6","2","2","5","2","2","3","4","3","5","3","6","3","5","3","3","2","5","3","6","3","5","672546881741520896","刘","162","Male","[""坏他"",""好我"",""坏我"",""好他""]","[""弱他"",""强我"",""弱我"",""强他""]","","","","","","","","","","","","","","","","","","","","","","","","","","","","","","feedback_test","","","","","","","",""
"1087","","j","psychophysics","114","338822","0.0-8.0-0.0-1.1-0.1-0.51","6","6","6","5","6","4","3","4","5","5","4","1","-3","1","1","1","1","1","1","5","4","5","5","4","5","4","5","4","5","6","4","3","5","3","5","6","5","4","6","7","5","2","6","3","4","2","5","6","4","3","6","6","5","5","4","4","6","2","2","5","2","2","3","4","3","5","3","6","3","5","3","3","2","5","3","6","3","5","672546881741520896","刘","162","Male","[""坏他"",""好我"",""坏我"",""好他""]","[""弱他"",""强我"",""弱我"",""强他""]","","","","","","","","nonmatch","","","","","","","","","","key","j","16.647322580645483","683","380","j","true","nonmatch","img/square.png","坏我","好我","prac_ALT2_moral","practice_moral","","","","","","","",""
"null","<span style='color:GreenYellow; font-size: 70px;'>正确! </span>","null","html-keyboard-response","115","339323","0.0-8.0-0.0-1.1-0.1-1.51","6","6","6","5","6","4","3","4","5","5","4","1","-3","1","1","1","1","1","1","5","4","5","5","4","5","4","5","4","5","6","4","3","5","3","5","6","5","4","6","7","5","2","6","3","4","2","5","6","4","3","6","6","5","5","4","4","6","2","2","5","2","2","3","4","3","5","3","6","3","5","3","3","2","5","3","6","3","5","672546881741520896","刘","162","Male","[""坏他"",""好我"",""坏我"",""好他""]","[""弱他"",""强我"",""弱我"",""强他""]","","","","","","","","","","","","","","","","","","","","","","","","","","","","","","feedback_test","","","","","","","",""
"919","","j","psychophysics","116","341242","0.0-8.0-0.0-1.1-0.1-0.52","6","6","6","5","6","4","3","4","5","5","4","1","-3","1","1","1","1","1","1","5","4","5","5","4","5","4","5","4","5","6","4","3","5","3","5","6","5","4","6","7","5","2","6","3","4","2","5","6","4","3","6","6","5","5","4","4","6","2","2","5","2","2","3","4","3","5","3","6","3","5","3","3","2","5","3","6","3","5","672546881741520896","刘","162","Male","[""坏他"",""好我"",""坏我"",""好他""]","[""弱他"",""强我"",""弱我"",""强他""]","","","","","","","","nonmatch","","","","","","","","","","key","j","16.64750877192975","683","380","j","true","nonmatch","img/diamond.png","坏我","坏他","prac_ALT2_moral","practice_moral","","","","","","","",""
"null","<span style='color:GreenYellow; font-size: 70px;'>正确! </span>","null","html-keyboard-response","117","341743","0.0-8.0-0.0-1.1-0.1-1.52","6","6","6","5","6","4","3","4","5","5","4","1","-3","1","1","1","1","1","1","5","4","5","5","4","5","4","5","4","5","6","4","3","5","3","5","6","5","4","6","7","5","2","6","3","4","2","5","6","4","3","6","6","5","5","4","4","6","2","2","5","2","2","3","4","3","5","3","6","3","5","3","3","2","5","3","6","3","5","672546881741520896","刘","162","Male","[""坏他"",""好我"",""坏我"",""好他""]","[""弱他"",""强我"",""弱我"",""强他""]","","","","","","","","","","","","","","","","","","","","","","","","","","","","","","feedback_test","","","","","","","",""
"856","","j","psychophysics","118","343601","0.0-8.0-0.0-1.1-0.1-0.53","6","6","6","5","6","4","3","4","5","5","4","1","-3","1","1","1","1","1","1","5","4","5","5","4","5","4","5","4","5","6","4","3","5","3","5","6","5","4","6","7","5","2","6","3","4","2","5","6","4","3","6","6","5","5","4","4","6","2","2","5","2","2","3","4","3","5","3","6","3","5","3","3","2","5","3","6","3","5","672546881741520896","刘","162","Male","[""坏他"",""好我"",""坏我"",""好他""]","[""弱他"",""强我"",""弱我"",""强他""]","","","","","","","","nonmatch","","","","","","","","","","key","j","16.647563636363802","683","380","j","true","nonmatch","img/ellipse.png","坏我","好他","prac_ALT2_moral","practice_moral","","","","","","","",""
"null","<span style='color:GreenYellow; font-size: 70px;'>正确! </span>","null","html-keyboard-response","119","344102","0.0-8.0-0.0-1.1-0.1-1.53","6","6","6","5","6","4","3","4","5","5","4","1","-3","1","1","1","1","1","1","5","4","5","5","4","5","4","5","4","5","6","4","3","5","3","5","6","5","4","6","7","5","2","6","3","4","2","5","6","4","3","6","6","5","5","4","4","6","2","2","5","2","2","3","4","3","5","3","6","3","5","3","3","2","5","3","6","3","5","672546881741520896","刘","162","Male","[""坏他"",""好我"",""坏我"",""好他""]","[""弱他"",""强我"",""弱我"",""强他""]","","","","","","","","","","","","","","","","","","","","","","","","","","","","","","feedback_test","","","","","","","",""
"780","","f","psychophysics","120","345885","0.0-8.0-0.0-1.1-0.1-0.54","6","6","6","5","6","4","3","4","5","5","4","1","-3","1","1","1","1","1","1","5","4","5","5","4","5","4","5","4","5","6","4","3","5","3","5","6","5","4","6","7","5","2","6","3","4","2","5","6","4","3","6","6","5","5","4","4","6","2","2","5","2","2","3","4","3","5","3","6","3","5","3","3","2","5","3","6","3","5","672546881741520896","刘","162","Male","[""坏他"",""好我"",""坏我"",""好他""]","[""弱他"",""强我"",""弱我"",""强他""]","","","","","","","","match","","","","","","","","","","key","f","16.647264150943265","683","380","j","false","nonmatch","img/pentagon.png","好他","坏我","prac_ALT2_moral","practice_moral","","","","","","","",""
"null","<span style='color:red; font-size: 70px;'>错误! </span>","null","html-keyboard-response","121","346388","0.0-8.0-0.0-1.1-0.1-1.54","6","6","6","5","6","4","3","4","5","5","4","1","-3","1","1","1","1","1","1","5","4","5","5","4","5","4","5","4","5","6","4","3","5","3","5","6","5","4","6","7","5","2","6","3","4","2","5","6","4","3","6","6","5","5","4","4","6","2","2","5","2","2","3","4","3","5","3","6","3","5","3","3","2","5","3","6","3","5","672546881741520896","刘","162","Male","[""坏他"",""好我"",""坏我"",""好他""]","[""弱他"",""强我"",""弱我"",""强他""]","","","","","","","","","","","","","","","","","","","","","","","","","","","","","","feedback_test","","","","","","","",""
"933","","f","psychophysics","122","348323","0.0-8.0-0.0-1.1-0.1-0.55","6","6","6","5","6","4","3","4","5","5","4","1","-3","1","1","1","1","1","1","5","4","5","5","4","5","4","5","4","5","6","4","3","5","3","5","6","5","4","6","7","5","2","6","3","4","2","5","6","4","3","6","6","5","5","4","4","6","2","2","5","2","2","3","4","3","5","3","6","3","5","3","3","2","5","3","6","3","5","672546881741520896","刘","162","Male","[""坏他"",""好我"",""坏我"",""好他""]","[""弱他"",""强我"",""弱我"",""强他""]","","","","","","","","match","","","","","","","","","","key","f","16.646817391304523","683","380","f","true","match","img/pentagon.png","坏我","坏我","prac_ALT2_moral","practice_moral","","","","","","","",""
"null","<span style='color:GreenYellow; font-size: 70px;'>正确! </span>","null","html-keyboard-response","123","348824","0.0-8.0-0.0-1.1-0.1-1.55","6","6","6","5","6","4","3","4","5","5","4","1","-3","1","1","1","1","1","1","5","4","5","5","4","5","4","5","4","5","6","4","3","5","3","5","6","5","4","6","7","5","2","6","3","4","2","5","6","4","3","6","6","5","5","4","4","6","2","2","5","2","2","3","4","3","5","3","6","3","5","3","3","2","5","3","6","3","5","672546881741520896","刘","162","Male","[""坏他"",""好我"",""坏我"",""好他""]","[""弱他"",""强我"",""弱我"",""强他""]","","","","","","","","","","","","","","","","","","","","","","","","","","","","","","feedback_test","","","","","","","",""
"1189","","j","psychophysics","124","351014","0.0-8.0-0.0-1.1-0.1-0.56","6","6","6","5","6","4","3","4","5","5","4","1","-3","1","1","1","1","1","1","5","4","5","5","4","5","4","5","4","5","6","4","3","5","3","5","6","5","4","6","7","5","2","6","3","4","2","5","6","4","3","6","6","5","5","4","4","6","2","2","5","2","2","3","4","3","5","3","6","3","5","3","3","2","5","3","6","3","5","672546881741520896","刘","162","Male","[""坏他"",""好我"",""坏我"",""好他""]","[""弱他"",""强我"",""弱我"",""强他""]","","","","","","","","nonmatch","","","","","","","","","","key","j","16.64796946564901","683","380","j","true","nonmatch","img/square.png","好他","好我","prac_ALT2_moral","practice_moral","","","","","","","",""
"null","<span style='color:GreenYellow; font-size: 70px;'>正确! </span>","null","html-keyboard-response","125","351516","0.0-8.0-0.0-1.1-0.1-1.56","6","6","6","5","6","4","3","4","5","5","4","1","-3","1","1","1","1","1","1","5","4","5","5","4","5","4","5","4","5","6","4","3","5","3","5","6","5","4","6","7","5","2","6","3","4","2","5","6","4","3","6","6","5","5","4","4","6","2","2","5","2","2","3","4","3","5","3","6","3","5","3","3","2","5","3","6","3","5","672546881741520896","刘","162","Male","[""坏他"",""好我"",""坏我"",""好他""]","[""弱他"",""强我"",""弱我"",""强他""]","","","","","","","","","","","","","","","","","","","","","","","","","","","","","","feedback_test","","","","","","","",""
"1070","","f","psychophysics","126","353587","0.0-8.0-0.0-1.1-0.1-0.57","6","6","6","5","6","4","3","4","5","5","4","1","-3","1","1","1","1","1","1","5","4","5","5","4","5","4","5","4","5","6","4","3","5","3","5","6","5","4","6","7","5","2","6","3","4","2","5","6","4","3","6","6","5","5","4","4","6","2","2","5","2","2","3","4","3","5","3","6","3","5","3","3","2","5","3","6","3","5","672546881741520896","刘","162","Male","[""坏他"",""好我"",""坏我"",""好他""]","[""弱他"",""强我"",""弱我"",""强他""]","","","","","","","","match","","","","","","","","","","key","f","16.64753658536583","683","380","j","false","nonmatch","img/diamond.png","好他","坏他","prac_ALT2_moral","practice_moral","","","","","","","",""
"null","<span style='color:red; font-size: 70px;'>错误! </span>","null","html-keyboard-response","127","354088","0.0-8.0-0.0-1.1-0.1-1.57","6","6","6","5","6","4","3","4","5","5","4","1","-3","1","1","1","1","1","1","5","4","5","5","4","5","4","5","4","5","6","4","3","5","3","5","6","5","4","6","7","5","2","6","3","4","2","5","6","4","3","6","6","5","5","4","4","6","2","2","5","2","2","3","4","3","5","3","6","3","5","3","3","2","5","3","6","3","5","672546881741520896","刘","162","Male","[""坏他"",""好我"",""坏我"",""好他""]","[""弱他"",""强我"",""弱我"",""强他""]","","","","","","","","","","","","","","","","","","","","","","","","","","","","","","feedback_test","","","","","","","",""
"877","","f","psychophysics","128","355967","0.0-8.0-0.0-1.1-0.1-0.58","6","6","6","5","6","4","3","4","5","5","4","1","-3","1","1","1","1","1","1","5","4","5","5","4","5","4","5","4","5","6","4","3","5","3","5","6","5","4","6","7","5","2","6","3","4","2","5","6","4","3","6","6","5","5","4","4","6","2","2","5","2","2","3","4","3","5","3","6","3","5","3","3","2","5","3","6","3","5","672546881741520896","刘","162","Male","[""坏他"",""好我"",""坏我"",""好他""]","[""弱他"",""强我"",""弱我"",""强他""]","","","","","","","","match","","","","","","","","","","key","f","16.646973214285804","683","380","f","true","match","img/ellipse.png","好他","好他","prac_ALT2_moral","practice_moral","","","","","","","",""
"null","<span style='color:GreenYellow; font-size: 70px;'>正确! </span>","null","html-keyboard-response","129","356468","0.0-8.0-0.0-1.1-0.1-1.58","6","6","6","5","6","4","3","4","5","5","4","1","-3","1","1","1","1","1","1","5","4","5","5","4","5","4","5","4","5","6","4","3","5","3","5","6","5","4","6","7","5","2","6","3","4","2","5","6","4","3","6","6","5","5","4","4","6","2","2","5","2","2","3","4","3","5","3","6","3","5","3","3","2","5","3","6","3","5","672546881741520896","刘","162","Male","[""坏他"",""好我"",""坏我"",""好他""]","[""弱他"",""强我"",""弱我"",""强他""]","","","","","","","","","","","","","","","","","","","","","","","","","","","","","","feedback_test","","","","","","","",""
"1171","","f","psychophysics","130","358641","0.0-8.0-0.0-1.1-0.1-0.59","6","6","6","5","6","4","3","4","5","5","4","1","-3","1","1","1","1","1","1","5","4","5","5","4","5","4","5","4","5","6","4","3","5","3","5","6","5","4","6","7","5","2","6","3","4","2","5","6","4","3","6","6","5","5","4","4","6","2","2","5","2","2","3","4","3","5","3","6","3","5","3","3","2","5","3","6","3","5","672546881741520896","刘","162","Male","[""坏他"",""好我"",""坏我"",""好他""]","[""弱他"",""强我"",""弱我"",""强他""]","","","","","","","","match","","","","","","","","","","key","f","16.64747692307663","683","380","f","true","match","img/square.png","好我","好我","prac_ALT2_moral","practice_moral","","","","","","","",""
"null","<span style='color:GreenYellow; font-size: 70px;'>正确! </span>","null","html-keyboard-response","131","359141","0.0-8.0-0.0-1.1-0.1-1.59","6","6","6","5","6","4","3","4","5","5","4","1","-3","1","1","1","1","1","1","5","4","5","5","4","5","4","5","4","5","6","4","3","5","3","5","6","5","4","6","7","5","2","6","3","4","2","5","6","4","3","6","6","5","5","4","4","6","2","2","5","2","2","3","4","3","5","3","6","3","5","3","3","2","5","3","6","3","5","672546881741520896","刘","162","Male","[""坏他"",""好我"",""坏我"",""好他""]","[""弱他"",""强我"",""弱我"",""强他""]","","","","","","","","","","","","","","","","","","","","","","","","","","","","","","feedback_test","","","","","","","",""
"null","","null","psychophysics","132","361345","0.0-8.0-0.0-1.1-0.1-0.60","6","6","6","5","6","4","3","4","5","5","4","1","-3","1","1","1","1","1","1","5","4","5","5","4","5","4","5","4","5","6","4","3","5","3","5","6","5","4","6","7","5","2","6","3","4","2","5","6","4","3","6","6","5","5","4","4","6","2","2","5","2","2","3","4","3","5","3","6","3","5","3","3","2","5","3","6","3","5","672546881741520896","刘","162","Male","[""坏他"",""好我"",""坏我"",""好他""]","[""弱他"",""强我"",""弱我"",""强他""]","","","","","","","","null","","","","","","","","","","key","null","16.647206106870115","683","380","f","false","match","img/ellipse.png","好他","好他","prac_ALT2_moral","practice_moral","","","","","","","",""
"null","<span class='add_' style='color:yellow; font-size: 70px;'> 太慢! </span>","null","html-keyboard-response","133","361846","0.0-8.0-0.0-1.1-0.1-1.60","6","6","6","5","6","4","3","4","5","5","4","1","-3","1","1","1","1","1","1","5","4","5","5","4","5","4","5","4","5","6","4","3","5","3","5","6","5","4","6","7","5","2","6","3","4","2","5","6","4","3","6","6","5","5","4","4","6","2","2","5","2","2","3","4","3","5","3","6","3","5","3","3","2","5","3","6","3","5","672546881741520896","刘","162","Male","[""坏他"",""好我"",""坏我"",""好他""]","[""弱他"",""强我"",""弱我"",""强他""]","","","","","","","","","","","","","","","","","","","","","","","","","","","","","","feedback_test","","","","","","","",""
"1056","","f","psychophysics","134","363904","0.0-8.0-0.0-1.1-0.1-0.61","6","6","6","5","6","4","3","4","5","5","4","1","-3","1","1","1","1","1","1","5","4","5","5","4","5","4","5","4","5","6","4","3","5","3","5","6","5","4","6","7","5","2","6","3","4","2","5","6","4","3","6","6","5","5","4","4","6","2","2","5","2","2","3","4","3","5","3","6","3","5","3","3","2","5","3","6","3","5","672546881741520896","刘","162","Male","[""坏他"",""好我"",""坏我"",""好他""]","[""弱他"",""强我"",""弱我"",""强他""]","","","","","","","","match","","","","","","","","","","key","f","16.64734959349602","683","380","f","true","match","img/diamond.png","坏他","坏他","prac_ALT2_moral","practice_moral","","","","","","","",""
"null","<span style='color:GreenYellow; font-size: 70px;'>正确! </span>","null","html-keyboard-response","135","364405","0.0-8.0-0.0-1.1-0.1-1.61","6","6","6","5","6","4","3","4","5","5","4","1","-3","1","1","1","1","1","1","5","4","5","5","4","5","4","5","4","5","6","4","3","5","3","5","6","5","4","6","7","5","2","6","3","4","2","5","6","4","3","6","6","5","5","4","4","6","2","2","5","2","2","3","4","3","5","3","6","3","5","3","3","2","5","3","6","3","5","672546881741520896","刘","162","Male","[""坏他"",""好我"",""坏我"",""好他""]","[""弱他"",""强我"",""弱我"",""强他""]","","","","","","","","","","","","","","","","","","","","","","","","","","","","","","feedback_test","","","","","","","",""
"993","","f","psychophysics","136","366400","0.0-8.0-0.0-1.1-0.1-0.62","6","6","6","5","6","4","3","4","5","5","4","1","-3","1","1","1","1","1","1","5","4","5","5","4","5","4","5","4","5","6","4","3","5","3","5","6","5","4","6","7","5","2","6","3","4","2","5","6","4","3","6","6","5","5","4","4","6","2","2","5","2","2","3","4","3","5","3","6","3","5","3","3","2","5","3","6","3","5","672546881741520896","刘","162","Male","[""坏他"",""好我"",""坏我"",""好他""]","[""弱他"",""强我"",""弱我"",""强他""]","","","","","","","","match","","","","","","","","","","key","f","16.647218487395204","683","380","j","false","nonmatch","img/diamond.png","好我","坏他","prac_ALT2_moral","practice_moral","","","","","","","",""
"null","<span style='color:red; font-size: 70px;'>错误! </span>","null","html-keyboard-response","137","366901","0.0-8.0-0.0-1.1-0.1-1.62","6","6","6","5","6","4","3","4","5","5","4","1","-3","1","1","1","1","1","1","5","4","5","5","4","5","4","5","4","5","6","4","3","5","3","5","6","5","4","6","7","5","2","6","3","4","2","5","6","4","3","6","6","5","5","4","4","6","2","2","5","2","2","3","4","3","5","3","6","3","5","3","3","2","5","3","6","3","5","672546881741520896","刘","162","Male","[""坏他"",""好我"",""坏我"",""好他""]","[""弱他"",""强我"",""弱我"",""强他""]","","","","","","","","","","","","","","","","","","","","","","","","","","","","","","feedback_test","","","","","","","",""
"834","","f","psychophysics","138","368737","0.0-8.0-0.0-1.1-0.1-0.63","6","6","6","5","6","4","3","4","5","5","4","1","-3","1","1","1","1","1","1","5","4","5","5","4","5","4","5","4","5","6","4","3","5","3","5","6","5","4","6","7","5","2","6","3","4","2","5","6","4","3","6","6","5","5","4","4","6","2","2","5","2","2","3","4","3","5","3","6","3","5","3","3","2","5","3","6","3","5","672546881741520896","刘","162","Male","[""坏他"",""好我"",""坏我"",""好他""]","[""弱他"",""强我"",""弱我"",""强他""]","","","","","","","","match","","","","","","","","","","key","f","16.647633027522975","683","380","j","false","nonmatch","img/pentagon.png","好我","坏我","prac_ALT2_moral","practice_moral","","","","","","","",""
"null","<span style='color:red; font-size: 70px;'>错误! </span>","null","html-keyboard-response","139","369238","0.0-8.0-0.0-1.1-0.1-1.63","6","6","6","5","6","4","3","4","5","5","4","1","-3","1","1","1","1","1","1","5","4","5","5","4","5","4","5","4","5","6","4","3","5","3","5","6","5","4","6","7","5","2","6","3","4","2","5","6","4","3","6","6","5","5","4","4","6","2","2","5","2","2","3","4","3","5","3","6","3","5","3","3","2","5","3","6","3","5","672546881741520896","刘","162","Male","[""坏他"",""好我"",""坏我"",""好他""]","[""弱他"",""强我"",""弱我"",""强他""]","","","","","","","","","","","","","","","","","","","","","","","","","","","","","","feedback_test","","","","","","","",""
