"rt","stimulus","response","trial_type","trial_index","time_elapsed","internal_node_id","swb_1","swb_2","swb_3","swb_4","swb_5","LOT_1","LOT_2","LOT_3","LOT_4","LOT_5","LOT_6","IPC_1","IPC_2","IPC_3","IPC_4","IPC_5","IPC_6","IPC_7","IPC_8","MorIden_1","MorIden_2","MorIden_3","MorIden_4","MorIden_5","MorIden_6","MorIden_7","MorIden_8","MorIden_9","MorIden_10","moralSeImag_1","moralSeImag_2","moralSeImag_3","moralSeImag_4","moralSeImag_5","moralSeImag_6","moralSeImag_7","moralSeImag_8","moralSeImag_9","sde_1","sde_2","sde_3","sde_4","sde_5","sde_6","sde_7","sde_8","sde_9","sde_10","sde_11","sde_12","sde_13","sde_14","sde_15","sde_16","sde_17","sde_18","sde_19","sde_20","IM_1","IM_2","IM_3","IM_4","IM_5","IM_6","IM_7","IM_8","IM_9","IM_10","IM_11","IM_12","IM_13","IM_14","IM_15","IM_16","IM_17","IM_18","IM_19","IM_20","subj_idx","friend_name","ParticipantID","Sex","Word","Word2","value","success","timeout","failed_images","failed_audio","failed_video","user_agent","responses","item_order","radio_event_ids","radio_event_times","key_event_times","mouse_event_times","straightlining","zigzagging","honeypot","task_id","screen_id","time_stamp","response_type","key_press","avg_frame_time","center_x","center_y","person","word","valence","domain","math","correct_response","correct","status","view_history","identity","duration","Image","condition","question_order"
"8596","
   <p><div style='color:white; font-size: 25px'>您好，欢迎参加本次实验。</div></p>
   <p><div style='color:white; font-size: 25px'>为充分保障您的权利，请确保您已经知晓并同意《参与实验同意书》以及《数据公开知情同意书》。</div></p>
   <p><div style='color:white; font-size: 25px'>如果您未见过上述内容，请咨询实验员。</div></p>
   <p style='color:white; font-size: 25px'>如果您选择继续实验，则表示您已经清楚两份知情同意书的内容并同意。</p>
   <p> <div style = ""color: green""><按空格键至下页></div> </p>
   "," ","html-keyboard-response","0","8601","0.0-0.0","6","5","6","5","3","5","4","4","4","5","4","2","1","1","2","1","2","1","0","5","5","4","2","5","4","5","5","4","4","7","8","8","6","8","7","7","7","9","6","3","2","6","2","2","5","2","3","3","3","2","5","2","7","3","6","3","4","5","2","5","2","2","3","6","5","5","3","6","5","6","5","2","3","6","3","6","3","5","598888935887732736","赵熊","468","Male","[""好他"",""好我"",""坏我"",""坏他""]","[""强他"",""强我"",""弱我"",""弱他""]","","","","","","","","","","","","","","","","","","","","","","","","","","","","","","","","","","","","","",""
"","","","call-function","1","8602","0.0-1.0-0.0","6","5","6","5","3","5","4","4","4","5","4","2","1","1","2","1","2","1","0","5","5","4","2","5","4","5","5","4","4","7","8","8","6","8","7","7","7","9","6","3","2","6","2","2","5","2","3","3","3","2","5","2","7","3","6","3","4","5","2","5","2","2","3","6","5","5","3","6","5","6","5","2","3","6","3","6","3","5","598888935887732736","赵熊","468","Male","[""好他"",""好我"",""坏我"",""坏他""]","[""强他"",""强我"",""弱我"",""弱他""]","","","","","","","","","","","","","","","","","","","","","","","","","","","","","","","","","","","","","",""
"55413","","[{""name"":""Sex"",""value"":""0""},{""name"":""friend_name"",""value"":""赵熊""},{""name"":""ParticipantID"",""value"":""468""}]","survey-html-form","2","64040","0.0-1.0-1.0","6","5","6","5","3","5","4","4","4","5","4","2","1","1","2","1","2","1","0","5","5","4","2","5","4","5","5","4","4","7","8","8","6","8","7","7","7","9","6","3","2","6","2","2","5","2","3","3","3","2","5","2","7","3","6","3","4","5","2","5","2","2","3","6","5","5","3","6","5","6","5","2","3","6","3","6","3","5","598888935887732736","赵熊","468","Male","[""好他"",""好我"",""坏我"",""坏他""]","[""强他"",""强我"",""弱我"",""弱他""]","","","","","","","","","","","","","","","","","","","","","","","","","","","","","","","","","","","","","",""
"","","","preload","3","65668","0.0-2.0","6","5","6","5","3","5","4","4","4","5","4","2","1","1","2","1","2","1","0","5","5","4","2","5","4","5","5","4","4","7","8","8","6","8","7","7","7","9","6","3","2","6","2","2","5","2","3","3","3","2","5","2","7","3","6","3","4","5","2","5","2","2","3","6","5","5","3","6","5","6","5","2","3","6","3","6","3","5","598888935887732736","赵熊","468","Male","[""好他"",""好我"",""坏我"",""坏他""]","[""强他"",""强我"",""弱我"",""弱他""]","","true","false","[]","[]","[]","","","","","","","","","","","","","","","","","","","","","","","","","","","","","","","",""
"","","","fullscreen","4","67322","0.0-3.0","6","5","6","5","3","5","4","4","4","5","4","2","1","1","2","1","2","1","0","5","5","4","2","5","4","5","5","4","4","7","8","8","6","8","7","7","7","9","6","3","2","6","2","2","5","2","3","3","3","2","5","2","7","3","6","3","4","5","2","5","2","2","3","6","5","5","3","6","5","6","5","2","3","6","3","6","3","5","598888935887732736","赵熊","468","Male","[""好他"",""好我"",""坏我"",""坏他""]","[""强他"",""强我"",""弱我"",""弱他""]","","true","","","","","{}","","","","","","","","","","","","","","","","","","","","","","","","","","","","","","",""
"15478.900000572205","","{""Q01"":""6"",""Q02"":""5"",""Q03"":""6"",""Q04"":""5"",""Q05"":""3""}","survey-template","5","82831","0.0-4.0","6","5","6","5","3","5","4","4","4","5","4","2","1","1","2","1","2","1","0","5","5","4","2","5","4","5","5","4","4","7","8","8","6","8","7","7","7","9","6","3","2","6","2","2","5","2","3","3","3","2","5","2","7","3","6","3","4","5","2","5","2","2","3","6","5","5","3","6","5","6","5","2","3","6","3","6","3","5","598888935887732736","赵熊","468","Male","[""好他"",""好我"",""坏我"",""坏他""]","[""强他"",""强我"",""弱我"",""弱他""]","","","","","","","","{""Q01"":""6"",""Q02"":""5"",""Q03"":""6"",""Q04"":""5"",""Q05"":""3""}","[0,1,2,3,4]","[""Q01"",""Q02"",""Q03"",""Q04"",""Q05"",""Q02""]","[2060.800000190735,4069.7000007629395,4908.700000762939,7796.5,12141.10000038147,14740.70000076294]","[]","[2060.800000190735,3372.7000007629395,4069.7000007629395,4908.700000762939,7796.5,12141.10000038147,14421.900000572205,14740.70000076294,15476.70000076294]","0.4","0.75","0","","","","","","","","","","","","","","","","","","","","","",""
"44466.800000190735","","{""Q01"":""5"",""Q02"":""4"",""Q03"":""4"",""Q04"":""4"",""Q05"":""5"",""Q06"":""4""}","survey-template","6","127313","0.0-5.0","6","5","6","5","3","5","4","4","4","5","4","2","1","1","2","1","2","1","0","5","5","4","2","5","4","5","5","4","4","7","8","8","6","8","7","7","7","9","6","3","2","6","2","2","5","2","3","3","3","2","5","2","7","3","6","3","4","5","2","5","2","2","3","6","5","5","3","6","5","6","5","2","3","6","3","6","3","5","598888935887732736","赵熊","468","Male","[""好他"",""好我"",""坏我"",""坏他""]","[""强他"",""强我"",""弱我"",""弱他""]","","","","","","","","{""Q01"":""5"",""Q02"":""4"",""Q03"":""4"",""Q04"":""4"",""Q05"":""5"",""Q06"":""4""}","[0,1,2,3,4,5]","[""Q01"",""Q01"",""Q02"",""Q02"",""Q03"",""Q04"",""Q05"",""Q06""]","[22753.300000190735,23969.199999809265,30153.199999809265,31137.599999427795,33793.300000190735,38881.199999809265,40697.099999427795,43681.39999961853]","[]","[22753.300000190735,23969.199999809265,30153.199999809265,31137.599999427795,33793.300000190735,38881.199999809265,40697.099999427795,43681.39999961853,44465.39999961853]","0.3333333333333333","0.2","0","","","","","","","","","","","","","","","","","","","","","",""
"20233.300000190735","","{""Q01"":""2"",""Q02"":""1"",""Q03"":""1"",""Q04"":""2"",""Q05"":""1"",""Q06"":""2"",""Q07"":""1"",""Q08"":""0""}","survey-template","7","147555","0.0-6.0","6","5","6","5","3","5","4","4","4","5","4","2","1","1","2","1","2","1","0","5","5","4","2","5","4","5","5","4","4","7","8","8","6","8","7","7","7","9","6","3","2","6","2","2","5","2","3","3","3","2","5","2","7","3","6","3","4","5","2","5","2","2","3","6","5","5","3","6","5","6","5","2","3","6","3","6","3","5","598888935887732736","赵熊","468","Male","[""好他"",""好我"",""坏我"",""坏他""]","[""强他"",""强我"",""弱我"",""弱他""]","","","","","","","","{""Q01"":""2"",""Q02"":""1"",""Q03"":""1"",""Q04"":""2"",""Q05"":""1"",""Q06"":""2"",""Q07"":""1"",""Q08"":""0""}","[0,1,2,3,4,5,6,7]","[""Q01"",""Q02"",""Q03"",""Q04"",""Q05"",""Q06"",""Q07"",""Q08""]","[2559.5,6391.39999961853,8600.099999427795,11231.199999809265,12679.39999961853,15135.39999961853,18039.699999809265,19599.300000190735]","[]","[2559.5,6135.800000190735,6391.39999961853,8600.099999427795,10871.39999961853,11231.199999809265,12679.39999961853,14103.800000190735,14879,15135.39999961853,18039.699999809265,19047,19599.300000190735,20231.300000190735]","0.5","0.8571428571428571","0","","","","","","","","","","","","","","","","","","","","","",""
"4015","
    <p><div style='color:white;font-size:35px; line-height:20px;'>词汇评估任务</div></p><br>
    <p><div style='color:white;font-size:25px; line-height:20px;'>请再次回忆该亲密的朋友，你们至少2年前就认识了，并且最近2年经常见面。</div></p>
    <p><div style='color:white;font-size:25px; line-height:20px;'>在本实验中，您将会看到一些形容词。</div></p>
    <p><div style='color:yellow;font-size:25px; line-height:20px;'>您的任务是判断这些形容词是否符合对您自己或您的朋友的描述。</div></p><p style='font-size:35px'>符合按<span style=""color:lightgreen""> f 键</span>，不符合按<span style=""color:red""> j 键</span></p>","0","html-button-response","8","151578","0.0-7.0-0.0","6","5","6","5","3","5","4","4","4","5","4","2","1","1","2","1","2","1","0","5","5","4","2","5","4","5","5","4","4","7","8","8","6","8","7","7","7","9","6","3","2","6","2","2","5","2","3","3","3","2","5","2","7","3","6","3","4","5","2","5","2","2","3","6","5","5","3","6","5","6","5","2","3","6","3","6","3","5","598888935887732736","赵熊","468","Male","[""好他"",""好我"",""坏我"",""坏他""]","[""强他"",""强我"",""弱我"",""弱他""]","","","","","","","","","","","","","","","","","SRET_EW","EW_instructions","Tue Oct 17 2023 18:45:25 GMT+0800 (中国标准时间)","","","","","","","","","","","","","","","","","","",""
"1395","","f","psychophysics","9","153993","0.0-7.0-1.0-0.0","6","5","6","5","3","5","4","4","4","5","4","2","1","1","2","1","2","1","0","5","5","4","2","5","4","5","5","4","4","7","8","8","6","8","7","7","7","9","6","3","2","6","2","2","5","2","3","3","3","2","5","2","7","3","6","3","4","5","2","5","2","2","3","6","5","5","3","6","5","6","5","2","3","6","3","6","3","5","598888935887732736","赵熊","468","Male","[""好他"",""好我"",""坏我"",""坏他""]","[""强他"",""强我"",""弱我"",""弱他""]","","","","","","","","yes","","","","","","","","","SRET_EW","EW_practice","","key","f","18.598292307692464","758.3333534223067","422.22223340729164","自己","严谨","Positive","ability","","","","","","","","","",""
"1020","","j","psychophysics","10","156016","0.0-7.0-1.0-0.1","6","5","6","5","3","5","4","4","4","5","4","2","1","1","2","1","2","1","0","5","5","4","2","5","4","5","5","4","4","7","8","8","6","8","7","7","7","9","6","3","2","6","2","2","5","2","3","3","3","2","5","2","7","3","6","3","4","5","2","5","2","2","3","6","5","5","3","6","5","6","5","2","3","6","3","6","3","5","598888935887732736","赵熊","468","Male","[""好他"",""好我"",""坏我"",""坏他""]","[""强他"",""强我"",""弱我"",""弱他""]","","","","","","","","no","","","","","","","","","SRET_EW","EW_practice","","key","j","16.6745666666667","758.3333534223067","422.22223340729164","自己","刻板","Negative","ability","","","","","","","","","",""
"740","","j","psychophysics","11","157766","0.0-7.0-1.0-0.2","6","5","6","5","3","5","4","4","4","5","4","2","1","1","2","1","2","1","0","5","5","4","2","5","4","5","5","4","4","7","8","8","6","8","7","7","7","9","6","3","2","6","2","2","5","2","3","3","3","2","5","2","7","3","6","3","4","5","2","5","2","2","3","6","5","5","3","6","5","6","5","2","3","6","3","6","3","5","598888935887732736","赵熊","468","Male","[""好他"",""好我"",""坏我"",""坏他""]","[""强他"",""强我"",""弱我"",""弱他""]","","","","","","","","no","","","","","","","","","SRET_EW","EW_practice","","key","j","16.675423076923135","758.3333534223067","422.22223340729164","朋友","徇私","Negative","morality","","","","","","","","","",""
"1091","","f","psychophysics","12","159860","0.0-7.0-1.0-0.3","6","5","6","5","3","5","4","4","4","5","4","2","1","1","2","1","2","1","0","5","5","4","2","5","4","5","5","4","4","7","8","8","6","8","7","7","7","9","6","3","2","6","2","2","5","2","3","3","3","2","5","2","7","3","6","3","4","5","2","5","2","2","3","6","5","5","3","6","5","6","5","2","3","6","3","6","3","5","598888935887732736","赵熊","468","Male","[""好他"",""好我"",""坏我"",""坏他""]","[""强他"",""强我"",""弱我"",""弱他""]","","","","","","","","yes","","","","","","","","","SRET_EW","EW_practice","","key","f","16.67417600000021","758.3333534223067","422.22223340729164","朋友","忠实","Positive","morality","","","","","","","","","",""
"8650","
    <p><div style='color:white;font-size:35px; line-height:20px;'>请您再次阅读实验要求</div></p><br>
    <p><div style='color:white;font-size:25px; line-height:20px;'>请回忆某一个亲密的朋友，你们至少2年前就认识了，并且最近2年经常见面。</div></p>
    <p><div style='color:white;font-size:25px; line-height:20px;'>在本实验中，您将会看到一些形容词。</div></p>
    <p><div style='color:yellow;font-size:25px; line-height:20px;'>您的任务是判断这些形容词是否符合对您自己或您的朋友的描述。</div></p>
    <p><div class='footer' style='font-size:25px; line-height:20px;'>如果对本实验还有不清楚之处，请立即向实验员咨询。</p><p style='font-size:25px; line-height:20px;'>如果您明白了规则：</p><p style='font-size:22px; line-height:20px;'>请按 继续 进入正式实验</p>
    </div>
    <p style='font-size:35px'>符合按<span style=""color:lightgreen""> f 键</span>，不符合按<span style=""color:red""> j 键</span></p>","0","html-button-response","13","168513","0.0-7.0-2.0","6","5","6","5","3","5","4","4","4","5","4","2","1","1","2","1","2","1","0","5","5","4","2","5","4","5","5","4","4","7","8","8","6","8","7","7","7","9","6","3","2","6","2","2","5","2","3","3","3","2","5","2","7","3","6","3","4","5","2","5","2","2","3","6","5","5","3","6","5","6","5","2","3","6","3","6","3","5","598888935887732736","赵熊","468","Male","[""好他"",""好我"",""坏我"",""坏他""]","[""强他"",""强我"",""弱我"",""弱他""]","","","","","","","","","","","","","","","","","SRET_EW","prac_instructions","Tue Oct 17 2023 18:45:25 GMT+0800 (中国标准时间)","","","","","","","","","","","","","","","","","","",""
"779","","f","psychophysics","14","170295","0.0-7.0-3.0-0.0","6","5","6","5","3","5","4","4","4","5","4","2","1","1","2","1","2","1","0","5","5","4","2","5","4","5","5","4","4","7","8","8","6","8","7","7","7","9","6","3","2","6","2","2","5","2","3","3","3","2","5","2","7","3","6","3","4","5","2","5","2","2","3","6","5","5","3","6","5","6","5","2","3","6","3","6","3","5","598888935887732736","赵熊","468","Male","[""好他"",""好我"",""坏我"",""坏他""]","[""强他"",""强我"",""弱我"",""弱他""]","","","","","","","","yes","","","","","","","","","SRET","EW_formal","","key","f","16.674411214953377","758.3333534223067","422.22223340729164","自己","坚贞","Positive","morality","","","","","","","","","",""
"1064","","j","psychophysics","15","172362","0.0-7.0-3.0-0.1","6","5","6","5","3","5","4","4","4","5","4","2","1","1","2","1","2","1","0","5","5","4","2","5","4","5","5","4","4","7","8","8","6","8","7","7","7","9","6","3","2","6","2","2","5","2","3","3","3","2","5","2","7","3","6","3","4","5","2","5","2","2","3","6","5","5","3","6","5","6","5","2","3","6","3","6","3","5","598888935887732736","赵熊","468","Male","[""好他"",""好我"",""坏我"",""坏他""]","[""强他"",""强我"",""弱我"",""弱他""]","","","","","","","","no","","","","","","","","","SRET","EW_formal","","key","j","16.674195121951275","758.3333534223067","422.22223340729164","朋友","迷糊","Negative","ability","","","","","","","","","",""
"1806","","f","psychophysics","16","175171","0.0-7.0-3.0-0.2","6","5","6","5","3","5","4","4","4","5","4","2","1","1","2","1","2","1","0","5","5","4","2","5","4","5","5","4","4","7","8","8","6","8","7","7","7","9","6","3","2","6","2","2","5","2","3","3","3","2","5","2","7","3","6","3","4","5","2","5","2","2","3","6","5","5","3","6","5","6","5","2","3","6","3","6","3","5","598888935887732736","赵熊","468","Male","[""好他"",""好我"",""坏我"",""坏他""]","[""强他"",""强我"",""弱我"",""弱他""]","","","","","","","","yes","","","","","","","","","SRET","EW_formal","","key","f","16.67417365269461","758.3333534223067","422.22223340729164","朋友","务实","Positive","ability","","","","","","","","","",""
"1783","","j","psychophysics","17","177956","0.0-7.0-3.0-0.3","6","5","6","5","3","5","4","4","4","5","4","2","1","1","2","1","2","1","0","5","5","4","2","5","4","5","5","4","4","7","8","8","6","8","7","7","7","9","6","3","2","6","2","2","5","2","3","3","3","2","5","2","7","3","6","3","4","5","2","5","2","2","3","6","5","5","3","6","5","6","5","2","3","6","3","6","3","5","598888935887732736","赵熊","468","Male","[""好他"",""好我"",""坏我"",""坏他""]","[""强他"",""强我"",""弱我"",""弱他""]","","","","","","","","no","","","","","","","","","SRET","EW_formal","","key","j","16.67426506024105","758.3333534223067","422.22223340729164","自己","说谎","Negative","morality","","","","","","","","","",""
"923","","j","psychophysics","18","179882","0.0-7.0-3.0-0.4","6","5","6","5","3","5","4","4","4","5","4","2","1","1","2","1","2","1","0","5","5","4","2","5","4","5","5","4","4","7","8","8","6","8","7","7","7","9","6","3","2","6","2","2","5","2","3","3","3","2","5","2","7","3","6","3","4","5","2","5","2","2","3","6","5","5","3","6","5","6","5","2","3","6","3","6","3","5","598888935887732736","赵熊","468","Male","[""好他"",""好我"",""坏我"",""坏他""]","[""强他"",""强我"",""弱我"",""弱他""]","","","","","","","","no","","","","","","","","","SRET","EW_formal","","key","j","16.674165217391387","758.3333534223067","422.22223340729164","朋友","势利","Negative","morality","","","","","","","","","",""
"1299","","j","psychophysics","19","182184","0.0-7.0-3.0-0.5","6","5","6","5","3","5","4","4","4","5","4","2","1","1","2","1","2","1","0","5","5","4","2","5","4","5","5","4","4","7","8","8","6","8","7","7","7","9","6","3","2","6","2","2","5","2","3","3","3","2","5","2","7","3","6","3","4","5","2","5","2","2","3","6","5","5","3","6","5","6","5","2","3","6","3","6","3","5","598888935887732736","赵熊","468","Male","[""好他"",""好我"",""坏我"",""坏他""]","[""强他"",""强我"",""弱我"",""弱他""]","","","","","","","","no","","","","","","","","","SRET","EW_formal","","key","j","16.6742189781021","758.3333534223067","422.22223340729164","自己","狡诈","Negative","morality","","","","","","","","","",""
"944","","f","psychophysics","20","184130","0.0-7.0-3.0-0.6","6","5","6","5","3","5","4","4","4","5","4","2","1","1","2","1","2","1","0","5","5","4","2","5","4","5","5","4","4","7","8","8","6","8","7","7","7","9","6","3","2","6","2","2","5","2","3","3","3","2","5","2","7","3","6","3","4","5","2","5","2","2","3","6","5","5","3","6","5","6","5","2","3","6","3","6","3","5","598888935887732736","赵熊","468","Male","[""好他"",""好我"",""坏我"",""坏他""]","[""强他"",""强我"",""弱我"",""弱他""]","","","","","","","","yes","","","","","","","","","SRET","EW_formal","","key","f","16.674286956521783","758.3333534223067","422.22223340729164","自己","义气","Positive","morality","","","","","","","","","",""
"867","","j","psychophysics","21","186003","0.0-7.0-3.0-0.7","6","5","6","5","3","5","4","4","4","5","4","2","1","1","2","1","2","1","0","5","5","4","2","5","4","5","5","4","4","7","8","8","6","8","7","7","7","9","6","3","2","6","2","2","5","2","3","3","3","2","5","2","7","3","6","3","4","5","2","5","2","2","3","6","5","5","3","6","5","6","5","2","3","6","3","6","3","5","598888935887732736","赵熊","468","Male","[""好他"",""好我"",""坏我"",""坏他""]","[""强他"",""强我"",""弱我"",""弱他""]","","","","","","","","no","","","","","","","","","SRET","EW_formal","","key","j","16.674276785714287","758.3333534223067","422.22223340729164","自己","狡狯","Negative","morality","","","","","","","","","",""
"1276","","j","psychophysics","22","188281","0.0-7.0-3.0-0.8","6","5","6","5","3","5","4","4","4","5","4","2","1","1","2","1","2","1","0","5","5","4","2","5","4","5","5","4","4","7","8","8","6","8","7","7","7","9","6","3","2","6","2","2","5","2","3","3","3","2","5","2","7","3","6","3","4","5","2","5","2","2","3","6","5","5","3","6","5","6","5","2","3","6","3","6","3","5","598888935887732736","赵熊","468","Male","[""好他"",""好我"",""坏我"",""坏他""]","[""强他"",""强我"",""弱我"",""弱他""]","","","","","","","","no","","","","","","","","","SRET","EW_formal","","key","j","16.674281481481632","758.3333534223067","422.22223340729164","自己","刻薄","Negative","morality","","","","","","","","","",""
"1065","","f","psychophysics","23","190354","0.0-7.0-3.0-0.9","6","5","6","5","3","5","4","4","4","5","4","2","1","1","2","1","2","1","0","5","5","4","2","5","4","5","5","4","4","7","8","8","6","8","7","7","7","9","6","3","2","6","2","2","5","2","3","3","3","2","5","2","7","3","6","3","4","5","2","5","2","2","3","6","5","5","3","6","5","6","5","2","3","6","3","6","3","5","598888935887732736","赵熊","468","Male","[""好他"",""好我"",""坏我"",""坏他""]","[""强他"",""强我"",""弱我"",""弱他""]","","","","","","","","yes","","","","","","","","","SRET","EW_formal","","key","f","16.67383870967751","758.3333534223067","422.22223340729164","自己","精干","Positive","ability","","","","","","","","","",""
"1070","","f","psychophysics","24","192424","0.0-7.0-3.0-0.10","6","5","6","5","3","5","4","4","4","5","4","2","1","1","2","1","2","1","0","5","5","4","2","5","4","5","5","4","4","7","8","8","6","8","7","7","7","9","6","3","2","6","2","2","5","2","3","3","3","2","5","2","7","3","6","3","4","5","2","5","2","2","3","6","5","5","3","6","5","6","5","2","3","6","3","6","3","5","598888935887732736","赵熊","468","Male","[""好他"",""好我"",""坏我"",""坏他""]","[""强他"",""强我"",""弱我"",""弱他""]","","","","","","","","yes","","","","","","","","","SRET","EW_formal","","key","f","16.675097560975463","758.3333534223067","422.22223340729164","朋友","慈悲","Positive","morality","","","","","","","","","",""
"1572","","j","psychophysics","25","194998","0.0-7.0-3.0-0.11","6","5","6","5","3","5","4","4","4","5","4","2","1","1","2","1","2","1","0","5","5","4","2","5","4","5","5","4","4","7","8","8","6","8","7","7","7","9","6","3","2","6","2","2","5","2","3","3","3","2","5","2","7","3","6","3","4","5","2","5","2","2","3","6","5","5","3","6","5","6","5","2","3","6","3","6","3","5","598888935887732736","赵熊","468","Male","[""好他"",""好我"",""坏我"",""坏他""]","[""强他"",""强我"",""弱我"",""弱他""]","","","","","","","","no","","","","","","","","","SRET","EW_formal","","key","j","16.67420915032686","758.3333534223067","422.22223340729164","朋友","独断","Negative","ability","","","","","","","","","",""
"807","","f","psychophysics","26","196809","0.0-7.0-3.0-0.12","6","5","6","5","3","5","4","4","4","5","4","2","1","1","2","1","2","1","0","5","5","4","2","5","4","5","5","4","4","7","8","8","6","8","7","7","7","9","6","3","2","6","2","2","5","2","3","3","3","2","5","2","7","3","6","3","4","5","2","5","2","2","3","6","5","5","3","6","5","6","5","2","3","6","3","6","3","5","598888935887732736","赵熊","468","Male","[""好他"",""好我"",""坏我"",""坏他""]","[""强他"",""强我"",""弱我"",""弱他""]","","","","","","","","yes","","","","","","","","","SRET","EW_formal","","key","f","16.673898148148037","758.3333534223067","422.22223340729164","自己","侠义","Positive","morality","","","","","","","","","",""
"649","","f","psychophysics","27","198459","0.0-7.0-3.0-0.13","6","5","6","5","3","5","4","4","4","5","4","2","1","1","2","1","2","1","0","5","5","4","2","5","4","5","5","4","4","7","8","8","6","8","7","7","7","9","6","3","2","6","2","2","5","2","3","3","3","2","5","2","7","3","6","3","4","5","2","5","2","2","3","6","5","5","3","6","5","6","5","2","3","6","3","6","3","5","598888935887732736","赵熊","468","Male","[""好他"",""好我"",""坏我"",""坏他""]","[""强他"",""强我"",""弱我"",""弱他""]","","","","","","","","yes","","","","","","","","","SRET","EW_formal","","key","f","16.671979591836653","758.3333534223067","422.22223340729164","朋友","高效","Positive","ability","","","","","","","","","",""
"848","","f","psychophysics","28","200310","0.0-7.0-3.0-0.14","6","5","6","5","3","5","4","4","4","5","4","2","1","1","2","1","2","1","0","5","5","4","2","5","4","5","5","4","4","7","8","8","6","8","7","7","7","9","6","3","2","6","2","2","5","2","3","3","3","2","5","2","7","3","6","3","4","5","2","5","2","2","3","6","5","5","3","6","5","6","5","2","3","6","3","6","3","5","598888935887732736","赵熊","468","Male","[""好他"",""好我"",""坏我"",""坏他""]","[""强他"",""强我"",""弱我"",""弱他""]","","","","","","","","yes","","","","","","","","","SRET","EW_formal","","key","f","16.67418181818185","758.3333534223067","422.22223340729164","朋友","偏私","Negative","morality","","","","","","","","","",""
"678","","f","psychophysics","29","201991","0.0-7.0-3.0-0.15","6","5","6","5","3","5","4","4","4","5","4","2","1","1","2","1","2","1","0","5","5","4","2","5","4","5","5","4","4","7","8","8","6","8","7","7","7","9","6","3","2","6","2","2","5","2","3","3","3","2","5","2","7","3","6","3","4","5","2","5","2","2","3","6","5","5","3","6","5","6","5","2","3","6","3","6","3","5","598888935887732736","赵熊","468","Male","[""好他"",""好我"",""坏我"",""坏他""]","[""强他"",""强我"",""弱我"",""弱他""]","","","","","","","","yes","","","","","","","","","SRET","EW_formal","","key","f","16.674191919191873","758.3333534223067","422.22223340729164","自己","刚正","Positive","morality","","","","","","","","","",""
"936","","j","psychophysics","30","203931","0.0-7.0-3.0-0.16","6","5","6","5","3","5","4","4","4","5","4","2","1","1","2","1","2","1","0","5","5","4","2","5","4","5","5","4","4","7","8","8","6","8","7","7","7","9","6","3","2","6","2","2","5","2","3","3","3","2","5","2","7","3","6","3","4","5","2","5","2","2","3","6","5","5","3","6","5","6","5","2","3","6","3","6","3","5","598888935887732736","赵熊","468","Male","[""好他"",""好我"",""坏我"",""坏他""]","[""强他"",""强我"",""弱我"",""弱他""]","","","","","","","","no","","","","","","","","","SRET","EW_formal","","key","j","16.67337068965521","758.3333534223067","422.22223340729164","自己","远见","Positive","ability","","","","","","","","","",""
"803","","f","psychophysics","31","205736","0.0-7.0-3.0-0.17","6","5","6","5","3","5","4","4","4","5","4","2","1","1","2","1","2","1","0","5","5","4","2","5","4","5","5","4","4","7","8","8","6","8","7","7","7","9","6","3","2","6","2","2","5","2","3","3","3","2","5","2","7","3","6","3","4","5","2","5","2","2","3","6","5","5","3","6","5","6","5","2","3","6","3","6","3","5","598888935887732736","赵熊","468","Male","[""好他"",""好我"",""坏我"",""坏他""]","[""强他"",""强我"",""弱我"",""弱他""]","","","","","","","","yes","","","","","","","","","SRET","EW_formal","","key","f","16.6743084112148","758.3333534223067","422.22223340729164","朋友","博学","Positive","ability","","","","","","","","","",""
"806","","f","psychophysics","32","207544","0.0-7.0-3.0-0.18","6","5","6","5","3","5","4","4","4","5","4","2","1","1","2","1","2","1","0","5","5","4","2","5","4","5","5","4","4","7","8","8","6","8","7","7","7","9","6","3","2","6","2","2","5","2","3","3","3","2","5","2","7","3","6","3","4","5","2","5","2","2","3","6","5","5","3","6","5","6","5","2","3","6","3","6","3","5","598888935887732736","赵熊","468","Male","[""好他"",""好我"",""坏我"",""坏他""]","[""强他"",""强我"",""弱我"",""弱他""]","","","","","","","","yes","","","","","","","","","SRET","EW_formal","","key","f","16.673555555555613","758.3333534223067","422.22223340729164","朋友","智慧","Positive","ability","","","","","","","","","",""
"681","","f","psychophysics","33","209239","0.0-7.0-3.0-0.19","6","5","6","5","3","5","4","4","4","5","4","2","1","1","2","1","2","1","0","5","5","4","2","5","4","5","5","4","4","7","8","8","6","8","7","7","7","9","6","3","2","6","2","2","5","2","3","3","3","2","5","2","7","3","6","3","4","5","2","5","2","2","3","6","5","5","3","6","5","6","5","2","3","6","3","6","3","5","598888935887732736","赵熊","468","Male","[""好他"",""好我"",""坏我"",""坏他""]","[""强他"",""强我"",""弱我"",""弱他""]","","","","","","","","yes","","","","","","","","","SRET","EW_formal","","key","f","16.674109999999928","758.3333534223067","422.22223340729164","朋友","利落","Positive","ability","","","","","","","","","",""
"984","","f","psychophysics","34","211225","0.0-7.0-3.0-0.20","6","5","6","5","3","5","4","4","4","5","4","2","1","1","2","1","2","1","0","5","5","4","2","5","4","5","5","4","4","7","8","8","6","8","7","7","7","9","6","3","2","6","2","2","5","2","3","3","3","2","5","2","7","3","6","3","4","5","2","5","2","2","3","6","5","5","3","6","5","6","5","2","3","6","3","6","3","5","598888935887732736","赵熊","468","Male","[""好他"",""好我"",""坏我"",""坏他""]","[""强他"",""强我"",""弱我"",""弱他""]","","","","","","","","yes","","","","","","","","","SRET","EW_formal","","key","f","16.674203389830605","758.3333534223067","422.22223340729164","自己","有力","Positive","ability","","","","","","","","","",""
"1106","","f","psychophysics","35","213339","0.0-7.0-3.0-0.21","6","5","6","5","3","5","4","4","4","5","4","2","1","1","2","1","2","1","0","5","5","4","2","5","4","5","5","4","4","7","8","8","6","8","7","7","7","9","6","3","2","6","2","2","5","2","3","3","3","2","5","2","7","3","6","3","4","5","2","5","2","2","3","6","5","5","3","6","5","6","5","2","3","6","3","6","3","5","598888935887732736","赵熊","468","Male","[""好他"",""好我"",""坏我"",""坏他""]","[""强他"",""强我"",""弱我"",""弱他""]","","","","","","","","yes","","","","","","","","","SRET","EW_formal","","key","f","16.674468253968314","758.3333534223067","422.22223340729164","自己","犹豫","Negative","ability","","","","","","","","","",""
"775","","j","psychophysics","36","215117","0.0-7.0-3.0-0.22","6","5","6","5","3","5","4","4","4","5","4","2","1","1","2","1","2","1","0","5","5","4","2","5","4","5","5","4","4","7","8","8","6","8","7","7","7","9","6","3","2","6","2","2","5","2","3","3","3","2","5","2","7","3","6","3","4","5","2","5","2","2","3","6","5","5","3","6","5","6","5","2","3","6","3","6","3","5","598888935887732736","赵熊","468","Male","[""好他"",""好我"",""坏我"",""坏他""]","[""强他"",""强我"",""弱我"",""弱他""]","","","","","","","","no","","","","","","","","","SRET","EW_formal","","key","j","16.674179245283188","758.3333534223067","422.22223340729164","自己","贪腐","Negative","morality","","","","","","","","","",""
"645","","f","psychophysics","37","216774","0.0-7.0-3.0-0.23","6","5","6","5","3","5","4","4","4","5","4","2","1","1","2","1","2","1","0","5","5","4","2","5","4","5","5","4","4","7","8","8","6","8","7","7","7","9","6","3","2","6","2","2","5","2","3","3","3","2","5","2","7","3","6","3","4","5","2","5","2","2","3","6","5","5","3","6","5","6","5","2","3","6","3","6","3","5","598888935887732736","赵熊","468","Male","[""好他"",""好我"",""坏我"",""坏他""]","[""强他"",""强我"",""弱我"",""弱他""]","","","","","","","","yes","","","","","","","","","SRET","EW_formal","","key","f","16.67444897959174","758.3333534223067","422.22223340729164","自己","守时","Positive","morality","","","","","","","","","",""
"832","","f","psychophysics","38","218608","0.0-7.0-3.0-0.24","6","5","6","5","3","5","4","4","4","5","4","2","1","1","2","1","2","1","0","5","5","4","2","5","4","5","5","4","4","7","8","8","6","8","7","7","7","9","6","3","2","6","2","2","5","2","3","3","3","2","5","2","7","3","6","3","4","5","2","5","2","2","3","6","5","5","3","6","5","6","5","2","3","6","3","6","3","5","598888935887732736","赵熊","468","Male","[""好他"",""好我"",""坏我"",""坏他""]","[""强他"",""强我"",""弱我"",""弱他""]","","","","","","","","yes","","","","","","","","","SRET","EW_formal","","key","f","16.673926605504708","758.3333534223067","422.22223340729164","朋友","无耻","Negative","morality","","","","","","","","","",""
"745","","f","psychophysics","39","220355","0.0-7.0-3.0-0.25","6","5","6","5","3","5","4","4","4","5","4","2","1","1","2","1","2","1","0","5","5","4","2","5","4","5","5","4","4","7","8","8","6","8","7","7","7","9","6","3","2","6","2","2","5","2","3","3","3","2","5","2","7","3","6","3","4","5","2","5","2","2","3","6","5","5","3","6","5","6","5","2","3","6","3","6","3","5","598888935887732736","赵熊","468","Male","[""好他"",""好我"",""坏我"",""坏他""]","[""强他"",""强我"",""弱我"",""弱他""]","","","","","","","","yes","","","","","","","","","SRET","EW_formal","","key","f","16.67425000000003","758.3333534223067","422.22223340729164","自己","娴熟","Positive","ability","","","","","","","","","",""
"855","","j","psychophysics","40","222213","0.0-7.0-3.0-0.26","6","5","6","5","3","5","4","4","4","5","4","2","1","1","2","1","2","1","0","5","5","4","2","5","4","5","5","4","4","7","8","8","6","8","7","7","7","9","6","3","2","6","2","2","5","2","3","3","3","2","5","2","7","3","6","3","4","5","2","5","2","2","3","6","5","5","3","6","5","6","5","2","3","6","3","6","3","5","598888935887732736","赵熊","468","Male","[""好他"",""好我"",""坏我"",""坏他""]","[""强他"",""强我"",""弱我"",""弱他""]","","","","","","","","no","","","","","","","","","SRET","EW_formal","","key","j","16.673972727272616","758.3333534223067","422.22223340729164","自己","罪恶","Negative","morality","","","","","","","","","",""
"1005","","j","psychophysics","41","224220","0.0-7.0-3.0-0.27","6","5","6","5","3","5","4","4","4","5","4","2","1","1","2","1","2","1","0","5","5","4","2","5","4","5","5","4","4","7","8","8","6","8","7","7","7","9","6","3","2","6","2","2","5","2","3","3","3","2","5","2","7","3","6","3","4","5","2","5","2","2","3","6","5","5","3","6","5","6","5","2","3","6","3","6","3","5","598888935887732736","赵熊","468","Male","[""好他"",""好我"",""坏我"",""坏他""]","[""强他"",""强我"",""弱我"",""弱他""]","","","","","","","","no","","","","","","","","","SRET","EW_formal","","key","j","16.674174999999863","758.3333534223067","422.22223340729164","自己","不孝","Negative","morality","","","","","","","","","",""
"1423","","j","psychophysics","42","226645","0.0-7.0-3.0-0.28","6","5","6","5","3","5","4","4","4","5","4","2","1","1","2","1","2","1","0","5","5","4","2","5","4","5","5","4","4","7","8","8","6","8","7","7","7","9","6","3","2","6","2","2","5","2","3","3","3","2","5","2","7","3","6","3","4","5","2","5","2","2","3","6","5","5","3","6","5","6","5","2","3","6","3","6","3","5","598888935887732736","赵熊","468","Male","[""好他"",""好我"",""坏我"",""坏他""]","[""强他"",""强我"",""弱我"",""弱他""]","","","","","","","","no","","","","","","","","","SRET","EW_formal","","key","j","16.67418750000009","758.3333534223067","422.22223340729164","朋友","缺德","Negative","morality","","","","","","","","","",""
"924","","f","psychophysics","43","228572","0.0-7.0-3.0-0.29","6","5","6","5","3","5","4","4","4","5","4","2","1","1","2","1","2","1","0","5","5","4","2","5","4","5","5","4","4","7","8","8","6","8","7","7","7","9","6","3","2","6","2","2","5","2","3","3","3","2","5","2","7","3","6","3","4","5","2","5","2","2","3","6","5","5","3","6","5","6","5","2","3","6","3","6","3","5","598888935887732736","赵熊","468","Male","[""好他"",""好我"",""坏我"",""坏他""]","[""强他"",""强我"",""弱我"",""弱他""]","","","","","","","","yes","","","","","","","","","SRET","EW_formal","","key","f","16.674217391304378","758.3333534223067","422.22223340729164","朋友","短浅","Negative","ability","","","","","","","","","",""
"755","","f","psychophysics","44","230328","0.0-7.0-3.0-0.30","6","5","6","5","3","5","4","4","4","5","4","2","1","1","2","1","2","1","0","5","5","4","2","5","4","5","5","4","4","7","8","8","6","8","7","7","7","9","6","3","2","6","2","2","5","2","3","3","3","2","5","2","7","3","6","3","4","5","2","5","2","2","3","6","5","5","3","6","5","6","5","2","3","6","3","6","3","5","598888935887732736","赵熊","468","Male","[""好他"",""好我"",""坏我"",""坏他""]","[""强他"",""强我"",""弱我"",""弱他""]","","","","","","","","yes","","","","","","","","","SRET","EW_formal","","key","f","16.68150961538441","758.3333534223067","422.22223340729164","自己","高尚","Positive","morality","","","","","","","","","",""
"698","","f","psychophysics","45","232028","0.0-7.0-3.0-0.31","6","5","6","5","3","5","4","4","4","5","4","2","1","1","2","1","2","1","0","5","5","4","2","5","4","5","5","4","4","7","8","8","6","8","7","7","7","9","6","3","2","6","2","2","5","2","3","3","3","2","5","2","7","3","6","3","4","5","2","5","2","2","3","6","5","5","3","6","5","6","5","2","3","6","3","6","3","5","598888935887732736","赵熊","468","Male","[""好他"",""好我"",""坏我"",""坏他""]","[""强他"",""强我"",""弱我"",""弱他""]","","","","","","","","yes","","","","","","","","","SRET","EW_formal","","key","f","16.674217821782083","758.3333534223067","422.22223340729164","朋友","宽容","Positive","morality","","","","","","","","","",""
"1111","","f","psychophysics","46","234141","0.0-7.0-3.0-0.32","6","5","6","5","3","5","4","4","4","5","4","2","1","1","2","1","2","1","0","5","5","4","2","5","4","5","5","4","4","7","8","8","6","8","7","7","7","9","6","3","2","6","2","2","5","2","3","3","3","2","5","2","7","3","6","3","4","5","2","5","2","2","3","6","5","5","3","6","5","6","5","2","3","6","3","6","3","5","598888935887732736","赵熊","468","Male","[""好他"",""好我"",""坏我"",""坏他""]","[""强他"",""强我"",""弱我"",""弱他""]","","","","","","","","yes","","","","","","","","","SRET","EW_formal","","key","f","16.674158730158872","758.3333534223067","422.22223340729164","自己","短视","Negative","ability","","","","","","","","","",""
"707","","f","psychophysics","47","235850","0.0-7.0-3.0-0.33","6","5","6","5","3","5","4","4","4","5","4","2","1","1","2","1","2","1","0","5","5","4","2","5","4","5","5","4","4","7","8","8","6","8","7","7","7","9","6","3","2","6","2","2","5","2","3","3","3","2","5","2","7","3","6","3","4","5","2","5","2","2","3","6","5","5","3","6","5","6","5","2","3","6","3","6","3","5","598888935887732736","赵熊","468","Male","[""好他"",""好我"",""坏我"",""坏他""]","[""强他"",""强我"",""弱我"",""弱他""]","","","","","","","","yes","","","","","","","","","SRET","EW_formal","","key","f","21.87063636363661","758.3333534223067","422.22223340729164","朋友","慷慨","Positive","morality","","","","","","","","","",""
"745","","f","psychophysics","48","237598","0.0-7.0-3.0-0.34","6","5","6","5","3","5","4","4","4","5","4","2","1","1","2","1","2","1","0","5","5","4","2","5","4","5","5","4","4","7","8","8","6","8","7","7","7","9","6","3","2","6","2","2","5","2","3","3","3","2","5","2","7","3","6","3","4","5","2","5","2","2","3","6","5","5","3","6","5","6","5","2","3","6","3","6","3","5","598888935887732736","赵熊","468","Male","[""好他"",""好我"",""坏我"",""坏他""]","[""强他"",""强我"",""弱我"",""弱他""]","","","","","","","","yes","","","","","","","","","SRET","EW_formal","","key","f","16.674288461538637","758.3333534223067","422.22223340729164","自己","守信","Positive","morality","","","","","","","","","",""
"1147","","j","psychophysics","49","239748","0.0-7.0-3.0-0.35","6","5","6","5","3","5","4","4","4","5","4","2","1","1","2","1","2","1","0","5","5","4","2","5","4","5","5","4","4","7","8","8","6","8","7","7","7","9","6","3","2","6","2","2","5","2","3","3","3","2","5","2","7","3","6","3","4","5","2","5","2","2","3","6","5","5","3","6","5","6","5","2","3","6","3","6","3","5","598888935887732736","赵熊","468","Male","[""好他"",""好我"",""坏我"",""坏他""]","[""强他"",""强我"",""弱我"",""弱他""]","","","","","","","","no","","","","","","","","","SRET","EW_formal","","key","j","16.674421875000007","758.3333534223067","422.22223340729164","自己","毛糙","Negative","ability","","","","","","","","","",""
"862","","j","psychophysics","50","241611","0.0-7.0-3.0-0.36","6","5","6","5","3","5","4","4","4","5","4","2","1","1","2","1","2","1","0","5","5","4","2","5","4","5","5","4","4","7","8","8","6","8","7","7","7","9","6","3","2","6","2","2","5","2","3","3","3","2","5","2","7","3","6","3","4","5","2","5","2","2","3","6","5","5","3","6","5","6","5","2","3","6","3","6","3","5","598888935887732736","赵熊","468","Male","[""好他"",""好我"",""坏我"",""坏他""]","[""强他"",""强我"",""弱我"",""弱他""]","","","","","","","","no","","","","","","","","","SRET","EW_formal","","key","j","16.67406306306329","758.3333534223067","422.22223340729164","自己","无为","Negative","ability","","","","","","","","","",""
"684","","f","psychophysics","51","243297","0.0-7.0-3.0-0.37","6","5","6","5","3","5","4","4","4","5","4","2","1","1","2","1","2","1","0","5","5","4","2","5","4","5","5","4","4","7","8","8","6","8","7","7","7","9","6","3","2","6","2","2","5","2","3","3","3","2","5","2","7","3","6","3","4","5","2","5","2","2","3","6","5","5","3","6","5","6","5","2","3","6","3","6","3","5","598888935887732736","赵熊","468","Male","[""好他"",""好我"",""坏我"",""坏他""]","[""强他"",""强我"",""弱我"",""弱他""]","","","","","","","","yes","","","","","","","","","SRET","EW_formal","","key","f","16.842858585858874","758.3333534223067","422.22223340729164","朋友","能干","Positive","ability","","","","","","","","","",""
"672","","f","psychophysics","52","244971","0.0-7.0-3.0-0.38","6","5","6","5","3","5","4","4","4","5","4","2","1","1","2","1","2","1","0","5","5","4","2","5","4","5","5","4","4","7","8","8","6","8","7","7","7","9","6","3","2","6","2","2","5","2","3","3","3","2","5","2","7","3","6","3","4","5","2","5","2","2","3","6","5","5","3","6","5","6","5","2","3","6","3","6","3","5","598888935887732736","赵熊","468","Male","[""好他"",""好我"",""坏我"",""坏他""]","[""强他"",""强我"",""弱我"",""弱他""]","","","","","","","","yes","","","","","","","","","SRET","EW_formal","","key","f","16.67409090909077","758.3333534223067","422.22223340729164","自己","果决","Positive","ability","","","","","","","","","",""
"744","","f","psychophysics","53","246718","0.0-7.0-3.0-0.39","6","5","6","5","3","5","4","4","4","5","4","2","1","1","2","1","2","1","0","5","5","4","2","5","4","5","5","4","4","7","8","8","6","8","7","7","7","9","6","3","2","6","2","2","5","2","3","3","3","2","5","2","7","3","6","3","4","5","2","5","2","2","3","6","5","5","3","6","5","6","5","2","3","6","3","6","3","5","598888935887732736","赵熊","468","Male","[""好他"",""好我"",""坏我"",""坏他""]","[""强他"",""强我"",""弱我"",""弱他""]","","","","","","","","yes","","","","","","","","","SRET","EW_formal","","key","f","16.674230769230725","758.3333534223067","422.22223340729164","自己","肯干","Positive","ability","","","","","","","","","",""
"763","","j","psychophysics","54","248482","0.0-7.0-3.0-0.40","6","5","6","5","3","5","4","4","4","5","4","2","1","1","2","1","2","1","0","5","5","4","2","5","4","5","5","4","4","7","8","8","6","8","7","7","7","9","6","3","2","6","2","2","5","2","3","3","3","2","5","2","7","3","6","3","4","5","2","5","2","2","3","6","5","5","3","6","5","6","5","2","3","6","3","6","3","5","598888935887732736","赵熊","468","Male","[""好他"",""好我"",""坏我"",""坏他""]","[""强他"",""强我"",""弱我"",""弱他""]","","","","","","","","no","","","","","","","","","SRET","EW_formal","","key","j","16.67440952380975","758.3333534223067","422.22223340729164","朋友","腐败","Negative","morality","","","","","","","","","",""
"698","","f","psychophysics","55","250183","0.0-7.0-3.0-0.41","6","5","6","5","3","5","4","4","4","5","4","2","1","1","2","1","2","1","0","5","5","4","2","5","4","5","5","4","4","7","8","8","6","8","7","7","7","9","6","3","2","6","2","2","5","2","3","3","3","2","5","2","7","3","6","3","4","5","2","5","2","2","3","6","5","5","3","6","5","6","5","2","3","6","3","6","3","5","598888935887732736","赵熊","468","Male","[""好他"",""好我"",""坏我"",""坏他""]","[""强他"",""强我"",""弱我"",""弱他""]","","","","","","","","yes","","","","","","","","","SRET","EW_formal","","key","f","16.673782178217493","758.3333534223067","422.22223340729164","朋友","忠诚","Positive","morality","","","","","","","","","",""
"717","","f","psychophysics","56","251902","0.0-7.0-3.0-0.42","6","5","6","5","3","5","4","4","4","5","4","2","1","1","2","1","2","1","0","5","5","4","2","5","4","5","5","4","4","7","8","8","6","8","7","7","7","9","6","3","2","6","2","2","5","2","3","3","3","2","5","2","7","3","6","3","4","5","2","5","2","2","3","6","5","5","3","6","5","6","5","2","3","6","3","6","3","5","598888935887732736","赵熊","468","Male","[""好他"",""好我"",""坏我"",""坏他""]","[""强他"",""强我"",""弱我"",""弱他""]","","","","","","","","yes","","","","","","","","","SRET","EW_formal","","key","f","16.674176470588268","758.3333534223067","422.22223340729164","自己","学霸","Positive","ability","","","","","","","","","",""
"642","","f","psychophysics","57","253546","0.0-7.0-3.0-0.43","6","5","6","5","3","5","4","4","4","5","4","2","1","1","2","1","2","1","0","5","5","4","2","5","4","5","5","4","4","7","8","8","6","8","7","7","7","9","6","3","2","6","2","2","5","2","3","3","3","2","5","2","7","3","6","3","4","5","2","5","2","2","3","6","5","5","3","6","5","6","5","2","3","6","3","6","3","5","598888935887732736","赵熊","468","Male","[""好他"",""好我"",""坏我"",""坏他""]","[""强他"",""强我"",""弱我"",""弱他""]","","","","","","","","yes","","","","","","","","","SRET","EW_formal","","key","f","16.850156249999902","758.3333534223067","422.22223340729164","朋友","专注","Positive","ability","","","","","","","","","",""
"1372","","j","psychophysics","58","255924","0.0-7.0-3.0-0.44","6","5","6","5","3","5","4","4","4","5","4","2","1","1","2","1","2","1","0","5","5","4","2","5","4","5","5","4","4","7","8","8","6","8","7","7","7","9","6","3","2","6","2","2","5","2","3","3","3","2","5","2","7","3","6","3","4","5","2","5","2","2","3","6","5","5","3","6","5","6","5","2","3","6","3","6","3","5","598888935887732736","赵熊","468","Male","[""好他"",""好我"",""坏我"",""坏他""]","[""强他"",""强我"",""弱我"",""弱他""]","","","","","","","","no","","","","","","","","","SRET","EW_formal","","key","j","16.674105633802803","758.3333534223067","422.22223340729164","朋友","阴毒","Negative","morality","","","","","","","","","",""
"971","","j","psychophysics","59","257897","0.0-7.0-3.0-0.45","6","5","6","5","3","5","4","4","4","5","4","2","1","1","2","1","2","1","0","5","5","4","2","5","4","5","5","4","4","7","8","8","6","8","7","7","7","9","6","3","2","6","2","2","5","2","3","3","3","2","5","2","7","3","6","3","4","5","2","5","2","2","3","6","5","5","3","6","5","6","5","2","3","6","3","6","3","5","598888935887732736","赵熊","468","Male","[""好他"",""好我"",""坏我"",""坏他""]","[""强他"",""强我"",""弱我"",""弱他""]","","","","","","","","no","","","","","","","","","SRET","EW_formal","","key","j","16.674974358973937","758.3333534223067","422.22223340729164","自己","虚假","Negative","morality","","","","","","","","","",""
"643","","f","psychophysics","60","259546","0.0-7.0-3.0-0.46","6","5","6","5","3","5","4","4","4","5","4","2","1","1","2","1","2","1","0","5","5","4","2","5","4","5","5","4","4","7","8","8","6","8","7","7","7","9","6","3","2","6","2","2","5","2","3","3","3","2","5","2","7","3","6","3","4","5","2","5","2","2","3","6","5","5","3","6","5","6","5","2","3","6","3","6","3","5","598888935887732736","赵熊","468","Male","[""好他"",""好我"",""坏我"",""坏他""]","[""强他"",""强我"",""弱我"",""弱他""]","","","","","","","","yes","","","","","","","","","SRET","EW_formal","","key","f","16.67371428571463","758.3333534223067","422.22223340729164","自己","逞强","Negative","ability","","","","","","","","","",""
"1469","","j","psychophysics","61","262026","0.0-7.0-3.0-0.47","6","5","6","5","3","5","4","4","4","5","4","2","1","1","2","1","2","1","0","5","5","4","2","5","4","5","5","4","4","7","8","8","6","8","7","7","7","9","6","3","2","6","2","2","5","2","3","3","3","2","5","2","7","3","6","3","4","5","2","5","2","2","3","6","5","5","3","6","5","6","5","2","3","6","3","6","3","5","598888935887732736","赵熊","468","Male","[""好他"",""好我"",""坏我"",""坏他""]","[""强他"",""强我"",""弱我"",""弱他""]","","","","","","","","no","","","","","","","","","SRET","EW_formal","","key","j","16.674195945946064","758.3333534223067","422.22223340729164","朋友","愚痴","Negative","ability","","","","","","","","","",""
"870","","j","psychophysics","62","263898","0.0-7.0-3.0-0.48","6","5","6","5","3","5","4","4","4","5","4","2","1","1","2","1","2","1","0","5","5","4","2","5","4","5","5","4","4","7","8","8","6","8","7","7","7","9","6","3","2","6","2","2","5","2","3","3","3","2","5","2","7","3","6","3","4","5","2","5","2","2","3","6","5","5","3","6","5","6","5","2","3","6","3","6","3","5","598888935887732736","赵熊","468","Male","[""好他"",""好我"",""坏我"",""坏他""]","[""强他"",""强我"",""弱我"",""弱他""]","","","","","","","","no","","","","","","","","","SRET","EW_formal","","key","j","16.67380180180142","758.3333534223067","422.22223340729164","朋友","不良","Negative","morality","","","","","","","","","",""
"799","","j","psychophysics","63","265700","0.0-7.0-3.0-0.49","6","5","6","5","3","5","4","4","4","5","4","2","1","1","2","1","2","1","0","5","5","4","2","5","4","5","5","4","4","7","8","8","6","8","7","7","7","9","6","3","2","6","2","2","5","2","3","3","3","2","5","2","7","3","6","3","4","5","2","5","2","2","3","6","5","5","3","6","5","6","5","2","3","6","3","6","3","5","598888935887732736","赵熊","468","Male","[""好他"",""好我"",""坏我"",""坏他""]","[""强他"",""强我"",""弱我"",""弱他""]","","","","","","","","no","","","","","","","","","SRET","EW_formal","","key","j","16.674710280373997","758.3333534223067","422.22223340729164","朋友","淫乱","Negative","morality","","","","","","","","","",""
"967","","f","psychophysics","64","267671","0.0-7.0-3.0-0.50","6","5","6","5","3","5","4","4","4","5","4","2","1","1","2","1","2","1","0","5","5","4","2","5","4","5","5","4","4","7","8","8","6","8","7","7","7","9","6","3","2","6","2","2","5","2","3","3","3","2","5","2","7","3","6","3","4","5","2","5","2","2","3","6","5","5","3","6","5","6","5","2","3","6","3","6","3","5","598888935887732736","赵熊","468","Male","[""好他"",""好我"",""坏我"",""坏他""]","[""强他"",""强我"",""弱我"",""弱他""]","","","","","","","","yes","","","","","","","","","SRET","EW_formal","","key","f","16.674051282051295","758.3333534223067","422.22223340729164","朋友","无能","Negative","ability","","","","","","","","","",""
"737","","j","psychophysics","65","269433","0.0-7.0-3.0-0.51","6","5","6","5","3","5","4","4","4","5","4","2","1","1","2","1","2","1","0","5","5","4","2","5","4","5","5","4","4","7","8","8","6","8","7","7","7","9","6","3","2","6","2","2","5","2","3","3","3","2","5","2","7","3","6","3","4","5","2","5","2","2","3","6","5","5","3","6","5","6","5","2","3","6","3","6","3","5","598888935887732736","赵熊","468","Male","[""好他"",""好我"",""坏我"",""坏他""]","[""强他"",""强我"",""弱我"",""弱他""]","","","","","","","","no","","","","","","","","","SRET","EW_formal","","key","j","16.673942857143093","758.3333534223067","422.22223340729164","朋友","拖拉","Negative","ability","","","","","","","","","",""
"613","","f","psychophysics","66","271048","0.0-7.0-3.0-0.52","6","5","6","5","3","5","4","4","4","5","4","2","1","1","2","1","2","1","0","5","5","4","2","5","4","5","5","4","4","7","8","8","6","8","7","7","7","9","6","3","2","6","2","2","5","2","3","3","3","2","5","2","7","3","6","3","4","5","2","5","2","2","3","6","5","5","3","6","5","6","5","2","3","6","3","6","3","5","598888935887732736","赵熊","468","Male","[""好他"",""好我"",""坏我"",""坏他""]","[""强他"",""强我"",""弱我"",""弱他""]","","","","","","","","yes","","","","","","","","","SRET","EW_formal","","key","f","16.674708333333303","758.3333534223067","422.22223340729164","自己","爱国","Positive","morality","","","","","","","","","",""
"846","","j","psychophysics","67","272898","0.0-7.0-3.0-0.53","6","5","6","5","3","5","4","4","4","5","4","2","1","1","2","1","2","1","0","5","5","4","2","5","4","5","5","4","4","7","8","8","6","8","7","7","7","9","6","3","2","6","2","2","5","2","3","3","3","2","5","2","7","3","6","3","4","5","2","5","2","2","3","6","5","5","3","6","5","6","5","2","3","6","3","6","3","5","598888935887732736","赵熊","468","Male","[""好他"",""好我"",""坏我"",""坏他""]","[""强他"",""强我"",""弱我"",""弱他""]","","","","","","","","no","","","","","","","","","SRET","EW_formal","","key","j","16.6724818181818","758.3333534223067","422.22223340729164","朋友","才尽","Negative","ability","","","","","","","","","",""
"729","","j","psychophysics","68","274630","0.0-7.0-3.0-0.54","6","5","6","5","3","5","4","4","4","5","4","2","1","1","2","1","2","1","0","5","5","4","2","5","4","5","5","4","4","7","8","8","6","8","7","7","7","9","6","3","2","6","2","2","5","2","3","3","3","2","5","2","7","3","6","3","4","5","2","5","2","2","3","6","5","5","3","6","5","6","5","2","3","6","3","6","3","5","598888935887732736","赵熊","468","Male","[""好他"",""好我"",""坏我"",""坏他""]","[""强他"",""强我"",""弱我"",""弱他""]","","","","","","","","no","","","","","","","","","SRET","EW_formal","","key","j","16.67449514563105","758.3333534223067","422.22223340729164","朋友","差生","Negative","ability","","","","","","","","","",""
"610","","j","psychophysics","69","276243","0.0-7.0-3.0-0.55","6","5","6","5","3","5","4","4","4","5","4","2","1","1","2","1","2","1","0","5","5","4","2","5","4","5","5","4","4","7","8","8","6","8","7","7","7","9","6","3","2","6","2","2","5","2","3","3","3","2","5","2","7","3","6","3","4","5","2","5","2","2","3","6","5","5","3","6","5","6","5","2","3","6","3","6","3","5","598888935887732736","赵熊","468","Male","[""好他"",""好我"",""坏我"",""坏他""]","[""强他"",""强我"",""弱我"",""弱他""]","","","","","","","","no","","","","","","","","","SRET","EW_formal","","key","j","16.675114583333805","758.3333534223067","422.22223340729164","自己","奸险","Negative","morality","","","","","","","","","",""
"679","","f","psychophysics","70","277926","0.0-7.0-3.0-0.56","6","5","6","5","3","5","4","4","4","5","4","2","1","1","2","1","2","1","0","5","5","4","2","5","4","5","5","4","4","7","8","8","6","8","7","7","7","9","6","3","2","6","2","2","5","2","3","3","3","2","5","2","7","3","6","3","4","5","2","5","2","2","3","6","5","5","3","6","5","6","5","2","3","6","3","6","3","5","598888935887732736","赵熊","468","Male","[""好他"",""好我"",""坏我"",""坏他""]","[""强他"",""强我"",""弱我"",""弱他""]","","","","","","","","yes","","","","","","","","","SRET","EW_formal","","key","f","16.675101010100633","758.3333534223067","422.22223340729164","自己","仁爱","Positive","morality","","","","","","","","","",""
"675","","j","psychophysics","71","279612","0.0-7.0-3.0-0.57","6","5","6","5","3","5","4","4","4","5","4","2","1","1","2","1","2","1","0","5","5","4","2","5","4","5","5","4","4","7","8","8","6","8","7","7","7","9","6","3","2","6","2","2","5","2","3","3","3","2","5","2","7","3","6","3","4","5","2","5","2","2","3","6","5","5","3","6","5","6","5","2","3","6","3","6","3","5","598888935887732736","赵熊","468","Male","[""好他"",""好我"",""坏我"",""坏他""]","[""强他"",""强我"",""弱我"",""弱他""]","","","","","","","","no","","","","","","","","","SRET","EW_formal","","key","j","16.673405940594304","758.3333534223067","422.22223340729164","朋友","弱智","Negative","ability","","","","","","","","","",""
"1007","","f","psychophysics","72","281623","0.0-7.0-3.0-0.58","6","5","6","5","3","5","4","4","4","5","4","2","1","1","2","1","2","1","0","5","5","4","2","5","4","5","5","4","4","7","8","8","6","8","7","7","7","9","6","3","2","6","2","2","5","2","3","3","3","2","5","2","7","3","6","3","4","5","2","5","2","2","3","6","5","5","3","6","5","6","5","2","3","6","3","6","3","5","598888935887732736","赵熊","468","Male","[""好他"",""好我"",""坏我"",""坏他""]","[""强他"",""强我"",""弱我"",""弱他""]","","","","","","","","yes","","","","","","","","","SRET","EW_formal","","key","f","16.675302521008685","758.3333534223067","422.22223340729164","自己","仁厚","Positive","morality","","","","","","","","","",""
"731","","f","psychophysics","73","283358","0.0-7.0-3.0-0.59","6","5","6","5","3","5","4","4","4","5","4","2","1","1","2","1","2","1","0","5","5","4","2","5","4","5","5","4","4","7","8","8","6","8","7","7","7","9","6","3","2","6","2","2","5","2","3","3","3","2","5","2","7","3","6","3","4","5","2","5","2","2","3","6","5","5","3","6","5","6","5","2","3","6","3","6","3","5","598888935887732736","赵熊","468","Male","[""好他"",""好我"",""坏我"",""坏他""]","[""强他"",""强我"",""弱我"",""弱他""]","","","","","","","","yes","","","","","","","","","SRET","EW_formal","","key","f","16.673223300970914","758.3333534223067","422.22223340729164","自己","刻苦","Positive","ability","","","","","","","","","",""
"1011","","f","psychophysics","74","285382","0.0-7.0-3.0-0.60","6","5","6","5","3","5","4","4","4","5","4","2","1","1","2","1","2","1","0","5","5","4","2","5","4","5","5","4","4","7","8","8","6","8","7","7","7","9","6","3","2","6","2","2","5","2","3","3","3","2","5","2","7","3","6","3","4","5","2","5","2","2","3","6","5","5","3","6","5","6","5","2","3","6","3","6","3","5","598888935887732736","赵熊","468","Male","[""好他"",""好我"",""坏我"",""坏他""]","[""强他"",""强我"",""弱我"",""弱他""]","","","","","","","","yes","","","","","","","","","SRET","EW_formal","","key","f","16.674809917355386","758.3333534223067","422.22223340729164","朋友","清廉","Positive","morality","","","","","","","","","",""
"707","","f","psychophysics","75","287092","0.0-7.0-3.0-0.61","6","5","6","5","3","5","4","4","4","5","4","2","1","1","2","1","2","1","0","5","5","4","2","5","4","5","5","4","4","7","8","8","6","8","7","7","7","9","6","3","2","6","2","2","5","2","3","3","3","2","5","2","7","3","6","3","4","5","2","5","2","2","3","6","5","5","3","6","5","6","5","2","3","6","3","6","3","5","598888935887732736","赵熊","468","Male","[""好他"",""好我"",""坏我"",""坏他""]","[""强他"",""强我"",""弱我"",""弱他""]","","","","","","","","yes","","","","","","","","","SRET","EW_formal","","key","f","16.67447524752507","758.3333534223067","422.22223340729164","自己","忠勇","Positive","morality","","","","","","","","","",""
"700","","j","psychophysics","76","288794","0.0-7.0-3.0-0.62","6","5","6","5","3","5","4","4","4","5","4","2","1","1","2","1","2","1","0","5","5","4","2","5","4","5","5","4","4","7","8","8","6","8","7","7","7","9","6","3","2","6","2","2","5","2","3","3","3","2","5","2","7","3","6","3","4","5","2","5","2","2","3","6","5","5","3","6","5","6","5","2","3","6","3","6","3","5","598888935887732736","赵熊","468","Male","[""好他"",""好我"",""坏我"",""坏他""]","[""强他"",""强我"",""弱我"",""弱他""]","","","","","","","","no","","","","","","","","","SRET","EW_formal","","key","j","16.67387128712916","758.3333534223067","422.22223340729164","朋友","谦逊","Positive","morality","","","","","","","","","",""
"753","","j","psychophysics","77","290553","0.0-7.0-3.0-0.63","6","5","6","5","3","5","4","4","4","5","4","2","1","1","2","1","2","1","0","5","5","4","2","5","4","5","5","4","4","7","8","8","6","8","7","7","7","9","6","3","2","6","2","2","5","2","3","3","3","2","5","2","7","3","6","3","4","5","2","5","2","2","3","6","5","5","3","6","5","6","5","2","3","6","3","6","3","5","598888935887732736","赵熊","468","Male","[""好他"",""好我"",""坏我"",""坏他""]","[""强他"",""强我"",""弱我"",""弱他""]","","","","","","","","no","","","","","","","","","SRET","EW_formal","","key","j","16.675228571428896","758.3333534223067","422.22223340729164","朋友","不仁","Negative","morality","","","","","","","","","",""
"864","","j","psychophysics","78","292424","0.0-7.0-3.0-0.64","6","5","6","5","3","5","4","4","4","5","4","2","1","1","2","1","2","1","0","5","5","4","2","5","4","5","5","4","4","7","8","8","6","8","7","7","7","9","6","3","2","6","2","2","5","2","3","3","3","2","5","2","7","3","6","3","4","5","2","5","2","2","3","6","5","5","3","6","5","6","5","2","3","6","3","6","3","5","598888935887732736","赵熊","468","Male","[""好他"",""好我"",""坏我"",""坏他""]","[""强他"",""强我"",""弱我"",""弱他""]","","","","","","","","no","","","","","","","","","SRET","EW_formal","","key","j","16.82509999999999","758.3333534223067","422.22223340729164","自己","拖延","Negative","ability","","","","","","","","","",""
"808","","f","psychophysics","79","294235","0.0-7.0-3.0-0.65","6","5","6","5","3","5","4","4","4","5","4","2","1","1","2","1","2","1","0","5","5","4","2","5","4","5","5","4","4","7","8","8","6","8","7","7","7","9","6","3","2","6","2","2","5","2","3","3","3","2","5","2","7","3","6","3","4","5","2","5","2","2","3","6","5","5","3","6","5","6","5","2","3","6","3","6","3","5","598888935887732736","赵熊","468","Male","[""好他"",""好我"",""坏我"",""坏他""]","[""强他"",""强我"",""弱我"",""弱他""]","","","","","","","","yes","","","","","","","","","SRET","EW_formal","","key","f","16.674435185184983","758.3333534223067","422.22223340729164","朋友","骁勇","Positive","ability","","","","","","","","","",""
"836","","f","psychophysics","80","296074","0.0-7.0-3.0-0.66","6","5","6","5","3","5","4","4","4","5","4","2","1","1","2","1","2","1","0","5","5","4","2","5","4","5","5","4","4","7","8","8","6","8","7","7","7","9","6","3","2","6","2","2","5","2","3","3","3","2","5","2","7","3","6","3","4","5","2","5","2","2","3","6","5","5","3","6","5","6","5","2","3","6","3","6","3","5","598888935887732736","赵熊","468","Male","[""好他"",""好我"",""坏我"",""坏他""]","[""强他"",""强我"",""弱我"",""弱他""]","","","","","","","","yes","","","","","","","","","SRET","EW_formal","","key","f","16.67587155963341","758.3333534223067","422.22223340729164","朋友","礼貌","Positive","morality","","","","","","","","","",""
"829","","f","psychophysics","81","297908","0.0-7.0-3.0-0.67","6","5","6","5","3","5","4","4","4","5","4","2","1","1","2","1","2","1","0","5","5","4","2","5","4","5","5","4","4","7","8","8","6","8","7","7","7","9","6","3","2","6","2","2","5","2","3","3","3","2","5","2","7","3","6","3","4","5","2","5","2","2","3","6","5","5","3","6","5","6","5","2","3","6","3","6","3","5","598888935887732736","赵熊","468","Male","[""好他"",""好我"",""坏我"",""坏他""]","[""强他"",""强我"",""弱我"",""弱他""]","","","","","","","","yes","","","","","","","","","SRET","EW_formal","","key","f","16.673009174311996","758.3333534223067","422.22223340729164","自己","聪明","Positive","ability","","","","","","","","","",""
"716","","f","psychophysics","82","299635","0.0-7.0-3.0-0.68","6","5","6","5","3","5","4","4","4","5","4","2","1","1","2","1","2","1","0","5","5","4","2","5","4","5","5","4","4","7","8","8","6","8","7","7","7","9","6","3","2","6","2","2","5","2","3","3","3","2","5","2","7","3","6","3","4","5","2","5","2","2","3","6","5","5","3","6","5","6","5","2","3","6","3","6","3","5","598888935887732736","赵熊","468","Male","[""好他"",""好我"",""坏我"",""坏他""]","[""强他"",""强我"",""弱我"",""弱他""]","","","","","","","","yes","","","","","","","","","SRET","EW_formal","","key","f","16.674637254902194","758.3333534223067","422.22223340729164","自己","业余","Negative","ability","","","","","","","","","",""
"804","","j","psychophysics","83","301446","0.0-7.0-3.0-0.69","6","5","6","5","3","5","4","4","4","5","4","2","1","1","2","1","2","1","0","5","5","4","2","5","4","5","5","4","4","7","8","8","6","8","7","7","7","9","6","3","2","6","2","2","5","2","3","3","3","2","5","2","7","3","6","3","4","5","2","5","2","2","3","6","5","5","3","6","5","6","5","2","3","6","3","6","3","5","598888935887732736","赵熊","468","Male","[""好他"",""好我"",""坏我"",""坏他""]","[""强他"",""强我"",""弱我"",""弱他""]","","","","","","","","no","","","","","","","","","SRET","EW_formal","","key","j","16.673435185185454","758.3333534223067","422.22223340729164","朋友","厚道","Positive","morality","","","","","","","","","",""
"2085","","f","psychophysics","84","304534","0.0-7.0-3.0-0.70","6","5","6","5","3","5","4","4","4","5","4","2","1","1","2","1","2","1","0","5","5","4","2","5","4","5","5","4","4","7","8","8","6","8","7","7","7","9","6","3","2","6","2","2","5","2","3","3","3","2","5","2","7","3","6","3","4","5","2","5","2","2","3","6","5","5","3","6","5","6","5","2","3","6","3","6","3","5","598888935887732736","赵熊","468","Male","[""好他"",""好我"",""坏我"",""坏他""]","[""强他"",""强我"",""弱我"",""弱他""]","","","","","","","","yes","","","","","","","","","SRET","EW_formal","","key","f","16.674076086956674","758.3333534223067","422.22223340729164","朋友","自律","Positive","ability","","","","","","","","","",""
"864","","j","psychophysics","85","306400","0.0-7.0-3.0-0.71","6","5","6","5","3","5","4","4","4","5","4","2","1","1","2","1","2","1","0","5","5","4","2","5","4","5","5","4","4","7","8","8","6","8","7","7","7","9","6","3","2","6","2","2","5","2","3","3","3","2","5","2","7","3","6","3","4","5","2","5","2","2","3","6","5","5","3","6","5","6","5","2","3","6","3","6","3","5","598888935887732736","赵熊","468","Male","[""好他"",""好我"",""坏我"",""坏他""]","[""强他"",""强我"",""弱我"",""弱他""]","","","","","","","","no","","","","","","","","","SRET","EW_formal","","key","j","16.675081081081156","758.3333534223067","422.22223340729164","自己","浅薄","Negative","ability","","","","","","","","","",""
"587","","f","psychophysics","86","308000","0.0-7.0-3.0-0.72","6","5","6","5","3","5","4","4","4","5","4","2","1","1","2","1","2","1","0","5","5","4","2","5","4","5","5","4","4","7","8","8","6","8","7","7","7","9","6","3","2","6","2","2","5","2","3","3","3","2","5","2","7","3","6","3","4","5","2","5","2","2","3","6","5","5","3","6","5","6","5","2","3","6","3","6","3","5","598888935887732736","赵熊","468","Male","[""好他"",""好我"",""坏我"",""坏他""]","[""强他"",""强我"",""弱我"",""弱他""]","","","","","","","","yes","","","","","","","","","SRET","EW_formal","","key","f","16.67339999999998","758.3333534223067","422.22223340729164","自己","坚持","Positive","ability","","","","","","","","","",""
"674","","f","psychophysics","87","309678","0.0-7.0-3.0-0.73","6","5","6","5","3","5","4","4","4","5","4","2","1","1","2","1","2","1","0","5","5","4","2","5","4","5","5","4","4","7","8","8","6","8","7","7","7","9","6","3","2","6","2","2","5","2","3","3","3","2","5","2","7","3","6","3","4","5","2","5","2","2","3","6","5","5","3","6","5","6","5","2","3","6","3","6","3","5","598888935887732736","赵熊","468","Male","[""好他"",""好我"",""坏我"",""坏他""]","[""强他"",""强我"",""弱我"",""弱他""]","","","","","","","","yes","","","","","","","","","SRET","EW_formal","","key","f","16.674777777777923","758.3333534223067","422.22223340729164","朋友","依靠","Negative","ability","","","","","","","","","",""
"696","","f","psychophysics","88","311383","0.0-7.0-3.0-0.74","6","5","6","5","3","5","4","4","4","5","4","2","1","1","2","1","2","1","0","5","5","4","2","5","4","5","5","4","4","7","8","8","6","8","7","7","7","9","6","3","2","6","2","2","5","2","3","3","3","2","5","2","7","3","6","3","4","5","2","5","2","2","3","6","5","5","3","6","5","6","5","2","3","6","3","6","3","5","598888935887732736","赵熊","468","Male","[""好他"",""好我"",""坏我"",""坏他""]","[""强他"",""强我"",""弱我"",""弱他""]","","","","","","","","yes","","","","","","","","","SRET","EW_formal","","key","f","16.67412745098038","758.3333534223067","422.22223340729164","朋友","懂行","Positive","ability","","","","","","","","","",""
"1067","","j","psychophysics","89","313453","0.0-7.0-3.0-0.75","6","5","6","5","3","5","4","4","4","5","4","2","1","1","2","1","2","1","0","5","5","4","2","5","4","5","5","4","4","7","8","8","6","8","7","7","7","9","6","3","2","6","2","2","5","2","3","3","3","2","5","2","7","3","6","3","4","5","2","5","2","2","3","6","5","5","3","6","5","6","5","2","3","6","3","6","3","5","598888935887732736","赵熊","468","Male","[""好他"",""好我"",""坏我"",""坏他""]","[""强他"",""强我"",""弱我"",""弱他""]","","","","","","","","no","","","","","","","","","SRET","EW_formal","","key","j","16.674471544715143","758.3333534223067","422.22223340729164","朋友","小人","Negative","morality","","","","","","","","","",""
"1055","","j","psychophysics","90","315512","0.0-7.0-3.0-0.76","6","5","6","5","3","5","4","4","4","5","4","2","1","1","2","1","2","1","0","5","5","4","2","5","4","5","5","4","4","7","8","8","6","8","7","7","7","9","6","3","2","6","2","2","5","2","3","3","3","2","5","2","7","3","6","3","4","5","2","5","2","2","3","6","5","5","3","6","5","6","5","2","3","6","3","6","3","5","598888935887732736","赵熊","468","Male","[""好他"",""好我"",""坏我"",""坏他""]","[""强他"",""强我"",""弱我"",""弱他""]","","","","","","","","no","","","","","","","","","SRET","EW_formal","","key","j","16.674024390243655","758.3333534223067","422.22223340729164","自己","利己","Negative","morality","","","","","","","","","",""
"1283","","f","psychophysics","91","317805","0.0-7.0-3.0-0.77","6","5","6","5","3","5","4","4","4","5","4","2","1","1","2","1","2","1","0","5","5","4","2","5","4","5","5","4","4","7","8","8","6","8","7","7","7","9","6","3","2","6","2","2","5","2","3","3","3","2","5","2","7","3","6","3","4","5","2","5","2","2","3","6","5","5","3","6","5","6","5","2","3","6","3","6","3","5","598888935887732736","赵熊","468","Male","[""好他"",""好我"",""坏我"",""坏他""]","[""强他"",""强我"",""弱我"",""弱他""]","","","","","","","","yes","","","","","","","","","SRET","EW_formal","","key","f","16.674183823529507","758.3333534223067","422.22223340729164","朋友","毅力","Positive","ability","","","","","","","","","",""
"946","","f","psychophysics","92","319754","0.0-7.0-3.0-0.78","6","5","6","5","3","5","4","4","4","5","4","2","1","1","2","1","2","1","0","5","5","4","2","5","4","5","5","4","4","7","8","8","6","8","7","7","7","9","6","3","2","6","2","2","5","2","3","3","3","2","5","2","7","3","6","3","4","5","2","5","2","2","3","6","5","5","3","6","5","6","5","2","3","6","3","6","3","5","598888935887732736","赵熊","468","Male","[""好他"",""好我"",""坏我"",""坏他""]","[""强他"",""强我"",""弱我"",""弱他""]","","","","","","","","yes","","","","","","","","","SRET","EW_formal","","key","f","16.674146551724146","758.3333534223067","422.22223340729164","自己","逞能","Negative","ability","","","","","","","","","",""
"795","","j","psychophysics","93","321553","0.0-7.0-3.0-0.79","6","5","6","5","3","5","4","4","4","5","4","2","1","1","2","1","2","1","0","5","5","4","2","5","4","5","5","4","4","7","8","8","6","8","7","7","7","9","6","3","2","6","2","2","5","2","3","3","3","2","5","2","7","3","6","3","4","5","2","5","2","2","3","6","5","5","3","6","5","6","5","2","3","6","3","6","3","5","598888935887732736","赵熊","468","Male","[""好他"",""好我"",""坏我"",""坏他""]","[""强他"",""强我"",""弱我"",""弱他""]","","","","","","","","no","","","","","","","","","SRET","EW_formal","","key","j","16.673943925233313","758.3333534223067","422.22223340729164","朋友","淡泊","Positive","morality","","","","","","","","","",""
"798","","j","psychophysics","94","323354","0.0-7.0-3.0-0.80","6","5","6","5","3","5","4","4","4","5","4","2","1","1","2","1","2","1","0","5","5","4","2","5","4","5","5","4","4","7","8","8","6","8","7","7","7","9","6","3","2","6","2","2","5","2","3","3","3","2","5","2","7","3","6","3","4","5","2","5","2","2","3","6","5","5","3","6","5","6","5","2","3","6","3","6","3","5","598888935887732736","赵熊","468","Male","[""好他"",""好我"",""坏我"",""坏他""]","[""强他"",""强我"",""弱我"",""弱他""]","","","","","","","","no","","","","","","","","","SRET","EW_formal","","key","j","16.675168224299224","758.3333534223067","422.22223340729164","自己","黑心","Negative","morality","","","","","","","","","",""
"767","","f","psychophysics","95","325124","0.0-7.0-3.0-0.81","6","5","6","5","3","5","4","4","4","5","4","2","1","1","2","1","2","1","0","5","5","4","2","5","4","5","5","4","4","7","8","8","6","8","7","7","7","9","6","3","2","6","2","2","5","2","3","3","3","2","5","2","7","3","6","3","4","5","2","5","2","2","3","6","5","5","3","6","5","6","5","2","3","6","3","6","3","5","598888935887732736","赵熊","468","Male","[""好他"",""好我"",""坏我"",""坏他""]","[""强他"",""强我"",""弱我"",""弱他""]","","","","","","","","yes","","","","","","","","","SRET","EW_formal","","key","f","16.67411428571435","758.3333534223067","422.22223340729164","自己","迂拙","Negative","ability","","","","","","","","","",""
"862","","j","psychophysics","96","326990","0.0-7.0-3.0-0.82","6","5","6","5","3","5","4","4","4","5","4","2","1","1","2","1","2","1","0","5","5","4","2","5","4","5","5","4","4","7","8","8","6","8","7","7","7","9","6","3","2","6","2","2","5","2","3","3","3","2","5","2","7","3","6","3","4","5","2","5","2","2","3","6","5","5","3","6","5","6","5","2","3","6","3","6","3","5","598888935887732736","赵熊","468","Male","[""好他"",""好我"",""坏我"",""坏他""]","[""强他"",""强我"",""弱我"",""弱他""]","","","","","","","","no","","","","","","","","","SRET","EW_formal","","key","j","16.673927927927767","758.3333534223067","422.22223340729164","朋友","外行","Negative","ability","","","","","","","","","",""
"828","","f","psychophysics","97","328822","0.0-7.0-3.0-0.83","6","5","6","5","3","5","4","4","4","5","4","2","1","1","2","1","2","1","0","5","5","4","2","5","4","5","5","4","4","7","8","8","6","8","7","7","7","9","6","3","2","6","2","2","5","2","3","3","3","2","5","2","7","3","6","3","4","5","2","5","2","2","3","6","5","5","3","6","5","6","5","2","3","6","3","6","3","5","598888935887732736","赵熊","468","Male","[""好他"",""好我"",""坏我"",""坏他""]","[""强他"",""强我"",""弱我"",""弱他""]","","","","","","","","yes","","","","","","","","","SRET","EW_formal","","key","f","16.67455963302754","758.3333534223067","422.22223340729164","朋友","坦荡","Positive","morality","","","","","","","","","",""
"745","","f","psychophysics","98","330572","0.0-7.0-3.0-0.84","6","5","6","5","3","5","4","4","4","5","4","2","1","1","2","1","2","1","0","5","5","4","2","5","4","5","5","4","4","7","8","8","6","8","7","7","7","9","6","3","2","6","2","2","5","2","3","3","3","2","5","2","7","3","6","3","4","5","2","5","2","2","3","6","5","5","3","6","5","6","5","2","3","6","3","6","3","5","598888935887732736","赵熊","468","Male","[""好他"",""好我"",""坏我"",""坏他""]","[""强他"",""强我"",""弱我"",""弱他""]","","","","","","","","yes","","","","","","","","","SRET","EW_formal","","key","f","16.673903846153944","758.3333534223067","422.22223340729164","自己","主见","Positive","ability","","","","","","","","","",""
"804","","j","psychophysics","99","332378","0.0-7.0-3.0-0.85","6","5","6","5","3","5","4","4","4","5","4","2","1","1","2","1","2","1","0","5","5","4","2","5","4","5","5","4","4","7","8","8","6","8","7","7","7","9","6","3","2","6","2","2","5","2","3","3","3","2","5","2","7","3","6","3","4","5","2","5","2","2","3","6","5","5","3","6","5","6","5","2","3","6","3","6","3","5","598888935887732736","赵熊","468","Male","[""好他"",""好我"",""坏我"",""坏他""]","[""强他"",""强我"",""弱我"",""弱他""]","","","","","","","","no","","","","","","","","","SRET","EW_formal","","key","j","16.832311320754496","758.3333534223067","422.22223340729164","朋友","低俗","Negative","morality","","","","","","","","","",""
"730","","f","psychophysics","100","334113","0.0-7.0-3.0-0.86","6","5","6","5","3","5","4","4","4","5","4","2","1","1","2","1","2","1","0","5","5","4","2","5","4","5","5","4","4","7","8","8","6","8","7","7","7","9","6","3","2","6","2","2","5","2","3","3","3","2","5","2","7","3","6","3","4","5","2","5","2","2","3","6","5","5","3","6","5","6","5","2","3","6","3","6","3","5","598888935887732736","赵熊","468","Male","[""好他"",""好我"",""坏我"",""坏他""]","[""强他"",""强我"",""弱我"",""弱他""]","","","","","","","","yes","","","","","","","","","SRET","EW_formal","","key","f","16.673941747573075","758.3333534223067","422.22223340729164","朋友","素养","Positive","morality","","","","","","","","","",""
"776","","f","psychophysics","101","335907","0.0-7.0-3.0-0.87","6","5","6","5","3","5","4","4","4","5","4","2","1","1","2","1","2","1","0","5","5","4","2","5","4","5","5","4","4","7","8","8","6","8","7","7","7","9","6","3","2","6","2","2","5","2","3","3","3","2","5","2","7","3","6","3","4","5","2","5","2","2","3","6","5","5","3","6","5","6","5","2","3","6","3","6","3","5","598888935887732736","赵熊","468","Male","[""好他"",""好我"",""坏我"",""坏他""]","[""强他"",""强我"",""弱我"",""弱他""]","","","","","","","","yes","","","","","","","","","SRET","EW_formal","","key","f","16.673626168224107","758.3333534223067","422.22223340729164","自己","缓慢","Negative","ability","","","","","","","","","",""
"8633","
    <p><div style='color:white;font-size:35px; line-height:20px;'>计算任务</div></p><br>
    <p><div style='color:red;font-size:25px; line-height:20px;'>接下来，您将看到一些四则运算题，<b>请从键盘选择 0-9 进行反应。</b></div></p>
    <p><div class='footer' style='color:white;font-size:25px; line-height:20px;'>如果对本实验还有不清楚之处，请立即向实验员咨询。</p><p style='color:white;font-size:25px; line-height:20px;'>如果您明白了规则：</p><p style='color:white;font-size:22px; line-height:20px;'>请按 继续 进入练习</p>
    </div>
    ","0","html-button-response","102","344591","0.0-7.0-4.0","6","5","6","5","3","5","4","4","4","5","4","2","1","1","2","1","2","1","0","5","5","4","2","5","4","5","5","4","4","7","8","8","6","8","7","7","7","9","6","3","2","6","2","2","5","2","3","3","3","2","5","2","7","3","6","3","4","5","2","5","2","2","3","6","5","5","3","6","5","6","5","2","3","6","3","6","3","5","598888935887732736","赵熊","468","Male","[""好他"",""好我"",""坏我"",""坏他""]","[""强他"",""强我"",""弱我"",""弱他""]","","","","","","","","","","","","","","","","","SRET_math","math_instructions","Tue Oct 17 2023 18:45:25 GMT+0800 (中国标准时间)","","","","","","","","","","","","","","","","","","",""
"2195","","5","psychophysics","103","346803","0.0-7.0-5.0-0.0","6","5","6","5","3","5","4","4","4","5","4","2","1","1","2","1","2","1","0","5","5","4","2","5","4","5","5","4","4","7","8","8","6","8","7","7","7","9","6","3","2","6","2","2","5","2","3","3","3","2","5","2","7","3","6","3","4","5","2","5","2","2","3","6","5","5","3","6","5","6","5","2","3","6","3","6","3","5","598888935887732736","赵熊","468","Male","[""好他"",""好我"",""坏我"",""坏他""]","[""强他"",""强我"",""弱我"",""弱他""]","","","","","","","","5","","","","","","","","","SRET","SRET_math_calculate","","key","5","16.8011439393943","758.3333534223067","422.22223340729164","","","","","15-10= ?","5","1","","","","","","",""
"2672","","3","psychophysics","104","349485","0.0-7.0-5.0-0.1","6","5","6","5","3","5","4","4","4","5","4","2","1","1","2","1","2","1","0","5","5","4","2","5","4","5","5","4","4","7","8","8","6","8","7","7","7","9","6","3","2","6","2","2","5","2","3","3","3","2","5","2","7","3","6","3","4","5","2","5","2","2","3","6","5","5","3","6","5","6","5","2","3","6","3","6","3","5","598888935887732736","赵熊","468","Male","[""好他"",""好我"",""坏我"",""坏他""]","[""强他"",""强我"",""弱我"",""弱他""]","","","","","","","","3","","","","","","","","","SRET","SRET_math_calculate","","key","3","16.674275000000126","758.3333534223067","422.22223340729164","","","","","12/4= ?","3","1","","","","","","",""
"1965","","4","psychophysics","105","351470","0.0-7.0-5.0-0.2","6","5","6","5","3","5","4","4","4","5","4","2","1","1","2","1","2","1","0","5","5","4","2","5","4","5","5","4","4","7","8","8","6","8","7","7","7","9","6","3","2","6","2","2","5","2","3","3","3","2","5","2","7","3","6","3","4","5","2","5","2","2","3","6","5","5","3","6","5","6","5","2","3","6","3","6","3","5","598888935887732736","赵熊","468","Male","[""好他"",""好我"",""坏我"",""坏他""]","[""强他"",""强我"",""弱我"",""弱他""]","","","","","","","","4","","","","","","","","","SRET","SRET_math_calculate","","key","4","16.67386440677969","758.3333534223067","422.22223340729164","","","","","9-5= ?","4","1","","","","","","",""
"2467","","2","psychophysics","106","353940","0.0-7.0-5.0-0.3","6","5","6","5","3","5","4","4","4","5","4","2","1","1","2","1","2","1","0","5","5","4","2","5","4","5","5","4","4","7","8","8","6","8","7","7","7","9","6","3","2","6","2","2","5","2","3","3","3","2","5","2","7","3","6","3","4","5","2","5","2","2","3","6","5","5","3","6","5","6","5","2","3","6","3","6","3","5","598888935887732736","赵熊","468","Male","[""好他"",""好我"",""坏我"",""坏他""]","[""强他"",""强我"",""弱我"",""弱他""]","","","","","","","","2","","","","","","","","","SRET","SRET_math_calculate","","key","2","16.674727891156447","758.3333534223067","422.22223340729164","","","","","22/11= ?","2","1","","","","","","",""
"2147","","7","psychophysics","107","356099","0.0-7.0-5.0-0.4","6","5","6","5","3","5","4","4","4","5","4","2","1","1","2","1","2","1","0","5","5","4","2","5","4","5","5","4","4","7","8","8","6","8","7","7","7","9","6","3","2","6","2","2","5","2","3","3","3","2","5","2","7","3","6","3","4","5","2","5","2","2","3","6","5","5","3","6","5","6","5","2","3","6","3","6","3","5","598888935887732736","赵熊","468","Male","[""好他"",""好我"",""坏我"",""坏他""]","[""强他"",""强我"",""弱我"",""弱他""]","","","","","","","","7","","","","","","","","","SRET","SRET_math_calculate","","key","7","16.674573643410547","758.3333534223067","422.22223340729164","","","","","3+4= ?","7","1","","","","","","",""
"2503","","7","psychophysics","108","358606","0.0-7.0-5.0-0.5","6","5","6","5","3","5","4","4","4","5","4","2","1","1","2","1","2","1","0","5","5","4","2","5","4","5","5","4","4","7","8","8","6","8","7","7","7","9","6","3","2","6","2","2","5","2","3","3","3","2","5","2","7","3","6","3","4","5","2","5","2","2","3","6","5","5","3","6","5","6","5","2","3","6","3","6","3","5","598888935887732736","赵熊","468","Male","[""好他"",""好我"",""坏我"",""坏他""]","[""强他"",""强我"",""弱我"",""弱他""]","","","","","","","","7","","","","","","","","","SRET","SRET_math_calculate","","key","7","16.673355704698096","758.3333534223067","422.22223340729164","","","","","21/3= ? ","7","1","","","","","","",""
"1866","","6","psychophysics","109","360484","0.0-7.0-5.0-0.6","6","5","6","5","3","5","4","4","4","5","4","2","1","1","2","1","2","1","0","5","5","4","2","5","4","5","5","4","4","7","8","8","6","8","7","7","7","9","6","3","2","6","2","2","5","2","3","3","3","2","5","2","7","3","6","3","4","5","2","5","2","2","3","6","5","5","3","6","5","6","5","2","3","6","3","6","3","5","598888935887732736","赵熊","468","Male","[""好他"",""好我"",""坏我"",""坏他""]","[""强他"",""强我"",""弱我"",""弱他""]","","","","","","","","6","","","","","","","","","SRET","SRET_math_calculate","","key","6","16.675108108108418","758.3333534223067","422.22223340729164","","","","","5+1= ?","6","1","","","","","","",""
"1976","","6","psychophysics","110","362474","0.0-7.0-5.0-0.7","6","5","6","5","3","5","4","4","4","5","4","2","1","1","2","1","2","1","0","5","5","4","2","5","4","5","5","4","4","7","8","8","6","8","7","7","7","9","6","3","2","6","2","2","5","2","3","3","3","2","5","2","7","3","6","3","4","5","2","5","2","2","3","6","5","5","3","6","5","6","5","2","3","6","3","6","3","5","598888935887732736","赵熊","468","Male","[""好他"",""好我"",""坏我"",""坏他""]","[""强他"",""强我"",""弱我"",""弱他""]","","","","","","","","6","","","","","","","","","SRET","SRET_math_calculate","","key","6","16.672327731092295","758.3333534223067","422.22223340729164","","","","","3+3= ?","6","1","","","","","","",""
"2042","","3","psychophysics","111","364519","0.0-7.0-5.0-0.8","6","5","6","5","3","5","4","4","4","5","4","2","1","1","2","1","2","1","0","5","5","4","2","5","4","5","5","4","4","7","8","8","6","8","7","7","7","9","6","3","2","6","2","2","5","2","3","3","3","2","5","2","7","3","6","3","4","5","2","5","2","2","3","6","5","5","3","6","5","6","5","2","3","6","3","6","3","5","598888935887732736","赵熊","468","Male","[""好他"",""好我"",""坏我"",""坏他""]","[""强他"",""强我"",""弱我"",""弱他""]","","","","","","","","3","","","","","","","","","SRET","SRET_math_calculate","","key","3","16.675008264462626","758.3333534223067","422.22223340729164","","","","","8-5= ?","3","1","","","","","","",""
"1960","","1","psychophysics","112","366488","0.0-7.0-5.0-0.9","6","5","6","5","3","5","4","4","4","5","4","2","1","1","2","1","2","1","0","5","5","4","2","5","4","5","5","4","4","7","8","8","6","8","7","7","7","9","6","3","2","6","2","2","5","2","3","3","3","2","5","2","7","3","6","3","4","5","2","5","2","2","3","6","5","5","3","6","5","6","5","2","3","6","3","6","3","5","598888935887732736","赵熊","468","Male","[""好他"",""好我"",""坏我"",""坏他""]","[""强他"",""强我"",""弱我"",""弱他""]","","","","","","","","1","","","","","","","","","SRET","SRET_math_calculate","","key","1","16.67512711864389","758.3333534223067","422.22223340729164","","","","","9-8= ?","1","1","","","","","","",""
"2036","","6","psychophysics","113","368536","0.0-7.0-5.0-0.10","6","5","6","5","3","5","4","4","4","5","4","2","1","1","2","1","2","1","0","5","5","4","2","5","4","5","5","4","4","7","8","8","6","8","7","7","7","9","6","3","2","6","2","2","5","2","3","3","3","2","5","2","7","3","6","3","4","5","2","5","2","2","3","6","5","5","3","6","5","6","5","2","3","6","3","6","3","5","598888935887732736","赵熊","468","Male","[""好他"",""好我"",""坏我"",""坏他""]","[""强他"",""强我"",""弱我"",""弱他""]","","","","","","","","6","","","","","","","","","SRET","SRET_math_calculate","","key","6","16.673876033057766","758.3333534223067","422.22223340729164","","","","","2*3= ?","6","1","","","","","","",""
"2212","","0","psychophysics","114","370756","0.0-7.0-5.0-0.11","6","5","6","5","3","5","4","4","4","5","4","2","1","1","2","1","2","1","0","5","5","4","2","5","4","5","5","4","4","7","8","8","6","8","7","7","7","9","6","3","2","6","2","2","5","2","3","3","3","2","5","2","7","3","6","3","4","5","2","5","2","2","3","6","5","5","3","6","5","6","5","2","3","6","3","6","3","5","598888935887732736","赵熊","468","Male","[""好他"",""好我"",""坏我"",""坏他""]","[""强他"",""强我"",""弱我"",""弱他""]","","","","","","","","0","","","","","","","","","SRET","SRET_math_calculate","","key","0","16.673992481203033","758.3333534223067","422.22223340729164","","","","","9-9= ?","0","1","","","","","","",""
"1947","","7","psychophysics","115","372706","0.0-7.0-5.0-0.12","6","5","6","5","3","5","4","4","4","5","4","2","1","1","2","1","2","1","0","5","5","4","2","5","4","5","5","4","4","7","8","8","6","8","7","7","7","9","6","3","2","6","2","2","5","2","3","3","3","2","5","2","7","3","6","3","4","5","2","5","2","2","3","6","5","5","3","6","5","6","5","2","3","6","3","6","3","5","598888935887732736","赵熊","468","Male","[""好他"",""好我"",""坏我"",""坏他""]","[""强他"",""强我"",""弱我"",""弱他""]","","","","","","","","7","","","","","","","","","SRET","SRET_math_calculate","","key","7","16.6741810344829","758.3333534223067","422.22223340729164","","","","","1+6= ?","7","1","","","","","","",""
"2053","","5","psychophysics","116","374764","0.0-7.0-5.0-0.13","6","5","6","5","3","5","4","4","4","5","4","2","1","1","2","1","2","1","0","5","5","4","2","5","4","5","5","4","4","7","8","8","6","8","7","7","7","9","6","3","2","6","2","2","5","2","3","3","3","2","5","2","7","3","6","3","4","5","2","5","2","2","3","6","5","5","3","6","5","6","5","2","3","6","3","6","3","5","598888935887732736","赵熊","468","Male","[""好他"",""好我"",""坏我"",""坏他""]","[""强他"",""强我"",""弱我"",""弱他""]","","","","","","","","5","","","","","","","","","SRET","SRET_math_calculate","","key","5","16.674663934425823","758.3333534223067","422.22223340729164","","","","","2+3= ?","5","1","","","","","","",""
"1943","","3","psychophysics","117","376721","0.0-7.0-5.0-0.14","6","5","6","5","3","5","4","4","4","5","4","2","1","1","2","1","2","1","0","5","5","4","2","5","4","5","5","4","4","7","8","8","6","8","7","7","7","9","6","3","2","6","2","2","5","2","3","3","3","2","5","2","7","3","6","3","4","5","2","5","2","2","3","6","5","5","3","6","5","6","5","2","3","6","3","6","3","5","598888935887732736","赵熊","468","Male","[""好他"",""好我"",""坏我"",""坏他""]","[""强他"",""强我"",""弱我"",""弱他""]","","","","","","","","3","","","","","","","","","SRET","SRET_math_calculate","","key","3","16.96583333333317","758.3333534223067","422.22223340729164","","","","","9/3= ?","3","1","","","","","","",""
"2061","","8","psychophysics","118","378795","0.0-7.0-5.0-0.15","6","5","6","5","3","5","4","4","4","5","4","2","1","1","2","1","2","1","0","5","5","4","2","5","4","5","5","4","4","7","8","8","6","8","7","7","7","9","6","3","2","6","2","2","5","2","3","3","3","2","5","2","7","3","6","3","4","5","2","5","2","2","3","6","5","5","3","6","5","6","5","2","3","6","3","6","3","5","598888935887732736","赵熊","468","Male","[""好他"",""好我"",""坏我"",""坏他""]","[""强他"",""强我"",""弱我"",""弱他""]","","","","","","","","8","","","","","","","","","SRET","SRET_math_calculate","","key","8","16.673870967742385","758.3333534223067","422.22223340729164","","","","","7+1= ?","8","1","","","","","","",""
"1968","","9","psychophysics","119","380765","0.0-7.0-5.0-0.16","6","5","6","5","3","5","4","4","4","5","4","2","1","1","2","1","2","1","0","5","5","4","2","5","4","5","5","4","4","7","8","8","6","8","7","7","7","9","6","3","2","6","2","2","5","2","3","3","3","2","5","2","7","3","6","3","4","5","2","5","2","2","3","6","5","5","3","6","5","6","5","2","3","6","3","6","3","5","598888935887732736","赵熊","468","Male","[""好他"",""好我"",""坏我"",""坏他""]","[""强他"",""强我"",""弱我"",""弱他""]","","","","","","","","9","","","","","","","","","SRET","SRET_math_calculate","","key","9","16.6756837606837","758.3333534223067","422.22223340729164","","","","","4+5= ?","9","1","","","","","","",""
"2548","","3","psychophysics","120","383317","0.0-7.0-5.0-0.17","6","5","6","5","3","5","4","4","4","5","4","2","1","1","2","1","2","1","0","5","5","4","2","5","4","5","5","4","4","7","8","8","6","8","7","7","7","9","6","3","2","6","2","2","5","2","3","3","3","2","5","2","7","3","6","3","4","5","2","5","2","2","3","6","5","5","3","6","5","6","5","2","3","6","3","6","3","5","598888935887732736","赵熊","468","Male","[""好他"",""好我"",""坏我"",""坏他""]","[""强他"",""强我"",""弱我"",""弱他""]","","","","","","","","3","","","","","","","","","SRET","SRET_math_calculate","","key","3","16.674039473684388","758.3333534223067","422.22223340729164","","","","","21/7=  ?","3","1","","","","","","",""
"1822","","5","psychophysics","121","385152","0.0-7.0-5.0-0.18","6","5","6","5","3","5","4","4","4","5","4","2","1","1","2","1","2","1","0","5","5","4","2","5","4","5","5","4","4","7","8","8","6","8","7","7","7","9","6","3","2","6","2","2","5","2","3","3","3","2","5","2","7","3","6","3","4","5","2","5","2","2","3","6","5","5","3","6","5","6","5","2","3","6","3","6","3","5","598888935887732736","赵熊","468","Male","[""好他"",""好我"",""坏我"",""坏他""]","[""强他"",""强我"",""弱我"",""弱他""]","","","","","","","","5","","","","","","","","","SRET","SRET_math_calculate","","key","5","16.8307592592588","758.3333534223067","422.22223340729164","","","","","3+2= ?","5","1","","","","","","",""
"2259","","4","psychophysics","122","387428","0.0-7.0-5.0-0.19","6","5","6","5","3","5","4","4","4","5","4","2","1","1","2","1","2","1","0","5","5","4","2","5","4","5","5","4","4","7","8","8","6","8","7","7","7","9","6","3","2","6","2","2","5","2","3","3","3","2","5","2","7","3","6","3","4","5","2","5","2","2","3","6","5","5","3","6","5","6","5","2","3","6","3","6","3","5","598888935887732736","赵熊","468","Male","[""好他"",""好我"",""坏我"",""坏他""]","[""强他"",""强我"",""弱我"",""弱他""]","","","","","","","","4","","","","","","","","","SRET","SRET_math_calculate","","key","4","16.67479259259266","758.3333534223067","422.22223340729164","","","","","4*1= ?","4","1","","","","","","",""
"1985","","2","psychophysics","123","389430","0.0-7.0-5.0-0.20","6","5","6","5","3","5","4","4","4","5","4","2","1","1","2","1","2","1","0","5","5","4","2","5","4","5","5","4","4","7","8","8","6","8","7","7","7","9","6","3","2","6","2","2","5","2","3","3","3","2","5","2","7","3","6","3","4","5","2","5","2","2","3","6","5","5","3","6","5","6","5","2","3","6","3","6","3","5","598888935887732736","赵熊","468","Male","[""好他"",""好我"",""坏我"",""坏他""]","[""强他"",""强我"",""弱我"",""弱他""]","","","","","","","","2","","","","","","","","","SRET","SRET_math_calculate","","key","2","16.67441666666661","758.3333534223067","422.22223340729164","","","","","12/6= ?","2","1","","","","","","",""
"2597","","6","psychophysics","124","392033","0.0-7.0-5.0-0.21","6","5","6","5","3","5","4","4","4","5","4","2","1","1","2","1","2","1","0","5","5","4","2","5","4","5","5","4","4","7","8","8","6","8","7","7","7","9","6","3","2","6","2","2","5","2","3","3","3","2","5","2","7","3","6","3","4","5","2","5","2","2","3","6","5","5","3","6","5","6","5","2","3","6","3","6","3","5","598888935887732736","赵熊","468","Male","[""好他"",""好我"",""坏我"",""坏他""]","[""强他"",""强我"",""弱我"",""弱他""]","","","","","","","","6","","","","","","","","","SRET","SRET_math_calculate","","key","6","16.67439354838683","758.3333534223067","422.22223340729164","","","","","8-2= ?","6","1","","","","","","",""
"1827","","5","psychophysics","125","393867","0.0-7.0-5.0-0.22","6","5","6","5","3","5","4","4","4","5","4","2","1","1","2","1","2","1","0","5","5","4","2","5","4","5","5","4","4","7","8","8","6","8","7","7","7","9","6","3","2","6","2","2","5","2","3","3","3","2","5","2","7","3","6","3","4","5","2","5","2","2","3","6","5","5","3","6","5","6","5","2","3","6","3","6","3","5","598888935887732736","赵熊","468","Male","[""好他"",""好我"",""坏我"",""坏他""]","[""强他"",""强我"",""弱我"",""弱他""]","","","","","","","","5","","","","","","","","","SRET","SRET_math_calculate","","key","5","16.674532110092056","758.3333534223067","422.22223340729164","","","","","4+1= ?","5","1","","","","","","",""
"2427","","8","psychophysics","126","396298","0.0-7.0-5.0-0.23","6","5","6","5","3","5","4","4","4","5","4","2","1","1","2","1","2","1","0","5","5","4","2","5","4","5","5","4","4","7","8","8","6","8","7","7","7","9","6","3","2","6","2","2","5","2","3","3","3","2","5","2","7","3","6","3","4","5","2","5","2","2","3","6","5","5","3","6","5","6","5","2","3","6","3","6","3","5","598888935887732736","赵熊","468","Male","[""好他"",""好我"",""坏我"",""坏他""]","[""强他"",""强我"",""弱我"",""弱他""]","","","","","","","","8","","","","","","","","","SRET","SRET_math_calculate","","key","8","16.67411724137913","758.3333534223067","422.22223340729164","","","","","50-42= ?","8","1","","","","","","",""
"2192","","3","psychophysics","127","398492","0.0-7.0-5.0-0.24","6","5","6","5","3","5","4","4","4","5","4","2","1","1","2","1","2","1","0","5","5","4","2","5","4","5","5","4","4","7","8","8","6","8","7","7","7","9","6","3","2","6","2","2","5","2","3","3","3","2","5","2","7","3","6","3","4","5","2","5","2","2","3","6","5","5","3","6","5","6","5","2","3","6","3","6","3","5","598888935887732736","赵熊","468","Male","[""好他"",""好我"",""坏我"",""坏他""]","[""强他"",""强我"",""弱我"",""弱他""]","","","","","","","","3","","","","","","","","","SRET","SRET_math_calculate","","key","3","16.674484615384763","758.3333534223067","422.22223340729164","","","","","3+0= ?","3","1","","","","","","",""
"1873","","6","psychophysics","128","400373","0.0-7.0-5.0-0.25","6","5","6","5","3","5","4","4","4","5","4","2","1","1","2","1","2","1","0","5","5","4","2","5","4","5","5","4","4","7","8","8","6","8","7","7","7","9","6","3","2","6","2","2","5","2","3","3","3","2","5","2","7","3","6","3","4","5","2","5","2","2","3","6","5","5","3","6","5","6","5","2","3","6","3","6","3","5","598888935887732736","赵熊","468","Male","[""好他"",""好我"",""坏我"",""坏他""]","[""强他"",""强我"",""弱我"",""弱他""]","","","","","","","","6","","","","","","","","","SRET","SRET_math_calculate","","key","6","16.674848214286094","758.3333534223067","422.22223340729164","","","","","2+4= ?","6","1","","","","","","",""
"2657","","5","psychophysics","129","403049","0.0-7.0-5.0-0.26","6","5","6","5","3","5","4","4","4","5","4","2","1","1","2","1","2","1","0","5","5","4","2","5","4","5","5","4","4","7","8","8","6","8","7","7","7","9","6","3","2","6","2","2","5","2","3","3","3","2","5","2","7","3","6","3","4","5","2","5","2","2","3","6","5","5","3","6","5","6","5","2","3","6","3","6","3","5","598888935887732736","赵熊","468","Male","[""好他"",""好我"",""坏我"",""坏他""]","[""强他"",""强我"",""弱我"",""弱他""]","","","","","","","","5","","","","","","","","","SRET","SRET_math_calculate","","key","5","16.674553459119593","758.3333534223067","422.22223340729164","","","","","14-9= ?","5","1","","","","","","",""
"1875","","4","psychophysics","130","404938","0.0-7.0-5.0-0.27","6","5","6","5","3","5","4","4","4","5","4","2","1","1","2","1","2","1","0","5","5","4","2","5","4","5","5","4","4","7","8","8","6","8","7","7","7","9","6","3","2","6","2","2","5","2","3","3","3","2","5","2","7","3","6","3","4","5","2","5","2","2","3","6","5","5","3","6","5","6","5","2","3","6","3","6","3","5","598888935887732736","赵熊","468","Male","[""好他"",""好我"",""坏我"",""坏他""]","[""强他"",""强我"",""弱我"",""弱他""]","","","","","","","","4","","","","","","","","","SRET","SRET_math_calculate","","key","4","16.673339285714196","758.3333534223067","422.22223340729164","","","","","3+1= ?","4","1","","","","","","",""
"1904","","2","psychophysics","131","406858","0.0-7.0-5.0-0.28","6","5","6","5","3","5","4","4","4","5","4","2","1","1","2","1","2","1","0","5","5","4","2","5","4","5","5","4","4","7","8","8","6","8","7","7","7","9","6","3","2","6","2","2","5","2","3","3","3","2","5","2","7","3","6","3","4","5","2","5","2","2","3","6","5","5","3","6","5","6","5","2","3","6","3","6","3","5","598888935887732736","赵熊","468","Male","[""好他"",""好我"",""坏我"",""坏他""]","[""强他"",""强我"",""弱我"",""弱他""]","","","","","","","","2","","","","","","","","","SRET","SRET_math_calculate","","key","2","16.673652173913307","758.3333534223067","422.22223340729164","","","","","8-6= ?","2","1","","","","","","",""
"1935","","4","psychophysics","132","408804","0.0-7.0-5.0-0.29","6","5","6","5","3","5","4","4","4","5","4","2","1","1","2","1","2","1","0","5","5","4","2","5","4","5","5","4","4","7","8","8","6","8","7","7","7","9","6","3","2","6","2","2","5","2","3","3","3","2","5","2","7","3","6","3","4","5","2","5","2","2","3","6","5","5","3","6","5","6","5","2","3","6","3","6","3","5","598888935887732736","赵熊","468","Male","[""好他"",""好我"",""坏我"",""坏他""]","[""强他"",""强我"",""弱我"",""弱他""]","","","","","","","","4","","","","","","","","","SRET","SRET_math_calculate","","key","4","16.8185565217388","758.3333534223067","422.22223340729164","","","","","8-4= ?","4","1","","","","","","",""
"2057","","8","psychophysics","133","410864","0.0-7.0-5.0-0.30","6","5","6","5","3","5","4","4","4","5","4","2","1","1","2","1","2","1","0","5","5","4","2","5","4","5","5","4","4","7","8","8","6","8","7","7","7","9","6","3","2","6","2","2","5","2","3","3","3","2","5","2","7","3","6","3","4","5","2","5","2","2","3","6","5","5","3","6","5","6","5","2","3","6","3","6","3","5","598888935887732736","赵熊","468","Male","[""好他"",""好我"",""坏我"",""坏他""]","[""强他"",""强我"",""弱我"",""弱他""]","","","","","","","","8","","","","","","","","","SRET","SRET_math_calculate","","key","8","16.67481967213098","758.3333534223067","422.22223340729164","","","","","5+3= ?","8","1","","","","","","",""
"3908","","7","psychophysics","134","414798","0.0-7.0-5.0-0.31","6","5","6","5","3","5","4","4","4","5","4","2","1","1","2","1","2","1","0","5","5","4","2","5","4","5","5","4","4","7","8","8","6","8","7","7","7","9","6","3","2","6","2","2","5","2","3","3","3","2","5","2","7","3","6","3","4","5","2","5","2","2","3","6","5","5","3","6","5","6","5","2","3","6","3","6","3","5","598888935887732736","赵熊","468","Male","[""好他"",""好我"",""坏我"",""坏他""]","[""强他"",""强我"",""弱我"",""弱他""]","","","","","","","","7","","","","","","","","","SRET","SRET_math_calculate","","key","7","16.672761702127605","758.3333534223067","422.22223340729164","","","","","11-4= ?","7","1","","","","","","",""
"3366","","1","psychophysics","135","418168","0.0-7.0-5.0-0.32","6","5","6","5","3","5","4","4","4","5","4","2","1","1","2","1","2","1","0","5","5","4","2","5","4","5","5","4","4","7","8","8","6","8","7","7","7","9","6","3","2","6","2","2","5","2","3","3","3","2","5","2","7","3","6","3","4","5","2","5","2","2","3","6","5","5","3","6","5","6","5","2","3","6","3","6","3","5","598888935887732736","赵熊","468","Male","[""好他"",""好我"",""坏我"",""坏他""]","[""强他"",""强我"",""弱我"",""弱他""]","","","","","","","","1","","","","","","","","","SRET","SRET_math_calculate","","key","1","16.67422388059716","758.3333534223067","422.22223340729164","","","","","12/12= ?","1","1","","","","","","",""
"1906","","2","psychophysics","136","420080","0.0-7.0-5.0-0.33","6","5","6","5","3","5","4","4","4","5","4","2","1","1","2","1","2","1","0","5","5","4","2","5","4","5","5","4","4","7","8","8","6","8","7","7","7","9","6","3","2","6","2","2","5","2","3","3","3","2","5","2","7","3","6","3","4","5","2","5","2","2","3","6","5","5","3","6","5","6","5","2","3","6","3","6","3","5","598888935887732736","赵熊","468","Male","[""好他"",""好我"",""坏我"",""坏他""]","[""强他"",""强我"",""弱我"",""弱他""]","","","","","","","","2","","","","","","","","","SRET","SRET_math_calculate","","key","2","16.674640350877063","758.3333534223067","422.22223340729164","","","","","5-3= ?","2","1","","","","","","",""
"1880","","5","psychophysics","137","421963","0.0-7.0-5.0-0.34","6","5","6","5","3","5","4","4","4","5","4","2","1","1","2","1","2","1","0","5","5","4","2","5","4","5","5","4","4","7","8","8","6","8","7","7","7","9","6","3","2","6","2","2","5","2","3","3","3","2","5","2","7","3","6","3","4","5","2","5","2","2","3","6","5","5","3","6","5","6","5","2","3","6","3","6","3","5","598888935887732736","赵熊","468","Male","[""好他"",""好我"",""坏我"",""坏他""]","[""强他"",""强我"",""弱我"",""弱他""]","","","","","","","","5","","","","","","","","","SRET","SRET_math_calculate","","key","5","16.67490178571461","758.3333534223067","422.22223340729164","","","","","9-4= ?","5","1","","","","","","",""
"2018","","8","psychophysics","138","423987","0.0-7.0-5.0-0.35","6","5","6","5","3","5","4","4","4","5","4","2","1","1","2","1","2","1","0","5","5","4","2","5","4","5","5","4","4","7","8","8","6","8","7","7","7","9","6","3","2","6","2","2","5","2","3","3","3","2","5","2","7","3","6","3","4","5","2","5","2","2","3","6","5","5","3","6","5","6","5","2","3","6","3","6","3","5","598888935887732736","赵熊","468","Male","[""好他"",""好我"",""坏我"",""坏他""]","[""强他"",""强我"",""弱我"",""弱他""]","","","","","","","","8","","","","","","","","","SRET","SRET_math_calculate","","key","8","16.673541666666278","758.3333534223067","422.22223340729164","","","","","8*1= ?","8","1","","","","","","",""
