"rt","stimulus","response","trial_type","trial_index","time_elapsed","internal_node_id","swb_1","swb_2","swb_3","swb_4","swb_5","LOT_1","LOT_2","LOT_3","LOT_4","LOT_5","LOT_6","IPC_1","IPC_2","IPC_3","IPC_4","IPC_5","IPC_6","IPC_7","IPC_8","MorIden_1","MorIden_2","MorIden_3","MorIden_4","MorIden_5","MorIden_6","MorIden_7","MorIden_8","MorIden_9","MorIden_10","moralSeImag_1","moralSeImag_2","moralSeImag_3","moralSeImag_4","moralSeImag_5","moralSeImag_6","moralSeImag_7","moralSeImag_8","moralSeImag_9","sde_1","sde_2","sde_3","sde_4","sde_5","sde_6","sde_7","sde_8","sde_9","sde_10","sde_11","sde_12","sde_13","sde_14","sde_15","sde_16","sde_17","sde_18","sde_19","sde_20","IM_1","IM_2","IM_3","IM_4","IM_5","IM_6","IM_7","IM_8","IM_9","IM_10","IM_11","IM_12","IM_13","IM_14","IM_15","IM_16","IM_17","IM_18","IM_19","IM_20","subj_idx","friend_name","ParticipantID","Sex","Word","Word2","value","success","timeout","failed_images","failed_audio","failed_video","user_agent","responses","item_order","radio_event_ids","radio_event_times","key_event_times","mouse_event_times","straightlining","zigzagging","honeypot","view_history","response_type","key_press","avg_frame_time","center_x","center_y","correct_response","correct","identity","Image","word","condition","task_id","screen_id","time_stamp","person","valence","domain","math","status","duration","question_order"
"2860","
   <p><div style='color:white; font-size: 25px'>您好，欢迎参加本次实验。</div></p>
   <p><div style='color:white; font-size: 25px'>为充分保障您的权利，请确保您已经知晓并同意《参与实验同意书》以及《数据公开知情同意书》。</div></p>
   <p><div style='color:white; font-size: 25px'>如果您未见过上述内容，请咨询实验员。</div></p>
   <p style='color:white; font-size: 25px'>如果您选择继续实验，则表示您已经清楚两份知情同意书的内容并同意。</p>
   <p> <div style = ""color: green""><按空格键至下页></div> </p>
   "," ","html-keyboard-response","0","2864","0.0-0.0","3","4","3","2","1","4","2","3","4","4","5","0","0","-2","1","-1","0","1","0","4","3","5","3","4","4","5","3","4","4","7","8","5","7","5","7","6","3","8","5","1","2","3","5","2","4","1","2","2","1","2","5","5","1","2","2","4","2","3","1","2","2","1","1","6","5","6","3","7","7","5","7","5","2","4","6","5","2","5","644508738497019904","韦","001","Female","[""好我"",""坏我"",""坏她"",""好她""]","[""强我"",""弱我"",""弱她"",""强她""]","","","","","","","","","","","","","","","","","","","","","","","","","","","","","","","","","","","","","",""
"","","","call-function","1","2864","0.0-1.0-0.0","3","4","3","2","1","4","2","3","4","4","5","0","0","-2","1","-1","0","1","0","4","3","5","3","4","4","5","3","4","4","7","8","5","7","5","7","6","3","8","5","1","2","3","5","2","4","1","2","2","1","2","5","5","1","2","2","4","2","3","1","2","2","1","1","6","5","6","3","7","7","5","7","5","2","4","6","5","2","5","644508738497019904","韦","001","Female","[""好我"",""坏我"",""坏她"",""好她""]","[""强我"",""弱我"",""弱她"",""强她""]","","","","","","","","","","","","","","","","","","","","","","","","","","","","","","","","","","","","","",""
"15635","","[{""name"":""Sex"",""value"":""1""},{""name"":""friend_name"",""value"":""韦""},{""name"":""ParticipantID"",""value"":""001""}]","survey-html-form","2","18501","0.0-1.0-1.0","3","4","3","2","1","4","2","3","4","4","5","0","0","-2","1","-1","0","1","0","4","3","5","3","4","4","5","3","4","4","7","8","5","7","5","7","6","3","8","5","1","2","3","5","2","4","1","2","2","1","2","5","5","1","2","2","4","2","3","1","2","2","1","1","6","5","6","3","7","7","5","7","5","2","4","6","5","2","5","644508738497019904","韦","001","Female","[""好我"",""坏我"",""坏她"",""好她""]","[""强我"",""弱我"",""弱她"",""强她""]","","","","","","","","","","","","","","","","","","","","","","","","","","","","","","","","","","","","","",""
"","","","preload","3","19779","0.0-2.0","3","4","3","2","1","4","2","3","4","4","5","0","0","-2","1","-1","0","1","0","4","3","5","3","4","4","5","3","4","4","7","8","5","7","5","7","6","3","8","5","1","2","3","5","2","4","1","2","2","1","2","5","5","1","2","2","4","2","3","1","2","2","1","1","6","5","6","3","7","7","5","7","5","2","4","6","5","2","5","644508738497019904","韦","001","Female","[""好我"",""坏我"",""坏她"",""好她""]","[""强我"",""弱我"",""弱她"",""强她""]","","true","false","[]","[]","[]","","","","","","","","","","","","","","","","","","","","","","","","","","","","","","","",""
"","","","fullscreen","4","31589","0.0-3.0","3","4","3","2","1","4","2","3","4","4","5","0","0","-2","1","-1","0","1","0","4","3","5","3","4","4","5","3","4","4","7","8","5","7","5","7","6","3","8","5","1","2","3","5","2","4","1","2","2","1","2","5","5","1","2","2","4","2","3","1","2","2","1","1","6","5","6","3","7","7","5","7","5","2","4","6","5","2","5","644508738497019904","韦","001","Female","[""好我"",""坏我"",""坏她"",""好她""]","[""强我"",""弱我"",""弱她"",""强她""]","","true","","","","","{}","","","","","","","","","","","","","","","","","","","","","","","","","","","","","","",""
"11514.5","","{""Q01"":""3"",""Q02"":""4"",""Q03"":""3"",""Q04"":""2"",""Q05"":""1""}","survey-template","5","43109","0.0-4.0","3","4","3","2","1","4","2","3","4","4","5","0","0","-2","1","-1","0","1","0","4","3","5","3","4","4","5","3","4","4","7","8","5","7","5","7","6","3","8","5","1","2","3","5","2","4","1","2","2","1","2","5","5","1","2","2","4","2","3","1","2","2","1","1","6","5","6","3","7","7","5","7","5","2","4","6","5","2","5","644508738497019904","韦","001","Female","[""好我"",""坏我"",""坏她"",""好她""]","[""强我"",""弱我"",""弱她"",""强她""]","","","","","","","","{""Q01"":""3"",""Q02"":""4"",""Q03"":""3"",""Q04"":""2"",""Q05"":""1""}","[0,1,2,3,4]","[""Q01"",""Q02"",""Q03"",""Q04"",""Q05""]","[3866,6905.300000011921,8216.899999976158,9553.399999976158,10440.800000011921]","[]","[3866,6905.300000011921,8216.899999976158,9553.399999976158,10440.800000011921,11513.300000011921]","0.4","1","0","","","","","","","","","","","","","","","","","","","","","",""
"15560.300000011921","","{""Q01"":""4"",""Q02"":""2"",""Q03"":""3"",""Q04"":""4"",""Q05"":""4"",""Q06"":""5""}","survey-template","6","58676","0.0-5.0","3","4","3","2","1","4","2","3","4","4","5","0","0","-2","1","-1","0","1","0","4","3","5","3","4","4","5","3","4","4","7","8","5","7","5","7","6","3","8","5","1","2","3","5","2","4","1","2","2","1","2","5","5","1","2","2","4","2","3","1","2","2","1","1","6","5","6","3","7","7","5","7","5","2","4","6","5","2","5","644508738497019904","韦","001","Female","[""好我"",""坏我"",""坏她"",""好她""]","[""强我"",""弱我"",""弱她"",""强她""]","","","","","","","","{""Q01"":""4"",""Q02"":""2"",""Q03"":""3"",""Q04"":""4"",""Q05"":""4"",""Q06"":""5""}","[0,1,2,3,4,5]","[""Q01"",""Q02"",""Q03"",""Q04"",""Q05"",""Q06""]","[2095.800000011921,3582.800000011921,4647.100000023842,7015.100000023842,8815.5,12095]","[]","[2095.800000011921,3582.800000011921,4647.100000023842,7015.100000023842,8815.5,12095,15559.600000023842]","0.3333333333333333","0.4","0","","","","","","","","","","","","","","","","","","","","","",""
"22475.5","","{""Q01"":""0"",""Q02"":""0"",""Q03"":""-2"",""Q04"":""1"",""Q05"":""-1"",""Q06"":""0"",""Q07"":""1"",""Q08"":""0""}","survey-template","7","81156","0.0-6.0","3","4","3","2","1","4","2","3","4","4","5","0","0","-2","1","-1","0","1","0","4","3","5","3","4","4","5","3","4","4","7","8","5","7","5","7","6","3","8","5","1","2","3","5","2","4","1","2","2","1","2","5","5","1","2","2","4","2","3","1","2","2","1","1","6","5","6","3","7","7","5","7","5","2","4","6","5","2","5","644508738497019904","韦","001","Female","[""好我"",""坏我"",""坏她"",""好她""]","[""强我"",""弱我"",""弱她"",""强她""]","","","","","","","","{""Q01"":""0"",""Q02"":""0"",""Q03"":""-2"",""Q04"":""1"",""Q05"":""-1"",""Q06"":""0"",""Q07"":""1"",""Q08"":""0""}","[0,1,2,3,4,5,6,7]","[""Q01"",""Q02"",""Q03"",""Q03"",""Q04"",""Q05"",""Q06"",""Q07"",""Q08"",""Q07""]","[2066.699999988079,5019,7387.199999988079,9378.800000011921,11706.899999976158,13490.800000011921,15010.699999988079,17122.399999976158,18858.599999964237,19562.099999964237]","[]","[2066.699999988079,5019,7387.199999988079,9378.800000011921,11706.899999976158,13490.800000011921,15010.699999988079,17122.399999976158,18858.599999964237,19562.099999964237,22474.19999998808]","0.5","0.42857142857142855","0","","","","","","","","","","","","","","","","","","","","","",""
"38771","","","instructions","8","119931","0.0-7.0","3","4","3","2","1","4","2","3","4","4","5","0","0","-2","1","-1","0","1","0","4","3","5","3","4","4","5","3","4","4","7","8","5","7","5","7","6","3","8","5","1","2","3","5","2","4","1","2","2","1","2","5","5","1","2","2","4","2","3","1","2","2","1","1","6","5","6","3","7","7","5","7","5","2","4","6","5","2","5","644508738497019904","韦","001","Female","[""好我"",""坏我"",""坏她"",""好她""]","[""强我"",""弱我"",""弱她"",""强她""]","","","","","","","","","","","","","","","","","[{""page_index"":0,""viewing_time"":38771}]","","","","","","","","","","","","","","","","","","","","",""
"100089","","","instructions","9","220022","0.0-8.0-1.0-0.0","3","4","3","2","1","4","2","3","4","4","5","0","0","-2","1","-1","0","1","0","4","3","5","3","4","4","5","3","4","4","7","8","5","7","5","7","6","3","8","5","1","2","3","5","2","4","1","2","2","1","2","5","5","1","2","2","4","2","3","1","2","2","1","1","6","5","6","3","7","7","5","7","5","2","4","6","5","2","5","644508738497019904","韦","001","Female","[""好我"",""坏我"",""坏她"",""好她""]","[""强我"",""弱我"",""弱她"",""强她""]","","","","","","","","","","","","","","","","","[{""page_index"":0,""viewing_time"":9254},{""page_index"":1,""viewing_time"":76572},{""page_index"":2,""viewing_time"":12786},{""page_index"":3,""viewing_time"":1477}]","","","","","","","","","","","","","","","","","","","","",""
"778","","f","psychophysics","10","221817","0.0-8.0-1.0-1.0-0.0-0.0","3","4","3","2","1","4","2","3","4","4","5","0","0","-2","1","-1","0","1","0","4","3","5","3","4","4","5","3","4","4","7","8","5","7","5","7","6","3","8","5","1","2","3","5","2","4","1","2","2","1","2","5","5","1","2","2","4","2","3","1","2","2","1","1","6","5","6","3","7","7","5","7","5","2","4","6","5","2","5","644508738497019904","韦","001","Female","[""好我"",""坏我"",""坏她"",""好她""]","[""强我"",""弱我"",""弱她"",""强她""]","","","","","","","","nonmatch","","","","","","","","","","key","f","16.65791588785044","697.8181818181819","388.3636363636364","f","true","nonmatch","img/pentagon.png","弱我","强她","prac_ALT2_ability","practice_ability","","","","","","","",""
"null","<span style='color:GreenYellow; font-size: 70px;'>正确! </span>","null","html-keyboard-response","11","222332","0.0-8.0-1.0-1.0-0.0-1.0","3","4","3","2","1","4","2","3","4","4","5","0","0","-2","1","-1","0","1","0","4","3","5","3","4","4","5","3","4","4","7","8","5","7","5","7","6","3","8","5","1","2","3","5","2","4","1","2","2","1","2","5","5","1","2","2","4","2","3","1","2","2","1","1","6","5","6","3","7","7","5","7","5","2","4","6","5","2","5","644508738497019904","韦","001","Female","[""好我"",""坏我"",""坏她"",""好她""]","[""强我"",""弱我"",""弱她"",""强她""]","","","","","","","","","","","","","","","","","","","","","","","","","","","","","","feedback_test","","","","","","","",""
"954","","f","psychophysics","12","224288","0.0-8.0-1.0-1.0-0.0-0.1","3","4","3","2","1","4","2","3","4","4","5","0","0","-2","1","-1","0","1","0","4","3","5","3","4","4","5","3","4","4","7","8","5","7","5","7","6","3","8","5","1","2","3","5","2","4","1","2","2","1","2","5","5","1","2","2","4","2","3","1","2","2","1","1","6","5","6","3","7","7","5","7","5","2","4","6","5","2","5","644508738497019904","韦","001","Female","[""好我"",""坏我"",""坏她"",""好她""]","[""强我"",""弱我"",""弱她"",""强她""]","","","","","","","","nonmatch","","","","","","","","","","key","f","16.658543103448302","697.8181818181819","388.3636363636364","j","false","match","img/circle.png","弱她","弱她","prac_ALT2_ability","practice_ability","","","","","","","",""
"null","<span style='color:red; font-size: 70px;'>错误! </span>","null","html-keyboard-response","13","224800","0.0-8.0-1.0-1.0-0.0-1.1","3","4","3","2","1","4","2","3","4","4","5","0","0","-2","1","-1","0","1","0","4","3","5","3","4","4","5","3","4","4","7","8","5","7","5","7","6","3","8","5","1","2","3","5","2","4","1","2","2","1","2","5","5","1","2","2","4","2","3","1","2","2","1","1","6","5","6","3","7","7","5","7","5","2","4","6","5","2","5","644508738497019904","韦","001","Female","[""好我"",""坏我"",""坏她"",""好她""]","[""强我"",""弱我"",""弱她"",""强她""]","","","","","","","","","","","","","","","","","","","","","","","","","","","","","","feedback_test","","","","","","","",""
"762","","j","psychophysics","14","226567","0.0-8.0-1.0-1.0-0.0-0.2","3","4","3","2","1","4","2","3","4","4","5","0","0","-2","1","-1","0","1","0","4","3","5","3","4","4","5","3","4","4","7","8","5","7","5","7","6","3","8","5","1","2","3","5","2","4","1","2","2","1","2","5","5","1","2","2","4","2","3","1","2","2","1","1","6","5","6","3","7","7","5","7","5","2","4","6","5","2","5","644508738497019904","韦","001","Female","[""好我"",""坏我"",""坏她"",""好她""]","[""强我"",""弱我"",""弱她"",""强她""]","","","","","","","","match","","","","","","","","","","key","j","16.659733333333307","697.8181818181819","388.3636363636364","j","true","match","img/pentagon.png","强她","强她","prac_ALT2_ability","practice_ability","","","","","","","",""
"null","<span style='color:GreenYellow; font-size: 70px;'>正确! </span>","null","html-keyboard-response","15","227070","0.0-8.0-1.0-1.0-0.0-1.2","3","4","3","2","1","4","2","3","4","4","5","0","0","-2","1","-1","0","1","0","4","3","5","3","4","4","5","3","4","4","7","8","5","7","5","7","6","3","8","5","1","2","3","5","2","4","1","2","2","1","2","5","5","1","2","2","4","2","3","1","2","2","1","1","6","5","6","3","7","7","5","7","5","2","4","6","5","2","5","644508738497019904","韦","001","Female","[""好我"",""坏我"",""坏她"",""好她""]","[""强我"",""弱我"",""弱她"",""强她""]","","","","","","","","","","","","","","","","","","","","","","","","","","","","","","feedback_test","","","","","","","",""
"null","","null","psychophysics","16","229279","0.0-8.0-1.0-1.0-0.0-0.3","3","4","3","2","1","4","2","3","4","4","5","0","0","-2","1","-1","0","1","0","4","3","5","3","4","4","5","3","4","4","7","8","5","7","5","7","6","3","8","5","1","2","3","5","2","4","1","2","2","1","2","5","5","1","2","2","4","2","3","1","2","2","1","1","6","5","6","3","7","7","5","7","5","2","4","6","5","2","5","644508738497019904","韦","001","Female","[""好我"",""坏我"",""坏她"",""好她""]","[""强我"",""弱我"",""弱她"",""强她""]","","","","","","","","null","","","","","","","","","","key","null","16.656778625954203","697.8181818181819","388.3636363636364","f","false","nonmatch","img/square.png","弱她","强我","prac_ALT2_ability","practice_ability","","","","","","","",""
"null","<span class='add_' style='color:yellow; font-size: 70px;'> 太慢! </span>","null","html-keyboard-response","17","229781","0.0-8.0-1.0-1.0-0.0-1.3","3","4","3","2","1","4","2","3","4","4","5","0","0","-2","1","-1","0","1","0","4","3","5","3","4","4","5","3","4","4","7","8","5","7","5","7","6","3","8","5","1","2","3","5","2","4","1","2","2","1","2","5","5","1","2","2","4","2","3","1","2","2","1","1","6","5","6","3","7","7","5","7","5","2","4","6","5","2","5","644508738497019904","韦","001","Female","[""好我"",""坏我"",""坏她"",""好她""]","[""强我"",""弱我"",""弱她"",""强她""]","","","","","","","","","","","","","","","","","","","","","","","","","","","","","","feedback_test","","","","","","","",""
"789","","f","psychophysics","18","231574","0.0-8.0-1.0-1.0-0.0-0.4","3","4","3","2","1","4","2","3","4","4","5","0","0","-2","1","-1","0","1","0","4","3","5","3","4","4","5","3","4","4","7","8","5","7","5","7","6","3","8","5","1","2","3","5","2","4","1","2","2","1","2","5","5","1","2","2","4","2","3","1","2","2","1","1","6","5","6","3","7","7","5","7","5","2","4","6","5","2","5","644508738497019904","韦","001","Female","[""好我"",""坏我"",""坏她"",""好她""]","[""强我"",""弱我"",""弱她"",""强她""]","","","","","","","","nonmatch","","","","","","","","","","key","f","16.656542056074766","697.8181818181819","388.3636363636364","j","false","match","img/square.png","强我","强我","prac_ALT2_ability","practice_ability","","","","","","","",""
"null","<span style='color:red; font-size: 70px;'>错误! </span>","null","html-keyboard-response","19","232083","0.0-8.0-1.0-1.0-0.0-1.4","3","4","3","2","1","4","2","3","4","4","5","0","0","-2","1","-1","0","1","0","4","3","5","3","4","4","5","3","4","4","7","8","5","7","5","7","6","3","8","5","1","2","3","5","2","4","1","2","2","1","2","5","5","1","2","2","4","2","3","1","2","2","1","1","6","5","6","3","7","7","5","7","5","2","4","6","5","2","5","644508738497019904","韦","001","Female","[""好我"",""坏我"",""坏她"",""好她""]","[""强我"",""弱我"",""弱她"",""强她""]","","","","","","","","","","","","","","","","","","","","","","","","","","","","","","feedback_test","","","","","","","",""
"null","","null","psychophysics","20","234296","0.0-8.0-1.0-1.0-0.0-0.5","3","4","3","2","1","4","2","3","4","4","5","0","0","-2","1","-1","0","1","0","4","3","5","3","4","4","5","3","4","4","7","8","5","7","5","7","6","3","8","5","1","2","3","5","2","4","1","2","2","1","2","5","5","1","2","2","4","2","3","1","2","2","1","1","6","5","6","3","7","7","5","7","5","2","4","6","5","2","5","644508738497019904","韦","001","Female","[""好我"",""坏我"",""坏她"",""好她""]","[""强我"",""弱我"",""弱她"",""强她""]","","","","","","","","null","","","","","","","","","","key","null","16.657333333333415","697.8181818181819","388.3636363636364","j","false","match","img/diamond.png","弱我","弱我","prac_ALT2_ability","practice_ability","","","","","","","",""
"null","<span class='add_' style='color:yellow; font-size: 70px;'> 太慢! </span>","null","html-keyboard-response","21","234811","0.0-8.0-1.0-1.0-0.0-1.5","3","4","3","2","1","4","2","3","4","4","5","0","0","-2","1","-1","0","1","0","4","3","5","3","4","4","5","3","4","4","7","8","5","7","5","7","6","3","8","5","1","2","3","5","2","4","1","2","2","1","2","5","5","1","2","2","4","2","3","1","2","2","1","1","6","5","6","3","7","7","5","7","5","2","4","6","5","2","5","644508738497019904","韦","001","Female","[""好我"",""坏我"",""坏她"",""好她""]","[""强我"",""弱我"",""弱她"",""强她""]","","","","","","","","","","","","","","","","","","","","","","","","","","","","","","feedback_test","","","","","","","",""
"837","","j","psychophysics","22","236652","0.0-8.0-1.0-1.0-0.0-0.6","3","4","3","2","1","4","2","3","4","4","5","0","0","-2","1","-1","0","1","0","4","3","5","3","4","4","5","3","4","4","7","8","5","7","5","7","6","3","8","5","1","2","3","5","2","4","1","2","2","1","2","5","5","1","2","2","4","2","3","1","2","2","1","1","6","5","6","3","7","7","5","7","5","2","4","6","5","2","5","644508738497019904","韦","001","Female","[""好我"",""坏我"",""坏她"",""好她""]","[""强我"",""弱我"",""弱她"",""强她""]","","","","","","","","match","","","","","","","","","","key","j","16.65803636363628","697.8181818181819","388.3636363636364","j","true","match","img/square.png","强我","强我","prac_ALT2_ability","practice_ability","","","","","","","",""
"null","<span style='color:GreenYellow; font-size: 70px;'>正确! </span>","null","html-keyboard-response","23","237153","0.0-8.0-1.0-1.0-0.0-1.6","3","4","3","2","1","4","2","3","4","4","5","0","0","-2","1","-1","0","1","0","4","3","5","3","4","4","5","3","4","4","7","8","5","7","5","7","6","3","8","5","1","2","3","5","2","4","1","2","2","1","2","5","5","1","2","2","4","2","3","1","2","2","1","1","6","5","6","3","7","7","5","7","5","2","4","6","5","2","5","644508738497019904","韦","001","Female","[""好我"",""坏我"",""坏她"",""好她""]","[""强我"",""弱我"",""弱她"",""强她""]","","","","","","","","","","","","","","","","","","","","","","","","","","","","","","feedback_test","","","","","","","",""
"710","","f","psychophysics","24","238867","0.0-8.0-1.0-1.0-0.0-0.7","3","4","3","2","1","4","2","3","4","4","5","0","0","-2","1","-1","0","1","0","4","3","5","3","4","4","5","3","4","4","7","8","5","7","5","7","6","3","8","5","1","2","3","5","2","4","1","2","2","1","2","5","5","1","2","2","4","2","3","1","2","2","1","1","6","5","6","3","7","7","5","7","5","2","4","6","5","2","5","644508738497019904","韦","001","Female","[""好我"",""坏我"",""坏她"",""好她""]","[""强我"",""弱我"",""弱她"",""强她""]","","","","","","","","nonmatch","","","","","","","","","","key","f","16.655431372549227","697.8181818181819","388.3636363636364","f","true","nonmatch","img/diamond.png","强我","弱我","prac_ALT2_ability","practice_ability","","","","","","","",""
"null","<span style='color:GreenYellow; font-size: 70px;'>正确! </span>","null","html-keyboard-response","25","239373","0.0-8.0-1.0-1.0-0.0-1.7","3","4","3","2","1","4","2","3","4","4","5","0","0","-2","1","-1","0","1","0","4","3","5","3","4","4","5","3","4","4","7","8","5","7","5","7","6","3","8","5","1","2","3","5","2","4","1","2","2","1","2","5","5","1","2","2","4","2","3","1","2","2","1","1","6","5","6","3","7","7","5","7","5","2","4","6","5","2","5","644508738497019904","韦","001","Female","[""好我"",""坏我"",""坏她"",""好她""]","[""强我"",""弱我"",""弱她"",""强她""]","","","","","","","","","","","","","","","","","","","","","","","","","","","","","","feedback_test","","","","","","","",""
"714","","f","psychophysics","26","241103","0.0-8.0-1.0-1.0-0.0-0.8","3","4","3","2","1","4","2","3","4","4","5","0","0","-2","1","-1","0","1","0","4","3","5","3","4","4","5","3","4","4","7","8","5","7","5","7","6","3","8","5","1","2","3","5","2","4","1","2","2","1","2","5","5","1","2","2","4","2","3","1","2","2","1","1","6","5","6","3","7","7","5","7","5","2","4","6","5","2","5","644508738497019904","韦","001","Female","[""好我"",""坏我"",""坏她"",""好她""]","[""强我"",""弱我"",""弱她"",""强她""]","","","","","","","","nonmatch","","","","","","","","","","key","f","16.656417475728198","697.8181818181819","388.3636363636364","j","false","match","img/diamond.png","弱我","弱我","prac_ALT2_ability","practice_ability","","","","","","","",""
"null","<span style='color:red; font-size: 70px;'>错误! </span>","null","html-keyboard-response","27","241610","0.0-8.0-1.0-1.0-0.0-1.8","3","4","3","2","1","4","2","3","4","4","5","0","0","-2","1","-1","0","1","0","4","3","5","3","4","4","5","3","4","4","7","8","5","7","5","7","6","3","8","5","1","2","3","5","2","4","1","2","2","1","2","5","5","1","2","2","4","2","3","1","2","2","1","1","6","5","6","3","7","7","5","7","5","2","4","6","5","2","5","644508738497019904","韦","001","Female","[""好我"",""坏我"",""坏她"",""好她""]","[""强我"",""弱我"",""弱她"",""强她""]","","","","","","","","","","","","","","","","","","","","","","","","","","","","","","feedback_test","","","","","","","",""
"844","","j","psychophysics","28","243458","0.0-8.0-1.0-1.0-0.0-0.9","3","4","3","2","1","4","2","3","4","4","5","0","0","-2","1","-1","0","1","0","4","3","5","3","4","4","5","3","4","4","7","8","5","7","5","7","6","3","8","5","1","2","3","5","2","4","1","2","2","1","2","5","5","1","2","2","4","2","3","1","2","2","1","1","6","5","6","3","7","7","5","7","5","2","4","6","5","2","5","644508738497019904","韦","001","Female","[""好我"",""坏我"",""坏她"",""好她""]","[""强我"",""弱我"",""弱她"",""强她""]","","","","","","","","match","","","","","","","","","","key","j","16.65534545454535","697.8181818181819","388.3636363636364","j","true","match","img/pentagon.png","强她","强她","prac_ALT2_ability","practice_ability","","","","","","","",""
"null","<span style='color:GreenYellow; font-size: 70px;'>正确! </span>","null","html-keyboard-response","29","243960","0.0-8.0-1.0-1.0-0.0-1.9","3","4","3","2","1","4","2","3","4","4","5","0","0","-2","1","-1","0","1","0","4","3","5","3","4","4","5","3","4","4","7","8","5","7","5","7","6","3","8","5","1","2","3","5","2","4","1","2","2","1","2","5","5","1","2","2","4","2","3","1","2","2","1","1","6","5","6","3","7","7","5","7","5","2","4","6","5","2","5","644508738497019904","韦","001","Female","[""好我"",""坏我"",""坏她"",""好她""]","[""强我"",""弱我"",""弱她"",""强她""]","","","","","","","","","","","","","","","","","","","","","","","","","","","","","","feedback_test","","","","","","","",""
"815","","f","psychophysics","30","245777","0.0-8.0-1.0-1.0-0.0-0.10","3","4","3","2","1","4","2","3","4","4","5","0","0","-2","1","-1","0","1","0","4","3","5","3","4","4","5","3","4","4","7","8","5","7","5","7","6","3","8","5","1","2","3","5","2","4","1","2","2","1","2","5","5","1","2","2","4","2","3","1","2","2","1","1","6","5","6","3","7","7","5","7","5","2","4","6","5","2","5","644508738497019904","韦","001","Female","[""好我"",""坏我"",""坏她"",""好她""]","[""强我"",""弱我"",""弱她"",""强她""]","","","","","","","","nonmatch","","","","","","","","","","key","f","16.65997222222224","697.8181818181819","388.3636363636364","f","true","nonmatch","img/square.png","强她","强我","prac_ALT2_ability","practice_ability","","","","","","","",""
"null","<span style='color:GreenYellow; font-size: 70px;'>正确! </span>","null","html-keyboard-response","31","246313","0.0-8.0-1.0-1.0-0.0-1.10","3","4","3","2","1","4","2","3","4","4","5","0","0","-2","1","-1","0","1","0","4","3","5","3","4","4","5","3","4","4","7","8","5","7","5","7","6","3","8","5","1","2","3","5","2","4","1","2","2","1","2","5","5","1","2","2","4","2","3","1","2","2","1","1","6","5","6","3","7","7","5","7","5","2","4","6","5","2","5","644508738497019904","韦","001","Female","[""好我"",""坏我"",""坏她"",""好她""]","[""强我"",""弱我"",""弱她"",""强她""]","","","","","","","","","","","","","","","","","","","","","","","","","","","","","","feedback_test","","","","","","","",""
"1092","","f","psychophysics","32","248420","0.0-8.0-1.0-1.0-0.0-0.11","3","4","3","2","1","4","2","3","4","4","5","0","0","-2","1","-1","0","1","0","4","3","5","3","4","4","5","3","4","4","7","8","5","7","5","7","6","3","8","5","1","2","3","5","2","4","1","2","2","1","2","5","5","1","2","2","4","2","3","1","2","2","1","1","6","5","6","3","7","7","5","7","5","2","4","6","5","2","5","644508738497019904","韦","001","Female","[""好我"",""坏我"",""坏她"",""好她""]","[""强我"",""弱我"",""弱她"",""强她""]","","","","","","","","nonmatch","","","","","","","","","","key","f","16.658080000000073","697.8181818181819","388.3636363636364","f","true","nonmatch","img/diamond.png","强她","弱我","prac_ALT2_ability","practice_ability","","","","","","","",""
"null","<span style='color:GreenYellow; font-size: 70px;'>正确! </span>","null","html-keyboard-response","33","248929","0.0-8.0-1.0-1.0-0.0-1.11","3","4","3","2","1","4","2","3","4","4","5","0","0","-2","1","-1","0","1","0","4","3","5","3","4","4","5","3","4","4","7","8","5","7","5","7","6","3","8","5","1","2","3","5","2","4","1","2","2","1","2","5","5","1","2","2","4","2","3","1","2","2","1","1","6","5","6","3","7","7","5","7","5","2","4","6","5","2","5","644508738497019904","韦","001","Female","[""好我"",""坏我"",""坏她"",""好她""]","[""强我"",""弱我"",""弱她"",""强她""]","","","","","","","","","","","","","","","","","","","","","","","","","","","","","","feedback_test","","","","","","","",""
"756","","j","psychophysics","34","250699","0.0-8.0-1.0-1.0-0.0-0.12","3","4","3","2","1","4","2","3","4","4","5","0","0","-2","1","-1","0","1","0","4","3","5","3","4","4","5","3","4","4","7","8","5","7","5","7","6","3","8","5","1","2","3","5","2","4","1","2","2","1","2","5","5","1","2","2","4","2","3","1","2","2","1","1","6","5","6","3","7","7","5","7","5","2","4","6","5","2","5","644508738497019904","韦","001","Female","[""好我"",""坏我"",""坏她"",""好她""]","[""强我"",""弱我"",""弱她"",""强她""]","","","","","","","","match","","","","","","","","","","key","j","16.657838095238134","697.8181818181819","388.3636363636364","j","true","match","img/circle.png","弱她","弱她","prac_ALT2_ability","practice_ability","","","","","","","",""
"null","<span style='color:GreenYellow; font-size: 70px;'>正确! </span>","null","html-keyboard-response","35","251215","0.0-8.0-1.0-1.0-0.0-1.12","3","4","3","2","1","4","2","3","4","4","5","0","0","-2","1","-1","0","1","0","4","3","5","3","4","4","5","3","4","4","7","8","5","7","5","7","6","3","8","5","1","2","3","5","2","4","1","2","2","1","2","5","5","1","2","2","4","2","3","1","2","2","1","1","6","5","6","3","7","7","5","7","5","2","4","6","5","2","5","644508738497019904","韦","001","Female","[""好我"",""坏我"",""坏她"",""好她""]","[""强我"",""弱我"",""弱她"",""强她""]","","","","","","","","","","","","","","","","","","","","","","","","","","","","","","feedback_test","","","","","","","",""
"599","","f","psychophysics","36","252824","0.0-8.0-1.0-1.0-0.0-0.13","3","4","3","2","1","4","2","3","4","4","5","0","0","-2","1","-1","0","1","0","4","3","5","3","4","4","5","3","4","4","7","8","5","7","5","7","6","3","8","5","1","2","3","5","2","4","1","2","2","1","2","5","5","1","2","2","4","2","3","1","2","2","1","1","6","5","6","3","7","7","5","7","5","2","4","6","5","2","5","644508738497019904","韦","001","Female","[""好我"",""坏我"",""坏她"",""好她""]","[""强我"",""弱我"",""弱她"",""强她""]","","","","","","","","nonmatch","","","","","","","","","","key","f","16.65921052631579","697.8181818181819","388.3636363636364","f","true","nonmatch","img/circle.png","强她","弱她","prac_ALT2_ability","practice_ability","","","","","","","",""
"null","<span style='color:GreenYellow; font-size: 70px;'>正确! </span>","null","html-keyboard-response","37","253336","0.0-8.0-1.0-1.0-0.0-1.13","3","4","3","2","1","4","2","3","4","4","5","0","0","-2","1","-1","0","1","0","4","3","5","3","4","4","5","3","4","4","7","8","5","7","5","7","6","3","8","5","1","2","3","5","2","4","1","2","2","1","2","5","5","1","2","2","4","2","3","1","2","2","1","1","6","5","6","3","7","7","5","7","5","2","4","6","5","2","5","644508738497019904","韦","001","Female","[""好我"",""坏我"",""坏她"",""好她""]","[""强我"",""弱我"",""弱她"",""强她""]","","","","","","","","","","","","","","","","","","","","","","","","","","","","","","feedback_test","","","","","","","",""
"759","","j","psychophysics","38","255100","0.0-8.0-1.0-1.0-0.0-0.14","3","4","3","2","1","4","2","3","4","4","5","0","0","-2","1","-1","0","1","0","4","3","5","3","4","4","5","3","4","4","7","8","5","7","5","7","6","3","8","5","1","2","3","5","2","4","1","2","2","1","2","5","5","1","2","2","4","2","3","1","2","2","1","1","6","5","6","3","7","7","5","7","5","2","4","6","5","2","5","644508738497019904","韦","001","Female","[""好我"",""坏我"",""坏她"",""好她""]","[""强我"",""弱我"",""弱她"",""强她""]","","","","","","","","match","","","","","","","","","","key","j","16.657038095238107","697.8181818181819","388.3636363636364","f","false","nonmatch","img/pentagon.png","强我","强她","prac_ALT2_ability","practice_ability","","","","","","","",""
"null","<span style='color:red; font-size: 70px;'>错误! </span>","null","html-keyboard-response","39","255606","0.0-8.0-1.0-1.0-0.0-1.14","3","4","3","2","1","4","2","3","4","4","5","0","0","-2","1","-1","0","1","0","4","3","5","3","4","4","5","3","4","4","7","8","5","7","5","7","6","3","8","5","1","2","3","5","2","4","1","2","2","1","2","5","5","1","2","2","4","2","3","1","2","2","1","1","6","5","6","3","7","7","5","7","5","2","4","6","5","2","5","644508738497019904","韦","001","Female","[""好我"",""坏我"",""坏她"",""好她""]","[""强我"",""弱我"",""弱她"",""强她""]","","","","","","","","","","","","","","","","","","","","","","","","","","","","","","feedback_test","","","","","","","",""
"746","","j","psychophysics","40","257365","0.0-8.0-1.0-1.0-0.0-0.15","3","4","3","2","1","4","2","3","4","4","5","0","0","-2","1","-1","0","1","0","4","3","5","3","4","4","5","3","4","4","7","8","5","7","5","7","6","3","8","5","1","2","3","5","2","4","1","2","2","1","2","5","5","1","2","2","4","2","3","1","2","2","1","1","6","5","6","3","7","7","5","7","5","2","4","6","5","2","5","644508738497019904","韦","001","Female","[""好我"",""坏我"",""坏她"",""好她""]","[""强我"",""弱我"",""弱她"",""强她""]","","","","","","","","match","","","","","","","","","","key","j","16.660490384615585","697.8181818181819","388.3636363636364","f","false","nonmatch","img/square.png","弱我","强我","prac_ALT2_ability","practice_ability","","","","","","","",""
"null","<span style='color:red; font-size: 70px;'>错误! </span>","null","html-keyboard-response","41","257874","0.0-8.0-1.0-1.0-0.0-1.15","3","4","3","2","1","4","2","3","4","4","5","0","0","-2","1","-1","0","1","0","4","3","5","3","4","4","5","3","4","4","7","8","5","7","5","7","6","3","8","5","1","2","3","5","2","4","1","2","2","1","2","5","5","1","2","2","4","2","3","1","2","2","1","1","6","5","6","3","7","7","5","7","5","2","4","6","5","2","5","644508738497019904","韦","001","Female","[""好我"",""坏我"",""坏她"",""好她""]","[""强我"",""弱我"",""弱她"",""强她""]","","","","","","","","","","","","","","","","","","","","","","","","","","","","","","feedback_test","","","","","","","",""
"729","","j","psychophysics","42","259615","0.0-8.0-1.0-1.0-0.0-0.16","3","4","3","2","1","4","2","3","4","4","5","0","0","-2","1","-1","0","1","0","4","3","5","3","4","4","5","3","4","4","7","8","5","7","5","7","6","3","8","5","1","2","3","5","2","4","1","2","2","1","2","5","5","1","2","2","4","2","3","1","2","2","1","1","6","5","6","3","7","7","5","7","5","2","4","6","5","2","5","644508738497019904","韦","001","Female","[""好我"",""坏我"",""坏她"",""好她""]","[""强我"",""弱我"",""弱她"",""强她""]","","","","","","","","match","","","","","","","","","","key","j","16.658718446601924","697.8181818181819","388.3636363636364","j","true","match","img/circle.png","弱她","弱她","prac_ALT2_ability","practice_ability","","","","","","","",""
"null","<span style='color:GreenYellow; font-size: 70px;'>正确! </span>","null","html-keyboard-response","43","260143","0.0-8.0-1.0-1.0-0.0-1.16","3","4","3","2","1","4","2","3","4","4","5","0","0","-2","1","-1","0","1","0","4","3","5","3","4","4","5","3","4","4","7","8","5","7","5","7","6","3","8","5","1","2","3","5","2","4","1","2","2","1","2","5","5","1","2","2","4","2","3","1","2","2","1","1","6","5","6","3","7","7","5","7","5","2","4","6","5","2","5","644508738497019904","韦","001","Female","[""好我"",""坏我"",""坏她"",""好她""]","[""强我"",""弱我"",""弱她"",""强她""]","","","","","","","","","","","","","","","","","","","","","","","","","","","","","","feedback_test","","","","","","","",""
"869","","f","psychophysics","44","262023","0.0-8.0-1.0-1.0-0.0-0.17","3","4","3","2","1","4","2","3","4","4","5","0","0","-2","1","-1","0","1","0","4","3","5","3","4","4","5","3","4","4","7","8","5","7","5","7","6","3","8","5","1","2","3","5","2","4","1","2","2","1","2","5","5","1","2","2","4","2","3","1","2","2","1","1","6","5","6","3","7","7","5","7","5","2","4","6","5","2","5","644508738497019904","韦","001","Female","[""好我"",""坏我"",""坏她"",""好她""]","[""强我"",""弱我"",""弱她"",""强她""]","","","","","","","","nonmatch","","","","","","","","","","key","f","16.659919642856817","697.8181818181819","388.3636363636364","f","true","nonmatch","img/circle.png","弱我","弱她","prac_ALT2_ability","practice_ability","","","","","","","",""
"null","<span style='color:GreenYellow; font-size: 70px;'>正确! </span>","null","html-keyboard-response","45","262537","0.0-8.0-1.0-1.0-0.0-1.17","3","4","3","2","1","4","2","3","4","4","5","0","0","-2","1","-1","0","1","0","4","3","5","3","4","4","5","3","4","4","7","8","5","7","5","7","6","3","8","5","1","2","3","5","2","4","1","2","2","1","2","5","5","1","2","2","4","2","3","1","2","2","1","1","6","5","6","3","7","7","5","7","5","2","4","6","5","2","5","644508738497019904","韦","001","Female","[""好我"",""坏我"",""坏她"",""好她""]","[""强我"",""弱我"",""弱她"",""强她""]","","","","","","","","","","","","","","","","","","","","","","","","","","","","","","feedback_test","","","","","","","",""
"946","","j","psychophysics","46","264495","0.0-8.0-1.0-1.0-0.0-0.18","3","4","3","2","1","4","2","3","4","4","5","0","0","-2","1","-1","0","1","0","4","3","5","3","4","4","5","3","4","4","7","8","5","7","5","7","6","3","8","5","1","2","3","5","2","4","1","2","2","1","2","5","5","1","2","2","4","2","3","1","2","2","1","1","6","5","6","3","7","7","5","7","5","2","4","6","5","2","5","644508738497019904","韦","001","Female","[""好我"",""坏我"",""坏她"",""好她""]","[""强我"",""弱我"",""弱她"",""强她""]","","","","","","","","match","","","","","","","","","","key","j","16.657931034482818","697.8181818181819","388.3636363636364","j","true","match","img/diamond.png","弱我","弱我","prac_ALT2_ability","practice_ability","","","","","","","",""
"null","<span style='color:GreenYellow; font-size: 70px;'>正确! </span>","null","html-keyboard-response","47","265008","0.0-8.0-1.0-1.0-0.0-1.18","3","4","3","2","1","4","2","3","4","4","5","0","0","-2","1","-1","0","1","0","4","3","5","3","4","4","5","3","4","4","7","8","5","7","5","7","6","3","8","5","1","2","3","5","2","4","1","2","2","1","2","5","5","1","2","2","4","2","3","1","2","2","1","1","6","5","6","3","7","7","5","7","5","2","4","6","5","2","5","644508738497019904","韦","001","Female","[""好我"",""坏我"",""坏她"",""好她""]","[""强我"",""弱我"",""弱她"",""强她""]","","","","","","","","","","","","","","","","","","","","","","","","","","","","","","feedback_test","","","","","","","",""
"958","","f","psychophysics","48","266976","0.0-8.0-1.0-1.0-0.0-0.19","3","4","3","2","1","4","2","3","4","4","5","0","0","-2","1","-1","0","1","0","4","3","5","3","4","4","5","3","4","4","7","8","5","7","5","7","6","3","8","5","1","2","3","5","2","4","1","2","2","1","2","5","5","1","2","2","4","2","3","1","2","2","1","1","6","5","6","3","7","7","5","7","5","2","4","6","5","2","5","644508738497019904","韦","001","Female","[""好我"",""坏我"",""坏她"",""好她""]","[""强我"",""弱我"",""弱她"",""强她""]","","","","","","","","nonmatch","","","","","","","","","","key","f","16.657769230769503","697.8181818181819","388.3636363636364","f","true","nonmatch","img/pentagon.png","弱她","强她","prac_ALT2_ability","practice_ability","","","","","","","",""
"null","<span style='color:GreenYellow; font-size: 70px;'>正确! </span>","null","html-keyboard-response","49","267483","0.0-8.0-1.0-1.0-0.0-1.19","3","4","3","2","1","4","2","3","4","4","5","0","0","-2","1","-1","0","1","0","4","3","5","3","4","4","5","3","4","4","7","8","5","7","5","7","6","3","8","5","1","2","3","5","2","4","1","2","2","1","2","5","5","1","2","2","4","2","3","1","2","2","1","1","6","5","6","3","7","7","5","7","5","2","4","6","5","2","5","644508738497019904","韦","001","Female","[""好我"",""坏我"",""坏她"",""好她""]","[""强我"",""弱我"",""弱她"",""强她""]","","","","","","","","","","","","","","","","","","","","","","","","","","","","","","feedback_test","","","","","","","",""
"630","","j","psychophysics","50","269114","0.0-8.0-1.0-1.0-0.0-0.20","3","4","3","2","1","4","2","3","4","4","5","0","0","-2","1","-1","0","1","0","4","3","5","3","4","4","5","3","4","4","7","8","5","7","5","7","6","3","8","5","1","2","3","5","2","4","1","2","2","1","2","5","5","1","2","2","4","2","3","1","2","2","1","1","6","5","6","3","7","7","5","7","5","2","4","6","5","2","5","644508738497019904","韦","001","Female","[""好我"",""坏我"",""坏她"",""好她""]","[""强我"",""弱我"",""弱她"",""强她""]","","","","","","","","match","","","","","","","","","","key","j","16.649906250000033","697.8181818181819","388.3636363636364","j","true","match","img/square.png","强我","强我","prac_ALT2_ability","practice_ability","","","","","","","",""
"null","<span style='color:GreenYellow; font-size: 70px;'>正确! </span>","null","html-keyboard-response","51","269629","0.0-8.0-1.0-1.0-0.0-1.20","3","4","3","2","1","4","2","3","4","4","5","0","0","-2","1","-1","0","1","0","4","3","5","3","4","4","5","3","4","4","7","8","5","7","5","7","6","3","8","5","1","2","3","5","2","4","1","2","2","1","2","5","5","1","2","2","4","2","3","1","2","2","1","1","6","5","6","3","7","7","5","7","5","2","4","6","5","2","5","644508738497019904","韦","001","Female","[""好我"",""坏我"",""坏她"",""好她""]","[""强我"",""弱我"",""弱她"",""强她""]","","","","","","","","","","","","","","","","","","","","","","","","","","","","","","feedback_test","","","","","","","",""
"527","","j","psychophysics","52","271160","0.0-8.0-1.0-1.0-0.0-0.21","3","4","3","2","1","4","2","3","4","4","5","0","0","-2","1","-1","0","1","0","4","3","5","3","4","4","5","3","4","4","7","8","5","7","5","7","6","3","8","5","1","2","3","5","2","4","1","2","2","1","2","5","5","1","2","2","4","2","3","1","2","2","1","1","6","5","6","3","7","7","5","7","5","2","4","6","5","2","5","644508738497019904","韦","001","Female","[""好我"",""坏我"",""坏她"",""好她""]","[""强我"",""弱我"",""弱她"",""强她""]","","","","","","","","match","","","","","","","","","","key","j","16.655527472527375","697.8181818181819","388.3636363636364","j","true","match","img/pentagon.png","强她","强她","prac_ALT2_ability","practice_ability","","","","","","","",""
"null","<span style='color:GreenYellow; font-size: 70px;'>正确! </span>","null","html-keyboard-response","53","271672","0.0-8.0-1.0-1.0-0.0-1.21","3","4","3","2","1","4","2","3","4","4","5","0","0","-2","1","-1","0","1","0","4","3","5","3","4","4","5","3","4","4","7","8","5","7","5","7","6","3","8","5","1","2","3","5","2","4","1","2","2","1","2","5","5","1","2","2","4","2","3","1","2","2","1","1","6","5","6","3","7","7","5","7","5","2","4","6","5","2","5","644508738497019904","韦","001","Female","[""好我"",""坏我"",""坏她"",""好她""]","[""强我"",""弱我"",""弱她"",""强她""]","","","","","","","","","","","","","","","","","","","","","","","","","","","","","","feedback_test","","","","","","","",""
"723","","f","psychophysics","54","273422","0.0-8.0-1.0-1.0-0.0-0.22","3","4","3","2","1","4","2","3","4","4","5","0","0","-2","1","-1","0","1","0","4","3","5","3","4","4","5","3","4","4","7","8","5","7","5","7","6","3","8","5","1","2","3","5","2","4","1","2","2","1","2","5","5","1","2","2","4","2","3","1","2","2","1","1","6","5","6","3","7","7","5","7","5","2","4","6","5","2","5","644508738497019904","韦","001","Female","[""好我"",""坏我"",""坏她"",""好她""]","[""强我"",""弱我"",""弱她"",""强她""]","","","","","","","","nonmatch","","","","","","","","","","key","f","16.65834615384609","697.8181818181819","388.3636363636364","f","true","nonmatch","img/diamond.png","弱她","弱我","prac_ALT2_ability","practice_ability","","","","","","","",""
"null","<span style='color:GreenYellow; font-size: 70px;'>正确! </span>","null","html-keyboard-response","55","273929","0.0-8.0-1.0-1.0-0.0-1.22","3","4","3","2","1","4","2","3","4","4","5","0","0","-2","1","-1","0","1","0","4","3","5","3","4","4","5","3","4","4","7","8","5","7","5","7","6","3","8","5","1","2","3","5","2","4","1","2","2","1","2","5","5","1","2","2","4","2","3","1","2","2","1","1","6","5","6","3","7","7","5","7","5","2","4","6","5","2","5","644508738497019904","韦","001","Female","[""好我"",""坏我"",""坏她"",""好她""]","[""强我"",""弱我"",""弱她"",""强她""]","","","","","","","","","","","","","","","","","","","","","","","","","","","","","","feedback_test","","","","","","","",""
"742","","f","psychophysics","56","275673","0.0-8.0-1.0-1.0-0.0-0.23","3","4","3","2","1","4","2","3","4","4","5","0","0","-2","1","-1","0","1","0","4","3","5","3","4","4","5","3","4","4","7","8","5","7","5","7","6","3","8","5","1","2","3","5","2","4","1","2","2","1","2","5","5","1","2","2","4","2","3","1","2","2","1","1","6","5","6","3","7","7","5","7","5","2","4","6","5","2","5","644508738497019904","韦","001","Female","[""好我"",""坏我"",""坏她"",""好她""]","[""强我"",""弱我"",""弱她"",""强她""]","","","","","","","","nonmatch","","","","","","","","","","key","f","16.655203883494906","697.8181818181819","388.3636363636364","f","true","nonmatch","img/circle.png","强我","弱她","prac_ALT2_ability","practice_ability","","","","","","","",""
"null","<span style='color:GreenYellow; font-size: 70px;'>正确! </span>","null","html-keyboard-response","57","276181","0.0-8.0-1.0-1.0-0.0-1.23","3","4","3","2","1","4","2","3","4","4","5","0","0","-2","1","-1","0","1","0","4","3","5","3","4","4","5","3","4","4","7","8","5","7","5","7","6","3","8","5","1","2","3","5","2","4","1","2","2","1","2","5","5","1","2","2","4","2","3","1","2","2","1","1","6","5","6","3","7","7","5","7","5","2","4","6","5","2","5","644508738497019904","韦","001","Female","[""好我"",""坏我"",""坏她"",""好她""]","[""强我"",""弱我"",""弱她"",""强她""]","","","","","","","","","","","","","","","","","","","","","","","","","","","","","","feedback_test","","","","","","","",""
"632","","f","psychophysics","58","277816","0.0-8.0-1.0-1.0-0.0-0.24","3","4","3","2","1","4","2","3","4","4","5","0","0","-2","1","-1","0","1","0","4","3","5","3","4","4","5","3","4","4","7","8","5","7","5","7","6","3","8","5","1","2","3","5","2","4","1","2","2","1","2","5","5","1","2","2","4","2","3","1","2","2","1","1","6","5","6","3","7","7","5","7","5","2","4","6","5","2","5","644508738497019904","韦","001","Female","[""好我"",""坏我"",""坏她"",""好她""]","[""强我"",""弱我"",""弱她"",""强她""]","","","","","","","","nonmatch","","","","","","","","","","key","f","16.660597938144118","697.8181818181819","388.3636363636364","f","true","nonmatch","img/diamond.png","强她","弱我","prac_ALT2_ability","practice_ability","","","","","","","",""
"null","<span style='color:GreenYellow; font-size: 70px;'>正确! </span>","null","html-keyboard-response","59","278330","0.0-8.0-1.0-1.0-0.0-1.24","3","4","3","2","1","4","2","3","4","4","5","0","0","-2","1","-1","0","1","0","4","3","5","3","4","4","5","3","4","4","7","8","5","7","5","7","6","3","8","5","1","2","3","5","2","4","1","2","2","1","2","5","5","1","2","2","4","2","3","1","2","2","1","1","6","5","6","3","7","7","5","7","5","2","4","6","5","2","5","644508738497019904","韦","001","Female","[""好我"",""坏我"",""坏她"",""好她""]","[""强我"",""弱我"",""弱她"",""强她""]","","","","","","","","","","","","","","","","","","","","","","","","","","","","","","feedback_test","","","","","","","",""
"758","","f","psychophysics","60","280118","0.0-8.0-1.0-1.0-0.0-0.25","3","4","3","2","1","4","2","3","4","4","5","0","0","-2","1","-1","0","1","0","4","3","5","3","4","4","5","3","4","4","7","8","5","7","5","7","6","3","8","5","1","2","3","5","2","4","1","2","2","1","2","5","5","1","2","2","4","2","3","1","2","2","1","1","6","5","6","3","7","7","5","7","5","2","4","6","5","2","5","644508738497019904","韦","001","Female","[""好我"",""坏我"",""坏她"",""好她""]","[""强我"",""弱我"",""弱她"",""强她""]","","","","","","","","nonmatch","","","","","","","","","","key","f","16.656688679245253","697.8181818181819","388.3636363636364","f","true","nonmatch","img/pentagon.png","弱她","强她","prac_ALT2_ability","practice_ability","","","","","","","",""
"null","<span style='color:GreenYellow; font-size: 70px;'>正确! </span>","null","html-keyboard-response","61","280620","0.0-8.0-1.0-1.0-0.0-1.25","3","4","3","2","1","4","2","3","4","4","5","0","0","-2","1","-1","0","1","0","4","3","5","3","4","4","5","3","4","4","7","8","5","7","5","7","6","3","8","5","1","2","3","5","2","4","1","2","2","1","2","5","5","1","2","2","4","2","3","1","2","2","1","1","6","5","6","3","7","7","5","7","5","2","4","6","5","2","5","644508738497019904","韦","001","Female","[""好我"",""坏我"",""坏她"",""好她""]","[""强我"",""弱我"",""弱她"",""强她""]","","","","","","","","","","","","","","","","","","","","","","","","","","","","","","feedback_test","","","","","","","",""
"927","","j","psychophysics","62","282555","0.0-8.0-1.0-1.0-0.0-0.26","3","4","3","2","1","4","2","3","4","4","5","0","0","-2","1","-1","0","1","0","4","3","5","3","4","4","5","3","4","4","7","8","5","7","5","7","6","3","8","5","1","2","3","5","2","4","1","2","2","1","2","5","5","1","2","2","4","2","3","1","2","2","1","1","6","5","6","3","7","7","5","7","5","2","4","6","5","2","5","644508738497019904","韦","001","Female","[""好我"",""坏我"",""坏她"",""好她""]","[""强我"",""弱我"",""弱她"",""强她""]","","","","","","","","match","","","","","","","","","","key","j","16.65623478260873","697.8181818181819","388.3636363636364","f","false","nonmatch","img/circle.png","弱我","弱她","prac_ALT2_ability","practice_ability","","","","","","","",""
"null","<span style='color:red; font-size: 70px;'>错误! </span>","null","html-keyboard-response","63","283069","0.0-8.0-1.0-1.0-0.0-1.26","3","4","3","2","1","4","2","3","4","4","5","0","0","-2","1","-1","0","1","0","4","3","5","3","4","4","5","3","4","4","7","8","5","7","5","7","6","3","8","5","1","2","3","5","2","4","1","2","2","1","2","5","5","1","2","2","4","2","3","1","2","2","1","1","6","5","6","3","7","7","5","7","5","2","4","6","5","2","5","644508738497019904","韦","001","Female","[""好我"",""坏我"",""坏她"",""好她""]","[""强我"",""弱我"",""弱她"",""强她""]","","","","","","","","","","","","","","","","","","","","","","","","","","","","","","feedback_test","","","","","","","",""
"742","","f","psychophysics","64","284818","0.0-8.0-1.0-1.0-0.0-0.27","3","4","3","2","1","4","2","3","4","4","5","0","0","-2","1","-1","0","1","0","4","3","5","3","4","4","5","3","4","4","7","8","5","7","5","7","6","3","8","5","1","2","3","5","2","4","1","2","2","1","2","5","5","1","2","2","4","2","3","1","2","2","1","1","6","5","6","3","7","7","5","7","5","2","4","6","5","2","5","644508738497019904","韦","001","Female","[""好我"",""坏我"",""坏她"",""好她""]","[""强我"",""弱我"",""弱她"",""强她""]","","","","","","","","nonmatch","","","","","","","","","","key","f","16.657624999999825","697.8181818181819","388.3636363636364","f","true","nonmatch","img/square.png","弱她","强我","prac_ALT2_ability","practice_ability","","","","","","","",""
"null","<span style='color:GreenYellow; font-size: 70px;'>正确! </span>","null","html-keyboard-response","65","285336","0.0-8.0-1.0-1.0-0.0-1.27","3","4","3","2","1","4","2","3","4","4","5","0","0","-2","1","-1","0","1","0","4","3","5","3","4","4","5","3","4","4","7","8","5","7","5","7","6","3","8","5","1","2","3","5","2","4","1","2","2","1","2","5","5","1","2","2","4","2","3","1","2","2","1","1","6","5","6","3","7","7","5","7","5","2","4","6","5","2","5","644508738497019904","韦","001","Female","[""好我"",""坏我"",""坏她"",""好她""]","[""强我"",""弱我"",""弱她"",""强她""]","","","","","","","","","","","","","","","","","","","","","","","","","","","","","","feedback_test","","","","","","","",""
"835","","j","psychophysics","66","287185","0.0-8.0-1.0-1.0-0.0-0.28","3","4","3","2","1","4","2","3","4","4","5","0","0","-2","1","-1","0","1","0","4","3","5","3","4","4","5","3","4","4","7","8","5","7","5","7","6","3","8","5","1","2","3","5","2","4","1","2","2","1","2","5","5","1","2","2","4","2","3","1","2","2","1","1","6","5","6","3","7","7","5","7","5","2","4","6","5","2","5","644508738497019904","韦","001","Female","[""好我"",""坏我"",""坏她"",""好她""]","[""强我"",""弱我"",""弱她"",""强她""]","","","","","","","","match","","","","","","","","","","key","j","16.656945454545678","697.8181818181819","388.3636363636364","j","true","match","img/square.png","强我","强我","prac_ALT2_ability","practice_ability","","","","","","","",""
"null","<span style='color:GreenYellow; font-size: 70px;'>正确! </span>","null","html-keyboard-response","67","287691","0.0-8.0-1.0-1.0-0.0-1.28","3","4","3","2","1","4","2","3","4","4","5","0","0","-2","1","-1","0","1","0","4","3","5","3","4","4","5","3","4","4","7","8","5","7","5","7","6","3","8","5","1","2","3","5","2","4","1","2","2","1","2","5","5","1","2","2","4","2","3","1","2","2","1","1","6","5","6","3","7","7","5","7","5","2","4","6","5","2","5","644508738497019904","韦","001","Female","[""好我"",""坏我"",""坏她"",""好她""]","[""强我"",""弱我"",""弱她"",""强她""]","","","","","","","","","","","","","","","","","","","","","","","","","","","","","","feedback_test","","","","","","","",""
"644","","f","psychophysics","68","289351","0.0-8.0-1.0-1.0-0.0-0.29","3","4","3","2","1","4","2","3","4","4","5","0","0","-2","1","-1","0","1","0","4","3","5","3","4","4","5","3","4","4","7","8","5","7","5","7","6","3","8","5","1","2","3","5","2","4","1","2","2","1","2","5","5","1","2","2","4","2","3","1","2","2","1","1","6","5","6","3","7","7","5","7","5","2","4","6","5","2","5","644508738497019904","韦","001","Female","[""好我"",""坏我"",""坏她"",""好她""]","[""强我"",""弱我"",""弱她"",""强她""]","","","","","","","","nonmatch","","","","","","","","","","key","f","16.657602040816396","697.8181818181819","388.3636363636364","f","true","nonmatch","img/diamond.png","弱她","弱我","prac_ALT2_ability","practice_ability","","","","","","","",""
"null","<span style='color:GreenYellow; font-size: 70px;'>正确! </span>","null","html-keyboard-response","69","289856","0.0-8.0-1.0-1.0-0.0-1.29","3","4","3","2","1","4","2","3","4","4","5","0","0","-2","1","-1","0","1","0","4","3","5","3","4","4","5","3","4","4","7","8","5","7","5","7","6","3","8","5","1","2","3","5","2","4","1","2","2","1","2","5","5","1","2","2","4","2","3","1","2","2","1","1","6","5","6","3","7","7","5","7","5","2","4","6","5","2","5","644508738497019904","韦","001","Female","[""好我"",""坏我"",""坏她"",""好她""]","[""强我"",""弱我"",""弱她"",""强她""]","","","","","","","","","","","","","","","","","","","","","","","","","","","","","","feedback_test","","","","","","","",""
"647","","j","psychophysics","70","291513","0.0-8.0-1.0-1.0-0.0-0.30","3","4","3","2","1","4","2","3","4","4","5","0","0","-2","1","-1","0","1","0","4","3","5","3","4","4","5","3","4","4","7","8","5","7","5","7","6","3","8","5","1","2","3","5","2","4","1","2","2","1","2","5","5","1","2","2","4","2","3","1","2","2","1","1","6","5","6","3","7","7","5","7","5","2","4","6","5","2","5","644508738497019904","韦","001","Female","[""好我"",""坏我"",""坏她"",""好她""]","[""强我"",""弱我"",""弱她"",""强她""]","","","","","","","","match","","","","","","","","","","key","j","16.65753061224514","697.8181818181819","388.3636363636364","j","true","match","img/square.png","强我","强我","prac_ALT2_ability","practice_ability","","","","","","","",""
"null","<span style='color:GreenYellow; font-size: 70px;'>正确! </span>","null","html-keyboard-response","71","292023","0.0-8.0-1.0-1.0-0.0-1.30","3","4","3","2","1","4","2","3","4","4","5","0","0","-2","1","-1","0","1","0","4","3","5","3","4","4","5","3","4","4","7","8","5","7","5","7","6","3","8","5","1","2","3","5","2","4","1","2","2","1","2","5","5","1","2","2","4","2","3","1","2","2","1","1","6","5","6","3","7","7","5","7","5","2","4","6","5","2","5","644508738497019904","韦","001","Female","[""好我"",""坏我"",""坏她"",""好她""]","[""强我"",""弱我"",""弱她"",""强她""]","","","","","","","","","","","","","","","","","","","","","","","","","","","","","","feedback_test","","","","","","","",""
"692","","j","psychophysics","72","293731","0.0-8.0-1.0-1.0-0.0-0.31","3","4","3","2","1","4","2","3","4","4","5","0","0","-2","1","-1","0","1","0","4","3","5","3","4","4","5","3","4","4","7","8","5","7","5","7","6","3","8","5","1","2","3","5","2","4","1","2","2","1","2","5","5","1","2","2","4","2","3","1","2","2","1","1","6","5","6","3","7","7","5","7","5","2","4","6","5","2","5","644508738497019904","韦","001","Female","[""好我"",""坏我"",""坏她"",""好她""]","[""强我"",""弱我"",""弱她"",""强她""]","","","","","","","","match","","","","","","","","","","key","j","16.65663366336583","697.8181818181819","388.3636363636364","j","true","match","img/circle.png","弱她","弱她","prac_ALT2_ability","practice_ability","","","","","","","",""
"null","<span style='color:GreenYellow; font-size: 70px;'>正确! </span>","null","html-keyboard-response","73","294241","0.0-8.0-1.0-1.0-0.0-1.31","3","4","3","2","1","4","2","3","4","4","5","0","0","-2","1","-1","0","1","0","4","3","5","3","4","4","5","3","4","4","7","8","5","7","5","7","6","3","8","5","1","2","3","5","2","4","1","2","2","1","2","5","5","1","2","2","4","2","3","1","2","2","1","1","6","5","6","3","7","7","5","7","5","2","4","6","5","2","5","644508738497019904","韦","001","Female","[""好我"",""坏我"",""坏她"",""好她""]","[""强我"",""弱我"",""弱她"",""强她""]","","","","","","","","","","","","","","","","","","","","","","","","","","","","","","feedback_test","","","","","","","",""
"627","","f","psychophysics","74","295881","0.0-8.0-1.0-1.0-0.0-0.32","3","4","3","2","1","4","2","3","4","4","5","0","0","-2","1","-1","0","1","0","4","3","5","3","4","4","5","3","4","4","7","8","5","7","5","7","6","3","8","5","1","2","3","5","2","4","1","2","2","1","2","5","5","1","2","2","4","2","3","1","2","2","1","1","6","5","6","3","7","7","5","7","5","2","4","6","5","2","5","644508738497019904","韦","001","Female","[""好我"",""坏我"",""坏她"",""好她""]","[""强我"",""弱我"",""弱她"",""强她""]","","","","","","","","nonmatch","","","","","","","","","","key","f","16.65865979381458","697.8181818181819","388.3636363636364","j","false","match","img/circle.png","弱她","弱她","prac_ALT2_ability","practice_ability","","","","","","","",""
"null","<span style='color:red; font-size: 70px;'>错误! </span>","null","html-keyboard-response","75","296396","0.0-8.0-1.0-1.0-0.0-1.32","3","4","3","2","1","4","2","3","4","4","5","0","0","-2","1","-1","0","1","0","4","3","5","3","4","4","5","3","4","4","7","8","5","7","5","7","6","3","8","5","1","2","3","5","2","4","1","2","2","1","2","5","5","1","2","2","4","2","3","1","2","2","1","1","6","5","6","3","7","7","5","7","5","2","4","6","5","2","5","644508738497019904","韦","001","Female","[""好我"",""坏我"",""坏她"",""好她""]","[""强我"",""弱我"",""弱她"",""强她""]","","","","","","","","","","","","","","","","","","","","","","","","","","","","","","feedback_test","","","","","","","",""
"978","","j","psychophysics","76","298381","0.0-8.0-1.0-1.0-0.0-0.33","3","4","3","2","1","4","2","3","4","4","5","0","0","-2","1","-1","0","1","0","4","3","5","3","4","4","5","3","4","4","7","8","5","7","5","7","6","3","8","5","1","2","3","5","2","4","1","2","2","1","2","5","5","1","2","2","4","2","3","1","2","2","1","1","6","5","6","3","7","7","5","7","5","2","4","6","5","2","5","644508738497019904","韦","001","Female","[""好我"",""坏我"",""坏她"",""好她""]","[""强我"",""弱我"",""弱她"",""强她""]","","","","","","","","match","","","","","","","","","","key","j","16.6587542372882","697.8181818181819","388.3636363636364","j","true","match","img/pentagon.png","强她","强她","prac_ALT2_ability","practice_ability","","","","","","","",""
"null","<span style='color:GreenYellow; font-size: 70px;'>正确! </span>","null","html-keyboard-response","77","298895","0.0-8.0-1.0-1.0-0.0-1.33","3","4","3","2","1","4","2","3","4","4","5","0","0","-2","1","-1","0","1","0","4","3","5","3","4","4","5","3","4","4","7","8","5","7","5","7","6","3","8","5","1","2","3","5","2","4","1","2","2","1","2","5","5","1","2","2","4","2","3","1","2","2","1","1","6","5","6","3","7","7","5","7","5","2","4","6","5","2","5","644508738497019904","韦","001","Female","[""好我"",""坏我"",""坏她"",""好她""]","[""强我"",""弱我"",""弱她"",""强她""]","","","","","","","","","","","","","","","","","","","","","","","","","","","","","","feedback_test","","","","","","","",""
"594","","f","psychophysics","78","300503","0.0-8.0-1.0-1.0-0.0-0.34","3","4","3","2","1","4","2","3","4","4","5","0","0","-2","1","-1","0","1","0","4","3","5","3","4","4","5","3","4","4","7","8","5","7","5","7","6","3","8","5","1","2","3","5","2","4","1","2","2","1","2","5","5","1","2","2","4","2","3","1","2","2","1","1","6","5","6","3","7","7","5","7","5","2","4","6","5","2","5","644508738497019904","韦","001","Female","[""好我"",""坏我"",""坏她"",""好她""]","[""强我"",""弱我"",""弱她"",""强她""]","","","","","","","","nonmatch","","","","","","","","","","key","f","16.65234375","697.8181818181819","388.3636363636364","f","true","nonmatch","img/pentagon.png","弱我","强她","prac_ALT2_ability","practice_ability","","","","","","","",""
"null","<span style='color:GreenYellow; font-size: 70px;'>正确! </span>","null","html-keyboard-response","79","301020","0.0-8.0-1.0-1.0-0.0-1.34","3","4","3","2","1","4","2","3","4","4","5","0","0","-2","1","-1","0","1","0","4","3","5","3","4","4","5","3","4","4","7","8","5","7","5","7","6","3","8","5","1","2","3","5","2","4","1","2","2","1","2","5","5","1","2","2","4","2","3","1","2","2","1","1","6","5","6","3","7","7","5","7","5","2","4","6","5","2","5","644508738497019904","韦","001","Female","[""好我"",""坏我"",""坏她"",""好她""]","[""强我"",""弱我"",""弱她"",""强她""]","","","","","","","","","","","","","","","","","","","","","","","","","","","","","","feedback_test","","","","","","","",""
"666","","f","psychophysics","80","302691","0.0-8.0-1.0-1.0-0.0-0.35","3","4","3","2","1","4","2","3","4","4","5","0","0","-2","1","-1","0","1","0","4","3","5","3","4","4","5","3","4","4","7","8","5","7","5","7","6","3","8","5","1","2","3","5","2","4","1","2","2","1","2","5","5","1","2","2","4","2","3","1","2","2","1","1","6","5","6","3","7","7","5","7","5","2","4","6","5","2","5","644508738497019904","韦","001","Female","[""好我"",""坏我"",""坏她"",""好她""]","[""强我"",""弱我"",""弱她"",""强她""]","","","","","","","","nonmatch","","","","","","","","","","key","f","16.654787878788106","697.8181818181819","388.3636363636364","f","true","nonmatch","img/circle.png","强她","弱她","prac_ALT2_ability","practice_ability","","","","","","","",""
"null","<span style='color:GreenYellow; font-size: 70px;'>正确! </span>","null","html-keyboard-response","81","303203","0.0-8.0-1.0-1.0-0.0-1.35","3","4","3","2","1","4","2","3","4","4","5","0","0","-2","1","-1","0","1","0","4","3","5","3","4","4","5","3","4","4","7","8","5","7","5","7","6","3","8","5","1","2","3","5","2","4","1","2","2","1","2","5","5","1","2","2","4","2","3","1","2","2","1","1","6","5","6","3","7","7","5","7","5","2","4","6","5","2","5","644508738497019904","韦","001","Female","[""好我"",""坏我"",""坏她"",""好她""]","[""强我"",""弱我"",""弱她"",""强她""]","","","","","","","","","","","","","","","","","","","","","","","","","","","","","","feedback_test","","","","","","","",""
"638","","j","psychophysics","82","304854","0.0-8.0-1.0-1.0-0.0-0.36","3","4","3","2","1","4","2","3","4","4","5","0","0","-2","1","-1","0","1","0","4","3","5","3","4","4","5","3","4","4","7","8","5","7","5","7","6","3","8","5","1","2","3","5","2","4","1","2","2","1","2","5","5","1","2","2","4","2","3","1","2","2","1","1","6","5","6","3","7","7","5","7","5","2","4","6","5","2","5","644508738497019904","韦","001","Female","[""好我"",""坏我"",""坏她"",""好她""]","[""强我"",""弱我"",""弱她"",""强她""]","","","","","","","","match","","","","","","","","","","key","j","16.655653061224648","697.8181818181819","388.3636363636364","j","true","match","img/pentagon.png","强她","强她","prac_ALT2_ability","practice_ability","","","","","","","",""
"null","<span style='color:GreenYellow; font-size: 70px;'>正确! </span>","null","html-keyboard-response","83","305357","0.0-8.0-1.0-1.0-0.0-1.36","3","4","3","2","1","4","2","3","4","4","5","0","0","-2","1","-1","0","1","0","4","3","5","3","4","4","5","3","4","4","7","8","5","7","5","7","6","3","8","5","1","2","3","5","2","4","1","2","2","1","2","5","5","1","2","2","4","2","3","1","2","2","1","1","6","5","6","3","7","7","5","7","5","2","4","6","5","2","5","644508738497019904","韦","001","Female","[""好我"",""坏我"",""坏她"",""好她""]","[""强我"",""弱我"",""弱她"",""强她""]","","","","","","","","","","","","","","","","","","","","","","","","","","","","","","feedback_test","","","","","","","",""
"981","","j","psychophysics","84","307346","0.0-8.0-1.0-1.0-0.0-0.37","3","4","3","2","1","4","2","3","4","4","5","0","0","-2","1","-1","0","1","0","4","3","5","3","4","4","5","3","4","4","7","8","5","7","5","7","6","3","8","5","1","2","3","5","2","4","1","2","2","1","2","5","5","1","2","2","4","2","3","1","2","2","1","1","6","5","6","3","7","7","5","7","5","2","4","6","5","2","5","644508738497019904","韦","001","Female","[""好我"",""坏我"",""坏她"",""好她""]","[""强我"",""弱我"",""弱她"",""强她""]","","","","","","","","match","","","","","","","","","","key","j","16.65709322033908","697.8181818181819","388.3636363636364","f","false","nonmatch","img/diamond.png","强我","弱我","prac_ALT2_ability","practice_ability","","","","","","","",""
"null","<span style='color:red; font-size: 70px;'>错误! </span>","null","html-keyboard-response","85","307861","0.0-8.0-1.0-1.0-0.0-1.37","3","4","3","2","1","4","2","3","4","4","5","0","0","-2","1","-1","0","1","0","4","3","5","3","4","4","5","3","4","4","7","8","5","7","5","7","6","3","8","5","1","2","3","5","2","4","1","2","2","1","2","5","5","1","2","2","4","2","3","1","2","2","1","1","6","5","6","3","7","7","5","7","5","2","4","6","5","2","5","644508738497019904","韦","001","Female","[""好我"",""坏我"",""坏她"",""好她""]","[""强我"",""弱我"",""弱她"",""强她""]","","","","","","","","","","","","","","","","","","","","","","","","","","","","","","feedback_test","","","","","","","",""
"710","","j","psychophysics","86","309573","0.0-8.0-1.0-1.0-0.0-0.38","3","4","3","2","1","4","2","3","4","4","5","0","0","-2","1","-1","0","1","0","4","3","5","3","4","4","5","3","4","4","7","8","5","7","5","7","6","3","8","5","1","2","3","5","2","4","1","2","2","1","2","5","5","1","2","2","4","2","3","1","2","2","1","1","6","5","6","3","7","7","5","7","5","2","4","6","5","2","5","644508738497019904","韦","001","Female","[""好我"",""坏我"",""坏她"",""好她""]","[""强我"",""弱我"",""弱她"",""强她""]","","","","","","","","match","","","","","","","","","","key","j","16.656911764705928","697.8181818181819","388.3636363636364","j","true","match","img/pentagon.png","强她","强她","prac_ALT2_ability","practice_ability","","","","","","","",""
"null","<span style='color:GreenYellow; font-size: 70px;'>正确! </span>","null","html-keyboard-response","87","310075","0.0-8.0-1.0-1.0-0.0-1.38","3","4","3","2","1","4","2","3","4","4","5","0","0","-2","1","-1","0","1","0","4","3","5","3","4","4","5","3","4","4","7","8","5","7","5","7","6","3","8","5","1","2","3","5","2","4","1","2","2","1","2","5","5","1","2","2","4","2","3","1","2","2","1","1","6","5","6","3","7","7","5","7","5","2","4","6","5","2","5","644508738497019904","韦","001","Female","[""好我"",""坏我"",""坏她"",""好她""]","[""强我"",""弱我"",""弱她"",""强她""]","","","","","","","","","","","","","","","","","","","","","","","","","","","","","","feedback_test","","","","","","","",""
"637","","f","psychophysics","88","311716","0.0-8.0-1.0-1.0-0.0-0.39","3","4","3","2","1","4","2","3","4","4","5","0","0","-2","1","-1","0","1","0","4","3","5","3","4","4","5","3","4","4","7","8","5","7","5","7","6","3","8","5","1","2","3","5","2","4","1","2","2","1","2","5","5","1","2","2","4","2","3","1","2","2","1","1","6","5","6","3","7","7","5","7","5","2","4","6","5","2","5","644508738497019904","韦","001","Female","[""好我"",""坏我"",""坏她"",""好她""]","[""强我"",""弱我"",""弱她"",""强她""]","","","","","","","","nonmatch","","","","","","","","","","key","f","16.650857142856992","697.8181818181819","388.3636363636364","j","false","match","img/diamond.png","弱我","弱我","prac_ALT2_ability","practice_ability","","","","","","","",""
"null","<span style='color:red; font-size: 70px;'>错误! </span>","null","html-keyboard-response","89","312220","0.0-8.0-1.0-1.0-0.0-1.39","3","4","3","2","1","4","2","3","4","4","5","0","0","-2","1","-1","0","1","0","4","3","5","3","4","4","5","3","4","4","7","8","5","7","5","7","6","3","8","5","1","2","3","5","2","4","1","2","2","1","2","5","5","1","2","2","4","2","3","1","2","2","1","1","6","5","6","3","7","7","5","7","5","2","4","6","5","2","5","644508738497019904","韦","001","Female","[""好我"",""坏我"",""坏她"",""好她""]","[""强我"",""弱我"",""弱她"",""强她""]","","","","","","","","","","","","","","","","","","","","","","","","","","","","","","feedback_test","","","","","","","",""
"845","","j","psychophysics","90","314075","0.0-8.0-1.0-1.0-0.0-0.40","3","4","3","2","1","4","2","3","4","4","5","0","0","-2","1","-1","0","1","0","4","3","5","3","4","4","5","3","4","4","7","8","5","7","5","7","6","3","8","5","1","2","3","5","2","4","1","2","2","1","2","5","5","1","2","2","4","2","3","1","2","2","1","1","6","5","6","3","7","7","5","7","5","2","4","6","5","2","5","644508738497019904","韦","001","Female","[""好我"",""坏我"",""坏她"",""好她""]","[""强我"",""弱我"",""弱她"",""强她""]","","","","","","","","match","","","","","","","","","","key","j","16.655327272727366","697.8181818181819","388.3636363636364","j","true","match","img/circle.png","弱她","弱她","prac_ALT2_ability","practice_ability","","","","","","","",""
"null","<span style='color:GreenYellow; font-size: 70px;'>正确! </span>","null","html-keyboard-response","91","314579","0.0-8.0-1.0-1.0-0.0-1.40","3","4","3","2","1","4","2","3","4","4","5","0","0","-2","1","-1","0","1","0","4","3","5","3","4","4","5","3","4","4","7","8","5","7","5","7","6","3","8","5","1","2","3","5","2","4","1","2","2","1","2","5","5","1","2","2","4","2","3","1","2","2","1","1","6","5","6","3","7","7","5","7","5","2","4","6","5","2","5","644508738497019904","韦","001","Female","[""好我"",""坏我"",""坏她"",""好她""]","[""强我"",""弱我"",""弱她"",""强她""]","","","","","","","","","","","","","","","","","","","","","","","","","","","","","","feedback_test","","","","","","","",""
"633","","j","psychophysics","92","316223","0.0-8.0-1.0-1.0-0.0-0.41","3","4","3","2","1","4","2","3","4","4","5","0","0","-2","1","-1","0","1","0","4","3","5","3","4","4","5","3","4","4","7","8","5","7","5","7","6","3","8","5","1","2","3","5","2","4","1","2","2","1","2","5","5","1","2","2","4","2","3","1","2","2","1","1","6","5","6","3","7","7","5","7","5","2","4","6","5","2","5","644508738497019904","韦","001","Female","[""好我"",""坏我"",""坏她"",""好她""]","[""强我"",""弱我"",""弱她"",""强她""]","","","","","","","","match","","","","","","","","","","key","j","16.655845360824426","697.8181818181819","388.3636363636364","f","false","nonmatch","img/pentagon.png","强我","强她","prac_ALT2_ability","practice_ability","","","","","","","",""
"null","<span style='color:red; font-size: 70px;'>错误! </span>","null","html-keyboard-response","93","316733","0.0-8.0-1.0-1.0-0.0-1.41","3","4","3","2","1","4","2","3","4","4","5","0","0","-2","1","-1","0","1","0","4","3","5","3","4","4","5","3","4","4","7","8","5","7","5","7","6","3","8","5","1","2","3","5","2","4","1","2","2","1","2","5","5","1","2","2","4","2","3","1","2","2","1","1","6","5","6","3","7","7","5","7","5","2","4","6","5","2","5","644508738497019904","韦","001","Female","[""好我"",""坏我"",""坏她"",""好她""]","[""强我"",""弱我"",""弱她"",""强她""]","","","","","","","","","","","","","","","","","","","","","","","","","","","","","","feedback_test","","","","","","","",""
"815","","f","psychophysics","94","318557","0.0-8.0-1.0-1.0-0.0-0.42","3","4","3","2","1","4","2","3","4","4","5","0","0","-2","1","-1","0","1","0","4","3","5","3","4","4","5","3","4","4","7","8","5","7","5","7","6","3","8","5","1","2","3","5","2","4","1","2","2","1","2","5","5","1","2","2","4","2","3","1","2","2","1","1","6","5","6","3","7","7","5","7","5","2","4","6","5","2","5","644508738497019904","韦","001","Female","[""好我"",""坏我"",""坏她"",""好她""]","[""强我"",""弱我"",""弱她"",""强她""]","","","","","","","","nonmatch","","","","","","","","","","key","f","16.65902777777767","697.8181818181819","388.3636363636364","f","true","nonmatch","img/circle.png","强我","弱她","prac_ALT2_ability","practice_ability","","","","","","","",""
"null","<span style='color:GreenYellow; font-size: 70px;'>正确! </span>","null","html-keyboard-response","95","319073","0.0-8.0-1.0-1.0-0.0-1.42","3","4","3","2","1","4","2","3","4","4","5","0","0","-2","1","-1","0","1","0","4","3","5","3","4","4","5","3","4","4","7","8","5","7","5","7","6","3","8","5","1","2","3","5","2","4","1","2","2","1","2","5","5","1","2","2","4","2","3","1","2","2","1","1","6","5","6","3","7","7","5","7","5","2","4","6","5","2","5","644508738497019904","韦","001","Female","[""好我"",""坏我"",""坏她"",""好她""]","[""强我"",""弱我"",""弱她"",""强她""]","","","","","","","","","","","","","","","","","","","","","","","","","","","","","","feedback_test","","","","","","","",""
"628","","j","psychophysics","96","320733","0.0-8.0-1.0-1.0-0.0-0.43","3","4","3","2","1","4","2","3","4","4","5","0","0","-2","1","-1","0","1","0","4","3","5","3","4","4","5","3","4","4","7","8","5","7","5","7","6","3","8","5","1","2","3","5","2","4","1","2","2","1","2","5","5","1","2","2","4","2","3","1","2","2","1","1","6","5","6","3","7","7","5","7","5","2","4","6","5","2","5","644508738497019904","韦","001","Female","[""好我"",""坏我"",""坏她"",""好她""]","[""强我"",""弱我"",""弱她"",""强她""]","","","","","","","","match","","","","","","","","","","key","j","16.656757575757283","697.8181818181819","388.3636363636364","f","false","nonmatch","img/square.png","强她","强我","prac_ALT2_ability","practice_ability","","","","","","","",""
"null","<span style='color:red; font-size: 70px;'>错误! </span>","null","html-keyboard-response","97","321249","0.0-8.0-1.0-1.0-0.0-1.43","3","4","3","2","1","4","2","3","4","4","5","0","0","-2","1","-1","0","1","0","4","3","5","3","4","4","5","3","4","4","7","8","5","7","5","7","6","3","8","5","1","2","3","5","2","4","1","2","2","1","2","5","5","1","2","2","4","2","3","1","2","2","1","1","6","5","6","3","7","7","5","7","5","2","4","6","5","2","5","644508738497019904","韦","001","Female","[""好我"",""坏我"",""坏她"",""好她""]","[""强我"",""弱我"",""弱她"",""强她""]","","","","","","","","","","","","","","","","","","","","","","","","","","","","","","feedback_test","","","","","","","",""
"884","","f","psychophysics","98","323142","0.0-8.0-1.0-1.0-0.0-0.44","3","4","3","2","1","4","2","3","4","4","5","0","0","-2","1","-1","0","1","0","4","3","5","3","4","4","5","3","4","4","7","8","5","7","5","7","6","3","8","5","1","2","3","5","2","4","1","2","2","1","2","5","5","1","2","2","4","2","3","1","2","2","1","1","6","5","6","3","7","7","5","7","5","2","4","6","5","2","5","644508738497019904","韦","001","Female","[""好我"",""坏我"",""坏她"",""好她""]","[""强我"",""弱我"",""弱她"",""强她""]","","","","","","","","nonmatch","","","","","","","","","","key","f","16.660460176991002","697.8181818181819","388.3636363636364","j","false","match","img/diamond.png","弱我","弱我","prac_ALT2_ability","practice_ability","","","","","","","",""
"null","<span style='color:red; font-size: 70px;'>错误! </span>","null","html-keyboard-response","99","323645","0.0-8.0-1.0-1.0-0.0-1.44","3","4","3","2","1","4","2","3","4","4","5","0","0","-2","1","-1","0","1","0","4","3","5","3","4","4","5","3","4","4","7","8","5","7","5","7","6","3","8","5","1","2","3","5","2","4","1","2","2","1","2","5","5","1","2","2","4","2","3","1","2","2","1","1","6","5","6","3","7","7","5","7","5","2","4","6","5","2","5","644508738497019904","韦","001","Female","[""好我"",""坏我"",""坏她"",""好她""]","[""强我"",""弱我"",""弱她"",""强她""]","","","","","","","","","","","","","","","","","","","","","","","","","","","","","","feedback_test","","","","","","","",""
"950","","f","psychophysics","100","325602","0.0-8.0-1.0-1.0-0.0-0.45","3","4","3","2","1","4","2","3","4","4","5","0","0","-2","1","-1","0","1","0","4","3","5","3","4","4","5","3","4","4","7","8","5","7","5","7","6","3","8","5","1","2","3","5","2","4","1","2","2","1","2","5","5","1","2","2","4","2","3","1","2","2","1","1","6","5","6","3","7","7","5","7","5","2","4","6","5","2","5","644508738497019904","韦","001","Female","[""好我"",""坏我"",""坏她"",""好她""]","[""强我"",""弱我"",""弱她"",""强她""]","","","","","","","","nonmatch","","","","","","","","","","key","f","16.6567413793101","697.8181818181819","388.3636363636364","j","false","match","img/diamond.png","弱我","弱我","prac_ALT2_ability","practice_ability","","","","","","","",""
"null","<span style='color:red; font-size: 70px;'>错误! </span>","null","html-keyboard-response","101","326140","0.0-8.0-1.0-1.0-0.0-1.45","3","4","3","2","1","4","2","3","4","4","5","0","0","-2","1","-1","0","1","0","4","3","5","3","4","4","5","3","4","4","7","8","5","7","5","7","6","3","8","5","1","2","3","5","2","4","1","2","2","1","2","5","5","1","2","2","4","2","3","1","2","2","1","1","6","5","6","3","7","7","5","7","5","2","4","6","5","2","5","644508738497019904","韦","001","Female","[""好我"",""坏我"",""坏她"",""好她""]","[""强我"",""弱我"",""弱她"",""强她""]","","","","","","","","","","","","","","","","","","","","","","","","","","","","","","feedback_test","","","","","","","",""
"1136","","j","psychophysics","102","328291","0.0-8.0-1.0-1.0-0.0-0.46","3","4","3","2","1","4","2","3","4","4","5","0","0","-2","1","-1","0","1","0","4","3","5","3","4","4","5","3","4","4","7","8","5","7","5","7","6","3","8","5","1","2","3","5","2","4","1","2","2","1","2","5","5","1","2","2","4","2","3","1","2","2","1","1","6","5","6","3","7","7","5","7","5","2","4","6","5","2","5","644508738497019904","韦","001","Female","[""好我"",""坏我"",""坏她"",""好她""]","[""强我"",""弱我"",""弱她"",""强她""]","","","","","","","","match","","","","","","","","","","key","j","16.65832031250011","697.8181818181819","388.3636363636364","j","true","match","img/square.png","强我","强我","prac_ALT2_ability","practice_ability","","","","","","","",""
"null","<span style='color:GreenYellow; font-size: 70px;'>正确! </span>","null","html-keyboard-response","103","328800","0.0-8.0-1.0-1.0-0.0-1.46","3","4","3","2","1","4","2","3","4","4","5","0","0","-2","1","-1","0","1","0","4","3","5","3","4","4","5","3","4","4","7","8","5","7","5","7","6","3","8","5","1","2","3","5","2","4","1","2","2","1","2","5","5","1","2","2","4","2","3","1","2","2","1","1","6","5","6","3","7","7","5","7","5","2","4","6","5","2","5","644508738497019904","韦","001","Female","[""好我"",""坏我"",""坏她"",""好她""]","[""强我"",""弱我"",""弱她"",""强她""]","","","","","","","","","","","","","","","","","","","","","","","","","","","","","","feedback_test","","","","","","","",""
"772","","f","psychophysics","104","330575","0.0-8.0-1.0-1.0-0.0-0.47","3","4","3","2","1","4","2","3","4","4","5","0","0","-2","1","-1","0","1","0","4","3","5","3","4","4","5","3","4","4","7","8","5","7","5","7","6","3","8","5","1","2","3","5","2","4","1","2","2","1","2","5","5","1","2","2","4","2","3","1","2","2","1","1","6","5","6","3","7","7","5","7","5","2","4","6","5","2","5","644508738497019904","韦","001","Female","[""好我"",""坏我"",""坏她"",""好她""]","[""强我"",""弱我"",""弱她"",""强她""]","","","","","","","","nonmatch","","","","","","","","","","key","f","16.65683962264151","697.8181818181819","388.3636363636364","f","true","nonmatch","img/square.png","弱我","强我","prac_ALT2_ability","practice_ability","","","","","","","",""
"null","<span style='color:GreenYellow; font-size: 70px;'>正确! </span>","null","html-keyboard-response","105","331084","0.0-8.0-1.0-1.0-0.0-1.47","3","4","3","2","1","4","2","3","4","4","5","0","0","-2","1","-1","0","1","0","4","3","5","3","4","4","5","3","4","4","7","8","5","7","5","7","6","3","8","5","1","2","3","5","2","4","1","2","2","1","2","5","5","1","2","2","4","2","3","1","2","2","1","1","6","5","6","3","7","7","5","7","5","2","4","6","5","2","5","644508738497019904","韦","001","Female","[""好我"",""坏我"",""坏她"",""好她""]","[""强我"",""弱我"",""弱她"",""强她""]","","","","","","","","","","","","","","","","","","","","","","","","","","","","","","feedback_test","","","","","","","",""
"23686","<style>.context{color:white; font-size: 35px; line-height:40px}</style>                          <div><p class='context'>您正确回答了69% 的试次。</p><p class='context'>您的平均反应时为770毫秒。</p><p class='context'>恭喜您完成练习。按空格键进入正式实验。</p><p class='footer' style='color:white;font-size: 35px; line-height:40px;'>请在进入正式实验实验之前将您的<span style='color: lightgreen;'>食指</span>放在电脑键盘的相应键位上进行按键。</p>"," ","html-keyboard-response","106","354774","0.0-8.0-1.0-2.0","3","4","3","2","1","4","2","3","4","4","5","0","0","-2","1","-1","0","1","0","4","3","5","3","4","4","5","3","4","4","7","8","5","7","5","7","6","3","8","5","1","2","3","5","2","4","1","2","2","1","2","5","5","1","2","2","4","2","3","1","2","2","1","1","6","5","6","3","7","7","5","7","5","2","4","6","5","2","5","644508738497019904","韦","001","Female","[""好我"",""坏我"",""坏她"",""好她""]","[""强我"",""弱我"",""弱她"",""强她""]","","","","","","","","","","","","","","","","","","","","","","","","","","","","","","","","","","","","","",""
"1541","
  <p style='color: white; font-size: 22px'>请您将手指放在按键上，准备进入正式的匹配任务。</p>
  <p> <div style = ""color: green""><按空格键进入下一阶段的匹配任务></div></p>
  "," ","html-keyboard-response","107","356319","0.0-8.0-1.0-3.0","3","4","3","2","1","4","2","3","4","4","5","0","0","-2","1","-1","0","1","0","4","3","5","3","4","4","5","3","4","4","7","8","5","7","5","7","6","3","8","5","1","2","3","5","2","4","1","2","2","1","2","5","5","1","2","2","4","2","3","1","2","2","1","1","6","5","6","3","7","7","5","7","5","2","4","6","5","2","5","644508738497019904","韦","001","Female","[""好我"",""坏我"",""坏她"",""好她""]","[""强我"",""弱我"",""弱她"",""强她""]","","","","","","","","","","","","","","","","","","","","","","","","","","","","","","","","","","","","","",""
"1039","","j","psychophysics","108","358362","0.0-8.0-1.0-4.0-0.0-0.0","3","4","3","2","1","4","2","3","4","4","5","0","0","-2","1","-1","0","1","0","4","3","5","3","4","4","5","3","4","4","7","8","5","7","5","7","6","3","8","5","1","2","3","5","2","4","1","2","2","1","2","5","5","1","2","2","4","2","3","1","2","2","1","1","6","5","6","3","7","7","5","7","5","2","4","6","5","2","5","644508738497019904","韦","001","Female","[""好我"",""坏我"",""坏她"",""好她""]","[""强我"",""弱我"",""弱她"",""强她""]","","","","","","","","match","","","","","","","","","","key","j","16.65590983606564","697.8181818181819","388.3636363636364","f","false","nonmatch","img/diamond.png","强我","弱我","ALT2","ability","","","","","","","",""
"null","<span style='color:red; font-size: 70px;'>错误! </span>","null","html-keyboard-response","109","358869","0.0-8.0-1.0-4.0-0.0-1.0","3","4","3","2","1","4","2","3","4","4","5","0","0","-2","1","-1","0","1","0","4","3","5","3","4","4","5","3","4","4","7","8","5","7","5","7","6","3","8","5","1","2","3","5","2","4","1","2","2","1","2","5","5","1","2","2","4","2","3","1","2","2","1","1","6","5","6","3","7","7","5","7","5","2","4","6","5","2","5","644508738497019904","韦","001","Female","[""好我"",""坏我"",""坏她"",""好她""]","[""强我"",""弱我"",""弱她"",""强她""]","","","","","","","","","","","","","","","","","","","","","","","","","","","","","","feedback_test","","","","","","","",""
"836","","f","psychophysics","110","360720","0.0-8.0-1.0-4.0-0.0-0.1","3","4","3","2","1","4","2","3","4","4","5","0","0","-2","1","-1","0","1","0","4","3","5","3","4","4","5","3","4","4","7","8","5","7","5","7","6","3","8","5","1","2","3","5","2","4","1","2","2","1","2","5","5","1","2","2","4","2","3","1","2","2","1","1","6","5","6","3","7","7","5","7","5","2","4","6","5","2","5","644508738497019904","韦","001","Female","[""好我"",""坏我"",""坏她"",""好她""]","[""强我"",""弱我"",""弱她"",""强她""]","","","","","","","","nonmatch","","","","","","","","","","key","f","16.657409090909113","697.8181818181819","388.3636363636364","f","true","nonmatch","img/pentagon.png","弱我","强她","ALT2","ability","","","","","","","",""
"null","<span style='color:GreenYellow; font-size: 70px;'>正确! </span>","null","html-keyboard-response","111","361226","0.0-8.0-1.0-4.0-0.0-1.1","3","4","3","2","1","4","2","3","4","4","5","0","0","-2","1","-1","0","1","0","4","3","5","3","4","4","5","3","4","4","7","8","5","7","5","7","6","3","8","5","1","2","3","5","2","4","1","2","2","1","2","5","5","1","2","2","4","2","3","1","2","2","1","1","6","5","6","3","7","7","5","7","5","2","4","6","5","2","5","644508738497019904","韦","001","Female","[""好我"",""坏我"",""坏她"",""好她""]","[""强我"",""弱我"",""弱她"",""强她""]","","","","","","","","","","","","","","","","","","","","","","","","","","","","","","feedback_test","","","","","","","",""
"748","","f","psychophysics","112","362984","0.0-8.0-1.0-4.0-0.0-0.2","3","4","3","2","1","4","2","3","4","4","5","0","0","-2","1","-1","0","1","0","4","3","5","3","4","4","5","3","4","4","7","8","5","7","5","7","6","3","8","5","1","2","3","5","2","4","1","2","2","1","2","5","5","1","2","2","4","2","3","1","2","2","1","1","6","5","6","3","7","7","5","7","5","2","4","6","5","2","5","644508738497019904","韦","001","Female","[""好我"",""坏我"",""坏她"",""好她""]","[""强我"",""弱我"",""弱她"",""强她""]","","","","","","","","nonmatch","","","","","","","","","","key","f","16.655538461538246","697.8181818181819","388.3636363636364","f","true","nonmatch","img/circle.png","强我","弱她","ALT2","ability","","","","","","","",""
"null","<span style='color:GreenYellow; font-size: 70px;'>正确! </span>","null","html-keyboard-response","113","363499","0.0-8.0-1.0-4.0-0.0-1.2","3","4","3","2","1","4","2","3","4","4","5","0","0","-2","1","-1","0","1","0","4","3","5","3","4","4","5","3","4","4","7","8","5","7","5","7","6","3","8","5","1","2","3","5","2","4","1","2","2","1","2","5","5","1","2","2","4","2","3","1","2","2","1","1","6","5","6","3","7","7","5","7","5","2","4","6","5","2","5","644508738497019904","韦","001","Female","[""好我"",""坏我"",""坏她"",""好她""]","[""强我"",""弱我"",""弱她"",""强她""]","","","","","","","","","","","","","","","","","","","","","","","","","","","","","","feedback_test","","","","","","","",""
"660","","f","psychophysics","114","365163","0.0-8.0-1.0-4.0-0.0-0.3","3","4","3","2","1","4","2","3","4","4","5","0","0","-2","1","-1","0","1","0","4","3","5","3","4","4","5","3","4","4","7","8","5","7","5","7","6","3","8","5","1","2","3","5","2","4","1","2","2","1","2","5","5","1","2","2","4","2","3","1","2","2","1","1","6","5","6","3","7","7","5","7","5","2","4","6","5","2","5","644508738497019904","韦","001","Female","[""好我"",""坏我"",""坏她"",""好她""]","[""强我"",""弱我"",""弱她"",""强她""]","","","","","","","","nonmatch","","","","","","","","","","key","f","16.656141414141253","697.8181818181819","388.3636363636364","f","true","nonmatch","img/diamond.png","弱她","弱我","ALT2","ability","","","","","","","",""
"null","<span style='color:GreenYellow; font-size: 70px;'>正确! </span>","null","html-keyboard-response","115","365667","0.0-8.0-1.0-4.0-0.0-1.3","3","4","3","2","1","4","2","3","4","4","5","0","0","-2","1","-1","0","1","0","4","3","5","3","4","4","5","3","4","4","7","8","5","7","5","7","6","3","8","5","1","2","3","5","2","4","1","2","2","1","2","5","5","1","2","2","4","2","3","1","2","2","1","1","6","5","6","3","7","7","5","7","5","2","4","6","5","2","5","644508738497019904","韦","001","Female","[""好我"",""坏我"",""坏她"",""好她""]","[""强我"",""弱我"",""弱她"",""强她""]","","","","","","","","","","","","","","","","","","","","","","","","","","","","","","feedback_test","","","","","","","",""
"651","","j","psychophysics","116","367350","0.0-8.0-1.0-4.0-0.0-0.4","3","4","3","2","1","4","2","3","4","4","5","0","0","-2","1","-1","0","1","0","4","3","5","3","4","4","5","3","4","4","7","8","5","7","5","7","6","3","8","5","1","2","3","5","2","4","1","2","2","1","2","5","5","1","2","2","4","2","3","1","2","2","1","1","6","5","6","3","7","7","5","7","5","2","4","6","5","2","5","644508738497019904","韦","001","Female","[""好我"",""坏我"",""坏她"",""好她""]","[""强我"",""弱我"",""弱她"",""强她""]","","","","","","","","match","","","","","","","","","","key","j","16.65043434343475","697.8181818181819","388.3636363636364","j","true","match","img/square.png","强我","强我","ALT2","ability","","","","","","","",""
"null","<span style='color:GreenYellow; font-size: 70px;'>正确! </span>","null","html-keyboard-response","117","367855","0.0-8.0-1.0-4.0-0.0-1.4","3","4","3","2","1","4","2","3","4","4","5","0","0","-2","1","-1","0","1","0","4","3","5","3","4","4","5","3","4","4","7","8","5","7","5","7","6","3","8","5","1","2","3","5","2","4","1","2","2","1","2","5","5","1","2","2","4","2","3","1","2","2","1","1","6","5","6","3","7","7","5","7","5","2","4","6","5","2","5","644508738497019904","韦","001","Female","[""好我"",""坏我"",""坏她"",""好她""]","[""强我"",""弱我"",""弱她"",""强她""]","","","","","","","","","","","","","","","","","","","","","","","","","","","","","","feedback_test","","","","","","","",""
"522","","j","psychophysics","118","369383","0.0-8.0-1.0-4.0-0.0-0.5","3","4","3","2","1","4","2","3","4","4","5","0","0","-2","1","-1","0","1","0","4","3","5","3","4","4","5","3","4","4","7","8","5","7","5","7","6","3","8","5","1","2","3","5","2","4","1","2","2","1","2","5","5","1","2","2","4","2","3","1","2","2","1","1","6","5","6","3","7","7","5","7","5","2","4","6","5","2","5","644508738497019904","韦","001","Female","[""好我"",""坏我"",""坏她"",""好她""]","[""强我"",""弱我"",""弱她"",""强她""]","","","","","","","","match","","","","","","","","","","key","j","16.656233333333187","697.8181818181819","388.3636363636364","j","true","match","img/pentagon.png","强她","强她","ALT2","ability","","","","","","","",""
"null","<span style='color:GreenYellow; font-size: 70px;'>正确! </span>","null","html-keyboard-response","119","369892","0.0-8.0-1.0-4.0-0.0-1.5","3","4","3","2","1","4","2","3","4","4","5","0","0","-2","1","-1","0","1","0","4","3","5","3","4","4","5","3","4","4","7","8","5","7","5","7","6","3","8","5","1","2","3","5","2","4","1","2","2","1","2","5","5","1","2","2","4","2","3","1","2","2","1","1","6","5","6","3","7","7","5","7","5","2","4","6","5","2","5","644508738497019904","韦","001","Female","[""好我"",""坏我"",""坏她"",""好她""]","[""强我"",""弱我"",""弱她"",""强她""]","","","","","","","","","","","","","","","","","","","","","","","","","","","","","","feedback_test","","","","","","","",""
"871","","f","psychophysics","120","371771","0.0-8.0-1.0-4.0-0.0-0.6","3","4","3","2","1","4","2","3","4","4","5","0","0","-2","1","-1","0","1","0","4","3","5","3","4","4","5","3","4","4","7","8","5","7","5","7","6","3","8","5","1","2","3","5","2","4","1","2","2","1","2","5","5","1","2","2","4","2","3","1","2","2","1","1","6","5","6","3","7","7","5","7","5","2","4","6","5","2","5","644508738497019904","韦","001","Female","[""好我"",""坏我"",""坏她"",""好她""]","[""强我"",""弱我"",""弱她"",""强她""]","","","","","","","","nonmatch","","","","","","","","","","key","f","16.659946428571338","697.8181818181819","388.3636363636364","j","false","match","img/circle.png","弱她","弱她","ALT2","ability","","","","","","","",""
"null","<span style='color:red; font-size: 70px;'>错误! </span>","null","html-keyboard-response","121","372283","0.0-8.0-1.0-4.0-0.0-1.6","3","4","3","2","1","4","2","3","4","4","5","0","0","-2","1","-1","0","1","0","4","3","5","3","4","4","5","3","4","4","7","8","5","7","5","7","6","3","8","5","1","2","3","5","2","4","1","2","2","1","2","5","5","1","2","2","4","2","3","1","2","2","1","1","6","5","6","3","7","7","5","7","5","2","4","6","5","2","5","644508738497019904","韦","001","Female","[""好我"",""坏我"",""坏她"",""好她""]","[""强我"",""弱我"",""弱她"",""强她""]","","","","","","","","","","","","","","","","","","","","","","","","","","","","","","feedback_test","","","","","","","",""
"794","","j","psychophysics","122","374091","0.0-8.0-1.0-4.0-0.0-0.7","3","4","3","2","1","4","2","3","4","4","5","0","0","-2","1","-1","0","1","0","4","3","5","3","4","4","5","3","4","4","7","8","5","7","5","7","6","3","8","5","1","2","3","5","2","4","1","2","2","1","2","5","5","1","2","2","4","2","3","1","2","2","1","1","6","5","6","3","7","7","5","7","5","2","4","6","5","2","5","644508738497019904","韦","001","Female","[""好我"",""坏我"",""坏她"",""好她""]","[""强我"",""弱我"",""弱她"",""强她""]","","","","","","","","match","","","","","","","","","","key","j","16.658289719625945","697.8181818181819","388.3636363636364","j","true","match","img/pentagon.png","强她","强她","ALT2","ability","","","","","","","",""
"null","<span style='color:GreenYellow; font-size: 70px;'>正确! </span>","null","html-keyboard-response","123","374607","0.0-8.0-1.0-4.0-0.0-1.7","3","4","3","2","1","4","2","3","4","4","5","0","0","-2","1","-1","0","1","0","4","3","5","3","4","4","5","3","4","4","7","8","5","7","5","7","6","3","8","5","1","2","3","5","2","4","1","2","2","1","2","5","5","1","2","2","4","2","3","1","2","2","1","1","6","5","6","3","7","7","5","7","5","2","4","6","5","2","5","644508738497019904","韦","001","Female","[""好我"",""坏我"",""坏她"",""好她""]","[""强我"",""弱我"",""弱她"",""强她""]","","","","","","","","","","","","","","","","","","","","","","","","","","","","","","feedback_test","","","","","","","",""
"648","","f","psychophysics","124","376262","0.0-8.0-1.0-4.0-0.0-0.8","3","4","3","2","1","4","2","3","4","4","5","0","0","-2","1","-1","0","1","0","4","3","5","3","4","4","5","3","4","4","7","8","5","7","5","7","6","3","8","5","1","2","3","5","2","4","1","2","2","1","2","5","5","1","2","2","4","2","3","1","2","2","1","1","6","5","6","3","7","7","5","7","5","2","4","6","5","2","5","644508738497019904","韦","001","Female","[""好我"",""坏我"",""坏她"",""好她""]","[""强我"",""弱我"",""弱她"",""强她""]","","","","","","","","nonmatch","","","","","","","","","","key","f","16.65601020408153","697.8181818181819","388.3636363636364","j","false","match","img/circle.png","弱她","弱她","ALT2","ability","","","","","","","",""
"null","<span style='color:red; font-size: 70px;'>错误! </span>","null","html-keyboard-response","125","376774","0.0-8.0-1.0-4.0-0.0-1.8","3","4","3","2","1","4","2","3","4","4","5","0","0","-2","1","-1","0","1","0","4","3","5","3","4","4","5","3","4","4","7","8","5","7","5","7","6","3","8","5","1","2","3","5","2","4","1","2","2","1","2","5","5","1","2","2","4","2","3","1","2","2","1","1","6","5","6","3","7","7","5","7","5","2","4","6","5","2","5","644508738497019904","韦","001","Female","[""好我"",""坏我"",""坏她"",""好她""]","[""强我"",""弱我"",""弱她"",""强她""]","","","","","","","","","","","","","","","","","","","","","","","","","","","","","","feedback_test","","","","","","","",""
"690","","f","psychophysics","126","378467","0.0-8.0-1.0-4.0-0.0-0.9","3","4","3","2","1","4","2","3","4","4","5","0","0","-2","1","-1","0","1","0","4","3","5","3","4","4","5","3","4","4","7","8","5","7","5","7","6","3","8","5","1","2","3","5","2","4","1","2","2","1","2","5","5","1","2","2","4","2","3","1","2","2","1","1","6","5","6","3","7","7","5","7","5","2","4","6","5","2","5","644508738497019904","韦","001","Female","[""好我"",""坏我"",""坏她"",""好她""]","[""强我"",""弱我"",""弱她"",""强她""]","","","","","","","","nonmatch","","","","","","","","","","key","f","16.65522772277242","697.8181818181819","388.3636363636364","j","false","match","img/diamond.png","弱我","弱我","ALT2","ability","","","","","","","",""
"null","<span style='color:red; font-size: 70px;'>错误! </span>","null","html-keyboard-response","127","378974","0.0-8.0-1.0-4.0-0.0-1.9","3","4","3","2","1","4","2","3","4","4","5","0","0","-2","1","-1","0","1","0","4","3","5","3","4","4","5","3","4","4","7","8","5","7","5","7","6","3","8","5","1","2","3","5","2","4","1","2","2","1","2","5","5","1","2","2","4","2","3","1","2","2","1","1","6","5","6","3","7","7","5","7","5","2","4","6","5","2","5","644508738497019904","韦","001","Female","[""好我"",""坏我"",""坏她"",""好她""]","[""强我"",""弱我"",""弱她"",""强她""]","","","","","","","","","","","","","","","","","","","","","","","","","","","","","","feedback_test","","","","","","","",""
"784","","j","psychophysics","128","380763","0.0-8.0-1.0-4.0-0.0-0.10","3","4","3","2","1","4","2","3","4","4","5","0","0","-2","1","-1","0","1","0","4","3","5","3","4","4","5","3","4","4","7","8","5","7","5","7","6","3","8","5","1","2","3","5","2","4","1","2","2","1","2","5","5","1","2","2","4","2","3","1","2","2","1","1","6","5","6","3","7","7","5","7","5","2","4","6","5","2","5","644508738497019904","韦","001","Female","[""好我"",""坏我"",""坏她"",""好她""]","[""强我"",""弱我"",""弱她"",""强她""]","","","","","","","","match","","","","","","","","","","key","j","16.653869158878845","697.8181818181819","388.3636363636364","j","true","match","img/square.png","强我","强我","ALT2","ability","","","","","","","",""
"null","<span style='color:GreenYellow; font-size: 70px;'>正确! </span>","null","html-keyboard-response","129","381271","0.0-8.0-1.0-4.0-0.0-1.10","3","4","3","2","1","4","2","3","4","4","5","0","0","-2","1","-1","0","1","0","4","3","5","3","4","4","5","3","4","4","7","8","5","7","5","7","6","3","8","5","1","2","3","5","2","4","1","2","2","1","2","5","5","1","2","2","4","2","3","1","2","2","1","1","6","5","6","3","7","7","5","7","5","2","4","6","5","2","5","644508738497019904","韦","001","Female","[""好我"",""坏我"",""坏她"",""好她""]","[""强我"",""弱我"",""弱她"",""强她""]","","","","","","","","","","","","","","","","","","","","","","","","","","","","","","feedback_test","","","","","","","",""
"865","","f","psychophysics","130","383143","0.0-8.0-1.0-4.0-0.0-0.11","3","4","3","2","1","4","2","3","4","4","5","0","0","-2","1","-1","0","1","0","4","3","5","3","4","4","5","3","4","4","7","8","5","7","5","7","6","3","8","5","1","2","3","5","2","4","1","2","2","1","2","5","5","1","2","2","4","2","3","1","2","2","1","1","6","5","6","3","7","7","5","7","5","2","4","6","5","2","5","644508738497019904","韦","001","Female","[""好我"",""坏我"",""坏她"",""好她""]","[""强我"",""弱我"",""弱她"",""强她""]","","","","","","","","nonmatch","","","","","","","","","","key","f","16.65545045045049","697.8181818181819","388.3636363636364","j","false","match","img/square.png","强我","强我","ALT2","ability","","","","","","","",""
"null","<span style='color:red; font-size: 70px;'>错误! </span>","null","html-keyboard-response","131","383648","0.0-8.0-1.0-4.0-0.0-1.11","3","4","3","2","1","4","2","3","4","4","5","0","0","-2","1","-1","0","1","0","4","3","5","3","4","4","5","3","4","4","7","8","5","7","5","7","6","3","8","5","1","2","3","5","2","4","1","2","2","1","2","5","5","1","2","2","4","2","3","1","2","2","1","1","6","5","6","3","7","7","5","7","5","2","4","6","5","2","5","644508738497019904","韦","001","Female","[""好我"",""坏我"",""坏她"",""好她""]","[""强我"",""弱我"",""弱她"",""强她""]","","","","","","","","","","","","","","","","","","","","","","","","","","","","","","feedback_test","","","","","","","",""
"659","","f","psychophysics","132","385319","0.0-8.0-1.0-4.0-0.0-0.12","3","4","3","2","1","4","2","3","4","4","5","0","0","-2","1","-1","0","1","0","4","3","5","3","4","4","5","3","4","4","7","8","5","7","5","7","6","3","8","5","1","2","3","5","2","4","1","2","2","1","2","5","5","1","2","2","4","2","3","1","2","2","1","1","6","5","6","3","7","7","5","7","5","2","4","6","5","2","5","644508738497019904","韦","001","Female","[""好我"",""坏我"",""坏她"",""好她""]","[""强我"",""弱我"",""弱她"",""强她""]","","","","","","","","nonmatch","","","","","","","","","","key","f","16.656454545454558","697.8181818181819","388.3636363636364","j","false","match","img/diamond.png","弱我","弱我","ALT2","ability","","","","","","","",""
"null","<span style='color:red; font-size: 70px;'>错误! </span>","null","html-keyboard-response","133","385837","0.0-8.0-1.0-4.0-0.0-1.12","3","4","3","2","1","4","2","3","4","4","5","0","0","-2","1","-1","0","1","0","4","3","5","3","4","4","5","3","4","4","7","8","5","7","5","7","6","3","8","5","1","2","3","5","2","4","1","2","2","1","2","5","5","1","2","2","4","2","3","1","2","2","1","1","6","5","6","3","7","7","5","7","5","2","4","6","5","2","5","644508738497019904","韦","001","Female","[""好我"",""坏我"",""坏她"",""好她""]","[""强我"",""弱我"",""弱她"",""强她""]","","","","","","","","","","","","","","","","","","","","","","","","","","","","","","feedback_test","","","","","","","",""
"1112","","j","psychophysics","134","387963","0.0-8.0-1.0-4.0-0.0-0.13","3","4","3","2","1","4","2","3","4","4","5","0","0","-2","1","-1","0","1","0","4","3","5","3","4","4","5","3","4","4","7","8","5","7","5","7","6","3","8","5","1","2","3","5","2","4","1","2","2","1","2","5","5","1","2","2","4","2","3","1","2","2","1","1","6","5","6","3","7","7","5","7","5","2","4","6","5","2","5","644508738497019904","韦","001","Female","[""好我"",""坏我"",""坏她"",""好她""]","[""强我"",""弱我"",""弱她"",""强她""]","","","","","","","","match","","","","","","","","","","key","j","16.649842519685258","697.8181818181819","388.3636363636364","f","false","nonmatch","img/circle.png","弱我","弱她","ALT2","ability","","","","","","","",""
"null","<span style='color:red; font-size: 70px;'>错误! </span>","null","html-keyboard-response","135","388474","0.0-8.0-1.0-4.0-0.0-1.13","3","4","3","2","1","4","2","3","4","4","5","0","0","-2","1","-1","0","1","0","4","3","5","3","4","4","5","3","4","4","7","8","5","7","5","7","6","3","8","5","1","2","3","5","2","4","1","2","2","1","2","5","5","1","2","2","4","2","3","1","2","2","1","1","6","5","6","3","7","7","5","7","5","2","4","6","5","2","5","644508738497019904","韦","001","Female","[""好我"",""坏我"",""坏她"",""好她""]","[""强我"",""弱我"",""弱她"",""强她""]","","","","","","","","","","","","","","","","","","","","","","","","","","","","","","feedback_test","","","","","","","",""
"1062","","f","psychophysics","136","390551","0.0-8.0-1.0-4.0-0.0-0.14","3","4","3","2","1","4","2","3","4","4","5","0","0","-2","1","-1","0","1","0","4","3","5","3","4","4","5","3","4","4","7","8","5","7","5","7","6","3","8","5","1","2","3","5","2","4","1","2","2","1","2","5","5","1","2","2","4","2","3","1","2","2","1","1","6","5","6","3","7","7","5","7","5","2","4","6","5","2","5","644508738497019904","韦","001","Female","[""好我"",""坏我"",""坏她"",""好她""]","[""强我"",""弱我"",""弱她"",""强她""]","","","","","","","","nonmatch","","","","","","","","","","key","f","16.658186991869876","697.8181818181819","388.3636363636364","f","true","nonmatch","img/square.png","弱她","强我","ALT2","ability","","","","","","","",""
