"rt","stimulus","response","trial_type","trial_index","time_elapsed","internal_node_id","swb_1","swb_2","swb_3","swb_4","swb_5","LOT_1","LOT_2","LOT_3","LOT_4","LOT_5","LOT_6","IPC_1","IPC_2","IPC_3","IPC_4","IPC_5","IPC_6","IPC_7","IPC_8","MorIden_1","MorIden_2","MorIden_3","MorIden_4","MorIden_5","MorIden_6","MorIden_7","MorIden_8","MorIden_9","MorIden_10","moralSeImag_1","moralSeImag_2","moralSeImag_3","moralSeImag_4","moralSeImag_5","moralSeImag_6","moralSeImag_7","moralSeImag_8","moralSeImag_9","sde_1","sde_2","sde_3","sde_4","sde_5","sde_6","sde_7","sde_8","sde_9","sde_10","sde_11","sde_12","sde_13","sde_14","sde_15","sde_16","sde_17","sde_18","sde_19","sde_20","IM_1","IM_2","IM_3","IM_4","IM_5","IM_6","IM_7","IM_8","IM_9","IM_10","IM_11","IM_12","IM_13","IM_14","IM_15","IM_16","IM_17","IM_18","IM_19","IM_20","subj_idx","friend_name","ParticipantID","Sex","Word","Word2","value","success","timeout","failed_images","failed_audio","failed_video","user_agent","responses","item_order","radio_event_ids","radio_event_times","key_event_times","mouse_event_times","straightlining","zigzagging","honeypot","task_id","screen_id","time_stamp","response_type","key_press","avg_frame_time","center_x","center_y","person","word","valence","domain","math","correct_response","correct","status","view_history","identity","duration","Image","condition","question_order"
"2532","
   <p><div style='color:white; font-size: 25px'>您好，欢迎参加本次实验。</div></p>
   <p><div style='color:white; font-size: 25px'>为充分保障您的权利，请确保您已经知晓并同意《参与实验同意书》以及《数据公开知情同意书》。</div></p>
   <p><div style='color:white; font-size: 25px'>如果您未见过上述内容，请咨询实验员。</div></p>
   <p style='color:white; font-size: 25px'>如果您选择继续实验，则表示您已经清楚两份知情同意书的内容并同意。</p>
   <p> <div style = ""color: green""><按空格键至下页></div> </p>
   "," ","html-keyboard-response","0","2535","0.0-0.0","5","5","5","5","3","4","3","4","4","4","4","1","0","0","0","-2","0","1","0","5","4","5","4","4","4","4","4","4","4","5","6","5","6","4","4","4","5","5","6","5","3","5","3","3","6","1","4","3","4","3","5","4","3","5","5","4","3","3","3","5","3","3","3","5","3","5","5","6","2","5","3","6","3","5","5","6","3","5","686480127940362240","董","472","Female","[""好她"",""坏她"",""好我"",""坏我""]","[""强她"",""弱她"",""强我"",""弱我""]","","","","","","","","","","","","","","","","","","","","","","","","","","","","","","","","","","","","","",""
"","","","call-function","1","2537","0.0-1.0-0.0","5","5","5","5","3","4","3","4","4","4","4","1","0","0","0","-2","0","1","0","5","4","5","4","4","4","4","4","4","4","5","6","5","6","4","4","4","5","5","6","5","3","5","3","3","6","1","4","3","4","3","5","4","3","5","5","4","3","3","3","5","3","3","3","5","3","5","5","6","2","5","3","6","3","5","5","6","3","5","686480127940362240","董","472","Female","[""好她"",""坏她"",""好我"",""坏我""]","[""强她"",""弱她"",""强我"",""弱我""]","","","","","","","","","","","","","","","","","","","","","","","","","","","","","","","","","","","","","",""
"14768","","[{""name"":""Sex"",""value"":""1""},{""name"":""friend_name"",""value"":""董""},{""name"":""ParticipantID"",""value"":""472""}]","survey-html-form","2","17308","0.0-1.0-1.0","5","5","5","5","3","4","3","4","4","4","4","1","0","0","0","-2","0","1","0","5","4","5","4","4","4","4","4","4","4","5","6","5","6","4","4","4","5","5","6","5","3","5","3","3","6","1","4","3","4","3","5","4","3","5","5","4","3","3","3","5","3","3","3","5","3","5","5","6","2","5","3","6","3","5","5","6","3","5","686480127940362240","董","472","Female","[""好她"",""坏她"",""好我"",""坏我""]","[""强她"",""弱她"",""强我"",""弱我""]","","","","","","","","","","","","","","","","","","","","","","","","","","","","","","","","","","","","","",""
"","","","preload","3","17835","0.0-2.0","5","5","5","5","3","4","3","4","4","4","4","1","0","0","0","-2","0","1","0","5","4","5","4","4","4","4","4","4","4","5","6","5","6","4","4","4","5","5","6","5","3","5","3","3","6","1","4","3","4","3","5","4","3","5","5","4","3","3","3","5","3","3","3","5","3","5","5","6","2","5","3","6","3","5","5","6","3","5","686480127940362240","董","472","Female","[""好她"",""坏她"",""好我"",""坏我""]","[""强她"",""弱她"",""强我"",""弱我""]","","true","false","[]","[]","[]","","","","","","","","","","","","","","","","","","","","","","","","","","","","","","","",""
"","","","fullscreen","4","23196","0.0-3.0","5","5","5","5","3","4","3","4","4","4","4","1","0","0","0","-2","0","1","0","5","4","5","4","4","4","4","4","4","4","5","6","5","6","4","4","4","5","5","6","5","3","5","3","3","6","1","4","3","4","3","5","4","3","5","5","4","3","3","3","5","3","3","3","5","3","5","5","6","2","5","3","6","3","5","5","6","3","5","686480127940362240","董","472","Female","[""好她"",""坏她"",""好我"",""坏我""]","[""强她"",""弱她"",""强我"",""弱我""]","","true","","","","","{}","","","","","","","","","","","","","","","","","","","","","","","","","","","","","","",""
"19589.5","","{""Q01"":""5"",""Q02"":""5"",""Q03"":""5"",""Q04"":""5"",""Q05"":""3""}","survey-template","5","42796","0.0-4.0","5","5","5","5","3","4","3","4","4","4","4","1","0","0","0","-2","0","1","0","5","4","5","4","4","4","4","4","4","4","5","6","5","6","4","4","4","5","5","6","5","3","5","3","3","6","1","4","3","4","3","5","4","3","5","5","4","3","3","3","5","3","3","3","5","3","5","5","6","2","5","3","6","3","5","5","6","3","5","686480127940362240","董","472","Female","[""好她"",""坏她"",""好我"",""坏我""]","[""强她"",""弱她"",""强我"",""弱我""]","","","","","","","","{""Q01"":""5"",""Q02"":""5"",""Q03"":""5"",""Q04"":""5"",""Q05"":""3""}","[0,1,2,3,4]","[""Q01"",""Q02"",""Q03"",""Q04"",""Q05""]","[4638.799999999988,10744.799999999988,12936.200000000012,14811.700000000012,17092.5]","[]","[4638.799999999988,10744.799999999988,12936.200000000012,14811.700000000012,17092.5,19585.70000000001]","0.8","0","0","","","","","","","","","","","","","","","","","","","","","",""
"26927.699999999953","","{""Q01"":""4"",""Q02"":""3"",""Q03"":""4"",""Q04"":""4"",""Q05"":""4"",""Q06"":""4""}","survey-template","6","69740","0.0-5.0","5","5","5","5","3","4","3","4","4","4","4","1","0","0","0","-2","0","1","0","5","4","5","4","4","4","4","4","4","4","5","6","5","6","4","4","4","5","5","6","5","3","5","3","3","6","1","4","3","4","3","5","4","3","5","5","4","3","3","3","5","3","3","3","5","3","5","5","6","2","5","3","6","3","5","5","6","3","5","686480127940362240","董","472","Female","[""好她"",""坏她"",""好我"",""坏我""]","[""强她"",""弱她"",""强我"",""弱我""]","","","","","","","","{""Q01"":""4"",""Q02"":""3"",""Q03"":""4"",""Q04"":""4"",""Q05"":""4"",""Q06"":""4""}","[0,1,2,3,4,5]","[""Q01"",""Q02"",""Q03"",""Q04"",""Q05"",""Q06""]","[3317.399999999965,8903.5,10595.199999999953,17628.899999999965,19779.099999999977,25762.400000000023]","[]","[3317.399999999965,8903.5,10595.199999999953,17628.899999999965,19779.099999999977,24188.099999999977,25762.400000000023,26925.5]","0.5","0.4","0","","","","","","","","","","","","","","","","","","","","","",""
"47329.90000000002","","{""Q01"":""1"",""Q02"":""0"",""Q03"":""0"",""Q04"":""0"",""Q05"":""-2"",""Q06"":""0"",""Q07"":""1"",""Q08"":""0""}","survey-template","7","117079","0.0-6.0","5","5","5","5","3","4","3","4","4","4","4","1","0","0","0","-2","0","1","0","5","4","5","4","4","4","4","4","4","4","5","6","5","6","4","4","4","5","5","6","5","3","5","3","3","6","1","4","3","4","3","5","4","3","5","5","4","3","3","3","5","3","3","3","5","3","5","5","6","2","5","3","6","3","5","5","6","3","5","686480127940362240","董","472","Female","[""好她"",""坏她"",""好我"",""坏我""]","[""强她"",""弱她"",""强我"",""弱我""]","","","","","","","","{""Q01"":""1"",""Q02"":""0"",""Q03"":""0"",""Q04"":""0"",""Q05"":""-2"",""Q06"":""0"",""Q07"":""1"",""Q08"":""0""}","[0,1,2,3,4,5,6,7]","[""Q01"",""Q02"",""Q03"",""Q04"",""Q04"",""Q04"",""Q05"",""Q06"",""Q07"",""Q07"",""Q08""]","[7754.100000000093,14018.5,20194,23558.900000000023,29788.5,33125.40000000002,35457.90000000002,38108.70000000007,42641.40000000002,44779.90000000002,46294.10000000009]","[]","[7754.100000000093,14018.5,20194,23558.900000000023,29788.5,33125.40000000002,35457.90000000002,38108.70000000007,42641.40000000002,44779.90000000002,46294.10000000009,47327.40000000002]","0.625","0.42857142857142855","0","","","","","","","","","","","","","","","","","","","","","",""
"25543","
    <p><div style='color:white;font-size:35px; line-height:20px;'>词汇评估任务</div></p><br>
    <p><div style='color:white;font-size:25px; line-height:20px;'>请再次回忆该亲密的朋友，你们至少2年前就认识了，并且最近2年经常见面。</div></p>
    <p><div style='color:white;font-size:25px; line-height:20px;'>在本实验中，您将会看到一些形容词。</div></p>
    <p><div style='color:yellow;font-size:25px; line-height:20px;'>您的任务是判断这些形容词是否符合对您自己或您的朋友的描述。</div></p><p style='font-size:35px'>符合按<span style=""color:lightgreen""> f 键</span>，不符合按<span style=""color:red""> j 键</span></p>","0","html-button-response","8","142631","0.0-7.0-0.0","5","5","5","5","3","4","3","4","4","4","4","1","0","0","0","-2","0","1","0","5","4","5","4","4","4","4","4","4","4","5","6","5","6","4","4","4","5","5","6","5","3","5","3","3","6","1","4","3","4","3","5","4","3","5","5","4","3","3","3","5","3","3","3","5","3","5","5","6","2","5","3","6","3","5","5","6","3","5","686480127940362240","董","472","Female","[""好她"",""坏她"",""好我"",""坏我""]","[""强她"",""弱她"",""强我"",""弱我""]","","","","","","","","","","","","","","","","","SRET_EW","EW_instructions","Tue Oct 17 2023 19:49:28 GMT+0800 (中国标准时间)","","","","","","","","","","","","","","","","","","",""
"1540","","f","psychophysics","9","145184","0.0-7.0-1.0-0.0","5","5","5","5","3","4","3","4","4","4","4","1","0","0","0","-2","0","1","0","5","4","5","4","4","4","4","4","4","4","5","6","5","6","4","4","4","5","5","6","5","3","5","3","3","6","1","4","3","4","3","5","4","3","5","5","4","3","3","3","5","3","3","3","5","3","5","5","6","2","5","3","6","3","5","5","6","3","5","686480127940362240","董","472","Female","[""好她"",""坏她"",""好我"",""坏我""]","[""强她"",""弱她"",""强我"",""弱我""]","","","","","","","","yes","","","","","","","","","SRET_EW","EW_practice","","key","f","16.887119205297928","720","476","自己","严谨","Positive","ability","","","","","","","","","",""
"4071","","f","psychophysics","10","150263","0.0-7.0-1.0-0.1","5","5","5","5","3","4","3","4","4","4","4","1","0","0","0","-2","0","1","0","5","4","5","4","4","4","4","4","4","4","5","6","5","6","4","4","4","5","5","6","5","3","5","3","3","6","1","4","3","4","3","5","4","3","5","5","4","3","3","3","5","3","3","3","5","3","5","5","6","2","5","3","6","3","5","5","6","3","5","686480127940362240","董","472","Female","[""好她"",""坏她"",""好我"",""坏我""]","[""强她"",""弱她"",""强我"",""弱我""]","","","","","","","","yes","","","","","","","","","SRET_EW","EW_practice","","key","f","16.66647368421055","720","476","自己","刻板","Negative","ability","","","","","","","","","",""
"782","","f","psychophysics","11","152061","0.0-7.0-1.0-0.2","5","5","5","5","3","4","3","4","4","4","4","1","0","0","0","-2","0","1","0","5","4","5","4","4","4","4","4","4","4","5","6","5","6","4","4","4","5","5","6","5","3","5","3","3","6","1","4","3","4","3","5","4","3","5","5","4","3","3","3","5","3","3","3","5","3","5","5","6","2","5","3","6","3","5","5","6","3","5","686480127940362240","董","472","Female","[""好她"",""坏她"",""好我"",""坏我""]","[""强她"",""弱她"",""强我"",""弱我""]","","","","","","","","yes","","","","","","","","","SRET_EW","EW_practice","","key","f","16.822594339622707","720","476","朋友","忠实","Positive","morality","","","","","","","","","",""
"779","","j","psychophysics","12","153855","0.0-7.0-1.0-0.3","5","5","5","5","3","4","3","4","4","4","4","1","0","0","0","-2","0","1","0","5","4","5","4","4","4","4","4","4","4","5","6","5","6","4","4","4","5","5","6","5","3","5","3","3","6","1","4","3","4","3","5","4","3","5","5","4","3","3","3","5","3","3","3","5","3","5","5","6","2","5","3","6","3","5","5","6","3","5","686480127940362240","董","472","Female","[""好她"",""坏她"",""好我"",""坏我""]","[""强她"",""弱她"",""强我"",""弱我""]","","","","","","","","no","","","","","","","","","SRET_EW","EW_practice","","key","j","16.82344339622645","720","476","朋友","徇私","Negative","morality","","","","","","","","","",""
"12877","
    <p><div style='color:white;font-size:35px; line-height:20px;'>请您再次阅读实验要求</div></p><br>
    <p><div style='color:white;font-size:25px; line-height:20px;'>请回忆某一个亲密的朋友，你们至少2年前就认识了，并且最近2年经常见面。</div></p>
    <p><div style='color:white;font-size:25px; line-height:20px;'>在本实验中，您将会看到一些形容词。</div></p>
    <p><div style='color:yellow;font-size:25px; line-height:20px;'>您的任务是判断这些形容词是否符合对您自己或您的朋友的描述。</div></p>
    <p><div class='footer' style='font-size:25px; line-height:20px;'>如果对本实验还有不清楚之处，请立即向实验员咨询。</p><p style='font-size:25px; line-height:20px;'>如果您明白了规则：</p><p style='font-size:22px; line-height:20px;'>请按 继续 进入正式实验</p>
    </div>
    <p style='font-size:35px'>符合按<span style=""color:lightgreen""> f 键</span>，不符合按<span style=""color:red""> j 键</span></p>","0","html-button-response","13","166736","0.0-7.0-2.0","5","5","5","5","3","4","3","4","4","4","4","1","0","0","0","-2","0","1","0","5","4","5","4","4","4","4","4","4","4","5","6","5","6","4","4","4","5","5","6","5","3","5","3","3","6","1","4","3","4","3","5","4","3","5","5","4","3","3","3","5","3","3","3","5","3","5","5","6","2","5","3","6","3","5","5","6","3","5","686480127940362240","董","472","Female","[""好她"",""坏她"",""好我"",""坏我""]","[""强她"",""弱她"",""强我"",""弱我""]","","","","","","","","","","","","","","","","","SRET_EW","prac_instructions","Tue Oct 17 2023 19:49:28 GMT+0800 (中国标准时间)","","","","","","","","","","","","","","","","","","",""
"2102","","j","psychophysics","14","169857","0.0-7.0-3.0-0.0","5","5","5","5","3","4","3","4","4","4","4","1","0","0","0","-2","0","1","0","5","4","5","4","4","4","4","4","4","4","5","6","5","6","4","4","4","5","5","6","5","3","5","3","3","6","1","4","3","4","3","5","4","3","5","5","4","3","3","3","5","3","3","3","5","3","5","5","6","2","5","3","6","3","5","5","6","3","5","686480127940362240","董","472","Female","[""好她"",""坏她"",""好我"",""坏我""]","[""强她"",""弱她"",""强我"",""弱我""]","","","","","","","","no","","","","","","","","","SRET","EW_formal","","key","j","17.026677595628325","720","476","朋友","迷糊","Negative","ability","","","","","","","","","",""
"820","","f","psychophysics","15","171680","0.0-7.0-3.0-0.1","5","5","5","5","3","4","3","4","4","4","4","1","0","0","0","-2","0","1","0","5","4","5","4","4","4","4","4","4","4","5","6","5","6","4","4","4","5","5","6","5","3","5","3","3","6","1","4","3","4","3","5","4","3","5","5","4","3","3","3","5","3","3","3","5","3","5","5","6","2","5","3","6","3","5","5","6","3","5","686480127940362240","董","472","Female","[""好她"",""坏她"",""好我"",""坏我""]","[""强她"",""弱她"",""强我"",""弱我""]","","","","","","","","yes","","","","","","","","","SRET","EW_formal","","key","f","16.98070754716969","720","476","自己","坚贞","Positive","morality","","","","","","","","","",""
"938","","f","psychophysics","16","173620","0.0-7.0-3.0-0.2","5","5","5","5","3","4","3","4","4","4","4","1","0","0","0","-2","0","1","0","5","4","5","4","4","4","4","4","4","4","5","6","5","6","4","4","4","5","5","6","5","3","5","3","3","6","1","4","3","4","3","5","4","3","5","5","4","3","3","3","5","3","3","3","5","3","5","5","6","2","5","3","6","3","5","5","6","3","5","686480127940362240","董","472","Female","[""好她"",""坏她"",""好我"",""坏我""]","[""强她"",""弱她"",""强我"",""弱我""]","","","","","","","","yes","","","","","","","","","SRET","EW_formal","","key","f","16.666252173913097","720","476","朋友","务实","Positive","ability","","","","","","","","","",""
"1186","","j","psychophysics","17","175809","0.0-7.0-3.0-0.3","5","5","5","5","3","4","3","4","4","4","4","1","0","0","0","-2","0","1","0","5","4","5","4","4","4","4","4","4","4","5","6","5","6","4","4","4","5","5","6","5","3","5","3","3","6","1","4","3","4","3","5","4","3","5","5","4","3","3","3","5","3","3","3","5","3","5","5","6","2","5","3","6","3","5","5","6","3","5","686480127940362240","董","472","Female","[""好她"",""坏她"",""好我"",""坏我""]","[""强她"",""弱她"",""强我"",""弱我""]","","","","","","","","no","","","","","","","","","SRET","EW_formal","","key","j","16.79529457364336","720","476","自己","说谎","Negative","morality","","","","","","","","","",""
"943","","f","psychophysics","18","177770","0.0-7.0-3.0-0.4","5","5","5","5","3","4","3","4","4","4","4","1","0","0","0","-2","0","1","0","5","4","5","4","4","4","4","4","4","4","5","6","5","6","4","4","4","5","5","6","5","3","5","3","3","6","1","4","3","4","3","5","4","3","5","5","4","3","3","3","5","3","3","3","5","3","5","5","6","2","5","3","6","3","5","5","6","3","5","686480127940362240","董","472","Female","[""好她"",""坏她"",""好我"",""坏我""]","[""强她"",""弱她"",""强我"",""弱我""]","","","","","","","","yes","","","","","","","","","SRET","EW_formal","","key","f","16.666084745762696","720","476","朋友","细心","Positive","ability","","","","","","","","","",""
"747","","f","psychophysics","19","179532","0.0-7.0-3.0-0.5","5","5","5","5","3","4","3","4","4","4","4","1","0","0","0","-2","0","1","0","5","4","5","4","4","4","4","4","4","4","5","6","5","6","4","4","4","5","5","6","5","3","5","3","3","6","1","4","3","4","3","5","4","3","5","5","4","3","3","3","5","3","3","3","5","3","5","5","6","2","5","3","6","3","5","5","6","3","5","686480127940362240","董","472","Female","[""好她"",""坏她"",""好我"",""坏我""]","[""强她"",""弱她"",""强我"",""弱我""]","","","","","","","","yes","","","","","","","","","SRET","EW_formal","","key","f","16.66621153846175","720","476","朋友","刚正","Positive","morality","","","","","","","","","",""
"609","","f","psychophysics","20","181156","0.0-7.0-3.0-0.6","5","5","5","5","3","4","3","4","4","4","4","1","0","0","0","-2","0","1","0","5","4","5","4","4","4","4","4","4","4","5","6","5","6","4","4","4","5","5","6","5","3","5","3","3","6","1","4","3","4","3","5","4","3","5","5","4","3","3","3","5","3","3","3","5","3","5","5","6","2","5","3","6","3","5","5","6","3","5","686480127940362240","董","472","Female","[""好她"",""坏她"",""好我"",""坏我""]","[""强她"",""弱她"",""强我"",""弱我""]","","","","","","","","yes","","","","","","","","","SRET","EW_formal","","key","f","16.84168421052623","720","476","朋友","宽容","Positive","morality","","","","","","","","","",""
"573","","f","psychophysics","21","182735","0.0-7.0-3.0-0.7","5","5","5","5","3","4","3","4","4","4","4","1","0","0","0","-2","0","1","0","5","4","5","4","4","4","4","4","4","4","5","6","5","6","4","4","4","5","5","6","5","3","5","3","3","6","1","4","3","4","3","5","4","3","5","5","4","3","3","3","5","3","3","3","5","3","5","5","6","2","5","3","6","3","5","5","6","3","5","686480127940362240","董","472","Female","[""好她"",""坏她"",""好我"",""坏我""]","[""强她"",""弱她"",""强我"",""弱我""]","","","","","","","","yes","","","","","","","","","SRET","EW_formal","","key","f","16.666563829787304","720","476","自己","果断","Positive","ability","","","","","","","","","",""
"829","","f","psychophysics","22","184567","0.0-7.0-3.0-0.8","5","5","5","5","3","4","3","4","4","4","4","1","0","0","0","-2","0","1","0","5","4","5","4","4","4","4","4","4","4","5","6","5","6","4","4","4","5","5","6","5","3","5","3","3","6","1","4","3","4","3","5","4","3","5","5","4","3","3","3","5","3","3","3","5","3","5","5","6","2","5","3","6","3","5","5","6","3","5","686480127940362240","董","472","Female","[""好她"",""坏她"",""好我"",""坏我""]","[""强她"",""弱她"",""强我"",""弱我""]","","","","","","","","yes","","","","","","","","","SRET","EW_formal","","key","f","16.82075925925919","720","476","朋友","肯干","Positive","ability","","","","","","","","","",""
"2737","","j","psychophysics","23","188309","0.0-7.0-3.0-0.9","5","5","5","5","3","4","3","4","4","4","4","1","0","0","0","-2","0","1","0","5","4","5","4","4","4","4","4","4","4","5","6","5","6","4","4","4","5","5","6","5","3","5","3","3","6","1","4","3","4","3","5","4","3","5","5","4","3","3","3","5","3","3","3","5","3","5","5","6","2","5","3","6","3","5","5","6","3","5","686480127940362240","董","472","Female","[""好她"",""坏她"",""好我"",""坏我""]","[""强她"",""弱她"",""强我"",""弱我""]","","","","","","","","no","","","","","","","","","SRET","EW_formal","","key","j","16.74139013452909","720","476","自己","庸碌","Negative","ability","","","","","","","","","",""
"737","","f","psychophysics","24","190048","0.0-7.0-3.0-0.10","5","5","5","5","3","4","3","4","4","4","4","1","0","0","0","-2","0","1","0","5","4","5","4","4","4","4","4","4","4","5","6","5","6","4","4","4","5","5","6","5","3","5","3","3","6","1","4","3","4","3","5","4","3","5","5","4","3","3","3","5","3","3","3","5","3","5","5","6","2","5","3","6","3","5","5","6","3","5","686480127940362240","董","472","Female","[""好她"",""坏她"",""好我"",""坏我""]","[""强她"",""弱她"",""强我"",""弱我""]","","","","","","","","yes","","","","","","","","","SRET","EW_formal","","key","f","16.665893203883492","720","476","自己","忠诚","Positive","morality","","","","","","","","","",""
"944","","j","psychophysics","25","191996","0.0-7.0-3.0-0.11","5","5","5","5","3","4","3","4","4","4","4","1","0","0","0","-2","0","1","0","5","4","5","4","4","4","4","4","4","4","5","6","5","6","4","4","4","5","5","6","5","3","5","3","3","6","1","4","3","4","3","5","4","3","5","5","4","3","3","3","5","3","3","3","5","3","5","5","6","2","5","3","6","3","5","5","6","3","5","686480127940362240","董","472","Female","[""好她"",""坏她"",""好我"",""坏我""]","[""强她"",""弱她"",""强我"",""弱我""]","","","","","","","","no","","","","","","","","","SRET","EW_formal","","key","j","16.66617241379296","720","476","朋友","腐败","Negative","morality","","","","","","","","","",""
"657","","j","psychophysics","26","193668","0.0-7.0-3.0-0.12","5","5","5","5","3","4","3","4","4","4","4","1","0","0","0","-2","0","1","0","5","4","5","4","4","4","4","4","4","4","5","6","5","6","4","4","4","5","5","6","5","3","5","3","3","6","1","4","3","4","3","5","4","3","5","5","4","3","3","3","5","3","3","3","5","3","5","5","6","2","5","3","6","3","5","5","6","3","5","686480127940362240","董","472","Female","[""好她"",""坏她"",""好我"",""坏我""]","[""强她"",""弱她"",""强我"",""弱我""]","","","","","","","","no","","","","","","","","","SRET","EW_formal","","key","j","16.66591919191926","720","476","朋友","窝囊","Negative","ability","","","","","","","","","",""
"1164","","j","psychophysics","27","195841","0.0-7.0-3.0-0.13","5","5","5","5","3","4","3","4","4","4","4","1","0","0","0","-2","0","1","0","5","4","5","4","4","4","4","4","4","4","5","6","5","6","4","4","4","5","5","6","5","3","5","3","3","6","1","4","3","4","3","5","4","3","5","5","4","3","3","3","5","3","3","3","5","3","5","5","6","2","5","3","6","3","5","5","6","3","5","686480127940362240","董","472","Female","[""好她"",""坏她"",""好我"",""坏我""]","[""强她"",""弱她"",""强我"",""弱我""]","","","","","","","","no","","","","","","","","","SRET","EW_formal","","key","j","16.666376923076818","720","476","朋友","拖拉","Negative","ability","","","","","","","","","",""
"1053","","j","psychophysics","28","197910","0.0-7.0-3.0-0.14","5","5","5","5","3","4","3","4","4","4","4","1","0","0","0","-2","0","1","0","5","4","5","4","4","4","4","4","4","4","5","6","5","6","4","4","4","5","5","6","5","3","5","3","3","6","1","4","3","4","3","5","4","3","5","5","4","3","3","3","5","3","3","3","5","3","5","5","6","2","5","3","6","3","5","5","6","3","5","686480127940362240","董","472","Female","[""好她"",""坏她"",""好我"",""坏我""]","[""强她"",""弱她"",""强我"",""弱我""]","","","","","","","","no","","","","","","","","","SRET","EW_formal","","key","j","16.803040983606717","720","476","自己","缺德","Negative","morality","","","","","","","","","",""
"1457","","j","psychophysics","29","200370","0.0-7.0-3.0-0.15","5","5","5","5","3","4","3","4","4","4","4","1","0","0","0","-2","0","1","0","5","4","5","4","4","4","4","4","4","4","5","6","5","6","4","4","4","5","5","6","5","3","5","3","3","6","1","4","3","4","3","5","4","3","5","5","4","3","3","3","5","3","3","3","5","3","5","5","6","2","5","3","6","3","5","5","6","3","5","686480127940362240","董","472","Female","[""好她"",""坏她"",""好我"",""坏我""]","[""强她"",""弱她"",""强我"",""弱我""]","","","","","","","","no","","","","","","","","","SRET","EW_formal","","key","j","16.666616438356172","720","476","朋友","差生","Negative","ability","","","","","","","","","",""
"1022","","j","psychophysics","30","202396","0.0-7.0-3.0-0.16","5","5","5","5","3","4","3","4","4","4","4","1","0","0","0","-2","0","1","0","5","4","5","4","4","4","4","4","4","4","5","6","5","6","4","4","4","5","5","6","5","3","5","3","3","6","1","4","3","4","3","5","4","3","5","5","4","3","3","3","5","3","3","3","5","3","5","5","6","2","5","3","6","3","5","5","6","3","5","686480127940362240","董","472","Female","[""好她"",""坏她"",""好我"",""坏我""]","[""强她"",""弱她"",""强我"",""弱我""]","","","","","","","","no","","","","","","","","","SRET","EW_formal","","key","j","16.805491666666786","720","476","自己","蛇蝎","Negative","morality","","","","","","","","","",""
"1211","","j","psychophysics","31","204623","0.0-7.0-3.0-0.17","5","5","5","5","3","4","3","4","4","4","4","1","0","0","0","-2","0","1","0","5","4","5","4","4","4","4","4","4","4","5","6","5","6","4","4","4","5","5","6","5","3","5","3","3","6","1","4","3","4","3","5","4","3","5","5","4","3","3","3","5","3","3","3","5","3","5","5","6","2","5","3","6","3","5","5","6","3","5","686480127940362240","董","472","Female","[""好她"",""坏她"",""好我"",""坏我""]","[""强她"",""弱她"",""强我"",""弱我""]","","","","","","","","no","","","","","","","","","SRET","EW_formal","","key","j","16.79376335877846","720","476","朋友","高明","Positive","ability","","","","","","","","","",""
"861","","f","psychophysics","32","206491","0.0-7.0-3.0-0.18","5","5","5","5","3","4","3","4","4","4","4","1","0","0","0","-2","0","1","0","5","4","5","4","4","4","4","4","4","4","5","6","5","6","4","4","4","5","5","6","5","3","5","3","3","6","1","4","3","4","3","5","4","3","5","5","4","3","3","3","5","3","3","3","5","3","5","5","6","2","5","3","6","3","5","5","6","3","5","686480127940362240","董","472","Female","[""好她"",""坏她"",""好我"",""坏我""]","[""强她"",""弱她"",""强我"",""弱我""]","","","","","","","","yes","","","","","","","","","SRET","EW_formal","","key","f","16.66629729729732","720","476","自己","义气","Positive","morality","","","","","","","","","",""
"1087","","f","psychophysics","33","208593","0.0-7.0-3.0-0.19","5","5","5","5","3","4","3","4","4","4","4","1","0","0","0","-2","0","1","0","5","4","5","4","4","4","4","4","4","4","5","6","5","6","4","4","4","5","5","6","5","3","5","3","3","6","1","4","3","4","3","5","4","3","5","5","4","3","3","3","5","3","3","3","5","3","5","5","6","2","5","3","6","3","5","5","6","3","5","686480127940362240","董","472","Female","[""好她"",""坏她"",""好我"",""坏我""]","[""强她"",""弱她"",""强我"",""弱我""]","","","","","","","","yes","","","","","","","","","SRET","EW_formal","","key","f","16.6664682539683","720","476","自己","利己","Negative","morality","","","","","","","","","",""
"1006","","f","psychophysics","34","210609","0.0-7.0-3.0-0.20","5","5","5","5","3","4","3","4","4","4","4","1","0","0","0","-2","0","1","0","5","4","5","4","4","4","4","4","4","4","5","6","5","6","4","4","4","5","5","6","5","3","5","3","3","6","1","4","3","4","3","5","4","3","5","5","4","3","3","3","5","3","3","3","5","3","5","5","6","2","5","3","6","3","5","5","6","3","5","686480127940362240","董","472","Female","[""好她"",""坏她"",""好我"",""坏我""]","[""强她"",""弱她"",""强我"",""弱我""]","","","","","","","","yes","","","","","","","","","SRET","EW_formal","","key","f","16.666125000000225","720","476","自己","有力","Positive","ability","","","","","","","","","",""
"744","","f","psychophysics","35","212361","0.0-7.0-3.0-0.21","5","5","5","5","3","4","3","4","4","4","4","1","0","0","0","-2","0","1","0","5","4","5","4","4","4","4","4","4","4","5","6","5","6","4","4","4","5","5","6","5","3","5","3","3","6","1","4","3","4","3","5","4","3","5","5","4","3","3","3","5","3","3","3","5","3","5","5","6","2","5","3","6","3","5","5","6","3","5","686480127940362240","董","472","Female","[""好她"",""坏她"",""好我"",""坏我""]","[""强她"",""弱她"",""强我"",""弱我""]","","","","","","","","yes","","","","","","","","","SRET","EW_formal","","key","f","16.82822330097088","720","476","朋友","仁爱","Positive","morality","","","","","","","","","",""
"1181","","j","psychophysics","36","214554","0.0-7.0-3.0-0.22","5","5","5","5","3","4","3","4","4","4","4","1","0","0","0","-2","0","1","0","5","4","5","4","4","4","4","4","4","4","5","6","5","6","4","4","4","5","5","6","5","3","5","3","3","6","1","4","3","4","3","5","4","3","5","5","4","3","3","3","5","3","3","3","5","3","5","5","6","2","5","3","6","3","5","5","6","3","5","686480127940362240","董","472","Female","[""好她"",""坏她"",""好我"",""坏我""]","[""强她"",""弱她"",""强我"",""弱我""]","","","","","","","","no","","","","","","","","","SRET","EW_formal","","key","j","16.795325581395193","720","476","朋友","自私","Negative","morality","","","","","","","","","",""
"909","","f","psychophysics","37","216477","0.0-7.0-3.0-0.23","5","5","5","5","3","4","3","4","4","4","4","1","0","0","0","-2","0","1","0","5","4","5","4","4","4","4","4","4","4","5","6","5","6","4","4","4","5","5","6","5","3","5","3","3","6","1","4","3","4","3","5","4","3","5","5","4","3","3","3","5","3","3","3","5","3","5","5","6","2","5","3","6","3","5","5","6","3","5","686480127940362240","董","472","Female","[""好她"",""坏她"",""好我"",""坏我""]","[""强她"",""弱她"",""强我"",""弱我""]","","","","","","","","yes","","","","","","","","","SRET","EW_formal","","key","f","16.81356637168133","720","476","自己","善心","Positive","morality","","","","","","","","","",""
"1455","","j","psychophysics","38","218943","0.0-7.0-3.0-0.24","5","5","5","5","3","4","3","4","4","4","4","1","0","0","0","-2","0","1","0","5","4","5","4","4","4","4","4","4","4","5","6","5","6","4","4","4","5","5","6","5","3","5","3","3","6","1","4","3","4","3","5","4","3","5","5","4","3","3","3","5","3","3","3","5","3","5","5","6","2","5","3","6","3","5","5","6","3","5","686480127940362240","董","472","Female","[""好她"",""坏她"",""好我"",""坏我""]","[""强她"",""弱她"",""强我"",""弱我""]","","","","","","","","no","","","","","","","","","SRET","EW_formal","","key","j","16.665945578231295","720","476","朋友","全才","Positive","ability","","","","","","","","","",""
"1607","","j","psychophysics","39","221557","0.0-7.0-3.0-0.25","5","5","5","5","3","4","3","4","4","4","4","1","0","0","0","-2","0","1","0","5","4","5","4","4","4","4","4","4","4","5","6","5","6","4","4","4","5","5","6","5","3","5","3","3","6","1","4","3","4","3","5","4","3","5","5","4","3","3","3","5","3","3","3","5","3","5","5","6","2","5","3","6","3","5","5","6","3","5","686480127940362240","董","472","Female","[""好她"",""坏她"",""好我"",""坏我""]","[""强她"",""弱她"",""强我"",""弱我""]","","","","","","","","no","","","","","","","","","SRET","EW_formal","","key","j","16.666222929936175","720","476","自己","迟钝","Negative","ability","","","","","","","","","",""
"3298","","j","psychophysics","40","225869","0.0-7.0-3.0-0.26","5","5","5","5","3","4","3","4","4","4","4","1","0","0","0","-2","0","1","0","5","4","5","4","4","4","4","4","4","4","5","6","5","6","4","4","4","5","5","6","5","3","5","3","3","6","1","4","3","4","3","5","4","3","5","5","4","3","3","3","5","3","3","3","5","3","5","5","6","2","5","3","6","3","5","5","6","3","5","686480127940362240","董","472","Female","[""好她"",""坏她"",""好我"",""坏我""]","[""强她"",""弱她"",""强我"",""弱我""]","","","","","","","","no","","","","","","","","","SRET","EW_formal","","key","j","16.666389105058318","720","476","自己","屈才","Negative","ability","","","","","","","","","",""
"775","","f","psychophysics","41","227661","0.0-7.0-3.0-0.27","5","5","5","5","3","4","3","4","4","4","4","1","0","0","0","-2","0","1","0","5","4","5","4","4","4","4","4","4","4","5","6","5","6","4","4","4","5","5","6","5","3","5","3","3","6","1","4","3","4","3","5","4","3","5","5","4","3","3","3","5","3","3","3","5","3","5","5","6","2","5","3","6","3","5","5","6","3","5","686480127940362240","董","472","Female","[""好她"",""坏她"",""好我"",""坏我""]","[""强她"",""弱她"",""强我"",""弱我""]","","","","","","","","yes","","","","","","","","","SRET","EW_formal","","key","f","16.66629906542078","720","476","朋友","思辨","Positive","ability","","","","","","","","","",""
"1352","","f","psychophysics","42","230022","0.0-7.0-3.0-0.28","5","5","5","5","3","4","3","4","4","4","4","1","0","0","0","-2","0","1","0","5","4","5","4","4","4","4","4","4","4","5","6","5","6","4","4","4","5","5","6","5","3","5","3","3","6","1","4","3","4","3","5","4","3","5","5","4","3","3","3","5","3","3","3","5","3","5","5","6","2","5","3","6","3","5","5","6","3","5","686480127940362240","董","472","Female","[""好她"",""坏她"",""好我"",""坏我""]","[""强她"",""弱她"",""强我"",""弱我""]","","","","","","","","yes","","","","","","","","","SRET","EW_formal","","key","f","16.78545000000013","720","476","朋友","高效","Positive","ability","","","","","","","","","",""
"947","","f","psychophysics","43","231975","0.0-7.0-3.0-0.29","5","5","5","5","3","4","3","4","4","4","4","1","0","0","0","-2","0","1","0","5","4","5","4","4","4","4","4","4","4","5","6","5","6","4","4","4","5","5","6","5","3","5","3","3","6","1","4","3","4","3","5","4","3","5","5","4","3","3","3","5","3","3","3","5","3","5","5","6","2","5","3","6","3","5","5","6","3","5","686480127940362240","董","472","Female","[""好她"",""坏她"",""好我"",""坏我""]","[""强她"",""弱她"",""强我"",""弱我""]","","","","","","","","yes","","","","","","","","","SRET","EW_formal","","key","f","16.811295652173904","720","476","朋友","马虎","Negative","ability","","","","","","","","","",""
"1135","","f","psychophysics","44","234113","0.0-7.0-3.0-0.30","5","5","5","5","3","4","3","4","4","4","4","1","0","0","0","-2","0","1","0","5","4","5","4","4","4","4","4","4","4","5","6","5","6","4","4","4","5","5","6","5","3","5","3","3","6","1","4","3","4","3","5","4","3","5","5","4","3","3","3","5","3","3","3","5","3","5","5","6","2","5","3","6","3","5","5","6","3","5","686480127940362240","董","472","Female","[""好她"",""坏她"",""好我"",""坏我""]","[""强她"",""弱她"",""强我"",""弱我""]","","","","","","","","yes","","","","","","","","","SRET","EW_formal","","key","f","16.666362204724386","720","476","自己","独立","Positive","ability","","","","","","","","","",""
"684","","f","psychophysics","45","235802","0.0-7.0-3.0-0.31","5","5","5","5","3","4","3","4","4","4","4","1","0","0","0","-2","0","1","0","5","4","5","4","4","4","4","4","4","4","5","6","5","6","4","4","4","5","5","6","5","3","5","3","3","6","1","4","3","4","3","5","4","3","5","5","4","3","3","3","5","3","3","3","5","3","5","5","6","2","5","3","6","3","5","5","6","3","5","686480127940362240","董","472","Female","[""好她"",""坏她"",""好我"",""坏我""]","[""强她"",""弱她"",""强我"",""弱我""]","","","","","","","","yes","","","","","","","","","SRET","EW_formal","","key","f","16.666319999999832","720","476","朋友","忠义","Positive","morality","","","","","","","","","",""
"847","","j","psychophysics","46","237662","0.0-7.0-3.0-0.32","5","5","5","5","3","4","3","4","4","4","4","1","0","0","0","-2","0","1","0","5","4","5","4","4","4","4","4","4","4","5","6","5","6","4","4","4","5","5","6","5","3","5","3","3","6","1","4","3","4","3","5","4","3","5","5","4","3","3","3","5","3","3","3","5","3","5","5","6","2","5","3","6","3","5","5","6","3","5","686480127940362240","董","472","Female","[""好她"",""坏她"",""好我"",""坏我""]","[""强她"",""弱她"",""强我"",""弱我""]","","","","","","","","no","","","","","","","","","SRET","EW_formal","","key","j","16.66633333333323","720","476","自己","不良","Negative","morality","","","","","","","","","",""
"772","","j","psychophysics","47","239437","0.0-7.0-3.0-0.33","5","5","5","5","3","4","3","4","4","4","4","1","0","0","0","-2","0","1","0","5","4","5","4","4","4","4","4","4","4","5","6","5","6","4","4","4","5","5","6","5","3","5","3","3","6","1","4","3","4","3","5","4","3","5","5","4","3","3","3","5","3","3","3","5","3","5","5","6","2","5","3","6","3","5","5","6","3","5","686480127940362240","董","472","Female","[""好她"",""坏她"",""好我"",""坏我""]","[""强她"",""弱她"",""强我"",""弱我""]","","","","","","","","no","","","","","","","","","SRET","EW_formal","","key","j","16.666247619047674","720","476","自己","混账","Negative","morality","","","","","","","","","",""
"1001","","j","psychophysics","48","241442","0.0-7.0-3.0-0.34","5","5","5","5","3","4","3","4","4","4","4","1","0","0","0","-2","0","1","0","5","4","5","4","4","4","4","4","4","4","5","6","5","6","4","4","4","5","5","6","5","3","5","3","3","6","1","4","3","4","3","5","4","3","5","5","4","3","3","3","5","3","3","3","5","3","5","5","6","2","5","3","6","3","5","5","6","3","5","686480127940362240","董","472","Female","[""好她"",""坏她"",""好我"",""坏我""]","[""强她"",""弱她"",""强我"",""弱我""]","","","","","","","","no","","","","","","","","","SRET","EW_formal","","key","j","16.666310924369725","720","476","朋友","无知","Negative","ability","","","","","","","","","",""
"641","","j","psychophysics","49","243086","0.0-7.0-3.0-0.35","5","5","5","5","3","4","3","4","4","4","4","1","0","0","0","-2","0","1","0","5","4","5","4","4","4","4","4","4","4","5","6","5","6","4","4","4","5","5","6","5","3","5","3","3","6","1","4","3","4","3","5","4","3","5","5","4","3","3","3","5","3","3","3","5","3","5","5","6","2","5","3","6","3","5","5","6","3","5","686480127940362240","董","472","Female","[""好她"",""坏她"",""好我"",""坏我""]","[""强她"",""弱她"",""强我"",""弱我""]","","","","","","","","no","","","","","","","","","SRET","EW_formal","","key","j","16.83636734693885","720","476","自己","无耻","Negative","morality","","","","","","","","","",""
"2609","","j","psychophysics","50","246713","0.0-7.0-3.0-0.36","5","5","5","5","3","4","3","4","4","4","4","1","0","0","0","-2","0","1","0","5","4","5","4","4","4","4","4","4","4","5","6","5","6","4","4","4","5","5","6","5","3","5","3","3","6","1","4","3","4","3","5","4","3","5","5","4","3","3","3","5","3","3","3","5","3","5","5","6","2","5","3","6","3","5","5","6","3","5","686480127940362240","董","472","Female","[""好她"",""坏她"",""好我"",""坏我""]","[""强她"",""弱她"",""强我"",""弱我""]","","","","","","","","no","","","","","","","","","SRET","EW_formal","","key","j","16.901122065727762","720","476","自己","学霸","Positive","ability","","","","","","","","","",""
"1629","","j","psychophysics","51","249347","0.0-7.0-3.0-0.37","5","5","5","5","3","4","3","4","4","4","4","1","0","0","0","-2","0","1","0","5","4","5","4","4","4","4","4","4","4","5","6","5","6","4","4","4","5","5","6","5","3","5","3","3","6","1","4","3","4","3","5","4","3","5","5","4","3","3","3","5","3","3","3","5","3","5","5","6","2","5","3","6","3","5","5","6","3","5","686480127940362240","董","472","Female","[""好她"",""坏她"",""好我"",""坏我""]","[""强她"",""弱她"",""强我"",""弱我""]","","","","","","","","no","","","","","","","","","SRET","EW_formal","","key","j","16.77317948717936","720","476","自己","自律","Positive","ability","","","","","","","","","",""
"800","","j","psychophysics","52","251152","0.0-7.0-3.0-0.38","5","5","5","5","3","4","3","4","4","4","4","1","0","0","0","-2","0","1","0","5","4","5","4","4","4","4","4","4","4","5","6","5","6","4","4","4","5","5","6","5","3","5","3","3","6","1","4","3","4","3","5","4","3","5","5","4","3","3","3","5","3","3","3","5","3","5","5","6","2","5","3","6","3","5","5","6","3","5","686480127940362240","董","472","Female","[""好她"",""坏她"",""好我"",""坏我""]","[""强她"",""弱她"",""强我"",""弱我""]","","","","","","","","no","","","","","","","","","SRET","EW_formal","","key","j","16.66628037383165","720","476","自己","不孝","Negative","morality","","","","","","","","","",""
"666","","j","psychophysics","53","252827","0.0-7.0-3.0-0.39","5","5","5","5","3","4","3","4","4","4","4","1","0","0","0","-2","0","1","0","5","4","5","4","4","4","4","4","4","4","5","6","5","6","4","4","4","5","5","6","5","3","5","3","3","6","1","4","3","4","3","5","4","3","5","5","4","3","3","3","5","3","3","3","5","3","5","5","6","2","5","3","6","3","5","5","6","3","5","686480127940362240","董","472","Female","[""好她"",""坏她"",""好我"",""坏我""]","[""强她"",""弱她"",""强我"",""弱我""]","","","","","","","","no","","","","","","","","","SRET","EW_formal","","key","j","16.834686868686777","720","476","朋友","龌龊","Negative","morality","","","","","","","","","",""
"812","","j","psychophysics","54","254653","0.0-7.0-3.0-0.40","5","5","5","5","3","4","3","4","4","4","4","1","0","0","0","-2","0","1","0","5","4","5","4","4","4","4","4","4","4","5","6","5","6","4","4","4","5","5","6","5","3","5","3","3","6","1","4","3","4","3","5","4","3","5","5","4","3","3","3","5","3","3","3","5","3","5","5","6","2","5","3","6","3","5","5","6","3","5","686480127940362240","董","472","Female","[""好她"",""坏她"",""好我"",""坏我""]","[""强她"",""弱她"",""强我"",""弱我""]","","","","","","","","no","","","","","","","","","SRET","EW_formal","","key","j","16.666339449541496","720","476","自己","伪善","Negative","morality","","","","","","","","","",""
"1119","","f","psychophysics","55","256785","0.0-7.0-3.0-0.41","5","5","5","5","3","4","3","4","4","4","4","1","0","0","0","-2","0","1","0","5","4","5","4","4","4","4","4","4","4","5","6","5","6","4","4","4","5","5","6","5","3","5","3","3","6","1","4","3","4","3","5","4","3","5","5","4","3","3","3","5","3","3","3","5","3","5","5","6","2","5","3","6","3","5","5","6","3","5","686480127940362240","董","472","Female","[""好她"",""坏她"",""好我"",""坏我""]","[""强她"",""弱她"",""强我"",""弱我""]","","","","","","","","yes","","","","","","","","","SRET","EW_formal","","key","f","16.666539682539888","720","476","朋友","廉正","Positive","morality","","","","","","","","","",""
"961","","f","psychophysics","56","258751","0.0-7.0-3.0-0.42","5","5","5","5","3","4","3","4","4","4","4","1","0","0","0","-2","0","1","0","5","4","5","4","4","4","4","4","4","4","5","6","5","6","4","4","4","5","5","6","5","3","5","3","3","6","1","4","3","4","3","5","4","3","5","5","4","3","3","3","5","3","3","3","5","3","5","5","6","2","5","3","6","3","5","5","6","3","5","686480127940362240","董","472","Female","[""好她"",""坏她"",""好我"",""坏我""]","[""强她"",""弱她"",""强我"",""弱我""]","","","","","","","","yes","","","","","","","","","SRET","EW_formal","","key","f","16.81031896551727","720","476","朋友","慈悲","Positive","morality","","","","","","","","","",""
"1513","","j","psychophysics","57","261274","0.0-7.0-3.0-0.43","5","5","5","5","3","4","3","4","4","4","4","1","0","0","0","-2","0","1","0","5","4","5","4","4","4","4","4","4","4","5","6","5","6","4","4","4","5","5","6","5","3","5","3","3","6","1","4","3","4","3","5","4","3","5","5","4","3","3","3","5","3","3","3","5","3","5","5","6","2","5","3","6","3","5","5","6","3","5","686480127940362240","董","472","Female","[""好她"",""坏她"",""好我"",""坏我""]","[""强她"",""弱她"",""强我"",""弱我""]","","","","","","","","no","","","","","","","","","SRET","EW_formal","","key","j","16.666682119205454","720","476","朋友","短视","Negative","ability","","","","","","","","","",""
"829","","f","psychophysics","58","263109","0.0-7.0-3.0-0.44","5","5","5","5","3","4","3","4","4","4","4","1","0","0","0","-2","0","1","0","5","4","5","4","4","4","4","4","4","4","5","6","5","6","4","4","4","5","5","6","5","3","5","3","3","6","1","4","3","4","3","5","4","3","5","5","4","3","3","3","5","3","3","3","5","3","5","5","6","2","5","3","6","3","5","5","6","3","5","686480127940362240","董","472","Female","[""好她"",""坏她"",""好我"",""坏我""]","[""强她"",""弱她"",""强我"",""弱我""]","","","","","","","","yes","","","","","","","","","SRET","EW_formal","","key","f","16.666284403669458","720","476","朋友","爱国","Positive","morality","","","","","","","","","",""
"617","","f","psychophysics","59","264733","0.0-7.0-3.0-0.45","5","5","5","5","3","4","3","4","4","4","4","1","0","0","0","-2","0","1","0","5","4","5","4","4","4","4","4","4","4","5","6","5","6","4","4","4","5","5","6","5","3","5","3","3","6","1","4","3","4","3","5","4","3","5","5","4","3","3","3","5","3","3","3","5","3","5","5","6","2","5","3","6","3","5","5","6","3","5","686480127940362240","董","472","Female","[""好她"",""坏她"",""好我"",""坏我""]","[""强她"",""弱她"",""强我"",""弱我""]","","","","","","","","yes","","","","","","","","","SRET","EW_formal","","key","f","16.66594791666709","720","476","自己","奉献","Positive","morality","","","","","","","","","",""
"1006","","f","psychophysics","60","266742","0.0-7.0-3.0-0.46","5","5","5","5","3","4","3","4","4","4","4","1","0","0","0","-2","0","1","0","5","4","5","4","4","4","4","4","4","4","5","6","5","6","4","4","4","5","5","6","5","3","5","3","3","6","1","4","3","4","3","5","4","3","5","5","4","3","3","3","5","3","3","3","5","3","5","5","6","2","5","3","6","3","5","5","6","3","5","686480127940362240","董","472","Female","[""好她"",""坏她"",""好我"",""坏我""]","[""强她"",""弱她"",""强我"",""弱我""]","","","","","","","","yes","","","","","","","","","SRET","EW_formal","","key","f","16.807415254236993","720","476","自己","拖延","Negative","ability","","","","","","","","","",""
"879","","j","psychophysics","61","268627","0.0-7.0-3.0-0.47","5","5","5","5","3","4","3","4","4","4","4","1","0","0","0","-2","0","1","0","5","4","5","4","4","4","4","4","4","4","5","6","5","6","4","4","4","5","5","6","5","3","5","3","3","6","1","4","3","4","3","5","4","3","5","5","4","3","3","3","5","3","3","3","5","3","5","5","6","2","5","3","6","3","5","5","6","3","5","686480127940362240","董","472","Female","[""好她"",""坏她"",""好我"",""坏我""]","[""强她"",""弱她"",""强我"",""弱我""]","","","","","","","","no","","","","","","","","","SRET","EW_formal","","key","j","16.666380530973253","720","476","自己","拙笨","Negative","ability","","","","","","","","","",""
"879","","f","psychophysics","62","270512","0.0-7.0-3.0-0.48","5","5","5","5","3","4","3","4","4","4","4","1","0","0","0","-2","0","1","0","5","4","5","4","4","4","4","4","4","4","5","6","5","6","4","4","4","5","5","6","5","3","5","3","3","6","1","4","3","4","3","5","4","3","5","5","4","3","3","3","5","3","3","3","5","3","5","5","6","2","5","3","6","3","5","5","6","3","5","686480127940362240","董","472","Female","[""好她"",""坏她"",""好我"",""坏我""]","[""强她"",""弱她"",""强我"",""弱我""]","","","","","","","","yes","","","","","","","","","SRET","EW_formal","","key","f","16.816828828828875","720","476","自己","侠义","Positive","morality","","","","","","","","","",""
"610","","f","psychophysics","63","272128","0.0-7.0-3.0-0.49","5","5","5","5","3","4","3","4","4","4","4","1","0","0","0","-2","0","1","0","5","4","5","4","4","4","4","4","4","4","5","6","5","6","4","4","4","5","5","6","5","3","5","3","3","6","1","4","3","4","3","5","4","3","5","5","4","3","3","3","5","3","3","3","5","3","5","5","6","2","5","3","6","3","5","5","6","3","5","686480127940362240","董","472","Female","[""好她"",""坏她"",""好我"",""坏我""]","[""强她"",""弱她"",""强我"",""弱我""]","","","","","","","","yes","","","","","","","","","SRET","EW_formal","","key","f","16.843425531914963","720","476","朋友","守信","Positive","morality","","","","","","","","","",""
"589","","f","psychophysics","64","273725","0.0-7.0-3.0-0.50","5","5","5","5","3","4","3","4","4","4","4","1","0","0","0","-2","0","1","0","5","4","5","4","4","4","4","4","4","4","5","6","5","6","4","4","4","5","5","6","5","3","5","3","3","6","1","4","3","4","3","5","4","3","5","5","4","3","3","3","5","3","3","3","5","3","5","5","6","2","5","3","6","3","5","5","6","3","5","686480127940362240","董","472","Female","[""好她"",""坏她"",""好我"",""坏我""]","[""强她"",""弱她"",""强我"",""弱我""]","","","","","","","","yes","","","","","","","","","SRET","EW_formal","","key","f","16.666326315789853","720","476","自己","坦荡","Positive","morality","","","","","","","","","",""
"888","","j","psychophysics","65","275617","0.0-7.0-3.0-0.51","5","5","5","5","3","4","3","4","4","4","4","1","0","0","0","-2","0","1","0","5","4","5","4","4","4","4","4","4","4","5","6","5","6","4","4","4","5","5","6","5","3","5","3","3","6","1","4","3","4","3","5","4","3","5","5","4","3","3","3","5","3","3","3","5","3","5","5","6","2","5","3","6","3","5","5","6","3","5","686480127940362240","董","472","Female","[""好她"",""坏她"",""好我"",""坏我""]","[""强她"",""弱她"",""强我"",""弱我""]","","","","","","","","no","","","","","","","","","SRET","EW_formal","","key","j","16.666044247787408","720","476","自己","短浅","Negative","ability","","","","","","","","","",""
"623","","j","psychophysics","66","277242","0.0-7.0-3.0-0.52","5","5","5","5","3","4","3","4","4","4","4","1","0","0","0","-2","0","1","0","5","4","5","4","4","4","4","4","4","4","5","6","5","6","4","4","4","5","5","6","5","3","5","3","3","6","1","4","3","4","3","5","4","3","5","5","4","3","3","3","5","3","3","3","5","3","5","5","6","2","5","3","6","3","5","5","6","3","5","686480127940362240","董","472","Female","[""好她"",""坏她"",""好我"",""坏我""]","[""强她"",""弱她"",""强我"",""弱我""]","","","","","","","","no","","","","","","","","","SRET","EW_formal","","key","j","16.84201052631558","720","476","朋友","罪恶","Negative","morality","","","","","","","","","",""
"591","","j","psychophysics","67","278842","0.0-7.0-3.0-0.53","5","5","5","5","3","4","3","4","4","4","4","1","0","0","0","-2","0","1","0","5","4","5","4","4","4","4","4","4","4","5","6","5","6","4","4","4","5","5","6","5","3","5","3","3","6","1","4","3","4","3","5","4","3","5","5","4","3","3","3","5","3","3","3","5","3","5","5","6","2","5","3","6","3","5","5","6","3","5","686480127940362240","董","472","Female","[""好她"",""坏她"",""好我"",""坏我""]","[""强她"",""弱她"",""强我"",""弱我""]","","","","","","","","no","","","","","","","","","SRET","EW_formal","","key","j","16.666447916666584","720","476","朋友","愚痴","Negative","ability","","","","","","","","","",""
"734","","j","psychophysics","68","280585","0.0-7.0-3.0-0.54","5","5","5","5","3","4","3","4","4","4","4","1","0","0","0","-2","0","1","0","5","4","5","4","4","4","4","4","4","4","5","6","5","6","4","4","4","5","5","6","5","3","5","3","3","6","1","4","3","4","3","5","4","3","5","5","4","3","3","3","5","3","3","3","5","3","5","5","6","2","5","3","6","3","5","5","6","3","5","686480127940362240","董","472","Female","[""好她"",""坏她"",""好我"",""坏我""]","[""强她"",""弱她"",""强我"",""弱我""]","","","","","","","","no","","","","","","","","","SRET","EW_formal","","key","j","16.666394230769164","720","476","自己","狡狯","Negative","morality","","","","","","","","","",""
"764","","j","psychophysics","69","282366","0.0-7.0-3.0-0.55","5","5","5","5","3","4","3","4","4","4","4","1","0","0","0","-2","0","1","0","5","4","5","4","4","4","4","4","4","4","5","6","5","6","4","4","4","5","5","6","5","3","5","3","3","6","1","4","3","4","3","5","4","3","5","5","4","3","3","3","5","3","3","3","5","3","5","5","6","2","5","3","6","3","5","5","6","3","5","686480127940362240","董","472","Female","[""好她"",""坏她"",""好我"",""坏我""]","[""强她"",""弱她"",""强我"",""弱我""]","","","","","","","","no","","","","","","","","","SRET","EW_formal","","key","j","16.666409523809506","720","476","朋友","不仁","Negative","morality","","","","","","","","","",""
"1275","","j","psychophysics","70","284644","0.0-7.0-3.0-0.56","5","5","5","5","3","4","3","4","4","4","4","1","0","0","0","-2","0","1","0","5","4","5","4","4","4","4","4","4","4","5","6","5","6","4","4","4","5","5","6","5","3","5","3","3","6","1","4","3","4","3","5","4","3","5","5","4","3","3","3","5","3","3","3","5","3","5","5","6","2","5","3","6","3","5","5","6","3","5","686480127940362240","董","472","Female","[""好她"",""坏她"",""好我"",""坏我""]","[""强她"",""弱她"",""强我"",""弱我""]","","","","","","","","no","","","","","","","","","SRET","EW_formal","","key","j","16.666286764705813","720","476","朋友","逞能","Negative","ability","","","","","","","","","",""
"585","","j","psychophysics","71","286232","0.0-7.0-3.0-0.57","5","5","5","5","3","4","3","4","4","4","4","1","0","0","0","-2","0","1","0","5","4","5","4","4","4","4","4","4","4","5","6","5","6","4","4","4","5","5","6","5","3","5","3","3","6","1","4","3","4","3","5","4","3","5","5","4","3","3","3","5","3","3","3","5","3","5","5","6","2","5","3","6","3","5","5","6","3","5","686480127940362240","董","472","Female","[""好她"",""坏她"",""好我"",""坏我""]","[""强她"",""弱她"",""强我"",""弱我""]","","","","","","","","no","","","","","","","","","SRET","EW_formal","","key","j","17.028543478260755","720","476","朋友","虚假","Negative","morality","","","","","","","","","",""
"554","","j","psychophysics","72","287790","0.0-7.0-3.0-0.58","5","5","5","5","3","4","3","4","4","4","4","1","0","0","0","-2","0","1","0","5","4","5","4","4","4","4","4","4","4","5","6","5","6","4","4","4","5","5","6","5","3","5","3","3","6","1","4","3","4","3","5","4","3","5","5","4","3","3","3","5","3","3","3","5","3","5","5","6","2","5","3","6","3","5","5","6","3","5","686480127940362240","董","472","Female","[""好她"",""坏她"",""好我"",""坏我""]","[""强她"",""弱她"",""强我"",""弱我""]","","","","","","","","no","","","","","","","","","SRET","EW_formal","","key","j","16.84942857142868","720","476","朋友","邪恶","Negative","morality","","","","","","","","","",""
"506","","j","psychophysics","73","289301","0.0-7.0-3.0-0.59","5","5","5","5","3","4","3","4","4","4","4","1","0","0","0","-2","0","1","0","5","4","5","4","4","4","4","4","4","4","5","6","5","6","4","4","4","5","5","6","5","3","5","3","3","6","1","4","3","4","3","5","4","3","5","5","4","3","3","3","5","3","3","3","5","3","5","5","6","2","5","3","6","3","5","5","6","3","5","686480127940362240","董","472","Female","[""好她"",""坏她"",""好我"",""坏我""]","[""强她"",""弱她"",""强我"",""弱我""]","","","","","","","","no","","","","","","","","","SRET","EW_formal","","key","j","16.853764044944317","720","476","自己","无私","Positive","morality","","","","","","","","","",""
"733","","j","psychophysics","74","291043","0.0-7.0-3.0-0.60","5","5","5","5","3","4","3","4","4","4","4","1","0","0","0","-2","0","1","0","5","4","5","4","4","4","4","4","4","4","5","6","5","6","4","4","4","5","5","6","5","3","5","3","3","6","1","4","3","4","3","5","4","3","5","5","4","3","3","3","5","3","3","3","5","3","5","5","6","2","5","3","6","3","5","5","6","3","5","686480127940362240","董","472","Female","[""好她"",""坏她"",""好我"",""坏我""]","[""强她"",""弱她"",""强我"",""弱我""]","","","","","","","","no","","","","","","","","","SRET","EW_formal","","key","j","16.99335294117633","720","476","自己","奸险","Negative","morality","","","","","","","","","",""
"1335","","f","psychophysics","75","293387","0.0-7.0-3.0-0.61","5","5","5","5","3","4","3","4","4","4","4","1","0","0","0","-2","0","1","0","5","4","5","4","4","4","4","4","4","4","5","6","5","6","4","4","4","5","5","6","5","3","5","3","3","6","1","4","3","4","3","5","4","3","5","5","4","3","3","3","5","3","3","3","5","3","5","5","6","2","5","3","6","3","5","5","6","3","5","686480127940362240","董","472","Female","[""好她"",""坏她"",""好我"",""坏我""]","[""强她"",""弱她"",""强我"",""弱我""]","","","","","","","","yes","","","","","","","","","SRET","EW_formal","","key","f","16.786237410072022","720","476","自己","忠勇","Positive","morality","","","","","","","","","",""
"2282","","j","psychophysics","76","296679","0.0-7.0-3.0-0.62","5","5","5","5","3","4","3","4","4","4","4","1","0","0","0","-2","0","1","0","5","4","5","4","4","4","4","4","4","4","5","6","5","6","4","4","4","5","5","6","5","3","5","3","3","6","1","4","3","4","3","5","4","3","5","5","4","3","3","3","5","3","3","3","5","3","5","5","6","2","5","3","6","3","5","5","6","3","5","686480127940362240","董","472","Female","[""好她"",""坏她"",""好我"",""坏我""]","[""强她"",""弱她"",""强我"",""弱我""]","","","","","","","","no","","","","","","","","","SRET","EW_formal","","key","j","16.925424870466415","720","476","自己","业余","Negative","ability","","","","","","","","","",""
"1283","","f","psychophysics","77","298972","0.0-7.0-3.0-0.63","5","5","5","5","3","4","3","4","4","4","4","1","0","0","0","-2","0","1","0","5","4","5","4","4","4","4","4","4","4","5","6","5","6","4","4","4","5","5","6","5","3","5","3","3","6","1","4","3","4","3","5","4","3","5","5","4","3","3","3","5","3","3","3","5","3","5","5","6","2","5","3","6","3","5","5","6","3","5","686480127940362240","董","472","Female","[""好她"",""坏她"",""好我"",""坏我""]","[""强她"",""弱她"",""强我"",""弱我""]","","","","","","","","yes","","","","","","","","","SRET","EW_formal","","key","f","16.788941176470818","720","476","自己","逞强","Negative","ability","","","","","","","","","",""
"623","","f","psychophysics","78","300603","0.0-7.0-3.0-0.64","5","5","5","5","3","4","3","4","4","4","4","1","0","0","0","-2","0","1","0","5","4","5","4","4","4","4","4","4","4","5","6","5","6","4","4","4","5","5","6","5","3","5","3","3","6","1","4","3","4","3","5","4","3","5","5","4","3","3","3","5","3","3","3","5","3","5","5","6","2","5","3","6","3","5","5","6","3","5","686480127940362240","董","472","Female","[""好她"",""坏她"",""好我"",""坏我""]","[""强她"",""弱她"",""强我"",""弱我""]","","","","","","","","yes","","","","","","","","","SRET","EW_formal","","key","f","16.66632291666671","720","476","朋友","廉明","Positive","morality","","","","","","","","","",""
"698","","f","psychophysics","79","302313","0.0-7.0-3.0-0.65","5","5","5","5","3","4","3","4","4","4","4","1","0","0","0","-2","0","1","0","5","4","5","4","4","4","4","4","4","4","5","6","5","6","4","4","4","5","5","6","5","3","5","3","3","6","1","4","3","4","3","5","4","3","5","5","4","3","3","3","5","3","3","3","5","3","5","5","6","2","5","3","6","3","5","5","6","3","5","686480127940362240","董","472","Female","[""好她"",""坏她"",""好我"",""坏我""]","[""强她"",""弱她"",""强我"",""弱我""]","","","","","","","","yes","","","","","","","","","SRET","EW_formal","","key","f","16.66617647058835","720","476","自己","变通","Positive","ability","","","","","","","","","",""
"603","","f","psychophysics","80","303927","0.0-7.0-3.0-0.66","5","5","5","5","3","4","3","4","4","4","4","1","0","0","0","-2","0","1","0","5","4","5","4","4","4","4","4","4","4","5","6","5","6","4","4","4","5","5","6","5","3","5","3","3","6","1","4","3","4","3","5","4","3","5","5","4","3","3","3","5","3","3","3","5","3","5","5","6","2","5","3","6","3","5","5","6","3","5","686480127940362240","董","472","Female","[""好她"",""坏她"",""好我"",""坏我""]","[""强她"",""弱她"",""强我"",""弱我""]","","","","","","","","yes","","","","","","","","","SRET","EW_formal","","key","f","16.84166315789457","720","476","自己","精干","Positive","ability","","","","","","","","","",""
"620","","j","psychophysics","81","305553","0.0-7.0-3.0-0.67","5","5","5","5","3","4","3","4","4","4","4","1","0","0","0","-2","0","1","0","5","4","5","4","4","4","4","4","4","4","5","6","5","6","4","4","4","5","5","6","5","3","5","3","3","6","1","4","3","4","3","5","4","3","5","5","4","3","3","3","5","3","3","3","5","3","5","5","6","2","5","3","6","3","5","5","6","3","5","686480127940362240","董","472","Female","[""好她"",""坏她"",""好我"",""坏我""]","[""强她"",""弱她"",""强我"",""弱我""]","","","","","","","","no","","","","","","","","","SRET","EW_formal","","key","j","16.666329896907424","720","476","自己","愚蠢","Negative","ability","","","","","","","","","",""
"830","","f","psychophysics","82","307392","0.0-7.0-3.0-0.68","5","5","5","5","3","4","3","4","4","4","4","1","0","0","0","-2","0","1","0","5","4","5","4","4","4","4","4","4","4","5","6","5","6","4","4","4","5","5","6","5","3","5","3","3","6","1","4","3","4","3","5","4","3","5","5","4","3","3","3","5","3","3","3","5","3","5","5","6","2","5","3","6","3","5","5","6","3","5","686480127940362240","董","472","Female","[""好她"",""坏她"",""好我"",""坏我""]","[""强她"",""弱她"",""强我"",""弱我""]","","","","","","","","yes","","","","","","","","","SRET","EW_formal","","key","f","16.97784112149547","720","476","朋友","博学","Positive","ability","","","","","","","","","",""
"739","","f","psychophysics","83","309136","0.0-7.0-3.0-0.69","5","5","5","5","3","4","3","4","4","4","4","1","0","0","0","-2","0","1","0","5","4","5","4","4","4","4","4","4","4","5","6","5","6","4","4","4","5","5","6","5","3","5","3","3","6","1","4","3","4","3","5","4","3","5","5","4","3","3","3","5","3","3","3","5","3","5","5","6","2","5","3","6","3","5","5","6","3","5","686480127940362240","董","472","Female","[""好她"",""坏她"",""好我"",""坏我""]","[""强她"",""弱她"",""强我"",""弱我""]","","","","","","","","yes","","","","","","","","","SRET","EW_formal","","key","f","16.828456310679666","720","476","朋友","仁厚","Positive","morality","","","","","","","","","",""
"643","","f","psychophysics","84","310790","0.0-7.0-3.0-0.70","5","5","5","5","3","4","3","4","4","4","4","1","0","0","0","-2","0","1","0","5","4","5","4","4","4","4","4","4","4","5","6","5","6","4","4","4","5","5","6","5","3","5","3","3","6","1","4","3","4","3","5","4","3","5","5","4","3","3","3","5","3","3","3","5","3","5","5","6","2","5","3","6","3","5","5","6","3","5","686480127940362240","董","472","Female","[""好她"",""坏她"",""好我"",""坏我""]","[""强她"",""弱她"",""强我"",""弱我""]","","","","","","","","yes","","","","","","","","","SRET","EW_formal","","key","f","16.66635714285729","720","476","朋友","能干","Positive","ability","","","","","","","","","",""
"702","","f","psychophysics","85","312496","0.0-7.0-3.0-0.71","5","5","5","5","3","4","3","4","4","4","4","1","0","0","0","-2","0","1","0","5","4","5","4","4","4","4","4","4","4","5","6","5","6","4","4","4","5","5","6","5","3","5","3","3","6","1","4","3","4","3","5","4","3","5","5","4","3","3","3","5","3","3","3","5","3","5","5","6","2","5","3","6","3","5","5","6","3","5","686480127940362240","董","472","Female","[""好她"",""坏她"",""好我"",""坏我""]","[""强她"",""弱她"",""强我"",""弱我""]","","","","","","","","yes","","","","","","","","","SRET","EW_formal","","key","f","16.666247524752738","720","476","自己","努力","Positive","ability","","","","","","","","","",""
"937","","f","psychophysics","86","314443","0.0-7.0-3.0-0.72","5","5","5","5","3","4","3","4","4","4","4","1","0","0","0","-2","0","1","0","5","4","5","4","4","4","4","4","4","4","5","6","5","6","4","4","4","5","5","6","5","3","5","3","3","6","1","4","3","4","3","5","4","3","5","5","4","3","3","3","5","3","3","3","5","3","5","5","6","2","5","3","6","3","5","5","6","3","5","686480127940362240","董","472","Female","[""好她"",""坏她"",""好我"",""坏我""]","[""强她"",""弱她"",""强我"",""弱我""]","","","","","","","","yes","","","","","","","","","SRET","EW_formal","","key","f","16.666379310344727","720","476","朋友","依靠","Negative","ability","","","","","","","","","",""
"625","","f","psychophysics","87","316072","0.0-7.0-3.0-0.73","5","5","5","5","3","4","3","4","4","4","4","1","0","0","0","-2","0","1","0","5","4","5","4","4","4","4","4","4","4","5","6","5","6","4","4","4","5","5","6","5","3","5","3","3","6","1","4","3","4","3","5","4","3","5","5","4","3","3","3","5","3","3","3","5","3","5","5","6","2","5","3","6","3","5","5","6","3","5","686480127940362240","董","472","Female","[""好她"",""坏她"",""好我"",""坏我""]","[""强她"",""弱她"",""强我"",""弱我""]","","","","","","","","yes","","","","","","","","","SRET","EW_formal","","key","f","16.6663020833336","720","476","自己","扎实","Positive","ability","","","","","","","","","",""
"606","","f","psychophysics","88","317691","0.0-7.0-3.0-0.74","5","5","5","5","3","4","3","4","4","4","4","1","0","0","0","-2","0","1","0","5","4","5","4","4","4","4","4","4","4","5","6","5","6","4","4","4","5","5","6","5","3","5","3","3","6","1","4","3","4","3","5","4","3","5","5","4","3","3","3","5","3","3","3","5","3","5","5","6","2","5","3","6","3","5","5","6","3","5","686480127940362240","董","472","Female","[""好她"",""坏她"",""好我"",""坏我""]","[""强她"",""弱她"",""强我"",""弱我""]","","","","","","","","yes","","","","","","","","","SRET","EW_formal","","key","f","16.839937500000207","720","476","自己","勤恳","Positive","morality","","","","","","","","","",""
"711","","j","psychophysics","89","319405","0.0-7.0-3.0-0.75","5","5","5","5","3","4","3","4","4","4","4","1","0","0","0","-2","0","1","0","5","4","5","4","4","4","4","4","4","4","5","6","5","6","4","4","4","5","5","6","5","3","5","3","3","6","1","4","3","4","3","5","4","3","5","5","4","3","3","3","5","3","3","3","5","3","5","5","6","2","5","3","6","3","5","5","6","3","5","686480127940362240","董","472","Female","[""好她"",""坏她"",""好我"",""坏我""]","[""强她"",""弱她"",""强我"",""弱我""]","","","","","","","","no","","","","","","","","","SRET","EW_formal","","key","j","16.666343137254945","720","476","朋友","盲目","Negative","ability","","","","","","","","","",""
"873","","j","psychophysics","90","321296","0.0-7.0-3.0-0.76","5","5","5","5","3","4","3","4","4","4","4","1","0","0","0","-2","0","1","0","5","4","5","4","4","4","4","4","4","4","5","6","5","6","4","4","4","5","5","6","5","3","5","3","3","6","1","4","3","4","3","5","4","3","5","5","4","3","3","3","5","3","3","3","5","3","5","5","6","2","5","3","6","3","5","5","6","3","5","686480127940362240","董","472","Female","[""好她"",""坏她"",""好我"",""坏我""]","[""强她"",""弱她"",""强我"",""弱我""]","","","","","","","","no","","","","","","","","","SRET","EW_formal","","key","j","16.816396396396353","720","476","朋友","恶劣","Negative","morality","","","","","","","","","",""
"853","","f","psychophysics","91","323152","0.0-7.0-3.0-0.77","5","5","5","5","3","4","3","4","4","4","4","1","0","0","0","-2","0","1","0","5","4","5","4","4","4","4","4","4","4","5","6","5","6","4","4","4","5","5","6","5","3","5","3","3","6","1","4","3","4","3","5","4","3","5","5","4","3","3","3","5","3","3","3","5","3","5","5","6","2","5","3","6","3","5","5","6","3","5","686480127940362240","董","472","Female","[""好她"",""坏她"",""好我"",""坏我""]","[""强她"",""弱她"",""强我"",""弱我""]","","","","","","","","yes","","","","","","","","","SRET","EW_formal","","key","f","16.971954128440093","720","476","朋友","周到","Positive","ability","","","","","","","","","",""
"670","","j","psychophysics","92","324831","0.0-7.0-3.0-0.78","5","5","5","5","3","4","3","4","4","4","4","1","0","0","0","-2","0","1","0","5","4","5","4","4","4","4","4","4","4","5","6","5","6","4","4","4","5","5","6","5","3","5","3","3","6","1","4","3","4","3","5","4","3","5","5","4","3","3","3","5","3","3","3","5","3","5","5","6","2","5","3","6","3","5","5","6","3","5","686480127940362240","董","472","Female","[""好她"",""坏她"",""好我"",""坏我""]","[""强她"",""弱她"",""强我"",""弱我""]","","","","","","","","no","","","","","","","","","SRET","EW_formal","","key","j","16.666303030303396","720","476","朋友","失信","Negative","morality","","","","","","","","","",""
"863","","j","psychophysics","93","326701","0.0-7.0-3.0-0.79","5","5","5","5","3","4","3","4","4","4","4","1","0","0","0","-2","0","1","0","5","4","5","4","4","4","4","4","4","4","5","6","5","6","4","4","4","5","5","6","5","3","5","3","3","6","1","4","3","4","3","5","4","3","5","5","4","3","3","3","5","3","3","3","5","3","5","5","6","2","5","3","6","3","5","5","6","3","5","686480127940362240","董","472","Female","[""好她"",""坏她"",""好我"",""坏我""]","[""强她"",""弱她"",""强我"",""弱我""]","","","","","","","","no","","","","","","","","","SRET","EW_formal","","key","j","16.666446428571362","720","476","朋友","狡诈","Negative","morality","","","","","","","","","",""
"658","","j","psychophysics","94","328368","0.0-7.0-3.0-0.80","5","5","5","5","3","4","3","4","4","4","4","1","0","0","0","-2","0","1","0","5","4","5","4","4","4","4","4","4","4","5","6","5","6","4","4","4","5","5","6","5","3","5","3","3","6","1","4","3","4","3","5","4","3","5","5","4","3","3","3","5","3","3","3","5","3","5","5","6","2","5","3","6","3","5","5","6","3","5","686480127940362240","董","472","Female","[""好她"",""坏她"",""好我"",""坏我""]","[""强她"",""弱她"",""强我"",""弱我""]","","","","","","","","no","","","","","","","","","SRET","EW_formal","","key","j","16.666545454545577","720","476","朋友","无敌","Positive","ability","","","","","","","","","",""
"938","","f","psychophysics","95","330308","0.0-7.0-3.0-0.81","5","5","5","5","3","4","3","4","4","4","4","1","0","0","0","-2","0","1","0","5","4","5","4","4","4","4","4","4","4","5","6","5","6","4","4","4","5","5","6","5","3","5","3","3","6","1","4","3","4","3","5","4","3","5","5","4","3","3","3","5","3","3","3","5","3","5","5","6","2","5","3","6","3","5","5","6","3","5","686480127940362240","董","472","Female","[""好她"",""坏她"",""好我"",""坏我""]","[""强她"",""弱她"",""强我"",""弱我""]","","","","","","","","yes","","","","","","","","","SRET","EW_formal","","key","f","16.666052173913215","720","476","自己","利落","Positive","ability","","","","","","","","","",""
"1048","","f","psychophysics","96","332370","0.0-7.0-3.0-0.82","5","5","5","5","3","4","3","4","4","4","4","1","0","0","0","-2","0","1","0","5","4","5","4","4","4","4","4","4","4","5","6","5","6","4","4","4","5","5","6","5","3","5","3","3","6","1","4","3","4","3","5","4","3","5","5","4","3","3","3","5","3","3","3","5","3","5","5","6","2","5","3","6","3","5","5","6","3","5","686480127940362240","董","472","Female","[""好她"",""坏她"",""好我"",""坏我""]","[""强她"",""弱她"",""强我"",""弱我""]","","","","","","","","yes","","","","","","","","","SRET","EW_formal","","key","f","16.802385245901664","720","476","自己","独断","Negative","ability","","","","","","","","","",""
"659","","f","psychophysics","97","334044","0.0-7.0-3.0-0.83","5","5","5","5","3","4","3","4","4","4","4","1","0","0","0","-2","0","1","0","5","4","5","4","4","4","4","4","4","4","5","6","5","6","4","4","4","5","5","6","5","3","5","3","3","6","1","4","3","4","3","5","4","3","5","5","4","3","3","3","5","3","3","3","5","3","5","5","6","2","5","3","6","3","5","5","6","3","5","686480127940362240","董","472","Female","[""好她"",""坏她"",""好我"",""坏我""]","[""强她"",""弱她"",""强我"",""弱我""]","","","","","","","","yes","","","","","","","","","SRET","EW_formal","","key","f","16.66593939393954","720","476","自己","善良","Positive","morality","","","","","","","","","",""
"589","","f","psychophysics","98","335648","0.0-7.0-3.0-0.84","5","5","5","5","3","4","3","4","4","4","4","1","0","0","0","-2","0","1","0","5","4","5","4","4","4","4","4","4","4","5","6","5","6","4","4","4","5","5","6","5","3","5","3","3","6","1","4","3","4","3","5","4","3","5","5","4","3","3","3","5","3","3","3","5","3","5","5","6","2","5","3","6","3","5","5","6","3","5","686480127940362240","董","472","Female","[""好她"",""坏她"",""好我"",""坏我""]","[""强她"",""弱她"",""强我"",""弱我""]","","","","","","","","yes","","","","","","","","","SRET","EW_formal","","key","f","16.84174736842121","720","476","自己","主见","Positive","ability","","","","","","","","","",""
"710","","j","psychophysics","99","337361","0.0-7.0-3.0-0.85","5","5","5","5","3","4","3","4","4","4","4","1","0","0","0","-2","0","1","0","5","4","5","4","4","4","4","4","4","4","5","6","5","6","4","4","4","5","5","6","5","3","5","3","3","6","1","4","3","4","3","5","4","3","5","5","4","3","3","3","5","3","3","3","5","3","5","5","6","2","5","3","6","3","5","5","6","3","5","686480127940362240","董","472","Female","[""好她"",""坏她"",""好我"",""坏我""]","[""强她"",""弱她"",""强我"",""弱我""]","","","","","","","","no","","","","","","","","","SRET","EW_formal","","key","j","16.666831683168663","720","476","朋友","低俗","Negative","morality","","","","","","","","","",""
"1083","","f","psychophysics","100","339453","0.0-7.0-3.0-0.86","5","5","5","5","3","4","3","4","4","4","4","1","0","0","0","-2","0","1","0","5","4","5","4","4","4","4","4","4","4","5","6","5","6","4","4","4","5","5","6","5","3","5","3","3","6","1","4","3","4","3","5","4","3","5","5","4","3","3","3","5","3","3","3","5","3","5","5","6","2","5","3","6","3","5","5","6","3","5","686480127940362240","董","472","Female","[""好她"",""坏她"",""好我"",""坏我""]","[""强她"",""弱她"",""强我"",""弱我""]","","","","","","","","yes","","","","","","","","","SRET","EW_formal","","key","f","16.666992000000086","720","476","自己","缓慢","Negative","ability","","","","","","","","","",""
"613","","f","psychophysics","101","341080","0.0-7.0-3.0-0.87","5","5","5","5","3","4","3","4","4","4","4","1","0","0","0","-2","0","1","0","5","4","5","4","4","4","4","4","4","4","5","6","5","6","4","4","4","5","5","6","5","3","5","3","3","6","1","4","3","4","3","5","4","3","5","5","4","3","3","3","5","3","3","3","5","3","5","5","6","2","5","3","6","3","5","5","6","3","5","686480127940362240","董","472","Female","[""好她"",""坏她"",""好我"",""坏我""]","[""强她"",""弱她"",""强我"",""弱我""]","","","","","","","","yes","","","","","","","","","SRET","EW_formal","","key","f","16.66677083333343","720","476","朋友","素养","Positive","morality","","","","","","","","","",""
"11556","
    <p><div style='color:white;font-size:35px; line-height:20px;'>计算任务</div></p><br>
    <p><div style='color:red;font-size:25px; line-height:20px;'>接下来，您将看到一些四则运算题，<b>请从键盘选择 0-9 进行反应。</b></div></p>
    <p><div class='footer' style='color:white;font-size:25px; line-height:20px;'>如果对本实验还有不清楚之处，请立即向实验员咨询。</p><p style='color:white;font-size:25px; line-height:20px;'>如果您明白了规则：</p><p style='color:white;font-size:22px; line-height:20px;'>请按 继续 进入练习</p>
    </div>
    ","0","html-button-response","102","352641","0.0-7.0-4.0","5","5","5","5","3","4","3","4","4","4","4","1","0","0","0","-2","0","1","0","5","4","5","4","4","4","4","4","4","4","5","6","5","6","4","4","4","5","5","6","5","3","5","3","3","6","1","4","3","4","3","5","4","3","5","5","4","3","3","3","5","3","3","3","5","3","5","5","6","2","5","3","6","3","5","5","6","3","5","686480127940362240","董","472","Female","[""好她"",""坏她"",""好我"",""坏我""]","[""强她"",""弱她"",""强我"",""弱我""]","","","","","","","","","","","","","","","","","SRET_math","math_instructions","Tue Oct 17 2023 19:49:28 GMT+0800 (中国标准时间)","","","","","","","","","","","","","","","","","","",""
"2460","","5","psychophysics","103","355109","0.0-7.0-5.0-0.0","5","5","5","5","3","4","3","4","4","4","4","1","0","0","0","-2","0","1","0","5","4","5","4","4","4","4","4","4","4","5","6","5","6","4","4","4","5","5","6","5","3","5","3","3","6","1","4","3","4","3","5","4","3","5","5","4","3","3","3","5","3","3","3","5","3","5","5","6","2","5","3","6","3","5","5","6","3","5","686480127940362240","董","472","Female","[""好她"",""坏她"",""好我"",""坏我""]","[""强她"",""弱她"",""强我"",""弱我""]","","","","","","","","5","","","","","","","","","SRET","SRET_math_calculate","","key","5","17.12425694444432","720","476","","","","","9-4= ?","5","1","","","","","","",""
"2331","","5","psychophysics","104","357477","0.0-7.0-5.0-0.1","5","5","5","5","3","4","3","4","4","4","4","1","0","0","0","-2","0","1","0","5","4","5","4","4","4","4","4","4","4","5","6","5","6","4","4","4","5","5","6","5","3","5","3","3","6","1","4","3","4","3","5","4","3","5","5","4","3","3","3","5","3","3","3","5","3","5","5","6","2","5","3","6","3","5","5","6","3","5","686480127940362240","董","472","Female","[""好她"",""坏她"",""好我"",""坏我""]","[""强她"",""弱她"",""强我"",""弱我""]","","","","","","","","5","","","","","","","","","SRET","SRET_math_calculate","","key","5","16.66634751773061","720","476","","","","","12-7= ?","5","1","","","","","","",""
"2638","","1","psychophysics","105","360119","0.0-7.0-5.0-0.2","5","5","5","5","3","4","3","4","4","4","4","1","0","0","0","-2","0","1","0","5","4","5","4","4","4","4","4","4","4","5","6","5","6","4","4","4","5","5","6","5","3","5","3","3","6","1","4","3","4","3","5","4","3","5","5","4","3","3","3","5","3","3","3","5","3","5","5","6","2","5","3","6","3","5","5","6","3","5","686480127940362240","董","472","Female","[""好她"",""坏她"",""好我"",""坏我""]","[""强她"",""弱她"",""强我"",""弱我""]","","","","","","","","1","","","","","","","","","SRET","SRET_math_calculate","","key","1","16.772528662420452","720","476","","","","","30-29= ?","1","1","","","","","","",""
"2506","","8","psychophysics","106","362630","0.0-7.0-5.0-0.3","5","5","5","5","3","4","3","4","4","4","4","1","0","0","0","-2","0","1","0","5","4","5","4","4","4","4","4","4","4","5","6","5","6","4","4","4","5","5","6","5","3","5","3","3","6","1","4","3","4","3","5","4","3","5","5","4","3","3","3","5","3","3","3","5","3","5","5","6","2","5","3","6","3","5","5","6","3","5","686480127940362240","董","472","Female","[""好她"",""坏她"",""好我"",""坏我""]","[""强她"",""弱她"",""强我"",""弱我""]","","","","","","","","8","","","","","","","","","SRET","SRET_math_calculate","","key","8","16.66628859060404","720","476","","","","","5+3= ?","8","1","","","","","","",""
"2100","","1","psychophysics","107","364734","0.0-7.0-5.0-0.4","5","5","5","5","3","4","3","4","4","4","4","1","0","0","0","-2","0","1","0","5","4","5","4","4","4","4","4","4","4","5","6","5","6","4","4","4","5","5","6","5","3","5","3","3","6","1","4","3","4","3","5","4","3","5","5","4","3","3","3","5","3","3","3","5","3","5","5","6","2","5","3","6","3","5","5","6","3","5","686480127940362240","董","472","Female","[""好她"",""坏她"",""好我"",""坏我""]","[""强她"",""弱她"",""强我"",""弱我""]","","","","","","","","1","","","","","","","","","SRET","SRET_math_calculate","","key","1","16.800766129032596","720","476","","","","","9-8= ?","1","1","","","","","","",""
"2529","","1","psychophysics","108","367265","0.0-7.0-5.0-0.5","5","5","5","5","3","4","3","4","4","4","4","1","0","0","0","-2","0","1","0","5","4","5","4","4","4","4","4","4","4","5","6","5","6","4","4","4","5","5","6","5","3","5","3","3","6","1","4","3","4","3","5","4","3","5","5","4","3","3","3","5","3","3","3","5","3","5","5","6","2","5","3","6","3","5","5","6","3","5","686480127940362240","董","472","Female","[""好她"",""坏她"",""好我"",""坏我""]","[""强她"",""弱她"",""强我"",""弱我""]","","","","","","","","1","","","","","","","","","SRET","SRET_math_calculate","","key","1","16.777073333333245","720","476","","","","","12/12= ?","1","1","","","","","","",""
"2324","","8","psychophysics","109","369592","0.0-7.0-5.0-0.6","5","5","5","5","3","4","3","4","4","4","4","1","0","0","0","-2","0","1","0","5","4","5","4","4","4","4","4","4","4","5","6","5","6","4","4","4","5","5","6","5","3","5","3","3","6","1","4","3","4","3","5","4","3","5","5","4","3","3","3","5","3","3","3","5","3","5","5","6","2","5","3","6","3","5","5","6","3","5","686480127940362240","董","472","Female","[""好她"",""坏她"",""好我"",""坏我""]","[""强她"",""弱她"",""强我"",""弱我""]","","","","","","","","8","","","","","","","","","SRET","SRET_math_calculate","","key","8","16.666237410072075","720","476","","","","","2+6= ?","8","1","","","","","","",""
"2180","","7","psychophysics","110","371774","0.0-7.0-5.0-0.7","5","5","5","5","3","4","3","4","4","4","4","1","0","0","0","-2","0","1","0","5","4","5","4","4","4","4","4","4","4","5","6","5","6","4","4","4","5","5","6","5","3","5","3","3","6","1","4","3","4","3","5","4","3","5","5","4","3","3","3","5","3","3","3","5","3","5","5","6","2","5","3","6","3","5","5","6","3","5","686480127940362240","董","472","Female","[""好她"",""坏她"",""好我"",""坏我""]","[""强她"",""弱她"",""强我"",""弱我""]","","","","","","","","7","","","","","","","","","SRET","SRET_math_calculate","","key","7","16.926921875000062","720","476","","","","","4+3= ?","7","1","","","","","","",""
"2136","","1","psychophysics","111","373913","0.0-7.0-5.0-0.8","5","5","5","5","3","4","3","4","4","4","4","1","0","0","0","-2","0","1","0","5","4","5","4","4","4","4","4","4","4","5","6","5","6","4","4","4","5","5","6","5","3","5","3","3","6","1","4","3","4","3","5","4","3","5","5","4","3","3","3","5","3","3","3","5","3","5","5","6","2","5","3","6","3","5","5","6","3","5","686480127940362240","董","472","Female","[""好她"",""坏她"",""好我"",""坏我""]","[""强她"",""弱她"",""强我"",""弱我""]","","","","","","","","1","","","","","","","","","SRET","SRET_math_calculate","","key","1","16.66670078740136","720","476","","","","","4/4= ?","1","1","","","","","","",""
"2372","","8","psychophysics","112","376293","0.0-7.0-5.0-0.9","5","5","5","5","3","4","3","4","4","4","4","1","0","0","0","-2","0","1","0","5","4","5","4","4","4","4","4","4","4","5","6","5","6","4","4","4","5","5","6","5","3","5","3","3","6","1","4","3","4","3","5","4","3","5","5","4","3","3","3","5","3","3","3","5","3","5","5","6","2","5","3","6","3","5","5","6","3","5","686480127940362240","董","472","Female","[""好她"",""坏她"",""好我"",""坏我""]","[""强她"",""弱她"",""强我"",""弱我""]","","","","","","","","8","","","","","","","","","SRET","SRET_math_calculate","","key","8","16.90435714285746","720","476","","","","","4*2= ?","8","1","","","","","","",""
"2092","","9","psychophysics","113","378392","0.0-7.0-5.0-0.10","5","5","5","5","3","4","3","4","4","4","4","1","0","0","0","-2","0","1","0","5","4","5","4","4","4","4","4","4","4","5","6","5","6","4","4","4","5","5","6","5","3","5","3","3","6","1","4","3","4","3","5","4","3","5","5","4","3","3","3","5","3","3","3","5","3","5","5","6","2","5","3","6","3","5","5","6","3","5","686480127940362240","董","472","Female","[""好她"",""坏她"",""好我"",""坏我""]","[""强她"",""弱她"",""强我"",""弱我""]","","","","","","","","9","","","","","","","","","SRET","SRET_math_calculate","","key","9","16.66617599999998","720","476","","","","","5+4= ?","9","1","","","","","","",""
"2517","","3","psychophysics","114","380911","0.0-7.0-5.0-0.11","5","5","5","5","3","4","3","4","4","4","4","1","0","0","0","-2","0","1","0","5","4","5","4","4","4","4","4","4","4","5","6","5","6","4","4","4","5","5","6","5","3","5","3","3","6","1","4","3","4","3","5","4","3","5","5","4","3","3","3","5","3","3","3","5","3","5","5","6","2","5","3","6","3","5","5","6","3","5","686480127940362240","董","472","Female","[""好她"",""坏她"",""好我"",""坏我""]","[""强她"",""弱她"",""强我"",""弱我""]","","","","","","","","3","","","","","","","","","SRET","SRET_math_calculate","","key","3","16.666199999999954","720","476","","","","","6/2= ?","3","1","","","","","","",""
"1923","","3","psychophysics","115","382871","0.0-7.0-5.0-0.12","5","5","5","5","3","4","3","4","4","4","4","1","0","0","0","-2","0","1","0","5","4","5","4","4","4","4","4","4","4","5","6","5","6","4","4","4","5","5","6","5","3","5","3","3","6","1","4","3","4","3","5","4","3","5","5","4","3","3","3","5","3","3","3","5","3","5","5","6","2","5","3","6","3","5","5","6","3","5","686480127940362240","董","472","Female","[""好她"",""坏她"",""好我"",""坏我""]","[""强她"",""弱她"",""强我"",""弱我""]","","","","","","","","3","","","","","","","","","SRET","SRET_math_calculate","","key","3","17.104833333333342","720","476","","","","","1+2= ?","3","1","","","","","","",""
"2400","","2","psychophysics","116","385273","0.0-7.0-5.0-0.13","5","5","5","5","3","4","3","4","4","4","4","1","0","0","0","-2","0","1","0","5","4","5","4","4","4","4","4","4","4","5","6","5","6","4","4","4","5","5","6","5","3","5","3","3","6","1","4","3","4","3","5","4","3","5","5","4","3","3","3","5","3","3","3","5","3","5","5","6","2","5","3","6","3","5","5","6","3","5","686480127940362240","董","472","Female","[""好她"",""坏她"",""好我"",""坏我""]","[""强她"",""弱她"",""强我"",""弱我""]","","","","","","","","2","","","","","","","","","SRET","SRET_math_calculate","","key","2","16.78468085106393","720","476","","","","","18/9= ?","2","1","","","","","","",""
"2741","","9","psychophysics","117","388052","0.0-7.0-5.0-0.14","5","5","5","5","3","4","3","4","4","4","4","1","0","0","0","-2","0","1","0","5","4","5","4","4","4","4","4","4","4","5","6","5","6","4","4","4","5","5","6","5","3","5","3","3","6","1","4","3","4","3","5","4","3","5","5","4","3","3","3","5","3","3","3","5","3","5","5","6","2","5","3","6","3","5","5","6","3","5","686480127940362240","董","472","Female","[""好她"",""坏她"",""好我"",""坏我""]","[""强她"",""弱她"",""强我"",""弱我""]","","","","","","","","9","","","","","","","","","SRET","SRET_math_calculate","","key","9","16.766783132529902","720","476","","","","","3+6= ?","9","1","","","","","","",""
"2029","","6","psychophysics","118","390086","0.0-7.0-5.0-0.15","5","5","5","5","3","4","3","4","4","4","4","1","0","0","0","-2","0","1","0","5","4","5","4","4","4","4","4","4","4","5","6","5","6","4","4","4","5","5","6","5","3","5","3","3","6","1","4","3","4","3","5","4","3","5","5","4","3","3","3","5","3","3","3","5","3","5","5","6","2","5","3","6","3","5","5","6","3","5","686480127940362240","董","472","Female","[""好她"",""坏她"",""好我"",""坏我""]","[""强她"",""弱她"",""强我"",""弱我""]","","","","","","","","6","","","","","","","","","SRET","SRET_math_calculate","","key","6","16.8063025210085","720","476","","","","","3+3= ?","6","1","","","","","","",""
"2199","","3","psychophysics","119","392321","0.0-7.0-5.0-0.16","5","5","5","5","3","4","3","4","4","4","4","1","0","0","0","-2","0","1","0","5","4","5","4","4","4","4","4","4","4","5","6","5","6","4","4","4","5","5","6","5","3","5","3","3","6","1","4","3","4","3","5","4","3","5","5","4","3","3","3","5","3","3","3","5","3","5","5","6","2","5","3","6","3","5","5","6","3","5","686480127940362240","董","472","Female","[""好她"",""坏她"",""好我"",""坏我""]","[""强她"",""弱她"",""强我"",""弱我""]","","","","","","","","3","","","","","","","","","SRET","SRET_math_calculate","","key","3","16.918651515151424","720","476","","","","","3*1= ?","3","1","","","","","","",""
"2154","","7","psychophysics","120","394478","0.0-7.0-5.0-0.17","5","5","5","5","3","4","3","4","4","4","4","1","0","0","0","-2","0","1","0","5","4","5","4","4","4","4","4","4","4","5","6","5","6","4","4","4","5","5","6","5","3","5","3","3","6","1","4","3","4","3","5","4","3","5","5","4","3","3","3","5","3","3","3","5","3","5","5","6","2","5","3","6","3","5","5","6","3","5","686480127940362240","董","472","Female","[""好她"",""坏她"",""好我"",""坏我""]","[""强她"",""弱她"",""强我"",""弱我""]","","","","","","","","7","","","","","","","","","SRET","SRET_math_calculate","","key","7","16.79766929133861","720","476","","","","","1+6= ?","7","1","","","","","","",""
"2362","","8","psychophysics","121","396874","0.0-7.0-5.0-0.18","5","5","5","5","3","4","3","4","4","4","4","1","0","0","0","-2","0","1","0","5","4","5","4","4","4","4","4","4","4","5","6","5","6","4","4","4","5","5","6","5","3","5","3","3","6","1","4","3","4","3","5","4","3","5","5","4","3","3","3","5","3","3","3","5","3","5","5","6","2","5","3","6","3","5","5","6","3","5","686480127940362240","董","472","Female","[""好她"",""坏她"",""好我"",""坏我""]","[""强她"",""弱她"",""强我"",""弱我""]","","","","","","","","8","","","","","","","","","SRET","SRET_math_calculate","","key","8","16.78389436619735","720","476","","","","","6+2= ?","8","1","","","","","","",""
"2293","","8","psychophysics","122","399172","0.0-7.0-5.0-0.19","5","5","5","5","3","4","3","4","4","4","4","1","0","0","0","-2","0","1","0","5","4","5","4","4","4","4","4","4","4","5","6","5","6","4","4","4","5","5","6","5","3","5","3","3","6","1","4","3","4","3","5","4","3","5","5","4","3","3","3","5","3","3","3","5","3","5","5","6","2","5","3","6","3","5","5","6","3","5","686480127940362240","董","472","Female","[""好她"",""坏她"",""好我"",""坏我""]","[""强她"",""弱她"",""强我"",""弱我""]","","","","","","","","8","","","","","","","","","SRET","SRET_math_calculate","","key","8","16.789029411764847","720","476","","","","","8*1= ?","8","1","","","","","","",""
"2276","","5","psychophysics","123","401451","0.0-7.0-5.0-0.20","5","5","5","5","3","4","3","4","4","4","4","1","0","0","0","-2","0","1","0","5","4","5","4","4","4","4","4","4","4","5","6","5","6","4","4","4","5","5","6","5","3","5","3","3","6","1","4","3","4","3","5","4","3","5","5","4","3","3","3","5","3","3","3","5","3","5","5","6","2","5","3","6","3","5","5","6","3","5","686480127940362240","董","472","Female","[""好她"",""坏她"",""好我"",""坏我""]","[""强她"",""弱她"",""强我"",""弱我""]","","","","","","","","5","","","","","","","","","SRET","SRET_math_calculate","","key","5","16.789518518518673","720","476","","","","","8-3= ? ","5","1","","","","","","",""
"2763","","0","psychophysics","124","404217","0.0-7.0-5.0-0.21","5","5","5","5","3","4","3","4","4","4","4","1","0","0","0","-2","0","1","0","5","4","5","4","4","4","4","4","4","4","5","6","5","6","4","4","4","5","5","6","5","3","5","3","3","6","1","4","3","4","3","5","4","3","5","5","4","3","3","3","5","3","3","3","5","3","5","5","6","2","5","3","6","3","5","5","6","3","5","686480127940362240","董","472","Female","[""好她"",""坏她"",""好我"",""坏我""]","[""强她"",""弱她"",""强我"",""弱我""]","","","","","","","","0","","","","","","","","","SRET","SRET_math_calculate","","key","0","16.767853658536673","720","476","","","","","5*0= ?","0","1","","","","","","",""
"2964","","5","psychophysics","125","407221","0.0-7.0-5.0-0.22","5","5","5","5","3","4","3","4","4","4","4","1","0","0","0","-2","0","1","0","5","4","5","4","4","4","4","4","4","4","5","6","5","6","4","4","4","5","5","6","5","3","5","3","3","6","1","4","3","4","3","5","4","3","5","5","4","3","3","3","5","3","3","3","5","3","5","5","6","2","5","3","6","3","5","5","6","3","5","686480127940362240","董","472","Female","[""好她"",""坏她"",""好我"",""坏我""]","[""强她"",""弱她"",""强我"",""弱我""]","","","","","","","","5","","","","","","","","","SRET","SRET_math_calculate","","key","5","16.666301675977554","720","476","","","","","14-9= ?","5","1","","","","","","",""
"2165","","5","psychophysics","126","409389","0.0-7.0-5.0-0.23","5","5","5","5","3","4","3","4","4","4","4","1","0","0","0","-2","0","1","0","5","4","5","4","4","4","4","4","4","4","5","6","5","6","4","4","4","5","5","6","5","3","5","3","3","6","1","4","3","4","3","5","4","3","5","5","4","3","3","3","5","3","3","3","5","3","5","5","6","2","5","3","6","3","5","5","6","3","5","686480127940362240","董","472","Female","[""好她"",""坏她"",""好我"",""坏我""]","[""强她"",""弱她"",""强我"",""弱我""]","","","","","","","","5","","","","","","","","","SRET","SRET_math_calculate","","key","5","16.66655038759679","720","476","","","","","15-10= ?","5","1","","","","","","",""
"2481","","2","psychophysics","127","411902","0.0-7.0-5.0-0.24","5","5","5","5","3","4","3","4","4","4","4","1","0","0","0","-2","0","1","0","5","4","5","4","4","4","4","4","4","4","5","6","5","6","4","4","4","5","5","6","5","3","5","3","3","6","1","4","3","4","3","5","4","3","5","5","4","3","3","3","5","3","3","3","5","3","5","5","6","2","5","3","6","3","5","5","6","3","5","686480127940362240","董","472","Female","[""好她"",""坏她"",""好我"",""坏我""]","[""强她"",""弱她"",""强我"",""弱我""]","","","","","","","","2","","","","","","","","","SRET","SRET_math_calculate","","key","2","16.89310204081608","720","476","","","","","90/45= ?","2","1","","","","","","",""
"2671","","0","psychophysics","128","414582","0.0-7.0-5.0-0.25","5","5","5","5","3","4","3","4","4","4","4","1","0","0","0","-2","0","1","0","5","4","5","4","4","4","4","4","4","4","5","6","5","6","4","4","4","5","5","6","5","3","5","3","3","6","1","4","3","4","3","5","4","3","5","5","4","3","3","3","5","3","3","3","5","3","5","5","6","2","5","3","6","3","5","5","6","3","5","686480127940362240","董","472","Female","[""好她"",""坏她"",""好我"",""坏我""]","[""强她"",""弱她"",""强我"",""弱我""]","","","","","","","","0","","","","","","","","","SRET","SRET_math_calculate","","key","0","16.66628750000018","720","476","","","","","32-32= ?","0","1","","","","","","",""
"2017","","8","psychophysics","129","416607","0.0-7.0-5.0-0.26","5","5","5","5","3","4","3","4","4","4","4","1","0","0","0","-2","0","1","0","5","4","5","4","4","4","4","4","4","4","5","6","5","6","4","4","4","5","5","6","5","3","5","3","3","6","1","4","3","4","3","5","4","3","5","5","4","3","3","3","5","3","3","3","5","3","5","5","6","2","5","3","6","3","5","5","6","3","5","686480127940362240","董","472","Female","[""好她"",""坏她"",""好我"",""坏我""]","[""强她"",""弱她"",""强我"",""弱我""]","","","","","","","","8","","","","","","","","","SRET","SRET_math_calculate","","key","8","16.66588429752054","720","476","","","","","9-1= ?","8","1","","","","","","",""
"5140","","6","psychophysics","130","421752","0.0-7.0-5.0-0.27","5","5","5","5","3","4","3","4","4","4","4","1","0","0","0","-2","0","1","0","5","4","5","4","4","4","4","4","4","4","5","6","5","6","4","4","4","5","5","6","5","3","5","3","3","6","1","4","3","4","3","5","4","3","5","5","4","3","3","3","5","3","3","3","5","3","5","5","6","2","5","3","6","3","5","5","6","3","5","686480127940362240","董","472","Female","[""好她"",""坏她"",""好我"",""坏我""]","[""强她"",""弱她"",""强我"",""弱我""]","","","","","","","","6","","","","","","","","","SRET","SRET_math_calculate","","key","6","16.66650814332253","720","476","","","","","11-5= ?","6","1","","","","","","",""
"2619","","7","psychophysics","131","424378","0.0-7.0-5.0-0.28","5","5","5","5","3","4","3","4","4","4","4","1","0","0","0","-2","0","1","0","5","4","5","4","4","4","4","4","4","4","5","6","5","6","4","4","4","5","5","6","5","3","5","3","3","6","1","4","3","4","3","5","4","3","5","5","4","3","3","3","5","3","3","3","5","3","5","5","6","2","5","3","6","3","5","5","6","3","5","686480127940362240","董","472","Female","[""好她"",""坏她"",""好我"",""坏我""]","[""强她"",""弱她"",""强我"",""弱我""]","","","","","","","","7","","","","","","","","","SRET","SRET_math_calculate","","key","7","16.991123376623197","720","476","","","","","9-2= ?","7","1","","","","","","",""
"2164","","1","psychophysics","132","426550","0.0-7.0-5.0-0.29","5","5","5","5","3","4","3","4","4","4","4","1","0","0","0","-2","0","1","0","5","4","5","4","4","4","4","4","4","4","5","6","5","6","4","4","4","5","5","6","5","3","5","3","3","6","1","4","3","4","3","5","4","3","5","5","4","3","3","3","5","3","3","3","5","3","5","5","6","2","5","3","6","3","5","5","6","3","5","686480127940362240","董","472","Female","[""好她"",""坏她"",""好我"",""坏我""]","[""强她"",""弱她"",""强我"",""弱我""]","","","","","","","","1","","","","","","","","","SRET","SRET_math_calculate","","key","1","16.79638281250027","720","476","","","","","10-9= ?","1","1","","","","","","",""
"2368","","0","psychophysics","133","428927","0.0-7.0-5.0-0.30","5","5","5","5","3","4","3","4","4","4","4","1","0","0","0","-2","0","1","0","5","4","5","4","4","4","4","4","4","4","5","6","5","6","4","4","4","5","5","6","5","3","5","3","3","6","1","4","3","4","3","5","4","3","5","5","4","3","3","3","5","3","3","3","5","3","5","5","6","2","5","3","6","3","5","5","6","3","5","686480127940362240","董","472","Female","[""好她"",""坏她"",""好我"",""坏我""]","[""强她"",""弱她"",""强我"",""弱我""]","","","","","","","","0","","","","","","","","","SRET","SRET_math_calculate","","key","0","16.665985915493007","720","476","","","","","6*0= ?","0","1","","","","","","",""
"2671","","2","psychophysics","134","431609","0.0-7.0-5.0-0.31","5","5","5","5","3","4","3","4","4","4","4","1","0","0","0","-2","0","1","0","5","4","5","4","4","4","4","4","4","4","5","6","5","6","4","4","4","5","5","6","5","3","5","3","3","6","1","4","3","4","3","5","4","3","5","5","4","3","3","3","5","3","3","3","5","3","5","5","6","2","5","3","6","3","5","5","6","3","5","686480127940362240","董","472","Female","[""好她"",""坏她"",""好我"",""坏我""]","[""强她"",""弱她"",""强我"",""弱我""]","","","","","","","","2","","","","","","","","","SRET","SRET_math_calculate","","key","2","16.66627499999995","720","476","","","","","19-17= ?","2","1","","","","","","",""
"2224","","9","psychophysics","135","433837","0.0-7.0-5.0-0.32","5","5","5","5","3","4","3","4","4","4","4","1","0","0","0","-2","0","1","0","5","4","5","4","4","4","4","4","4","4","5","6","5","6","4","4","4","5","5","6","5","3","5","3","3","6","1","4","3","4","3","5","4","3","5","5","4","3","3","3","5","3","3","3","5","3","5","5","6","2","5","3","6","3","5","5","6","3","5","686480127940362240","董","472","Female","[""好她"",""坏她"",""好我"",""坏我""]","[""强她"",""弱她"",""强我"",""弱我""]","","","","","","","","9","","","","","","","","","SRET","SRET_math_calculate","","key","9","16.793633587786374","720","476","","","","","8+1= ?","9","1","","","","","","",""
"2173","","0","psychophysics","136","436046","0.0-7.0-5.0-0.33","5","5","5","5","3","4","3","4","4","4","4","1","0","0","0","-2","0","1","0","5","4","5","4","4","4","4","4","4","4","5","6","5","6","4","4","4","5","5","6","5","3","5","3","3","6","1","4","3","4","3","5","4","3","5","5","4","3","3","3","5","3","3","3","5","3","5","5","6","2","5","3","6","3","5","5","6","3","5","686480127940362240","董","472","Female","[""好她"",""坏她"",""好我"",""坏我""]","[""强她"",""弱她"",""强我"",""弱我""]","","","","","","","","0","","","","","","","","","SRET","SRET_math_calculate","","key","0","16.793793893129944","720","476","","","","","22-22= ?","0","1","","","","","","",""
"2839","","2","psychophysics","137","438892","0.0-7.0-5.0-0.34","5","5","5","5","3","4","3","4","4","4","4","1","0","0","0","-2","0","1","0","5","4","5","4","4","4","4","4","4","4","5","6","5","6","4","4","4","5","5","6","5","3","5","3","3","6","1","4","3","4","3","5","4","3","5","5","4","3","3","3","5","3","3","3","5","3","5","5","6","2","5","3","6","3","5","5","6","3","5","686480127940362240","董","472","Female","[""好她"",""坏她"",""好我"",""坏我""]","[""强她"",""弱她"",""强我"",""弱我""]","","","","","","","","2","","","","","","","","","SRET","SRET_math_calculate","","key","2","16.666341176470535","720","476","","","","","8-6= ?","2","1","","","","","","",""
"2437","","8","psychophysics","138","441332","0.0-7.0-5.0-0.35","5","5","5","5","3","4","3","4","4","4","4","1","0","0","0","-2","0","1","0","5","4","5","4","4","4","4","4","4","4","5","6","5","6","4","4","4","5","5","6","5","3","5","3","3","6","1","4","3","4","3","5","4","3","5","5","4","3","3","3","5","3","3","3","5","3","5","5","6","2","5","3","6","3","5","5","6","3","5","686480127940362240","董","472","Female","[""好她"",""坏她"",""好我"",""坏我""]","[""强她"",""弱她"",""强我"",""弱我""]","","","","","","","","8","","","","","","","","","SRET","SRET_math_calculate","","key","8","16.66639310344813","720","476","","","","","50-42= ?","8","1","","","","","","",""
"2650","","7","psychophysics","139","443988","0.0-7.0-5.0-0.36","5","5","5","5","3","4","3","4","4","4","4","1","0","0","0","-2","0","1","0","5","4","5","4","4","4","4","4","4","4","5","6","5","6","4","4","4","5","5","6","5","3","5","3","3","6","1","4","3","4","3","5","4","3","5","5","4","3","3","3","5","3","3","3","5","3","5","5","6","2","5","3","6","3","5","5","6","3","5","686480127940362240","董","472","Female","[""好她"",""坏她"",""好我"",""坏我""]","[""强她"",""弱她"",""强我"",""弱我""]","","","","","","","","7","","","","","","","","","SRET","SRET_math_calculate","","key","7","16.878515923566667","720","476","","","","","12-5= ?","7","1","","","","","","",""
"2916","","7","psychophysics","140","446909","0.0-7.0-5.0-0.37","5","5","5","5","3","4","3","4","4","4","4","1","0","0","0","-2","0","1","0","5","4","5","4","4","4","4","4","4","4","5","6","5","6","4","4","4","5","5","6","5","3","5","3","3","6","1","4","3","4","3","5","4","3","5","5","4","3","3","3","5","3","3","3","5","3","5","5","6","2","5","3","6","3","5","5","6","3","5","686480127940362240","董","472","Female","[""好她"",""坏她"",""好我"",""坏我""]","[""强她"",""弱她"",""强我"",""弱我""]","","","","","","","","7","","","","","","","","","SRET","SRET_math_calculate","","key","7","16.666454022988443","720","476","","","","","49/7 = ?","7","1","","","","","","",""
"2368","","9","psychophysics","141","449312","0.0-7.0-5.0-0.38","5","5","5","5","3","4","3","4","4","4","4","1","0","0","0","-2","0","1","0","5","4","5","4","4","4","4","4","4","4","5","6","5","6","4","4","4","5","5","6","5","3","5","3","3","6","1","4","3","4","3","5","4","3","5","5","4","3","3","3","5","3","3","3","5","3","5","5","6","2","5","3","6","3","5","5","6","3","5","686480127940362240","董","472","Female","[""好她"",""坏她"",""好我"",""坏我""]","[""强她"",""弱她"",""强我"",""弱我""]","","","","","","","","9","","","","","","","","","SRET","SRET_math_calculate","","key","9","16.6663286713289","720","476","","","","","6+3= ?","9","1","","","","","","",""
"2079","","9","psychophysics","142","451399","0.0-7.0-5.0-0.39","5","5","5","5","3","4","3","4","4","4","4","1","0","0","0","-2","0","1","0","5","4","5","4","4","4","4","4","4","4","5","6","5","6","4","4","4","5","5","6","5","3","5","3","3","6","1","4","3","4","3","5","4","3","5","5","4","3","3","3","5","3","3","3","5","3","5","5","6","2","5","3","6","3","5","5","6","3","5","686480127940362240","董","472","Female","[""好她"",""坏她"",""好我"",""坏我""]","[""强她"",""弱她"",""强我"",""弱我""]","","","","","","","","9","","","","","","","","","SRET","SRET_math_calculate","","key","9","16.666177419355073","720","476","","","","","4+5= ?","9","1","","","","","","",""
"2626","","3","psychophysics","143","454062","0.0-7.0-5.0-0.40","5","5","5","5","3","4","3","4","4","4","4","1","0","0","0","-2","0","1","0","5","4","5","4","4","4","4","4","4","4","5","6","5","6","4","4","4","5","5","6","5","3","5","3","3","6","1","4","3","4","3","5","4","3","5","5","4","3","3","3","5","3","3","3","5","3","5","5","6","2","5","3","6","3","5","5","6","3","5","686480127940362240","董","472","Female","[""好她"",""坏她"",""好我"",""坏我""]","[""强她"",""弱她"",""强我"",""弱我""]","","","","","","","","3","","","","","","","","","SRET","SRET_math_calculate","","key","3","16.878726114649815","720","476","","","","","11-8= ?","3","1","","","","","","",""
"2225","","5","psychophysics","144","456294","0.0-7.0-5.0-0.41","5","5","5","5","3","4","3","4","4","4","4","1","0","0","0","-2","0","1","0","5","4","5","4","4","4","4","4","4","4","5","6","5","6","4","4","4","5","5","6","5","3","5","3","3","6","1","4","3","4","3","5","4","3","5","5","4","3","3","3","5","3","3","3","5","3","5","5","6","2","5","3","6","3","5","5","6","3","5","686480127940362240","董","472","Female","[""好她"",""坏她"",""好我"",""坏我""]","[""强她"",""弱她"",""强我"",""弱我""]","","","","","","","","5","","","","","","","","","SRET","SRET_math_calculate","","key","5","16.792590909090713","720","476","","","","","10-5= ?","5","1","","","","","","",""
