"rt","stimulus","response","trial_type","trial_index","time_elapsed","internal_node_id","swb_1","swb_2","swb_3","swb_4","swb_5","LOT_1","LOT_2","LOT_3","LOT_4","LOT_5","LOT_6","IPC_1","IPC_2","IPC_3","IPC_4","IPC_5","IPC_6","IPC_7","IPC_8","MorIden_1","MorIden_2","MorIden_3","MorIden_4","MorIden_5","MorIden_6","MorIden_7","MorIden_8","MorIden_9","MorIden_10","moralSeImag_1","moralSeImag_2","moralSeImag_3","moralSeImag_4","moralSeImag_5","moralSeImag_6","moralSeImag_7","moralSeImag_8","moralSeImag_9","sde_1","sde_2","sde_3","sde_4","sde_5","sde_6","sde_7","sde_8","sde_9","sde_10","trap2","sde_11","sde_12","sde_13","sde_14","sde_15","sde_16","sde_17","sde_18","sde_19","sde_20","IM_1","IM_2","IM_3","IM_4","IM_5","IM_6","IM_7","IM_8","IM_9","IM_10","IM_11","IM_12","IM_13","IM_14","IM_15","IM_16","IM_17","IM_18","IM_19","IM_20","subj_idx","friend_name","ParticipantID","Sex","Word","Word2","value","success","timeout","failed_images","failed_audio","failed_video","user_agent","responses","item_order","radio_event_ids","radio_event_times","key_event_times","mouse_event_times","straightlining","zigzagging","honeypot","task_id","screen_id","time_stamp","response_type","key_press","avg_frame_time","center_x","center_y","person","word","valence","domain","math","correct_response","correct","status","view_history","identity","duration","Image","condition","question_order","trap2_item"
"4493","
   <p><div style='color:white; font-size: 25px'>您好，欢迎参加本次实验。</div></p>
   <p><div style='color:white; font-size: 25px'>为充分保障您的权利，请确保您已经知晓并同意《参与实验同意书》以及《数据公开知情同意书》。</div></p>
   <p><div style='color:white; font-size: 25px'>如果您未见过上述内容，请咨询实验员。</div></p>
   <p style='color:white; font-size: 25px'>如果您选择继续实验，则表示您已经清楚两份知情同意书的内容并同意。</p>
   <p><div style = ""color: pink;font-size:30px;"">请确保您记得day0的实验编号，您将在本次实验输入该编号，若您忘记，请咨询实验员后作答。</div></p>
   <p><div style = ""color:lightblue;font-size:25px;"">请您尽可能认真地作答，我们将依据您在各问卷和按键任务中的作答质量发放报酬。</div></p>
   <p> <div style = ""color: green""><按空格键至下页></div> </p>
   "," ","html-keyboard-response","0","4500","0.0-0.0","5","2","5","1","1","5","3","4","4","5","5","0","0","1","2","-2","1","1","2","5","4","5","4","2","1","2","3","4","3","4","6","4","8","3","7","6","5","7","5","5","3","3","6","2","5","2","5","5","1","2","2","5","1","1","5","5","4","6","3","1","2","2","1","1","2","6","2","1","7","1","1","1","1","1","2","1","7","1","3","799230569765543938","仲","102","Female","[""坏我"",""好我"",""好她"",""坏她""]","[""弱我"",""强我"",""强她"",""弱她""]","","","","","","","","","","","","","","","","","","","","","","","","","","","","","","","","","","","","","","",""
"","","","call-function","1","4503","0.0-1.0-0.0","5","2","5","1","1","5","3","4","4","5","5","0","0","1","2","-2","1","1","2","5","4","5","4","2","1","2","3","4","3","4","6","4","8","3","7","6","5","7","5","5","3","3","6","2","5","2","5","5","1","2","2","5","1","1","5","5","4","6","3","1","2","2","1","1","2","6","2","1","7","1","1","1","1","1","2","1","7","1","3","799230569765543938","仲","102","Female","[""坏我"",""好我"",""好她"",""坏她""]","[""弱我"",""强我"",""强她"",""弱她""]","","","","","","","","","","","","","","","","","","","","","","","","","","","","","","","","","","","","","","",""
"34801","","[{""name"":""Sex"",""value"":""1""},{""name"":""friend_name"",""value"":""仲""},{""name"":""ParticipantID"",""value"":""102""}]","survey-html-form","2","39314","0.0-1.0-1.0","5","2","5","1","1","5","3","4","4","5","5","0","0","1","2","-2","1","1","2","5","4","5","4","2","1","2","3","4","3","4","6","4","8","3","7","6","5","7","5","5","3","3","6","2","5","2","5","5","1","2","2","5","1","1","5","5","4","6","3","1","2","2","1","1","2","6","2","1","7","1","1","1","1","1","2","1","7","1","3","799230569765543938","仲","102","Female","[""坏我"",""好我"",""好她"",""坏她""]","[""弱我"",""强我"",""强她"",""弱她""]","","","","","","","","","","","","","","","","","","","","","","","","","","","","","","","","","","","","","","",""
"","","","preload","3","39949","0.0-2.0","5","2","5","1","1","5","3","4","4","5","5","0","0","1","2","-2","1","1","2","5","4","5","4","2","1","2","3","4","3","4","6","4","8","3","7","6","5","7","5","5","3","3","6","2","5","2","5","5","1","2","2","5","1","1","5","5","4","6","3","1","2","2","1","1","2","6","2","1","7","1","1","1","1","1","2","1","7","1","3","799230569765543938","仲","102","Female","[""坏我"",""好我"",""好她"",""坏她""]","[""弱我"",""强我"",""强她"",""弱她""]","","true","false","[]","[]","[]","","","","","","","","","","","","","","","","","","","","","","","","","","","","","","","","",""
"","","","fullscreen","4","46805","0.0-3.0","5","2","5","1","1","5","3","4","4","5","5","0","0","1","2","-2","1","1","2","5","4","5","4","2","1","2","3","4","3","4","6","4","8","3","7","6","5","7","5","5","3","3","6","2","5","2","5","5","1","2","2","5","1","1","5","5","4","6","3","1","2","2","1","1","2","6","2","1","7","1","1","1","1","1","2","1","7","1","3","799230569765543938","仲","102","Female","[""坏我"",""好我"",""好她"",""坏她""]","[""弱我"",""强我"",""强她"",""弱她""]","","true","","","","","{}","","","","","","","","","","","","","","","","","","","","","","","","","","","","","","","",""
"29408.599999999977","","{""Q01"":""5"",""Q02"":""2"",""Q03"":""5"",""Q04"":""1"",""Q05"":""1""}","survey-template","5","76219","0.0-4.0","5","2","5","1","1","5","3","4","4","5","5","0","0","1","2","-2","1","1","2","5","4","5","4","2","1","2","3","4","3","4","6","4","8","3","7","6","5","7","5","5","3","3","6","2","5","2","5","5","1","2","2","5","1","1","5","5","4","6","3","1","2","2","1","1","2","6","2","1","7","1","1","1","1","1","2","1","7","1","3","799230569765543938","仲","102","Female","[""坏我"",""好我"",""好她"",""坏她""]","[""弱我"",""强我"",""强她"",""弱她""]","","","","","","","","{""Q01"":""5"",""Q02"":""2"",""Q03"":""5"",""Q04"":""1"",""Q05"":""1""}","[0,1,2,3,4]","[""Q01"",""Q02"",""Q01"",""Q03"",""Q04"",""Q05""]","[12663.599999999977,16919,21575.79999999993,22184.199999999953,26519.599999999977,28399.099999999977]","[]","[12663.599999999977,16919,21575.79999999993,22184.199999999953,26519.599999999977,28399.099999999977,29406.899999999907]","0.4","0","0","","","","","","","","","","","","","","","","","","","","","","",""
"26130.099999999977","","{""Q01"":""5"",""Q02"":""3"",""Q03"":""4"",""Q04"":""4"",""Q05"":""5"",""Q06"":""5""}","survey-template","6","102360","0.0-5.0","5","2","5","1","1","5","3","4","4","5","5","0","0","1","2","-2","1","1","2","5","4","5","4","2","1","2","3","4","3","4","6","4","8","3","7","6","5","7","5","5","3","3","6","2","5","2","5","5","1","2","2","5","1","1","5","5","4","6","3","1","2","2","1","1","2","6","2","1","7","1","1","1","1","1","2","1","7","1","3","799230569765543938","仲","102","Female","[""坏我"",""好我"",""好她"",""坏她""]","[""弱我"",""强我"",""强她"",""弱她""]","","","","","","","","{""Q01"":""5"",""Q02"":""3"",""Q03"":""4"",""Q04"":""4"",""Q05"":""5"",""Q06"":""5""}","[0,1,2,3,4,5]","[""Q01"",""Q02"",""Q03"",""Q04"",""Q05"",""Q06""]","[4806.5,12862.5,14384.5,18478.599999999977,23238.699999999953,25021.400000000023]","[]","[4806.5,10205.400000000023,12222.900000000023,12862.5,14384.5,18478.599999999977,23238.699999999953,25021.400000000023,26127]","0.3333333333333333","0.6","0","","","","","","","","","","","","","","","","","","","","","","",""
"49368.79999999993","","{""Q01"":""0"",""Q02"":""0"",""Q03"":""1"",""Q04"":""2"",""Q05"":""-2"",""Q06"":""1"",""Q07"":""1"",""Q08"":""2""}","survey-template","7","151739","0.0-6.0","5","2","5","1","1","5","3","4","4","5","5","0","0","1","2","-2","1","1","2","5","4","5","4","2","1","2","3","4","3","4","6","4","8","3","7","6","5","7","5","5","3","3","6","2","5","2","5","5","1","2","2","5","1","1","5","5","4","6","3","1","2","2","1","1","2","6","2","1","7","1","1","1","1","1","2","1","7","1","3","799230569765543938","仲","102","Female","[""坏我"",""好我"",""好她"",""坏她""]","[""弱我"",""强我"",""强她"",""弱她""]","","","","","","","","{""Q01"":""0"",""Q02"":""0"",""Q03"":""1"",""Q04"":""2"",""Q05"":""-2"",""Q06"":""1"",""Q07"":""1"",""Q08"":""2""}","[0,1,2,3,4,5,6,7]","[""Q01"",""Q02"",""Q01"",""Q03"",""Q04"",""Q05"",""Q06"",""Q07"",""Q08""]","[6939.199999999953,15884.199999999953,16627.699999999953,18323.199999999953,24260.399999999907,25147.099999999977,28988.699999999953,32227.399999999907,48604.69999999995]","[]","[6939.199999999953,15884.199999999953,16627.699999999953,18323.199999999953,24260.399999999907,25147.099999999977,28988.699999999953,32227.399999999907,48604.69999999995,49364]","0.375","0.42857142857142855","0","","","","","","","","","","","","","","","","","","","","","","",""
"14876","
    <p><div style='color:white;font-size:35px; line-height:20px;'>词汇评估任务</div></p><br>
    <p><div style='color:white;font-size:25px; line-height:20px;'>请再次回忆该亲密的朋友，你们至少2年前就认识了，并且最近2年经常见面。</div></p>
    <p><div style='color:white;font-size:25px; line-height:20px;'>在本实验中，您将会看到一些形容词。</div></p>
    <p><div style='color:yellow;font-size:25px; line-height:20px;'>您的任务是判断这些形容词是否符合对您自己或您的朋友的描述。</div></p><p style='font-size:35px'>符合按<span style=""color:lightgreen""> f 键</span>，不符合按<span style=""color:red""> j 键</span></p>","0","html-button-response","8","166622","0.0-7.0-0.0","5","2","5","1","1","5","3","4","4","5","5","0","0","1","2","-2","1","1","2","5","4","5","4","2","1","2","3","4","3","4","6","4","8","3","7","6","5","7","5","5","3","3","6","2","5","2","5","5","1","2","2","5","1","1","5","5","4","6","3","1","2","2","1","1","2","6","2","1","7","1","1","1","1","1","2","1","7","1","3","799230569765543938","仲","102","Female","[""坏我"",""好我"",""好她"",""坏她""]","[""弱我"",""强我"",""强她"",""弱她""]","","","","","","","","","","","","","","","","","SRET_EW","EW_instructions","Fri Jan 19 2024 19:12:01 GMT+0800 (中国标准时间)","","","","","","","","","","","","","","","","","","","",""
"null","","null","psychophysics","9","169632","0.0-7.0-1.0-0.0","5","2","5","1","1","5","3","4","4","5","5","0","0","1","2","-2","1","1","2","5","4","5","4","2","1","2","3","4","3","4","6","4","8","3","7","6","5","7","5","5","3","3","6","2","5","2","5","5","1","2","2","5","1","1","5","5","4","6","3","1","2","2","1","1","2","6","2","1","7","1","1","1","1","1","2","1","7","1","3","799230569765543938","仲","102","Female","[""坏我"",""好我"",""好她"",""坏她""]","[""弱我"",""强我"",""强她"",""弱她""]","","","","","","","","","","","","","","","","","SRET_EW","EW_practice","","key","null","16.572928176795646","683","380","朋友","徇私","Negative","morality","","","","","","","","","","",""
"1304","","j","psychophysics","10","171945","0.0-7.0-1.0-0.1","5","2","5","1","1","5","3","4","4","5","5","0","0","1","2","-2","1","1","2","5","4","5","4","2","1","2","3","4","3","4","6","4","8","3","7","6","5","7","5","5","3","3","6","2","5","2","5","5","1","2","2","5","1","1","5","5","4","6","3","1","2","2","1","1","2","6","2","1","7","1","1","1","1","1","2","1","7","1","3","799230569765543938","仲","102","Female","[""坏我"",""好我"",""好她"",""坏她""]","[""弱我"",""强我"",""强她"",""弱她""]","","","","","","","","no","","","","","","","","","SRET_EW","EW_practice","","key","j","16.665942028985675","683","380","自己","刻板","Negative","ability","","","","","","","","","","",""
"1514","","j","psychophysics","11","174466","0.0-7.0-1.0-0.2","5","2","5","1","1","5","3","4","4","5","5","0","0","1","2","-2","1","1","2","5","4","5","4","2","1","2","3","4","3","4","6","4","8","3","7","6","5","7","5","5","3","3","6","2","5","2","5","5","1","2","2","5","1","1","5","5","4","6","3","1","2","2","1","1","2","6","2","1","7","1","1","1","1","1","2","1","7","1","3","799230569765543938","仲","102","Female","[""坏我"",""好我"",""好她"",""坏她""]","[""弱我"",""强我"",""强她"",""弱她""]","","","","","","","","no","","","","","","","","","SRET_EW","EW_practice","","key","j","16.666000000000157","683","380","自己","严谨","Positive","ability","","","","","","","","","","",""
"966","","f","psychophysics","12","176434","0.0-7.0-1.0-0.3","5","2","5","1","1","5","3","4","4","5","5","0","0","1","2","-2","1","1","2","5","4","5","4","2","1","2","3","4","3","4","6","4","8","3","7","6","5","7","5","5","3","3","6","2","5","2","5","5","1","2","2","5","1","1","5","5","4","6","3","1","2","2","1","1","2","6","2","1","7","1","1","1","1","1","2","1","7","1","3","799230569765543938","仲","102","Female","[""坏我"",""好我"",""好她"",""坏她""]","[""弱我"",""强我"",""强她"",""弱她""]","","","","","","","","yes","","","","","","","","","SRET_EW","EW_practice","","key","f","16.665811965811915","683","380","朋友","忠实","Positive","morality","","","","","","","","","","",""
"8974","
    <p><div style='color:white;font-size:35px; line-height:20px;'>请您再次阅读实验要求</div></p><br>
    <p><div style='color:white;font-size:25px; line-height:20px;'>请回忆某一个亲密的朋友，你们至少2年前就认识了，并且最近2年经常见面。</div></p>
    <p><div style='color:white;font-size:25px; line-height:20px;'>在本实验中，您将会看到一些形容词。</div></p>
    <p><div style='color:yellow;font-size:25px; line-height:20px;'>您的任务是判断这些形容词是否符合对您自己或您的朋友的描述。</div></p>
    <p><div class='footer' style='font-size:25px; line-height:20px;'>如果对本实验还有不清楚之处，请立即向实验员咨询。</p><p style='font-size:25px; line-height:20px;'>如果您明白了规则：</p><p style='font-size:22px; line-height:20px;'>请按 继续 进入正式实验</p>
    </div>
    <p style='font-size:35px'>符合按<span style=""color:lightgreen""> f 键</span>，不符合按<span style=""color:red""> j 键</span></p>","0","html-button-response","13","185411","0.0-7.0-2.0","5","2","5","1","1","5","3","4","4","5","5","0","0","1","2","-2","1","1","2","5","4","5","4","2","1","2","3","4","3","4","6","4","8","3","7","6","5","7","5","5","3","3","6","2","5","2","5","5","1","2","2","5","1","1","5","5","4","6","3","1","2","2","1","1","2","6","2","1","7","1","1","1","1","1","2","1","7","1","3","799230569765543938","仲","102","Female","[""坏我"",""好我"",""好她"",""坏她""]","[""弱我"",""强我"",""强她"",""弱她""]","","","","","","","","","","","","","","","","","SRET_EW","prac_instructions","Fri Jan 19 2024 19:12:01 GMT+0800 (中国标准时间)","","","","","","","","","","","","","","","","","","","",""
"1051","","f","psychophysics","14","187469","0.0-7.0-3.0-0.0","5","2","5","1","1","5","3","4","4","5","5","0","0","1","2","-2","1","1","2","5","4","5","4","2","1","2","3","4","3","4","6","4","8","3","7","6","5","7","5","5","3","3","6","2","5","2","5","5","1","2","2","5","1","1","5","5","4","6","3","1","2","2","1","1","2","6","2","1","7","1","1","1","1","1","2","1","7","1","3","799230569765543938","仲","102","Female","[""坏我"",""好我"",""好她"",""坏她""]","[""弱我"",""强我"",""强她"",""弱她""]","","","","","","","","yes","","","","","","","","","SRET","EW_formal","","key","f","16.66393442622951","683","380","朋友","迷糊","Negative","ability","","","","","","","","","","",""
"1239","","j","psychophysics","15","189710","0.0-7.0-3.0-0.1","5","2","5","1","1","5","3","4","4","5","5","0","0","1","2","-2","1","1","2","5","4","5","4","2","1","2","3","4","3","4","6","4","8","3","7","6","5","7","5","5","3","3","6","2","5","2","5","5","1","2","2","5","1","1","5","5","4","6","3","1","2","2","1","1","2","6","2","1","7","1","1","1","1","1","2","1","7","1","3","799230569765543938","仲","102","Female","[""坏我"",""好我"",""好她"",""坏她""]","[""弱我"",""强我"",""强她"",""弱她""]","","","","","","","","no","","","","","","","","","SRET","EW_formal","","key","j","16.665671641790915","683","380","自己","坚贞","Positive","morality","","","","","","","","","","",""
"1059","","f","psychophysics","16","191776","0.0-7.0-3.0-0.2","5","2","5","1","1","5","3","4","4","5","5","0","0","1","2","-2","1","1","2","5","4","5","4","2","1","2","3","4","3","4","6","4","8","3","7","6","5","7","5","5","3","3","6","2","5","2","5","5","1","2","2","5","1","1","5","5","4","6","3","1","2","2","1","1","2","6","2","1","7","1","1","1","1","1","2","1","7","1","3","799230569765543938","仲","102","Female","[""坏我"",""好我"",""好她"",""坏她""]","[""弱我"",""强我"",""强她"",""弱她""]","","","","","","","","yes","","","","","","","","","SRET","EW_formal","","key","f","16.665040650406645","683","380","朋友","务实","Positive","ability","","","","","","","","","","",""
"1611","","j","psychophysics","17","194394","0.0-7.0-3.0-0.3","5","2","5","1","1","5","3","4","4","5","5","0","0","1","2","-2","1","1","2","5","4","5","4","2","1","2","3","4","3","4","6","4","8","3","7","6","5","7","5","5","3","3","6","2","5","2","5","5","1","2","2","5","1","1","5","5","4","6","3","1","2","2","1","1","2","6","2","1","7","1","1","1","1","1","2","1","7","1","3","799230569765543938","仲","102","Female","[""坏我"",""好我"",""好她"",""坏她""]","[""弱我"",""强我"",""强她"",""弱她""]","","","","","","","","no","","","","","","","","","SRET","EW_formal","","key","j","16.66538461538454","683","380","自己","说谎","Negative","morality","","","","","","","","","","",""
"1459","","j","psychophysics","18","196860","0.0-7.0-3.0-0.4","5","2","5","1","1","5","3","4","4","5","5","0","0","1","2","-2","1","1","2","5","4","5","4","2","1","2","3","4","3","4","6","4","8","3","7","6","5","7","5","5","3","3","6","2","5","2","5","5","1","2","2","5","1","1","5","5","4","6","3","1","2","2","1","1","2","6","2","1","7","1","1","1","1","1","2","1","7","1","3","799230569765543938","仲","102","Female","[""坏我"",""好我"",""好她"",""坏她""]","[""弱我"",""强我"",""强她"",""弱她""]","","","","","","","","no","","","","","","","","","SRET","EW_formal","","key","j","16.665986394557784","683","380","朋友","利己","Negative","morality","","","","","","","","","","",""
"870","","j","psychophysics","19","198737","0.0-7.0-3.0-0.5","5","2","5","1","1","5","3","4","4","5","5","0","0","1","2","-2","1","1","2","5","4","5","4","2","1","2","3","4","3","4","6","4","8","3","7","6","5","7","5","5","3","3","6","2","5","2","5","5","1","2","2","5","1","1","5","5","4","6","3","1","2","2","1","1","2","6","2","1","7","1","1","1","1","1","2","1","7","1","3","799230569765543938","仲","102","Female","[""坏我"",""好我"",""好她"",""坏她""]","[""弱我"",""强我"",""强她"",""弱她""]","","","","","","","","no","","","","","","","","","SRET","EW_formal","","key","j","16.665765765765713","683","380","朋友","混账","Negative","morality","","","","","","","","","","",""
"956","","f","psychophysics","20","200695","0.0-7.0-3.0-0.6","5","2","5","1","1","5","3","4","4","5","5","0","0","1","2","-2","1","1","2","5","4","5","4","2","1","2","3","4","3","4","6","4","8","3","7","6","5","7","5","5","3","3","6","2","5","2","5","5","1","2","2","5","1","1","5","5","4","6","3","1","2","2","1","1","2","6","2","1","7","1","1","1","1","1","2","1","7","1","3","799230569765543938","仲","102","Female","[""坏我"",""好我"",""好她"",""坏她""]","[""弱我"",""强我"",""强她"",""弱她""]","","","","","","","","yes","","","","","","","","","SRET","EW_formal","","key","f","16.665811965811915","683","380","自己","清廉","Positive","morality","","","","","","","","","","",""
"716","","f","psychophysics","21","202415","0.0-7.0-3.0-0.7","5","2","5","1","1","5","3","4","4","5","5","0","0","1","2","-2","1","1","2","5","4","5","4","2","1","2","3","4","3","4","6","4","8","3","7","6","5","7","5","5","3","3","6","2","5","2","5","5","1","2","2","5","1","1","5","5","4","6","3","1","2","2","1","1","2","6","2","1","7","1","1","1","1","1","2","1","7","1","3","799230569765543938","仲","102","Female","[""坏我"",""好我"",""好她"",""坏她""]","[""弱我"",""强我"",""强她"",""弱她""]","","","","","","","","yes","","","","","","","","","SRET","EW_formal","","key","f","16.664705882352827","683","380","自己","仁厚","Positive","morality","","","","","","","","","","",""
"789","","j","psychophysics","22","204211","0.0-7.0-3.0-0.8","5","2","5","1","1","5","3","4","4","5","5","0","0","1","2","-2","1","1","2","5","4","5","4","2","1","2","3","4","3","4","6","4","8","3","7","6","5","7","5","5","3","3","6","2","5","2","5","5","1","2","2","5","1","1","5","5","4","6","3","1","2","2","1","1","2","6","2","1","7","1","1","1","1","1","2","1","7","1","3","799230569765543938","仲","102","Female","[""坏我"",""好我"",""好她"",""坏她""]","[""弱我"",""强我"",""强她"",""弱她""]","","","","","","","","no","","","","","","","","","SRET","EW_formal","","key","j","16.666355140186806","683","380","朋友","博学","Positive","ability","","","","","","","","","","",""
"1199","","j","psychophysics","23","206417","0.0-7.0-3.0-0.9","5","2","5","1","1","5","3","4","4","5","5","0","0","1","2","-2","1","1","2","5","4","5","4","2","1","2","3","4","3","4","6","4","8","3","7","6","5","7","5","5","3","3","6","2","5","2","5","5","1","2","2","5","1","1","5","5","4","6","3","1","2","2","1","1","2","6","2","1","7","1","1","1","1","1","2","1","7","1","3","799230569765543938","仲","102","Female","[""坏我"",""好我"",""好她"",""坏她""]","[""弱我"",""强我"",""强她"",""弱她""]","","","","","","","","no","","","","","","","","","SRET","EW_formal","","key","j","16.665648854961923","683","380","自己","娴熟","Positive","ability","","","","","","","","","","",""
"911","","j","psychophysics","24","208333","0.0-7.0-3.0-0.10","5","2","5","1","1","5","3","4","4","5","5","0","0","1","2","-2","1","1","2","5","4","5","4","2","1","2","3","4","3","4","6","4","8","3","7","6","5","7","5","5","3","3","6","2","5","2","5","5","1","2","2","5","1","1","5","5","4","6","3","1","2","2","1","1","2","6","2","1","7","1","1","1","1","1","2","1","7","1","3","799230569765543938","仲","102","Female","[""坏我"",""好我"",""好她"",""坏她""]","[""弱我"",""强我"",""强她"",""弱她""]","","","","","","","","no","","","","","","","","","SRET","EW_formal","","key","j","16.66578947368416","683","380","自己","坦荡","Positive","morality","","","","","","","","","","",""
"763","","j","psychophysics","25","210102","0.0-7.0-3.0-0.11","5","2","5","1","1","5","3","4","4","5","5","0","0","1","2","-2","1","1","2","5","4","5","4","2","1","2","3","4","3","4","6","4","8","3","7","6","5","7","5","5","3","3","6","2","5","2","5","5","1","2","2","5","1","1","5","5","4","6","3","1","2","2","1","1","2","6","2","1","7","1","1","1","1","1","2","1","7","1","3","799230569765543938","仲","102","Female","[""坏我"",""好我"",""好她"",""坏她""]","[""弱我"",""强我"",""强她"",""弱她""]","","","","","","","","no","","","","","","","","","SRET","EW_formal","","key","j","16.664761904761793","683","380","朋友","小人","Negative","morality","","","","","","","","","","",""
"779","","j","psychophysics","26","211884","0.0-7.0-3.0-0.12","5","2","5","1","1","5","3","4","4","5","5","0","0","1","2","-2","1","1","2","5","4","5","4","2","1","2","3","4","3","4","6","4","8","3","7","6","5","7","5","5","3","3","6","2","5","2","5","5","1","2","2","5","1","1","5","5","4","6","3","1","2","2","1","1","2","6","2","1","7","1","1","1","1","1","2","1","7","1","3","799230569765543938","仲","102","Female","[""坏我"",""好我"",""好她"",""坏她""]","[""弱我"",""强我"",""强她"",""弱她""]","","","","","","","","no","","","","","","","","","SRET","EW_formal","","key","j","16.666037735849113","683","380","朋友","全才","Positive","ability","","","","","","","","","","",""
"858","","f","psychophysics","27","213747","0.0-7.0-3.0-0.13","5","2","5","1","1","5","3","4","4","5","5","0","0","1","2","-2","1","1","2","5","4","5","4","2","1","2","3","4","3","4","6","4","8","3","7","6","5","7","5","5","3","3","6","2","5","2","5","5","1","2","2","5","1","1","5","5","4","6","3","1","2","2","1","1","2","6","2","1","7","1","1","1","1","1","2","1","7","1","3","799230569765543938","仲","102","Female","[""坏我"",""好我"",""好她"",""坏她""]","[""弱我"",""强我"",""强她"",""弱她""]","","","","","","","","yes","","","","","","","","","SRET","EW_formal","","key","f","16.664864864865024","683","380","朋友","精干","Positive","ability","","","","","","","","","","",""
"1025","","f","psychophysics","28","215775","0.0-7.0-3.0-0.14","5","2","5","1","1","5","3","4","4","5","5","0","0","1","2","-2","1","1","2","5","4","5","4","2","1","2","3","4","3","4","6","4","8","3","7","6","5","7","5","5","3","3","6","2","5","2","5","5","1","2","2","5","1","1","5","5","4","6","3","1","2","2","1","1","2","6","2","1","7","1","1","1","1","1","2","1","7","1","3","799230569765543938","仲","102","Female","[""坏我"",""好我"",""好她"",""坏她""]","[""弱我"",""强我"",""强她"",""弱她""]","","","","","","","","yes","","","","","","","","","SRET","EW_formal","","key","f","16.665289256198346","683","380","朋友","无私","Positive","morality","","","","","","","","","","",""
"798","","f","psychophysics","29","217579","0.0-7.0-3.0-0.15","5","2","5","1","1","5","3","4","4","5","5","0","0","1","2","-2","1","1","2","5","4","5","4","2","1","2","3","4","3","4","6","4","8","3","7","6","5","7","5","5","3","3","6","2","5","2","5","5","1","2","2","5","1","1","5","5","4","6","3","1","2","2","1","1","2","6","2","1","7","1","1","1","1","1","2","1","7","1","3","799230569765543938","仲","102","Female","[""坏我"",""好我"",""好她"",""坏她""]","[""弱我"",""强我"",""强她"",""弱她""]","","","","","","","","yes","","","","","","","","","SRET","EW_formal","","key","f","16.664485981308466","683","380","朋友","守法","Positive","morality","","","","","","","","","","",""
"879","","j","psychophysics","30","219462","0.0-7.0-3.0-0.16","5","2","5","1","1","5","3","4","4","5","5","0","0","1","2","-2","1","1","2","5","4","5","4","2","1","2","3","4","3","4","6","4","8","3","7","6","5","7","5","5","3","3","6","2","5","2","5","5","1","2","2","5","1","1","5","5","4","6","3","1","2","2","1","1","2","6","2","1","7","1","1","1","1","1","2","1","7","1","3","799230569765543938","仲","102","Female","[""坏我"",""好我"",""好她"",""坏她""]","[""弱我"",""强我"",""强她"",""弱她""]","","","","","","","","no","","","","","","","","","SRET","EW_formal","","key","j","16.665178571428573","683","380","自己","独断","Negative","ability","","","","","","","","","","",""
"1318","","f","psychophysics","31","221783","0.0-7.0-3.0-0.17","5","2","5","1","1","5","3","4","4","5","5","0","0","1","2","-2","1","1","2","5","4","5","4","2","1","2","3","4","3","4","6","4","8","3","7","6","5","7","5","5","3","3","6","2","5","2","5","5","1","2","2","5","1","1","5","5","4","6","3","1","2","2","1","1","2","6","2","1","7","1","1","1","1","1","2","1","7","1","3","799230569765543938","仲","102","Female","[""坏我"",""好我"",""好她"",""坏她""]","[""弱我"",""强我"",""强她"",""弱她""]","","","","","","","","yes","","","","","","","","","SRET","EW_formal","","key","f","16.665217391304264","683","380","自己","忠勇","Positive","morality","","","","","","","","","","",""
"933","","f","psychophysics","32","223719","0.0-7.0-3.0-0.18","5","2","5","1","1","5","3","4","4","5","5","0","0","1","2","-2","1","1","2","5","4","5","4","2","1","2","3","4","3","4","6","4","8","3","7","6","5","7","5","5","3","3","6","2","5","2","5","5","1","2","2","5","1","1","5","5","4","6","3","1","2","2","1","1","2","6","2","1","7","1","1","1","1","1","2","1","7","1","3","799230569765543938","仲","102","Female","[""坏我"",""好我"",""好她"",""坏她""]","[""弱我"",""强我"",""强她"",""弱她""]","","","","","","","","yes","","","","","","","","","SRET","EW_formal","","key","f","16.666086956521536","683","380","朋友","奉献","Positive","morality","","","","","","","","","","",""
"744","","j","psychophysics","33","225469","0.0-7.0-3.0-0.19","5","2","5","1","1","5","3","4","4","5","5","0","0","1","2","-2","1","1","2","5","4","5","4","2","1","2","3","4","3","4","6","4","8","3","7","6","5","7","5","5","3","3","6","2","5","2","5","5","1","2","2","5","1","1","5","5","4","6","3","1","2","2","1","1","2","6","2","1","7","1","1","1","1","1","2","1","7","1","3","799230569765543938","仲","102","Female","[""坏我"",""好我"",""好她"",""坏她""]","[""弱我"",""强我"",""强她"",""弱她""]","","","","","","","","no","","","","","","","","","SRET","EW_formal","","key","j","16.665384615384728","683","380","自己","弱智","Negative","ability","","","","","","","","","","",""
"709","","f","psychophysics","34","227181","0.0-7.0-3.0-0.20","5","2","5","1","1","5","3","4","4","5","5","0","0","1","2","-2","1","1","2","5","4","5","4","2","1","2","3","4","3","4","6","4","8","3","7","6","5","7","5","5","3","3","6","2","5","2","5","5","1","2","2","5","1","1","5","5","4","6","3","1","2","2","1","1","2","6","2","1","7","1","1","1","1","1","2","1","7","1","3","799230569765543938","仲","102","Female","[""坏我"",""好我"",""好她"",""坏她""]","[""弱我"",""强我"",""强她"",""弱她""]","","","","","","","","yes","","","","","","","","","SRET","EW_formal","","key","f","16.66470588235311","683","380","自己","上进","Positive","ability","","","","","","","","","","",""
"722","","j","psychophysics","35","228910","0.0-7.0-3.0-0.21","5","2","5","1","1","5","3","4","4","5","5","0","0","1","2","-2","1","1","2","5","4","5","4","2","1","2","3","4","3","4","6","4","8","3","7","6","5","7","5","5","3","3","6","2","5","2","5","5","1","2","2","5","1","1","5","5","4","6","3","1","2","2","1","1","2","6","2","1","7","1","1","1","1","1","2","1","7","1","3","799230569765543938","仲","102","Female","[""坏我"",""好我"",""好她"",""坏她""]","[""弱我"",""强我"",""强她"",""弱她""]","","","","","","","","no","","","","","","","","","SRET","EW_formal","","key","j","16.66504854368932","683","380","自己","虚假","Negative","morality","","","","","","","","","","",""
"642","","j","psychophysics","36","230559","0.0-7.0-3.0-0.22","5","2","5","1","1","5","3","4","4","5","5","0","0","1","2","-2","1","1","2","5","4","5","4","2","1","2","3","4","3","4","6","4","8","3","7","6","5","7","5","5","3","3","6","2","5","2","5","5","1","2","2","5","1","1","5","5","4","6","3","1","2","2","1","1","2","6","2","1","7","1","1","1","1","1","2","1","7","1","3","799230569765543938","仲","102","Female","[""坏我"",""好我"",""好她"",""坏她""]","[""弱我"",""强我"",""强她"",""弱她""]","","","","","","","","no","","","","","","","","","SRET","EW_formal","","key","j","16.6653061224488","683","380","自己","伪善","Negative","morality","","","","","","","","","","",""
"880","","j","psychophysics","37","232444","0.0-7.0-3.0-0.23","5","2","5","1","1","5","3","4","4","5","5","0","0","1","2","-2","1","1","2","5","4","5","4","2","1","2","3","4","3","4","6","4","8","3","7","6","5","7","5","5","3","3","6","2","5","2","5","5","1","2","2","5","1","1","5","5","4","6","3","1","2","2","1","1","2","6","2","1","7","1","1","1","1","1","2","1","7","1","3","799230569765543938","仲","102","Female","[""坏我"",""好我"",""好她"",""坏她""]","[""弱我"",""强我"",""强她"",""弱她""]","","","","","","","","no","","","","","","","","","SRET","EW_formal","","key","j","16.66607142857148","683","380","自己","刻薄","Negative","morality","","","","","","","","","","",""
"736","","j","psychophysics","38","234185","0.0-7.0-3.0-0.24","5","2","5","1","1","5","3","4","4","5","5","0","0","1","2","-2","1","1","2","5","4","5","4","2","1","2","3","4","3","4","6","4","8","3","7","6","5","7","5","5","3","3","6","2","5","2","5","5","1","2","2","5","1","1","5","5","4","6","3","1","2","2","1","1","2","6","2","1","7","1","1","1","1","1","2","1","7","1","3","799230569765543938","仲","102","Female","[""坏我"",""好我"",""好她"",""坏她""]","[""弱我"",""强我"",""强她"",""弱她""]","","","","","","","","no","","","","","","","","","SRET","EW_formal","","key","j","16.666019417475503","683","380","自己","窝囊","Negative","ability","","","","","","","","","","",""
"864","","f","psychophysics","39","236052","0.0-7.0-3.0-0.25","5","2","5","1","1","5","3","4","4","5","5","0","0","1","2","-2","1","1","2","5","4","5","4","2","1","2","3","4","3","4","6","4","8","3","7","6","5","7","5","5","3","3","6","2","5","2","5","5","1","2","2","5","1","1","5","5","4","6","3","1","2","2","1","1","2","6","2","1","7","1","1","1","1","1","2","1","7","1","3","799230569765543938","仲","102","Female","[""坏我"",""好我"",""好她"",""坏她""]","[""弱我"",""强我"",""强她"",""弱她""]","","","","","","","","yes","","","","","","","","","SRET","EW_formal","","key","f","16.66486486486476","683","380","自己","新手","Negative","ability","","","","","","","","","","",""
"751","","f","psychophysics","40","237805","0.0-7.0-3.0-0.26","5","2","5","1","1","5","3","4","4","5","5","0","0","1","2","-2","1","1","2","5","4","5","4","2","1","2","3","4","3","4","6","4","8","3","7","6","5","7","5","5","3","3","6","2","5","2","5","5","1","2","2","5","1","1","5","5","4","6","3","1","2","2","1","1","2","6","2","1","7","1","1","1","1","1","2","1","7","1","3","799230569765543938","仲","102","Female","[""坏我"",""好我"",""好她"",""坏她""]","[""弱我"",""强我"",""强她"",""弱她""]","","","","","","","","yes","","","","","","","","","SRET","EW_formal","","key","f","16.664423076923132","683","380","自己","善心","Positive","morality","","","","","","","","","","",""
"833","","f","psychophysics","41","239640","0.0-7.0-3.0-0.27","5","2","5","1","1","5","3","4","4","5","5","0","0","1","2","-2","1","1","2","5","4","5","4","2","1","2","3","4","3","4","6","4","8","3","7","6","5","7","5","5","3","3","6","2","5","2","5","5","1","2","2","5","1","1","5","5","4","6","3","1","2","2","1","1","2","6","2","1","7","1","1","1","1","1","2","1","7","1","3","799230569765543938","仲","102","Female","[""坏我"",""好我"",""好她"",""坏她""]","[""弱我"",""强我"",""强她"",""弱她""]","","","","","","","","yes","","","","","","","","","SRET","EW_formal","","key","f","16.666363636363794","683","380","朋友","利落","Positive","ability","","","","","","","","","","",""
"762","","j","psychophysics","42","241411","0.0-7.0-3.0-0.28","5","2","5","1","1","5","3","4","4","5","5","0","0","1","2","-2","1","1","2","5","4","5","4","2","1","2","3","4","3","4","6","4","8","3","7","6","5","7","5","5","3","3","6","2","5","2","5","5","1","2","2","5","1","1","5","5","4","6","3","1","2","2","1","1","2","6","2","1","7","1","1","1","1","1","2","1","7","1","3","799230569765543938","仲","102","Female","[""坏我"",""好我"",""好她"",""坏她""]","[""弱我"",""强我"",""强她"",""弱她""]","","","","","","","","no","","","","","","","","","SRET","EW_formal","","key","j","16.665714285714508","683","380","自己","狡诈","Negative","morality","","","","","","","","","","",""
"907","","f","psychophysics","43","243326","0.0-7.0-3.0-0.29","5","2","5","1","1","5","3","4","4","5","5","0","0","1","2","-2","1","1","2","5","4","5","4","2","1","2","3","4","3","4","6","4","8","3","7","6","5","7","5","5","3","3","6","2","5","2","5","5","1","2","2","5","1","1","5","5","4","6","3","1","2","2","1","1","2","6","2","1","7","1","1","1","1","1","2","1","7","1","3","799230569765543938","仲","102","Female","[""坏我"",""好我"",""好她"",""坏她""]","[""弱我"",""强我"",""强她"",""弱她""]","","","","","","","","yes","","","","","","","","","SRET","EW_formal","","key","f","16.665789473684416","683","380","自己","马虎","Negative","ability","","","","","","","","","","",""
"678","","j","psychophysics","44","245010","0.0-7.0-3.0-0.30","5","2","5","1","1","5","3","4","4","5","5","0","0","1","2","-2","1","1","2","5","4","5","4","2","1","2","3","4","3","4","6","4","8","3","7","6","5","7","5","5","3","3","6","2","5","2","5","5","1","2","2","5","1","1","5","5","4","6","3","1","2","2","1","1","2","6","2","1","7","1","1","1","1","1","2","1","7","1","3","799230569765543938","仲","102","Female","[""坏我"",""好我"",""好她"",""坏她""]","[""弱我"",""强我"",""强她"",""弱她""]","","","","","","","","no","","","","","","","","","SRET","EW_formal","","key","j","16.665","683","380","朋友","邪恶","Negative","morality","","","","","","","","","","",""
"956","","f","psychophysics","45","246970","0.0-7.0-3.0-0.31","5","2","5","1","1","5","3","4","4","5","5","0","0","1","2","-2","1","1","2","5","4","5","4","2","1","2","3","4","3","4","6","4","8","3","7","6","5","7","5","5","3","3","6","2","5","2","5","5","1","2","2","5","1","1","5","5","4","6","3","1","2","2","1","1","2","6","2","1","7","1","1","1","1","1","2","1","7","1","3","799230569765543938","仲","102","Female","[""坏我"",""好我"",""好她"",""坏她""]","[""弱我"",""强我"",""强她"",""弱她""]","","","","","","","","yes","","","","","","","","","SRET","EW_formal","","key","f","16.664655172413593","683","380","自己","干练","Positive","ability","","","","","","","","","","",""
"1164","","j","psychophysics","46","249143","0.0-7.0-3.0-0.32","5","2","5","1","1","5","3","4","4","5","5","0","0","1","2","-2","1","1","2","5","4","5","4","2","1","2","3","4","3","4","6","4","8","3","7","6","5","7","5","5","3","3","6","2","5","2","5","5","1","2","2","5","1","1","5","5","4","6","3","1","2","2","1","1","2","6","2","1","7","1","1","1","1","1","2","1","7","1","3","799230569765543938","仲","102","Female","[""坏我"",""好我"",""好她"",""坏她""]","[""弱我"",""强我"",""强她"",""弱她""]","","","","","","","","no","","","","","","","","","SRET","EW_formal","","key","j","16.66615384615389","683","380","朋友","远见","Positive","ability","","","","","","","","","","",""
"653","","j","psychophysics","47","250803","0.0-7.0-3.0-0.33","5","2","5","1","1","5","3","4","4","5","5","0","0","1","2","-2","1","1","2","5","4","5","4","2","1","2","3","4","3","4","6","4","8","3","7","6","5","7","5","5","3","3","6","2","5","2","5","5","1","2","2","5","1","1","5","5","4","6","3","1","2","2","1","1","2","6","2","1","7","1","1","1","1","1","2","1","7","1","3","799230569765543938","仲","102","Female","[""坏我"",""好我"",""好她"",""坏她""]","[""弱我"",""强我"",""强她"",""弱她""]","","","","","","","","no","","","","","","","","","SRET","EW_formal","","key","j","16.666326530612125","683","380","朋友","黑心","Negative","morality","","","","","","","","","","",""
"1038","","j","psychophysics","48","252844","0.0-7.0-3.0-0.34","5","2","5","1","1","5","3","4","4","5","5","0","0","1","2","-2","1","1","2","5","4","5","4","2","1","2","3","4","3","4","6","4","8","3","7","6","5","7","5","5","3","3","6","2","5","2","5","5","1","2","2","5","1","1","5","5","4","6","3","1","2","2","1","1","2","6","2","1","7","1","1","1","1","1","2","1","7","1","3","799230569765543938","仲","102","Female","[""坏我"",""好我"",""好她"",""坏她""]","[""弱我"",""强我"",""强她"",""弱她""]","","","","","","","","no","","","","","","","","","SRET","EW_formal","","key","j","16.66557377049166","683","380","朋友","逞强","Negative","ability","","","","","","","","","","",""
"736","","j","psychophysics","49","254585","0.0-7.0-3.0-0.35","5","2","5","1","1","5","3","4","4","5","5","0","0","1","2","-2","1","1","2","5","4","5","4","2","1","2","3","4","3","4","6","4","8","3","7","6","5","7","5","5","3","3","6","2","5","2","5","5","1","2","2","5","1","1","5","5","4","6","3","1","2","2","1","1","2","6","2","1","7","1","1","1","1","1","2","1","7","1","3","799230569765543938","仲","102","Female","[""坏我"",""好我"",""好她"",""坏她""]","[""弱我"",""强我"",""强她"",""弱她""]","","","","","","","","no","","","","","","","","","SRET","EW_formal","","key","j","16.666019417475784","683","380","朋友","诡诈","Negative","morality","","","","","","","","","","",""
"902","","f","psychophysics","50","256491","0.0-7.0-3.0-0.36","5","2","5","1","1","5","3","4","4","5","5","0","0","1","2","-2","1","1","2","5","4","5","4","2","1","2","3","4","3","4","6","4","8","3","7","6","5","7","5","5","3","3","6","2","5","2","5","5","1","2","2","5","1","1","5","5","4","6","3","1","2","2","1","1","2","6","2","1","7","1","1","1","1","1","2","1","7","1","3","799230569765543938","仲","102","Female","[""坏我"",""好我"",""好她"",""坏她""]","[""弱我"",""强我"",""强她"",""弱她""]","","","","","","","","yes","","","","","","","","","SRET","EW_formal","","key","f","16.66578947368416","683","380","朋友","礼貌","Positive","morality","","","","","","","","","","",""
"979","","j","psychophysics","51","258475","0.0-7.0-3.0-0.37","5","2","5","1","1","5","3","4","4","5","5","0","0","1","2","-2","1","1","2","5","4","5","4","2","1","2","3","4","3","4","6","4","8","3","7","6","5","7","5","5","3","3","6","2","5","2","5","5","1","2","2","5","1","1","5","5","4","6","3","1","2","2","1","1","2","6","2","1","7","1","1","1","1","1","2","1","7","1","3","799230569765543938","仲","102","Female","[""坏我"",""好我"",""好她"",""坏她""]","[""弱我"",""强我"",""强她"",""弱她""]","","","","","","","","no","","","","","","","","","SRET","EW_formal","","key","j","16.665254237288135","683","380","朋友","怠惰","Negative","ability","","","","","","","","","","",""
"644","","j","psychophysics","52","260125","0.0-7.0-3.0-0.38","5","2","5","1","1","5","3","4","4","5","5","0","0","1","2","-2","1","1","2","5","4","5","4","2","1","2","3","4","3","4","6","4","8","3","7","6","5","7","5","5","3","3","6","2","5","2","5","5","1","2","2","5","1","1","5","5","4","6","3","1","2","2","1","1","2","6","2","1","7","1","1","1","1","1","2","1","7","1","3","799230569765543938","仲","102","Female","[""坏我"",""好我"",""好她"",""坏她""]","[""弱我"",""强我"",""强她"",""弱她""]","","","","","","","","no","","","","","","","","","SRET","EW_formal","","key","j","16.6653061224491","683","380","自己","无耻","Negative","morality","","","","","","","","","","",""
"802","","j","psychophysics","53","261930","0.0-7.0-3.0-0.39","5","2","5","1","1","5","3","4","4","5","5","0","0","1","2","-2","1","1","2","5","4","5","4","2","1","2","3","4","3","4","6","4","8","3","7","6","5","7","5","5","3","3","6","2","5","2","5","5","1","2","2","5","1","1","5","5","4","6","3","1","2","2","1","1","2","6","2","1","7","1","1","1","1","1","2","1","7","1","3","799230569765543938","仲","102","Female","[""坏我"",""好我"",""好她"",""坏她""]","[""弱我"",""强我"",""强她"",""弱她""]","","","","","","","","no","","","","","","","","","SRET","EW_formal","","key","j","16.66542056074723","683","380","朋友","愚痴","Negative","ability","","","","","","","","","","",""
"577","","j","psychophysics","54","263513","0.0-7.0-3.0-0.40","5","2","5","1","1","5","3","4","4","5","5","0","0","1","2","-2","1","1","2","5","4","5","4","2","1","2","3","4","3","4","6","4","8","3","7","6","5","7","5","5","3","3","6","2","5","2","5","5","1","2","2","5","1","1","5","5","4","6","3","1","2","2","1","1","2","6","2","1","7","1","1","1","1","1","2","1","7","1","3","799230569765543938","仲","102","Female","[""坏我"",""好我"",""好她"",""坏她""]","[""弱我"",""强我"",""强她"",""弱她""]","","","","","","","","no","","","","","","","","","SRET","EW_formal","","key","j","16.665957446808264","683","380","自己","废物","Negative","ability","","","","","","","","","","",""
"885","","f","psychophysics","55","265403","0.0-7.0-3.0-0.41","5","2","5","1","1","5","3","4","4","5","5","0","0","1","2","-2","1","1","2","5","4","5","4","2","1","2","3","4","3","4","6","4","8","3","7","6","5","7","5","5","3","3","6","2","5","2","5","5","1","2","2","5","1","1","5","5","4","6","3","1","2","2","1","1","2","6","2","1","7","1","1","1","1","1","2","1","7","1","3","799230569765543938","仲","102","Female","[""坏我"",""好我"",""好她"",""坏她""]","[""弱我"",""强我"",""强她"",""弱她""]","","","","","","","","yes","","","","","","","","","SRET","EW_formal","","key","f","16.665178571428573","683","380","自己","思辨","Positive","ability","","","","","","","","","","",""
"768","","f","psychophysics","56","267175","0.0-7.0-3.0-0.42","5","2","5","1","1","5","3","4","4","5","5","0","0","1","2","-2","1","1","2","5","4","5","4","2","1","2","3","4","3","4","6","4","8","3","7","6","5","7","5","5","3","3","6","2","5","2","5","5","1","2","2","5","1","1","5","5","4","6","3","1","2","2","1","1","2","6","2","1","7","1","1","1","1","1","2","1","7","1","3","799230569765543938","仲","102","Female","[""坏我"",""好我"",""好她"",""坏她""]","[""弱我"",""强我"",""强她"",""弱她""]","","","","","","","","yes","","","","","","","","","SRET","EW_formal","","key","f","16.66509433962264","683","380","朋友","才尽","Negative","ability","","","","","","","","","","",""
"666","","j","psychophysics","57","268845","0.0-7.0-3.0-0.43","5","2","5","1","1","5","3","4","4","5","5","0","0","1","2","-2","1","1","2","5","4","5","4","2","1","2","3","4","3","4","6","4","8","3","7","6","5","7","5","5","3","3","6","2","5","2","5","5","1","2","2","5","1","1","5","5","4","6","3","1","2","2","1","1","2","6","2","1","7","1","1","1","1","1","2","1","7","1","3","799230569765543938","仲","102","Female","[""坏我"",""好我"",""好她"",""坏她""]","[""弱我"",""强我"",""强她"",""弱她""]","","","","","","","","no","","","","","","","","","SRET","EW_formal","","key","j","16.664646464646346","683","380","朋友","昏庸","Negative","ability","","","","","","","","","","",""
"848","","j","psychophysics","58","270701","0.0-7.0-3.0-0.44","5","2","5","1","1","5","3","4","4","5","5","0","0","1","2","-2","1","1","2","5","4","5","4","2","1","2","3","4","3","4","6","4","8","3","7","6","5","7","5","5","3","3","6","2","5","2","5","5","1","2","2","5","1","1","5","5","4","6","3","1","2","2","1","1","2","6","2","1","7","1","1","1","1","1","2","1","7","1","3","799230569765543938","仲","102","Female","[""坏我"",""好我"",""好她"",""坏她""]","[""弱我"",""强我"",""强她"",""弱她""]","","","","","","","","no","","","","","","","","","SRET","EW_formal","","key","j","16.66545454545465","683","380","自己","背叛","Negative","morality","","","","","","","","","","",""
"958","","j","psychophysics","59","272662","0.0-7.0-3.0-0.45","5","2","5","1","1","5","3","4","4","5","5","0","0","1","2","-2","1","1","2","5","4","5","4","2","1","2","3","4","3","4","6","4","8","3","7","6","5","7","5","5","3","3","6","2","5","2","5","5","1","2","2","5","1","1","5","5","4","6","3","1","2","2","1","1","2","6","2","1","7","1","1","1","1","1","2","1","7","1","3","799230569765543938","仲","102","Female","[""坏我"",""好我"",""好她"",""坏她""]","[""弱我"",""强我"",""强她"",""弱她""]","","","","","","","","no","","","","","","","","","SRET","EW_formal","","key","j","16.664957264957167","683","380","朋友","中用","Positive","ability","","","","","","","","","","",""
"886","","j","psychophysics","60","274555","0.0-7.0-3.0-0.46","5","2","5","1","1","5","3","4","4","5","5","0","0","1","2","-2","1","1","2","5","4","5","4","2","1","2","3","4","3","4","6","4","8","3","7","6","5","7","5","5","3","3","6","2","5","2","5","5","1","2","2","5","1","1","5","5","4","6","3","1","2","2","1","1","2","6","2","1","7","1","1","1","1","1","2","1","7","1","3","799230569765543938","仲","102","Female","[""坏我"",""好我"",""好她"",""坏她""]","[""弱我"",""强我"",""强她"",""弱她""]","","","","","","","","no","","","","","","","","","SRET","EW_formal","","key","j","16.664601769911297","683","380","朋友","浅薄","Negative","ability","","","","","","","","","","",""
"905","","j","psychophysics","61","276464","0.0-7.0-3.0-0.47","5","2","5","1","1","5","3","4","4","5","5","0","0","1","2","-2","1","1","2","5","4","5","4","2","1","2","3","4","3","4","6","4","8","3","7","6","5","7","5","5","3","3","6","2","5","2","5","5","1","2","2","5","1","1","5","5","4","6","3","1","2","2","1","1","2","6","2","1","7","1","1","1","1","1","2","1","7","1","3","799230569765543938","仲","102","Female","[""坏我"",""好我"",""好她"",""坏她""]","[""弱我"",""强我"",""强她"",""弱她""]","","","","","","","","no","","","","","","","","","SRET","EW_formal","","key","j","16.665486725663303","683","380","朋友","罪恶","Negative","morality","","","","","","","","","","",""
"720","","j","psychophysics","62","278190","0.0-7.0-3.0-0.48","5","2","5","1","1","5","3","4","4","5","5","0","0","1","2","-2","1","1","2","5","4","5","4","2","1","2","3","4","3","4","6","4","8","3","7","6","5","7","5","5","3","3","6","2","5","2","5","5","1","2","2","5","1","1","5","5","4","6","3","1","2","2","1","1","2","6","2","1","7","1","1","1","1","1","2","1","7","1","3","799230569765543938","仲","102","Female","[""坏我"",""好我"",""好她"",""坏她""]","[""弱我"",""强我"",""强她"",""弱她""]","","","","","","","","no","","","","","","","","","SRET","EW_formal","","key","j","16.666019417475503","683","380","自己","贪污","Negative","morality","","","","","","","","","","",""
"808","","f","psychophysics","63","280007","0.0-7.0-3.0-0.49","5","2","5","1","1","5","3","4","4","5","5","0","0","1","2","-2","1","1","2","5","4","5","4","2","1","2","3","4","3","4","6","4","8","3","7","6","5","7","5","5","3","3","6","2","5","2","5","5","1","2","2","5","1","1","5","5","4","6","3","1","2","2","1","1","2","6","2","1","7","1","1","1","1","1","2","1","7","1","3","799230569765543938","仲","102","Female","[""坏我"",""好我"",""好她"",""坏她""]","[""弱我"",""强我"",""强她"",""弱她""]","","","","","","","","yes","","","","","","","","","SRET","EW_formal","","key","f","16.667592592592378","683","380","自己","周到","Positive","ability","","","","","","","","","","",""
"670","","f","psychophysics","64","281684","0.0-7.0-3.0-0.50","5","2","5","1","1","5","3","4","4","5","5","0","0","1","2","-2","1","1","2","5","4","5","4","2","1","2","3","4","3","4","6","4","8","3","7","6","5","7","5","5","3","3","6","2","5","2","5","5","1","2","2","5","1","1","5","5","4","6","3","1","2","2","1","1","2","6","2","1","7","1","1","1","1","1","2","1","7","1","3","799230569765543938","仲","102","Female","[""坏我"",""好我"",""好她"",""坏她""]","[""弱我"",""强我"",""强她"",""弱她""]","","","","","","","","yes","","","","","","","","","SRET","EW_formal","","key","f","16.664646464646935","683","380","朋友","智慧","Positive","ability","","","","","","","","","","",""
"947","","f","psychophysics","65","283637","0.0-7.0-3.0-0.51","5","2","5","1","1","5","3","4","4","5","5","0","0","1","2","-2","1","1","2","5","4","5","4","2","1","2","3","4","3","4","6","4","8","3","7","6","5","7","5","5","3","3","6","2","5","2","5","5","1","2","2","5","1","1","5","5","4","6","3","1","2","2","1","1","2","6","2","1","7","1","1","1","1","1","2","1","7","1","3","799230569765543938","仲","102","Female","[""坏我"",""好我"",""好她"",""坏她""]","[""弱我"",""强我"",""强她"",""弱她""]","","","","","","","","yes","","","","","","","","","SRET","EW_formal","","key","f","16.665517241379412","683","380","朋友","廉明","Positive","morality","","","","","","","","","","",""
"786","","j","psychophysics","66","285430","0.0-7.0-3.0-0.52","5","2","5","1","1","5","3","4","4","5","5","0","0","1","2","-2","1","1","2","5","4","5","4","2","1","2","3","4","3","4","6","4","8","3","7","6","5","7","5","5","3","3","6","2","5","2","5","5","1","2","2","5","1","1","5","5","4","6","3","1","2","2","1","1","2","6","2","1","7","1","1","1","1","1","2","1","7","1","3","799230569765543938","仲","102","Female","[""坏我"",""好我"",""好她"",""坏她""]","[""弱我"",""强我"",""强她"",""弱她""]","","","","","","","","no","","","","","","","","","SRET","EW_formal","","key","j","16.665420560747773","683","380","朋友","迟钝","Negative","ability","","","","","","","","","","",""
"872","","j","psychophysics","67","287307","0.0-7.0-3.0-0.53","5","2","5","1","1","5","3","4","4","5","5","0","0","1","2","-2","1","1","2","5","4","5","4","2","1","2","3","4","3","4","6","4","8","3","7","6","5","7","5","5","3","3","6","2","5","2","5","5","1","2","2","5","1","1","5","5","4","6","3","1","2","2","1","1","2","6","2","1","7","1","1","1","1","1","2","1","7","1","3","799230569765543938","仲","102","Female","[""坏我"",""好我"",""好她"",""坏她""]","[""弱我"",""强我"",""强她"",""弱她""]","","","","","","","","no","","","","","","","","","SRET","EW_formal","","key","j","16.665178571428573","683","380","朋友","高明","Positive","ability","","","","","","","","","","",""
"697","","j","psychophysics","68","289008","0.0-7.0-3.0-0.54","5","2","5","1","1","5","3","4","4","5","5","0","0","1","2","-2","1","1","2","5","4","5","4","2","1","2","3","4","3","4","6","4","8","3","7","6","5","7","5","5","3","3","6","2","5","2","5","5","1","2","2","5","1","1","5","5","4","6","3","1","2","2","1","1","2","6","2","1","7","1","1","1","1","1","2","1","7","1","3","799230569765543938","仲","102","Female","[""坏我"",""好我"",""好她"",""坏她""]","[""弱我"",""强我"",""强她"",""弱她""]","","","","","","","","no","","","","","","","","","SRET","EW_formal","","key","j","16.66435643564391","683","380","自己","不仁","Negative","morality","","","","","","","","","","",""
"734","","f","psychophysics","69","290745","0.0-7.0-3.0-0.55","5","2","5","1","1","5","3","4","4","5","5","0","0","1","2","-2","1","1","2","5","4","5","4","2","1","2","3","4","3","4","6","4","8","3","7","6","5","7","5","5","3","3","6","2","5","2","5","5","1","2","2","5","1","1","5","5","4","6","3","1","2","2","1","1","2","6","2","1","7","1","1","1","1","1","2","1","7","1","3","799230569765543938","仲","102","Female","[""坏我"",""好我"",""好她"",""坏她""]","[""弱我"",""强我"",""强她"",""弱她""]","","","","","","","","yes","","","","","","","","","SRET","EW_formal","","key","f","16.666019417475503","683","380","朋友","廉正","Positive","morality","","","","","","","","","","",""
"1251","","f","psychophysics","70","293003","0.0-7.0-3.0-0.56","5","2","5","1","1","5","3","4","4","5","5","0","0","1","2","-2","1","1","2","5","4","5","4","2","1","2","3","4","3","4","6","4","8","3","7","6","5","7","5","5","3","3","6","2","5","2","5","5","1","2","2","5","1","1","5","5","4","6","3","1","2","2","1","1","2","6","2","1","7","1","1","1","1","1","2","1","7","1","3","799230569765543938","仲","102","Female","[""坏我"",""好我"",""好她"",""坏她""]","[""弱我"",""强我"",""强她"",""弱她""]","","","","","","","","yes","","","","","","","","","SRET","EW_formal","","key","f","16.665671641791132","683","380","朋友","懂行","Positive","ability","","","","","","","","","","",""
"717","","f","psychophysics","71","294725","0.0-7.0-3.0-0.57","5","2","5","1","1","5","3","4","4","5","5","0","0","1","2","-2","1","1","2","5","4","5","4","2","1","2","3","4","3","4","6","4","8","3","7","6","5","7","5","5","3","3","6","2","5","2","5","5","1","2","2","5","1","1","5","5","4","6","3","1","2","2","1","1","2","6","2","1","7","1","1","1","1","1","2","1","7","1","3","799230569765543938","仲","102","Female","[""坏我"",""好我"",""好她"",""坏她""]","[""弱我"",""强我"",""强她"",""弱她""]","","","","","","","","yes","","","","","","","","","SRET","EW_formal","","key","f","16.66699029126225","683","380","自己","刚正","Positive","morality","","","","","","","","","","",""
"633","","j","psychophysics","72","296361","0.0-7.0-3.0-0.58","5","2","5","1","1","5","3","4","4","5","5","0","0","1","2","-2","1","1","2","5","4","5","4","2","1","2","3","4","3","4","6","4","8","3","7","6","5","7","5","5","3","3","6","2","5","2","5","5","1","2","2","5","1","1","5","5","4","6","3","1","2","2","1","1","2","6","2","1","7","1","1","1","1","1","2","1","7","1","3","799230569765543938","仲","102","Female","[""坏我"",""好我"",""好她"",""坏她""]","[""弱我"",""强我"",""强她"",""弱她""]","","","","","","","","no","","","","","","","","","SRET","EW_formal","","key","j","16.66597938144366","683","380","朋友","驽钝","Negative","ability","","","","","","","","","","",""
"702","","f","psychophysics","73","298069","0.0-7.0-3.0-0.59","5","2","5","1","1","5","3","4","4","5","5","0","0","1","2","-2","1","1","2","5","4","5","4","2","1","2","3","4","3","4","6","4","8","3","7","6","5","7","5","5","3","3","6","2","5","2","5","5","1","2","2","5","1","1","5","5","4","6","3","1","2","2","1","1","2","6","2","1","7","1","1","1","1","1","2","1","7","1","3","799230569765543938","仲","102","Female","[""坏我"",""好我"",""好她"",""坏她""]","[""弱我"",""强我"",""强她"",""弱她""]","","","","","","","","yes","","","","","","","","","SRET","EW_formal","","key","f","16.666336633663253","683","380","自己","努力","Positive","ability","","","","","","","","","","",""
"821","","f","psychophysics","74","299899","0.0-7.0-3.0-0.60","5","2","5","1","1","5","3","4","4","5","5","0","0","1","2","-2","1","1","2","5","4","5","4","2","1","2","3","4","3","4","6","4","8","3","7","6","5","7","5","5","3","3","6","2","5","2","5","5","1","2","2","5","1","1","5","5","4","6","3","1","2","2","1","1","2","6","2","1","7","1","1","1","1","1","2","1","7","1","3","799230569765543938","仲","102","Female","[""坏我"",""好我"",""好她"",""坏她""]","[""弱我"",""强我"",""强她"",""弱她""]","","","","","","","","yes","","","","","","","","","SRET","EW_formal","","key","f","16.666055045871346","683","380","自己","细心","Positive","ability","","","","","","","","","","",""
"1086","","j","psychophysics","75","301987","0.0-7.0-3.0-0.61","5","2","5","1","1","5","3","4","4","5","5","0","0","1","2","-2","1","1","2","5","4","5","4","2","1","2","3","4","3","4","6","4","8","3","7","6","5","7","5","5","3","3","6","2","5","2","5","5","1","2","2","5","1","1","5","5","4","6","3","1","2","2","1","1","2","6","2","1","7","1","1","1","1","1","2","1","7","1","3","799230569765543938","仲","102","Female","[""坏我"",""好我"",""好她"",""坏她""]","[""弱我"",""强我"",""强她"",""弱她""]","","","","","","","","no","","","","","","","","","SRET","EW_formal","","key","j","16.66532258064516","683","380","朋友","外行","Negative","ability","","","","","","","","","","",""
"858","","f","psychophysics","76","303853","0.0-7.0-3.0-0.62","5","2","5","1","1","5","3","4","4","5","5","0","0","1","2","-2","1","1","2","5","4","5","4","2","1","2","3","4","3","4","6","4","8","3","7","6","5","7","5","5","3","3","6","2","5","2","5","5","1","2","2","5","1","1","5","5","4","6","3","1","2","2","1","1","2","6","2","1","7","1","1","1","1","1","2","1","7","1","3","799230569765543938","仲","102","Female","[""坏我"",""好我"",""好她"",""坏她""]","[""弱我"",""强我"",""强她"",""弱她""]","","","","","","","","yes","","","","","","","","","SRET","EW_formal","","key","f","16.66576576576545","683","380","自己","忠良","Positive","morality","","","","","","","","","","",""
"826","","f","psychophysics","77","305686","0.0-7.0-3.0-0.63","5","2","5","1","1","5","3","4","4","5","5","0","0","1","2","-2","1","1","2","5","4","5","4","2","1","2","3","4","3","4","6","4","8","3","7","6","5","7","5","5","3","3","6","2","5","2","5","5","1","2","2","5","1","1","5","5","4","6","3","1","2","2","1","1","2","6","2","1","7","1","1","1","1","1","2","1","7","1","3","799230569765543938","仲","102","Female","[""坏我"",""好我"",""好她"",""坏她""]","[""弱我"",""强我"",""强她"",""弱她""]","","","","","","","","yes","","","","","","","","","SRET","EW_formal","","key","f","16.666055045871346","683","380","朋友","守信","Positive","morality","","","","","","","","","","",""
"869","","f","psychophysics","78","307563","0.0-7.0-3.0-0.64","5","2","5","1","1","5","3","4","4","5","5","0","0","1","2","-2","1","1","2","5","4","5","4","2","1","2","3","4","3","4","6","4","8","3","7","6","5","7","5","5","3","3","6","2","5","2","5","5","1","2","2","5","1","1","5","5","4","6","3","1","2","2","1","1","2","6","2","1","7","1","1","1","1","1","2","1","7","1","3","799230569765543938","仲","102","Female","[""坏我"",""好我"",""好她"",""坏她""]","[""弱我"",""强我"",""强她"",""弱她""]","","","","","","","","yes","","","","","","","","","SRET","EW_formal","","key","f","16.66607142857174","683","380","自己","骁勇","Positive","ability","","","","","","","","","","",""
"665","","f","psychophysics","79","309232","0.0-7.0-3.0-0.65","5","2","5","1","1","5","3","4","4","5","5","0","0","1","2","-2","1","1","2","5","4","5","4","2","1","2","3","4","3","4","6","4","8","3","7","6","5","7","5","5","3","3","6","2","5","2","5","5","1","2","2","5","1","1","5","5","4","6","3","1","2","2","1","1","2","6","2","1","7","1","1","1","1","1","2","1","7","1","3","799230569765543938","仲","102","Female","[""坏我"",""好我"",""好她"",""坏她""]","[""弱我"",""强我"",""强她"",""弱她""]","","","","","","","","yes","","","","","","","","","SRET","EW_formal","","key","f","16.665656565656214","683","380","朋友","义气","Positive","morality","","","","","","","","","","",""
"677","","f","psychophysics","80","310912","0.0-7.0-3.0-0.66","5","2","5","1","1","5","3","4","4","5","5","0","0","1","2","-2","1","1","2","5","4","5","4","2","1","2","3","4","3","4","6","4","8","3","7","6","5","7","5","5","3","3","6","2","5","2","5","5","1","2","2","5","1","1","5","5","4","6","3","1","2","2","1","1","2","6","2","1","7","1","1","1","1","1","2","1","7","1","3","799230569765543938","仲","102","Female","[""坏我"",""好我"",""好她"",""坏她""]","[""弱我"",""强我"",""强她"",""弱她""]","","","","","","","","yes","","","","","","","","","SRET","EW_formal","","key","f","16.665","683","380","朋友","守时","Positive","morality","","","","","","","","","","",""
"749","","j","psychophysics","81","312666","0.0-7.0-3.0-0.67","5","2","5","1","1","5","3","4","4","5","5","0","0","1","2","-2","1","1","2","5","4","5","4","2","1","2","3","4","3","4","6","4","8","3","7","6","5","7","5","5","3","3","6","2","5","2","5","5","1","2","2","5","1","1","5","5","4","6","3","1","2","2","1","1","2","6","2","1","7","1","1","1","1","1","2","1","7","1","3","799230569765543938","仲","102","Female","[""坏我"",""好我"",""好她"",""坏她""]","[""弱我"",""强我"",""强她"",""弱她""]","","","","","","","","no","","","","","","","","","SRET","EW_formal","","key","j","16.665384615384728","683","380","朋友","龌龊","Negative","morality","","","","","","","","","","",""
"621","","j","psychophysics","82","314290","0.0-7.0-3.0-0.68","5","2","5","1","1","5","3","4","4","5","5","0","0","1","2","-2","1","1","2","5","4","5","4","2","1","2","3","4","3","4","6","4","8","3","7","6","5","7","5","5","3","3","6","2","5","2","5","5","1","2","2","5","1","1","5","5","4","6","3","1","2","2","1","1","2","6","2","1","7","1","1","1","1","1","2","1","7","1","3","799230569765543938","仲","102","Female","[""坏我"",""好我"",""好她"",""坏她""]","[""弱我"",""强我"",""强她"",""弱她""]","","","","","","","","no","","","","","","","","","SRET","EW_formal","","key","j","16.66597938144306","683","380","朋友","恶劣","Negative","morality","","","","","","","","","","",""
"871","","j","psychophysics","83","316165","0.0-7.0-3.0-0.69","5","2","5","1","1","5","3","4","4","5","5","0","0","1","2","-2","1","1","2","5","4","5","4","2","1","2","3","4","3","4","6","4","8","3","7","6","5","7","5","5","3","3","6","2","5","2","5","5","1","2","2","5","1","1","5","5","4","6","3","1","2","2","1","1","2","6","2","1","7","1","1","1","1","1","2","1","7","1","3","799230569765543938","仲","102","Female","[""坏我"",""好我"",""好她"",""坏她""]","[""弱我"",""强我"",""强她"",""弱她""]","","","","","","","","no","","","","","","","","","SRET","EW_formal","","key","j","16.66486486486476","683","380","自己","博识","Positive","ability","","","","","","","","","","",""
"913","","j","psychophysics","84","318085","0.0-7.0-3.0-0.70","5","2","5","1","1","5","3","4","4","5","5","0","0","1","2","-2","1","1","2","5","4","5","4","2","1","2","3","4","3","4","6","4","8","3","7","6","5","7","5","5","3","3","6","2","5","2","5","5","1","2","2","5","1","1","5","5","4","6","3","1","2","2","1","1","2","6","2","1","7","1","1","1","1","1","2","1","7","1","3","799230569765543938","仲","102","Female","[""坏我"",""好我"",""好她"",""坏她""]","[""弱我"",""强我"",""强她"",""弱她""]","","","","","","","","no","","","","","","","","","SRET","EW_formal","","key","j","16.664912280701653","683","380","朋友","无助","Negative","ability","","","","","","","","","","",""
"695","","f","psychophysics","85","319784","0.0-7.0-3.0-0.71","5","2","5","1","1","5","3","4","4","5","5","0","0","1","2","-2","1","1","2","5","4","5","4","2","1","2","3","4","3","4","6","4","8","3","7","6","5","7","5","5","3","3","6","2","5","2","5","5","1","2","2","5","1","1","5","5","4","6","3","1","2","2","1","1","2","6","2","1","7","1","1","1","1","1","2","1","7","1","3","799230569765543938","仲","102","Female","[""坏我"",""好我"",""好她"",""坏她""]","[""弱我"",""强我"",""强她"",""弱她""]","","","","","","","","yes","","","","","","","","","SRET","EW_formal","","key","f","16.665346534653004","683","380","自己","慈悲","Positive","morality","","","","","","","","","","",""
"651","","f","psychophysics","86","321446","0.0-7.0-3.0-0.72","5","2","5","1","1","5","3","4","4","5","5","0","0","1","2","-2","1","1","2","5","4","5","4","2","1","2","3","4","3","4","6","4","8","3","7","6","5","7","5","5","3","3","6","2","5","2","5","5","1","2","2","5","1","1","5","5","4","6","3","1","2","2","1","1","2","6","2","1","7","1","1","1","1","1","2","1","7","1","3","799230569765543938","仲","102","Female","[""坏我"",""好我"",""好她"",""坏她""]","[""弱我"",""强我"",""强她"",""弱她""]","","","","","","","","yes","","","","","","","","","SRET","EW_formal","","key","f","16.6656565656568","683","380","自己","文明","Positive","morality","","","","","","","","","","",""
"774","","j","psychophysics","87","323224","0.0-7.0-3.0-0.73","5","2","5","1","1","5","3","4","4","5","5","0","0","1","2","-2","1","1","2","5","4","5","4","2","1","2","3","4","3","4","6","4","8","3","7","6","5","7","5","5","3","3","6","2","5","2","5","5","1","2","2","5","1","1","5","5","4","6","3","1","2","2","1","1","2","6","2","1","7","1","1","1","1","1","2","1","7","1","3","799230569765543938","仲","102","Female","[""坏我"",""好我"",""好她"",""坏她""]","[""弱我"",""强我"",""强她"",""弱她""]","","","","","","","","no","","","","","","","","","SRET","EW_formal","","key","j","16.666037735848835","683","380","朋友","失信","Negative","morality","","","","","","","","","","",""
"1014","","f","psychophysics","88","325241","0.0-7.0-3.0-0.74","5","2","5","1","1","5","3","4","4","5","5","0","0","1","2","-2","1","1","2","5","4","5","4","2","1","2","3","4","3","4","6","4","8","3","7","6","5","7","5","5","3","3","6","2","5","2","5","5","1","2","2","5","1","1","5","5","4","6","3","1","2","2","1","1","2","6","2","1","7","1","1","1","1","1","2","1","7","1","3","799230569765543938","仲","102","Female","[""坏我"",""好我"",""好她"",""坏她""]","[""弱我"",""强我"",""强她"",""弱她""]","","","","","","","","yes","","","","","","","","","SRET","EW_formal","","key","f","16.664999999999903","683","380","自己","诚信","Positive","morality","","","","","","","","","","",""
"611","","j","psychophysics","89","326860","0.0-7.0-3.0-0.75","5","2","5","1","1","5","3","4","4","5","5","0","0","1","2","-2","1","1","2","5","4","5","4","2","1","2","3","4","3","4","6","4","8","3","7","6","5","7","5","5","3","3","6","2","5","2","5","5","1","2","2","5","1","1","5","5","4","6","3","1","2","2","1","1","2","6","2","1","7","1","1","1","1","1","2","1","7","1","3","799230569765543938","仲","102","Female","[""坏我"",""好我"",""好她"",""坏她""]","[""弱我"",""强我"",""强她"",""弱她""]","","","","","","","","no","","","","","","","","","SRET","EW_formal","","key","j","16.666666666666668","683","380","自己","愚蠢","Negative","ability","","","","","","","","","","",""
"622","","j","psychophysics","90","328487","0.0-7.0-3.0-0.76","5","2","5","1","1","5","3","4","4","5","5","0","0","1","2","-2","1","1","2","5","4","5","4","2","1","2","3","4","3","4","6","4","8","3","7","6","5","7","5","5","3","3","6","2","5","2","5","5","1","2","2","5","1","1","5","5","4","6","3","1","2","2","1","1","2","6","2","1","7","1","1","1","1","1","2","1","7","1","3","799230569765543938","仲","102","Female","[""坏我"",""好我"",""好她"",""坏她""]","[""弱我"",""强我"",""强她"",""弱她""]","","","","","","","","no","","","","","","","","","SRET","EW_formal","","key","j","16.66597938144306","683","380","自己","缺德","Negative","morality","","","","","","","","","","",""
"651","","j","psychophysics","91","330145","0.0-7.0-3.0-0.77","5","2","5","1","1","5","3","4","4","5","5","0","0","1","2","-2","1","1","2","5","4","5","4","2","1","2","3","4","3","4","6","4","8","3","7","6","5","7","5","5","3","3","6","2","5","2","5","5","1","2","2","5","1","1","5","5","4","6","3","1","2","2","1","1","2","6","2","1","7","1","1","1","1","1","2","1","7","1","3","799230569765543938","仲","102","Female","[""坏我"",""好我"",""好她"",""坏她""]","[""弱我"",""强我"",""强她"",""弱她""]","","","","","","","","no","","","","","","","","","SRET","EW_formal","","key","j","16.6653061224491","683","380","自己","业余","Negative","ability","","","","","","","","","","",""
"640","","j","psychophysics","92","331789","0.0-7.0-3.0-0.78","5","2","5","1","1","5","3","4","4","5","5","0","0","1","2","-2","1","1","2","5","4","5","4","2","1","2","3","4","3","4","6","4","8","3","7","6","5","7","5","5","3","3","6","2","5","2","5","5","1","2","2","5","1","1","5","5","4","6","3","1","2","2","1","1","2","6","2","1","7","1","1","1","1","1","2","1","7","1","3","799230569765543938","仲","102","Female","[""坏我"",""好我"",""好她"",""坏她""]","[""弱我"",""强我"",""强她"",""弱她""]","","","","","","","","no","","","","","","","","","SRET","EW_formal","","key","j","16.665306122448506","683","380","自己","犹豫","Negative","ability","","","","","","","","","","",""
"702","","f","psychophysics","93","333495","0.0-7.0-3.0-0.79","5","2","5","1","1","5","3","4","4","5","5","0","0","1","2","-2","1","1","2","5","4","5","4","2","1","2","3","4","3","4","6","4","8","3","7","6","5","7","5","5","3","3","6","2","5","2","5","5","1","2","2","5","1","1","5","5","4","6","3","1","2","2","1","1","2","6","2","1","7","1","1","1","1","1","2","1","7","1","3","799230569765543938","仲","102","Female","[""坏我"",""好我"",""好她"",""坏她""]","[""弱我"",""强我"",""强她"",""弱她""]","","","","","","","","yes","","","","","","","","","SRET","EW_formal","","key","f","16.66435643564391","683","380","朋友","勤恳","Positive","morality","","","","","","","","","","",""
"865","","j","psychophysics","94","335363","0.0-7.0-3.0-0.80","5","2","5","1","1","5","3","4","4","5","5","0","0","1","2","-2","1","1","2","5","4","5","4","2","1","2","3","4","3","4","6","4","8","3","7","6","5","7","5","5","3","3","6","2","5","2","5","5","1","2","2","5","1","1","5","5","4","6","3","1","2","2","1","1","2","6","2","1","7","1","1","1","1","1","2","1","7","1","3","799230569765543938","仲","102","Female","[""坏我"",""好我"",""好她"",""坏她""]","[""弱我"",""强我"",""强她"",""弱她""]","","","","","","","","no","","","","","","","","","SRET","EW_formal","","key","j","16.66486486486476","683","380","自己","毛糙","Negative","ability","","","","","","","","","","",""
"1196","","j","psychophysics","95","337561","0.0-7.0-3.0-0.81","5","2","5","1","1","5","3","4","4","5","5","0","0","1","2","-2","1","1","2","5","4","5","4","2","1","2","3","4","3","4","6","4","8","3","7","6","5","7","5","5","3","3","6","2","5","2","5","5","1","2","2","5","1","1","5","5","4","6","3","1","2","2","1","1","2","6","2","1","7","1","1","1","1","1","2","1","7","1","3","799230569765543938","仲","102","Female","[""坏我"",""好我"",""好她"",""坏她""]","[""弱我"",""强我"",""强她"",""弱她""]","","","","","","","","no","","","","","","","","","SRET","EW_formal","","key","j","16.664885496183473","683","380","朋友","自律","Positive","ability","","","","","","","","","","",""
"895","","f","psychophysics","96","339461","0.0-7.0-3.0-0.82","5","2","5","1","1","5","3","4","4","5","5","0","0","1","2","-2","1","1","2","5","4","5","4","2","1","2","3","4","3","4","6","4","8","3","7","6","5","7","5","5","3","3","6","2","5","2","5","5","1","2","2","5","1","1","5","5","4","6","3","1","2","2","1","1","2","6","2","1","7","1","1","1","1","1","2","1","7","1","3","799230569765543938","仲","102","Female","[""坏我"",""好我"",""好她"",""坏她""]","[""弱我"",""强我"",""强她"",""弱她""]","","","","","","","","yes","","","","","","","","","SRET","EW_formal","","key","f","16.664601769911812","683","380","自己","勤奋","Positive","ability","","","","","","","","","","",""
"615","","j","psychophysics","97","341080","0.0-7.0-3.0-0.83","5","2","5","1","1","5","3","4","4","5","5","0","0","1","2","-2","1","1","2","5","4","5","4","2","1","2","3","4","3","4","6","4","8","3","7","6","5","7","5","5","3","3","6","2","5","2","5","5","1","2","2","5","1","1","5","5","4","6","3","1","2","2","1","1","2","6","2","1","7","1","1","1","1","1","2","1","7","1","3","799230569765543938","仲","102","Female","[""坏我"",""好我"",""好她"",""坏她""]","[""弱我"",""强我"",""强她"",""弱她""]","","","","","","","","no","","","","","","","","","SRET","EW_formal","","key","j","16.664583333333212","683","380","自己","卑鄙","Negative","morality","","","","","","","","","","",""
"863","","j","psychophysics","98","342947","0.0-7.0-3.0-0.84","5","2","5","1","1","5","3","4","4","5","5","0","0","1","2","-2","1","1","2","5","4","5","4","2","1","2","3","4","3","4","6","4","8","3","7","6","5","7","5","5","3","3","6","2","5","2","5","5","1","2","2","5","1","1","5","5","4","6","3","1","2","2","1","1","2","6","2","1","7","1","1","1","1","1","2","1","7","1","3","799230569765543938","仲","102","Female","[""坏我"",""好我"",""好她"",""坏她""]","[""弱我"",""强我"",""强她"",""弱她""]","","","","","","","","no","","","","","","","","","SRET","EW_formal","","key","j","16.665765765765975","683","380","朋友","低俗","Negative","morality","","","","","","","","","","",""
"771","","f","psychophysics","99","344720","0.0-7.0-3.0-0.85","5","2","5","1","1","5","3","4","4","5","5","0","0","1","2","-2","1","1","2","5","4","5","4","2","1","2","3","4","3","4","6","4","8","3","7","6","5","7","5","5","3","3","6","2","5","2","5","5","1","2","2","5","1","1","5","5","4","6","3","1","2","2","1","1","2","6","2","1","7","1","1","1","1","1","2","1","7","1","3","799230569765543938","仲","102","Female","[""坏我"",""好我"",""好她"",""坏她""]","[""弱我"",""强我"",""强她"",""弱她""]","","","","","","","","yes","","","","","","","","","SRET","EW_formal","","key","f","16.666037735849386","683","380","朋友","素养","Positive","morality","","","","","","","","","","",""
"903","","f","psychophysics","100","346627","0.0-7.0-3.0-0.86","5","2","5","1","1","5","3","4","4","5","5","0","0","1","2","-2","1","1","2","5","4","5","4","2","1","2","3","4","3","4","6","4","8","3","7","6","5","7","5","5","3","3","6","2","5","2","5","5","1","2","2","5","1","1","5","5","4","6","3","1","2","2","1","1","2","6","2","1","7","1","1","1","1","1","2","1","7","1","3","799230569765543938","仲","102","Female","[""坏我"",""好我"",""好她"",""坏她""]","[""弱我"",""强我"",""强她"",""弱她""]","","","","","","","","yes","","","","","","","","","SRET","EW_formal","","key","f","16.66548672566382","683","380","自己","缓慢","Negative","ability","","","","","","","","","","",""
"939","","f","psychophysics","101","348571","0.0-7.0-3.0-0.87","5","2","5","1","1","5","3","4","4","5","5","0","0","1","2","-2","1","1","2","5","4","5","4","2","1","2","3","4","3","4","6","4","8","3","7","6","5","7","5","5","3","3","6","2","5","2","5","5","1","2","2","5","1","1","5","5","4","6","3","1","2","2","1","1","2","6","2","1","7","1","1","1","1","1","2","1","7","1","3","799230569765543938","仲","102","Female","[""坏我"",""好我"",""好她"",""坏她""]","[""弱我"",""强我"",""强她"",""弱她""]","","","","","","","","yes","","","","","","","","","SRET","EW_formal","","key","f","16.665517241379412","683","380","自己","主见","Positive","ability","","","","","","","","","","",""
"10702","
    <p><div style='color:white;font-size:35px; line-height:20px;'>计算任务</div></p><br>
    <p><div style='color:red;font-size:25px; line-height:20px;'>接下来，您将看到一些四则运算题，<b>请从键盘选择 0-9 进行反应。</b></div></p>
    <p><div style='color:red;font-size:25px; line-height:20px;'>请尽可能快地进行计算，计算的速度和正确率将影响报酬的发放。</div></p>
    <p><div class='footer' style='color:white;font-size:25px; line-height:20px;'>如果对本实验还有不清楚之处，请立即向实验员咨询。</p><p style='color:white;font-size:25px; line-height:20px;'>如果您明白了规则：</p><p style='color:white;font-size:22px; line-height:20px;'>请按 继续 进入练习</p>
    </div>
    ","0","html-button-response","102","359275","0.0-7.0-4.0","5","2","5","1","1","5","3","4","4","5","5","0","0","1","2","-2","1","1","2","5","4","5","4","2","1","2","3","4","3","4","6","4","8","3","7","6","5","7","5","5","3","3","6","2","5","2","5","5","1","2","2","5","1","1","5","5","4","6","3","1","2","2","1","1","2","6","2","1","7","1","1","1","1","1","2","1","7","1","3","799230569765543938","仲","102","Female","[""坏我"",""好我"",""好她"",""坏她""]","[""弱我"",""强我"",""强她"",""弱她""]","","","","","","","","","","","","","","","","","SRET_math","math_instructions","Fri Jan 19 2024 19:12:01 GMT+0800 (中国标准时间)","","","","","","","","","","","","","","","","","","","",""
"2245","","8","psychophysics","103","361532","0.0-7.0-5.0-0.0","5","2","5","1","1","5","3","4","4","5","5","0","0","1","2","-2","1","1","2","5","4","5","4","2","1","2","3","4","3","4","6","4","8","3","7","6","5","7","5","5","3","3","6","2","5","2","5","5","1","2","2","5","1","1","5","5","4","6","3","1","2","2","1","1","2","6","2","1","7","1","1","1","1","1","2","1","7","1","3","799230569765543938","仲","102","Female","[""坏我"",""好我"",""好她"",""坏她""]","[""弱我"",""强我"",""强她"",""弱她""]","","","","","","","","8","","","","","","","","","SRET","SRET_math_calculate","","key","8","16.6659259259261","683","380","","","","","5+3= ?","8","1","","","","","","","",""
"1945","","4","psychophysics","104","363485","0.0-7.0-5.0-0.1","5","2","5","1","1","5","3","4","4","5","5","0","0","1","2","-2","1","1","2","5","4","5","4","2","1","2","3","4","3","4","6","4","8","3","7","6","5","7","5","5","3","3","6","2","5","2","5","5","1","2","2","5","1","1","5","5","4","6","3","1","2","2","1","1","2","6","2","1","7","1","1","1","1","1","2","1","7","1","3","799230569765543938","仲","102","Female","[""坏我"",""好我"",""好她"",""坏她""]","[""弱我"",""强我"",""强她"",""弱她""]","","","","","","","","4","","","","","","","","","SRET","SRET_math_calculate","","key","4","16.665811965812164","683","380","","","","","2+2= ?","4","1","","","","","","","",""
"2057","","7","psychophysics","105","365547","0.0-7.0-5.0-0.2","5","2","5","1","1","5","3","4","4","5","5","0","0","1","2","-2","1","1","2","5","4","5","4","2","1","2","3","4","3","4","6","4","8","3","7","6","5","7","5","5","3","3","6","2","5","2","5","5","1","2","2","5","1","1","5","5","4","6","3","1","2","2","1","1","2","6","2","1","7","1","1","1","1","1","2","1","7","1","3","799230569765543938","仲","102","Female","[""坏我"",""好我"",""好她"",""坏她""]","[""弱我"",""强我"",""强她"",""弱她""]","","","","","","","","7","","","","","","","","","SRET","SRET_math_calculate","","key","7","16.66557377049142","683","380","","","","","12-5= ?","7","1","","","","","","","",""
"2448","","4","psychophysics","106","368002","0.0-7.0-5.0-0.3","5","2","5","1","1","5","3","4","4","5","5","0","0","1","2","-2","1","1","2","5","4","5","4","2","1","2","3","4","3","4","6","4","8","3","7","6","5","7","5","5","3","3","6","2","5","2","5","5","1","2","2","5","1","1","5","5","4","6","3","1","2","2","1","1","2","6","2","1","7","1","1","1","1","1","2","1","7","1","3","799230569765543938","仲","102","Female","[""坏我"",""好我"",""好她"",""坏她""]","[""弱我"",""强我"",""强她"",""弱她""]","","","","","","","","4","","","","","","","","","SRET","SRET_math_calculate","","key","4","16.665986394557585","683","380","","","","","4*1= ?","4","1","","","","","","","",""
"2411","","9","psychophysics","107","370421","0.0-7.0-5.0-0.4","5","2","5","1","1","5","3","4","4","5","5","0","0","1","2","-2","1","1","2","5","4","5","4","2","1","2","3","4","3","4","6","4","8","3","7","6","5","7","5","5","3","3","6","2","5","2","5","5","1","2","2","5","1","1","5","5","4","6","3","1","2","2","1","1","2","6","2","1","7","1","1","1","1","1","2","1","7","1","3","799230569765543938","仲","102","Female","[""坏我"",""好我"",""好她"",""坏她""]","[""弱我"",""强我"",""强她"",""弱她""]","","","","","","","","9","","","","","","","","","SRET","SRET_math_calculate","","key","9","16.666666666666668","683","380","","","","","18/2= ?","9","1","","","","","","","",""
"1725","","9","psychophysics","108","372150","0.0-7.0-5.0-0.5","5","2","5","1","1","5","3","4","4","5","5","0","0","1","2","-2","1","1","2","5","4","5","4","2","1","2","3","4","3","4","6","4","8","3","7","6","5","7","5","5","3","3","6","2","5","2","5","5","1","2","2","5","1","1","5","5","4","6","3","1","2","2","1","1","2","6","2","1","7","1","1","1","1","1","2","1","7","1","3","799230569765543938","仲","102","Female","[""坏我"",""好我"",""好她"",""坏她""]","[""弱我"",""强我"",""强她"",""弱她""]","","","","","","","","9","","","","","","","","","SRET","SRET_math_calculate","","key","9","16.66504854368932","683","380","","","","","5+4= ?","9","1","","","","","","","",""
"2045","","0","psychophysics","109","374201","0.0-7.0-5.0-0.6","5","2","5","1","1","5","3","4","4","5","5","0","0","1","2","-2","1","1","2","5","4","5","4","2","1","2","3","4","3","4","6","4","8","3","7","6","5","7","5","5","3","3","6","2","5","2","5","5","1","2","2","5","1","1","5","5","4","6","3","1","2","2","1","1","2","6","2","1","7","1","1","1","1","1","2","1","7","1","3","799230569765543938","仲","102","Female","[""坏我"",""好我"",""好她"",""坏她""]","[""弱我"",""强我"",""强她"",""弱她""]","","","","","","","","0","","","","","","","","","SRET","SRET_math_calculate","","key","0","16.6655737704919","683","380","","","","","12-12= ?","0","1","","","","","","","",""
"2009","","8","psychophysics","110","376216","0.0-7.0-5.0-0.7","5","2","5","1","1","5","3","4","4","5","5","0","0","1","2","-2","1","1","2","5","4","5","4","2","1","2","3","4","3","4","6","4","8","3","7","6","5","7","5","5","3","3","6","2","5","2","5","5","1","2","2","5","1","1","5","5","4","6","3","1","2","2","1","1","2","6","2","1","7","1","1","1","1","1","2","1","7","1","3","799230569765543938","仲","102","Female","[""坏我"",""好我"",""好她"",""坏她""]","[""弱我"",""强我"",""强她"",""弱她""]","","","","","","","","8","","","","","","","","","SRET","SRET_math_calculate","","key","8","16.665833333333527","683","380","","","","","2+6= ?","8","1","","","","","","","",""
"5133","","8","psychophysics","111","381353","0.0-7.0-5.0-0.8","5","2","5","1","1","5","3","4","4","5","5","0","0","1","2","-2","1","1","2","5","4","5","4","2","1","2","3","4","3","4","6","4","8","3","7","6","5","7","5","5","3","3","6","2","5","2","5","5","1","2","2","5","1","1","5","5","4","6","3","1","2","2","1","1","2","6","2","1","7","1","1","1","1","1","2","1","7","1","3","799230569765543938","仲","102","Female","[""坏我"",""好我"",""好她"",""坏她""]","[""弱我"",""强我"",""强她"",""弱她""]","","","","","","","","8","","","","","","","","","SRET","SRET_math_calculate","","key","8","16.665472312703546","683","380","","","","","72/9= ?","8","1","","","","","","","",""
"2177","","0","psychophysics","112","383533","0.0-7.0-5.0-0.9","5","2","5","1","1","5","3","4","4","5","5","0","0","1","2","-2","1","1","2","5","4","5","4","2","1","2","3","4","3","4","6","4","8","3","7","6","5","7","5","5","3","3","6","2","5","2","5","5","1","2","2","5","1","1","5","5","4","6","3","1","2","2","1","1","2","6","2","1","7","1","1","1","1","1","2","1","7","1","3","799230569765543938","仲","102","Female","[""坏我"",""好我"",""好她"",""坏她""]","[""弱我"",""强我"",""强她"",""弱她""]","","","","","","","","0","","","","","","","","","SRET","SRET_math_calculate","","key","0","16.665384615384614","683","380","","","","","9-9= ?","0","1","","","","","","","",""
"2334","","8","psychophysics","113","385871","0.0-7.0-5.0-0.10","5","2","5","1","1","5","3","4","4","5","5","0","0","1","2","-2","1","1","2","5","4","5","4","2","1","2","3","4","3","4","6","4","8","3","7","6","5","7","5","5","3","3","6","2","5","2","5","5","1","2","2","5","1","1","5","5","4","6","3","1","2","2","1","1","2","6","2","1","7","1","1","1","1","1","2","1","7","1","3","799230569765543938","仲","102","Female","[""坏我"",""好我"",""好她"",""坏她""]","[""弱我"",""强我"",""强她"",""弱她""]","","","","","","","","8","","","","","","","","","SRET","SRET_math_calculate","","key","8","16.6647482014386","683","380","","","","","50-42= ?","8","1","","","","","","","",""
"2020","","9","psychophysics","114","387894","0.0-7.0-5.0-0.11","5","2","5","1","1","5","3","4","4","5","5","0","0","1","2","-2","1","1","2","5","4","5","4","2","1","2","3","4","3","4","6","4","8","3","7","6","5","7","5","5","3","3","6","2","5","2","5","5","1","2","2","5","1","1","5","5","4","6","3","1","2","2","1","1","2","6","2","1","7","1","1","1","1","1","2","1","7","1","3","799230569765543938","仲","102","Female","[""坏我"",""好我"",""好她"",""坏她""]","[""弱我"",""强我"",""强她"",""弱她""]","","","","","","","","9","","","","","","","","","SRET","SRET_math_calculate","","key","9","16.665833333333527","683","380","","","","","2+7= ?","9","1","","","","","","","",""
"2031","","6","psychophysics","115","389933","0.0-7.0-5.0-0.12","5","2","5","1","1","5","3","4","4","5","5","0","0","1","2","-2","1","1","2","5","4","5","4","2","1","2","3","4","3","4","6","4","8","3","7","6","5","7","5","5","3","3","6","2","5","2","5","5","1","2","2","5","1","1","5","5","4","6","3","1","2","2","1","1","2","6","2","1","7","1","1","1","1","1","2","1","7","1","3","799230569765543938","仲","102","Female","[""坏我"",""好我"",""好她"",""坏她""]","[""弱我"",""强我"",""强她"",""弱她""]","","","","","","","","6","","","","","","","","","SRET","SRET_math_calculate","","key","6","16.66557377049142","683","380","","","","","9-3= ?","6","1","","","","","","","",""
"2126","","3","psychophysics","116","392063","0.0-7.0-5.0-0.13","5","2","5","1","1","5","3","4","4","5","5","0","0","1","2","-2","1","1","2","5","4","5","4","2","1","2","3","4","3","4","6","4","8","3","7","6","5","7","5","5","3","3","6","2","5","2","5","5","1","2","2","5","1","1","5","5","4","6","3","1","2","2","1","1","2","6","2","1","7","1","1","1","1","1","2","1","7","1","3","799230569765543938","仲","102","Female","[""坏我"",""好我"",""好她"",""坏她""]","[""弱我"",""强我"",""强她"",""弱她""]","","","","","","","","3","","","","","","","","","SRET","SRET_math_calculate","","key","3","16.66614173228374","683","380","","","","","3*1= ?","3","1","","","","","","","",""
"2479","","2","psychophysics","117","394546","0.0-7.0-5.0-0.14","5","2","5","1","1","5","3","4","4","5","5","0","0","1","2","-2","1","1","2","5","4","5","4","2","1","2","3","4","3","4","6","4","8","3","7","6","5","7","5","5","3","3","6","2","5","2","5","5","1","2","2","5","1","1","5","5","4","6","3","1","2","2","1","1","2","6","2","1","7","1","1","1","1","1","2","1","7","1","3","799230569765543938","仲","102","Female","[""坏我"",""好我"",""好她"",""坏她""]","[""弱我"",""强我"",""强她"",""弱她""]","","","","","","","","2","","","","","","","","","SRET","SRET_math_calculate","","key","2","16.66554054054054","683","380","","","","","12/6= ?","2","1","","","","","","","",""
"2032","","7","psychophysics","118","396583","0.0-7.0-5.0-0.15","5","2","5","1","1","5","3","4","4","5","5","0","0","1","2","-2","1","1","2","5","4","5","4","2","1","2","3","4","3","4","6","4","8","3","7","6","5","7","5","5","3","3","6","2","5","2","5","5","1","2","2","5","1","1","5","5","4","6","3","1","2","2","1","1","2","6","2","1","7","1","1","1","1","1","2","1","7","1","3","799230569765543938","仲","102","Female","[""坏我"",""好我"",""好她"",""坏她""]","[""弱我"",""强我"",""强她"",""弱她""]","","","","","","","","7","","","","","","","","","SRET","SRET_math_calculate","","key","7","16.665289256198346","683","380","","","","","5+2= ?","7","1","","","","","","","",""
"1963","","0","psychophysics","119","398550","0.0-7.0-5.0-0.16","5","2","5","1","1","5","3","4","4","5","5","0","0","1","2","-2","1","1","2","5","4","5","4","2","1","2","3","4","3","4","6","4","8","3","7","6","5","7","5","5","3","3","6","2","5","2","5","5","1","2","2","5","1","1","5","5","4","6","3","1","2","2","1","1","2","6","2","1","7","1","1","1","1","1","2","1","7","1","3","799230569765543938","仲","102","Female","[""坏我"",""好我"",""好她"",""坏她""]","[""弱我"",""强我"",""强她"",""弱她""]","","","","","","","","0","","","","","","","","","SRET","SRET_math_calculate","","key","0","16.665811965811667","683","380","","","","","1-1= ?","0","1","","","","","","","",""
"2221","","5","psychophysics","120","400777","0.0-7.0-5.0-0.17","5","2","5","1","1","5","3","4","4","5","5","0","0","1","2","-2","1","1","2","5","4","5","4","2","1","2","3","4","3","4","6","4","8","3","7","6","5","7","5","5","3","3","6","2","5","2","5","5","1","2","2","5","1","1","5","5","4","6","3","1","2","2","1","1","2","6","2","1","7","1","1","1","1","1","2","1","7","1","3","799230569765543938","仲","102","Female","[""坏我"",""好我"",""好她"",""坏她""]","[""弱我"",""强我"",""强她"",""弱她""]","","","","","","","","5","","","","","","","","","SRET","SRET_math_calculate","","key","5","16.665151515151425","683","380","","","","","16-11= ?","5","1","","","","","","","",""
"1896","","7","psychophysics","121","402681","0.0-7.0-5.0-0.18","5","2","5","1","1","5","3","4","4","5","5","0","0","1","2","-2","1","1","2","5","4","5","4","2","1","2","3","4","3","4","6","4","8","3","7","6","5","7","5","5","3","3","6","2","5","2","5","5","1","2","2","5","1","1","5","5","4","6","3","1","2","2","1","1","2","6","2","1","7","1","1","1","1","1","2","1","7","1","3","799230569765543938","仲","102","Female","[""坏我"",""好我"",""好她"",""坏她""]","[""弱我"",""强我"",""强她"",""弱她""]","","","","","","","","7","","","","","","","","","SRET","SRET_math_calculate","","key","7","16.665789473684416","683","380","","","","","8-1= ?","7","1","","","","","","","",""
"1866","","4","psychophysics","122","404553","0.0-7.0-5.0-0.19","5","2","5","1","1","5","3","4","4","5","5","0","0","1","2","-2","1","1","2","5","4","5","4","2","1","2","3","4","3","4","6","4","8","3","7","6","5","7","5","5","3","3","6","2","5","2","5","5","1","2","2","5","1","1","5","5","4","6","3","1","2","2","1","1","2","6","2","1","7","1","1","1","1","1","2","1","7","1","3","799230569765543938","仲","102","Female","[""坏我"",""好我"",""好她"",""坏她""]","[""弱我"",""强我"",""强她"",""弱她""]","","","","","","","","4","","","","","","","","","SRET","SRET_math_calculate","","key","4","16.666666666666668","683","380","","","","","3+1= ?","4","1","","","","","","","",""
"1994","","7","psychophysics","123","406552","0.0-7.0-5.0-0.20","5","2","5","1","1","5","3","4","4","5","5","0","0","1","2","-2","1","1","2","5","4","5","4","2","1","2","3","4","3","4","6","4","8","3","7","6","5","7","5","5","3","3","6","2","5","2","5","5","1","2","2","5","1","1","5","5","4","6","3","1","2","2","1","1","2","6","2","1","7","1","1","1","1","1","2","1","7","1","3","799230569765543938","仲","102","Female","[""坏我"",""好我"",""好她"",""坏她""]","[""弱我"",""强我"",""强她"",""弱她""]","","","","","","","","7","","","","","","","","","SRET","SRET_math_calculate","","key","7","16.665546218487492","683","380","","","","","2+5= ?","7","1","","","","","","","",""
"2032","","9","psychophysics","124","408588","0.0-7.0-5.0-0.21","5","2","5","1","1","5","3","4","4","5","5","0","0","1","2","-2","1","1","2","5","4","5","4","2","1","2","3","4","3","4","6","4","8","3","7","6","5","7","5","5","3","3","6","2","5","2","5","5","1","2","2","5","1","1","5","5","4","6","3","1","2","2","1","1","2","6","2","1","7","1","1","1","1","1","2","1","7","1","3","799230569765543938","仲","102","Female","[""坏我"",""好我"",""好她"",""坏她""]","[""弱我"",""强我"",""强她"",""弱她""]","","","","","","","","9","","","","","","","","","SRET","SRET_math_calculate","","key","9","16.666115702479146","683","380","","","","","1*9= ?","9","1","","","","","","","",""
"2018","","0","psychophysics","125","410615","0.0-7.0-5.0-0.22","5","2","5","1","1","5","3","4","4","5","5","0","0","1","2","-2","1","1","2","5","4","5","4","2","1","2","3","4","3","4","6","4","8","3","7","6","5","7","5","5","3","3","6","2","5","2","5","5","1","2","2","5","1","1","5","5","4","6","3","1","2","2","1","1","2","6","2","1","7","1","1","1","1","1","2","1","7","1","3","799230569765543938","仲","102","Female","[""坏我"",""好我"",""好她"",""坏她""]","[""弱我"",""强我"",""强她"",""弱她""]","","","","","","","","0","","","","","","","","","SRET","SRET_math_calculate","","key","0","16.666115702479146","683","380","","","","","7*0= ?","0","1","","","","","","","",""
"3333","","3","psychophysics","126","413982","0.0-7.0-5.0-0.23","5","2","5","1","1","5","3","4","4","5","5","0","0","1","2","-2","1","1","2","5","4","5","4","2","1","2","3","4","3","4","6","4","8","3","7","6","5","7","5","5","3","3","6","2","5","2","5","5","1","2","2","5","1","1","5","5","4","6","3","1","2","2","1","1","2","6","2","1","7","1","1","1","1","1","2","1","7","1","3","799230569765543938","仲","102","Female","[""坏我"",""好我"",""好她"",""坏她""]","[""弱我"",""强我"",""强她"",""弱她""]","","","","","","","","3","","","","","","","","","SRET","SRET_math_calculate","","key","3","16.665174129353","683","380","","","","","11-8= ?","3","1","","","","","","","",""
"2017","","3","psychophysics","127","416003","0.0-7.0-5.0-0.24","5","2","5","1","1","5","3","4","4","5","5","0","0","1","2","-2","1","1","2","5","4","5","4","2","1","2","3","4","3","4","6","4","8","3","7","6","5","7","5","5","3","3","6","2","5","2","5","5","1","2","2","5","1","1","5","5","4","6","3","1","2","2","1","1","2","6","2","1","7","1","1","1","1","1","2","1","7","1","3","799230569765543938","仲","102","Female","[""坏我"",""好我"",""好她"",""坏她""]","[""弱我"",""强我"",""强她"",""弱她""]","","","","","","","","3","","","","","","","","","SRET","SRET_math_calculate","","key","3","16.665833333333044","683","380","","","","","2+1= ?","3","1","","","","","","","",""
"1971","","9","psychophysics","128","417978","0.0-7.0-5.0-0.25","5","2","5","1","1","5","3","4","4","5","5","0","0","1","2","-2","1","1","2","5","4","5","4","2","1","2","3","4","3","4","6","4","8","3","7","6","5","7","5","5","3","3","6","2","5","2","5","5","1","2","2","5","1","1","5","5","4","6","3","1","2","2","1","1","2","6","2","1","7","1","1","1","1","1","2","1","7","1","3","799230569765543938","仲","102","Female","[""坏我"",""好我"",""好她"",""坏她""]","[""弱我"",""强我"",""强她"",""弱她""]","","","","","","","","9","","","","","","","","","SRET","SRET_math_calculate","","key","9","16.664406779661213","683","380","","","","","8+1= ?","9","1","","","","","","","",""
"1946","","4","psychophysics","129","419929","0.0-7.0-5.0-0.26","5","2","5","1","1","5","3","4","4","5","5","0","0","1","2","-2","1","1","2","5","4","5","4","2","1","2","3","4","3","4","6","4","8","3","7","6","5","7","5","5","3","3","6","2","5","2","5","5","1","2","2","5","1","1","5","5","4","6","3","1","2","2","1","1","2","6","2","1","7","1","1","1","1","1","2","1","7","1","3","799230569765543938","仲","102","Female","[""坏我"",""好我"",""好她"",""坏她""]","[""弱我"",""强我"",""强她"",""弱她""]","","","","","","","","4","","","","","","","","","SRET","SRET_math_calculate","","key","4","16.665517241379412","683","380","","","","","9-5= ?","4","1","","","","","","","",""
"2033","","3","psychophysics","130","421966","0.0-7.0-5.0-0.27","5","2","5","1","1","5","3","4","4","5","5","0","0","1","2","-2","1","1","2","5","4","5","4","2","1","2","3","4","3","4","6","4","8","3","7","6","5","7","5","5","3","3","6","2","5","2","5","5","1","2","2","5","1","1","5","5","4","6","3","1","2","2","1","1","2","6","2","1","7","1","1","1","1","1","2","1","7","1","3","799230569765543938","仲","102","Female","[""坏我"",""好我"",""好她"",""坏她""]","[""弱我"",""强我"",""强她"",""弱她""]","","","","","","","","3","","","","","","","","","SRET","SRET_math_calculate","","key","3","16.66446280991755","683","380","","","","","1+2= ?","3","1","","","","","","","",""
"2223","","9","psychophysics","131","424193","0.0-7.0-5.0-0.28","5","2","5","1","1","5","3","4","4","5","5","0","0","1","2","-2","1","1","2","5","4","5","4","2","1","2","3","4","3","4","6","4","8","3","7","6","5","7","5","5","3","3","6","2","5","2","5","5","1","2","2","5","1","1","5","5","4","6","3","1","2","2","1","1","2","6","2","1","7","1","1","1","1","1","2","1","7","1","3","799230569765543938","仲","102","Female","[""坏我"",""好我"",""好她"",""坏她""]","[""弱我"",""强我"",""强她"",""弱她""]","","","","","","","","9","","","","","","","","","SRET","SRET_math_calculate","","key","9","16.665909090908826","683","380","","","","","81/9= ?","9","1","","","","","","","",""
"2767","","8","psychophysics","132","426969","0.0-7.0-5.0-0.29","5","2","5","1","1","5","3","4","4","5","5","0","0","1","2","-2","1","1","2","5","4","5","4","2","1","2","3","4","3","4","6","4","8","3","7","6","5","7","5","5","3","3","6","2","5","2","5","5","1","2","2","5","1","1","5","5","4","6","3","1","2","2","1","1","2","6","2","1","7","1","1","1","1","1","2","1","7","1","3","799230569765543938","仲","102","Female","[""坏我"",""好我"",""好她"",""坏她""]","[""弱我"",""强我"",""强她"",""弱她""]","","","","","","","","8","","","","","","","","","SRET","SRET_math_calculate","","key","8","16.666265060240825","683","380","","","","","4*2= ?","8","1","","","","","","","",""
"1854","","2","psychophysics","133","428827","0.0-7.0-5.0-0.30","5","2","5","1","1","5","3","4","4","5","5","0","0","1","2","-2","1","1","2","5","4","5","4","2","1","2","3","4","3","4","6","4","8","3","7","6","5","7","5","5","3","3","6","2","5","2","5","5","1","2","2","5","1","1","5","5","4","6","3","1","2","2","1","1","2","6","2","1","7","1","1","1","1","1","2","1","7","1","3","799230569765543938","仲","102","Female","[""坏我"",""好我"",""好她"",""坏她""]","[""弱我"",""强我"",""强她"",""弱她""]","","","","","","","","2","","","","","","","","","SRET","SRET_math_calculate","","key","2","16.66486486486476","683","380","","","","","1+1= ?","2","1","","","","","","","",""
"2279","","3","psychophysics","134","431112","0.0-7.0-5.0-0.31","5","2","5","1","1","5","3","4","4","5","5","0","0","1","2","-2","1","1","2","5","4","5","4","2","1","2","3","4","3","4","6","4","8","3","7","6","5","7","5","5","3","3","6","2","5","2","5","5","1","2","2","5","1","1","5","5","4","6","3","1","2","2","1","1","2","6","2","1","7","1","1","1","1","1","2","1","7","1","3","799230569765543938","仲","102","Female","[""坏我"",""好我"",""好她"",""坏她""]","[""弱我"",""强我"",""强她"",""弱她""]","","","","","","","","3","","","","","","","","","SRET","SRET_math_calculate","","key","3","16.665441176470587","683","380","","","","","3+0= ?","3","1","","","","","","","",""
"2001","","5","psychophysics","135","433119","0.0-7.0-5.0-0.32","5","2","5","1","1","5","3","4","4","5","5","0","0","1","2","-2","1","1","2","5","4","5","4","2","1","2","3","4","3","4","6","4","8","3","7","6","5","7","5","5","3","3","6","2","5","2","5","5","1","2","2","5","1","1","5","5","4","6","3","1","2","2","1","1","2","6","2","1","7","1","1","1","1","1","2","1","7","1","3","799230569765543938","仲","102","Female","[""坏我"",""好我"",""好她"",""坏她""]","[""弱我"",""强我"",""强她"",""弱她""]","","","","","","","","5","","","","","","","","","SRET","SRET_math_calculate","","key","5","16.665546218487492","683","380","","","","","10-5= ?","5","1","","","","","","","",""
"2256","","9","psychophysics","136","435379","0.0-7.0-5.0-0.33","5","2","5","1","1","5","3","4","4","5","5","0","0","1","2","-2","1","1","2","5","4","5","4","2","1","2","3","4","3","4","6","4","8","3","7","6","5","7","5","5","3","3","6","2","5","2","5","5","1","2","2","5","1","1","5","5","4","6","3","1","2","2","1","1","2","6","2","1","7","1","1","1","1","1","2","1","7","1","3","799230569765543938","仲","102","Female","[""坏我"",""好我"",""好她"",""坏她""]","[""弱我"",""强我"",""强她"",""弱她""]","","","","","","","","9","","","","","","","","","SRET","SRET_math_calculate","","key","9","16.66518518518553","683","380","","","","","6+3= ?","9","1","","","","","","","",""
"1965","","0","psychophysics","137","437348","0.0-7.0-5.0-0.34","5","2","5","1","1","5","3","4","4","5","5","0","0","1","2","-2","1","1","2","5","4","5","4","2","1","2","3","4","3","4","6","4","8","3","7","6","5","7","5","5","3","3","6","2","5","2","5","5","1","2","2","5","1","1","5","5","4","6","3","1","2","2","1","1","2","6","2","1","7","1","1","1","1","1","2","1","7","1","3","799230569765543938","仲","102","Female","[""坏我"",""好我"",""好她"",""坏她""]","[""弱我"",""强我"",""强她"",""弱她""]","","","","","","","","0","","","","","","","","","SRET","SRET_math_calculate","","key","0","16.665811965812164","683","380","","","","","32-32= ?","0","1","","","","","","","",""
"2294","","5","psychophysics","138","439646","0.0-7.0-5.0-0.35","5","2","5","1","1","5","3","4","4","5","5","0","0","1","2","-2","1","1","2","5","4","5","4","2","1","2","3","4","3","4","6","4","8","3","7","6","5","7","5","5","3","3","6","2","5","2","5","5","1","2","2","5","1","1","5","5","4","6","3","1","2","2","1","1","2","6","2","1","7","1","1","1","1","1","2","1","7","1","3","799230569765543938","仲","102","Female","[""坏我"",""好我"",""好她"",""坏她""]","[""弱我"",""强我"",""强她"",""弱她""]","","","","","","","","5","","","","","","","","","SRET","SRET_math_calculate","","key","5","16.66569343065702","683","380","","","","","3+2= ?","5","1","","","","","","","",""
"1933","","6","psychophysics","139","441583","0.0-7.0-5.0-0.36","5","2","5","1","1","5","3","4","4","5","5","0","0","1","2","-2","1","1","2","5","4","5","4","2","1","2","3","4","3","4","6","4","8","3","7","6","5","7","5","5","3","3","6","2","5","2","5","5","1","2","2","5","1","1","5","5","4","6","3","1","2","2","1","1","2","6","2","1","7","1","1","1","1","1","2","1","7","1","3","799230569765543938","仲","102","Female","[""坏我"",""好我"",""好她"",""坏她""]","[""弱我"",""强我"",""强她"",""弱她""]","","","","","","","","6","","","","","","","","","SRET","SRET_math_calculate","","key","6","16.66521739130435","683","380","","","","","5+1= ?","6","1","","","","","","","",""
"6031","","8","psychophysics","140","447616","0.0-7.0-5.0-0.37","5","2","5","1","1","5","3","4","4","5","5","0","0","1","2","-2","1","1","2","5","4","5","4","2","1","2","3","4","3","4","6","4","8","3","7","6","5","7","5","5","3","3","6","2","5","2","5","5","1","2","2","5","1","1","5","5","4","6","3","1","2","2","1","1","2","6","2","1","7","1","1","1","1","1","2","1","7","1","3","799230569765543938","仲","102","Female","[""坏我"",""好我"",""好她"",""坏她""]","[""弱我"",""强我"",""强她"",""弱她""]","","","","","","","","8","","","","","","","","","SRET","SRET_math_calculate","","key","8","16.665650969529054","683","380","","","","","32-23= ?","9","0","","","","","","","",""
"3041","","7","psychophysics","141","450662","0.0-7.0-5.0-0.38","5","2","5","1","1","5","3","4","4","5","5","0","0","1","2","-2","1","1","2","5","4","5","4","2","1","2","3","4","3","4","6","4","8","3","7","6","5","7","5","5","3","3","6","2","5","2","5","5","1","2","2","5","1","1","5","5","4","6","3","1","2","2","1","1","2","6","2","1","7","1","1","1","1","1","2","1","7","1","3","799230569765543938","仲","102","Female","[""坏我"",""好我"",""好她"",""坏她""]","[""弱我"",""强我"",""强她"",""弱她""]","","","","","","","","7","","","","","","","","","SRET","SRET_math_calculate","","key","7","16.665384615384486","683","380","","","","","49/7 = ?","7","1","","","","","","","",""
"1936","","0","psychophysics","142","452603","0.0-7.0-5.0-0.39","5","2","5","1","1","5","3","4","4","5","5","0","0","1","2","-2","1","1","2","5","4","5","4","2","1","2","3","4","3","4","6","4","8","3","7","6","5","7","5","5","3","3","6","2","5","2","5","5","1","2","2","5","1","1","5","5","4","6","3","1","2","2","1","1","2","6","2","1","7","1","1","1","1","1","2","1","7","1","3","799230569765543938","仲","102","Female","[""坏我"",""好我"",""好她"",""坏她""]","[""弱我"",""强我"",""强她"",""弱她""]","","","","","","","","0","","","","","","","","","SRET","SRET_math_calculate","","key","0","16.66521739130435","683","380","","","","","5*0= ?","0","1","","","","","","","",""
