"rt","stimulus","response","trial_type","trial_index","time_elapsed","internal_node_id","swb_1","swb_2","swb_3","swb_4","swb_5","LOT_1","LOT_2","LOT_3","LOT_4","LOT_5","LOT_6","IPC_1","IPC_2","IPC_3","IPC_4","IPC_5","IPC_6","IPC_7","IPC_8","MorIden_1","MorIden_2","MorIden_3","MorIden_4","MorIden_5","MorIden_6","MorIden_7","MorIden_8","MorIden_9","MorIden_10","moralSeImag_1","moralSeImag_2","moralSeImag_3","moralSeImag_4","moralSeImag_5","moralSeImag_6","moralSeImag_7","moralSeImag_8","moralSeImag_9","sde_1","sde_2","sde_3","sde_4","sde_5","sde_6","sde_7","sde_8","sde_9","sde_10","trap2","sde_11","sde_12","sde_13","sde_14","sde_15","sde_16","sde_17","sde_18","sde_19","sde_20","IM_1","IM_2","IM_3","IM_4","IM_5","IM_6","IM_7","IM_8","IM_9","IM_10","IM_11","IM_12","IM_13","IM_14","IM_15","IM_16","IM_17","IM_18","IM_19","IM_20","subj_idx","friend_name","ParticipantID","Sex","Word","Word2","value","success","timeout","failed_images","failed_audio","failed_video","user_agent","responses","item_order","radio_event_ids","radio_event_times","key_event_times","mouse_event_times","straightlining","zigzagging","honeypot","view_history","response_type","key_press","avg_frame_time","center_x","center_y","correct_response","correct","identity","Image","word","condition","task_id","screen_id","time_stamp","person","valence","domain","math","status","duration","question_order","trap2_item"
"1257","
   <p><div style='color:white; font-size: 25px'>您好，欢迎参加本次实验。</div></p>
   <p><div style='color:white; font-size: 25px'>为充分保障您的权利，请确保您已经知晓并同意《参与实验同意书》以及《数据公开知情同意书》。</div></p>
   <p><div style='color:white; font-size: 25px'>如果您未见过上述内容，请咨询实验员。</div></p>
   <p style='color:white; font-size: 25px'>如果您选择继续实验，则表示您已经清楚两份知情同意书的内容并同意。</p>
   <p><div style = ""color: pink;font-size:30px;"">请确保您记得day0的实验编号，您将在本次实验输入该编号，若您忘记，请咨询实验员后作答。</div></p>
   <p><div style = ""color:lightblue;font-size:25px;"">请您尽可能认真地作答，我们将依据您在各问卷和按键任务中的作答质量发放报酬。</div></p>
   <p> <div style = ""color: green""><按空格键至下页></div> </p>
   "," ","html-keyboard-response","0","1263","0.0-0.0","6","7","6","7","7","4","4","4","4","4","4","1","0","1","-2","1","2","1","1","4","5","4","4","4","5","4","4","5","4","7","8","8","8","7","8","7","8","7","5","5","6","5","6","5","6","6","6","5","1","6","5","7","2","6","5","6","5","6","5","5","6","5","5","5","6","5","6","6","7","6","3","6","3","3","6","3","6","3","6","763057227551739906","颜","374","Female","[""好她"",""坏我"",""好我"",""坏她""]","[""强她"",""弱我"",""强我"",""弱她""]","","","","","","","","","","","","","","","","","","","","","","","","","","","","","","","","","","","","","","",""
"","","","call-function","1","1264","0.0-1.0-0.0","6","7","6","7","7","4","4","4","4","4","4","1","0","1","-2","1","2","1","1","4","5","4","4","4","5","4","4","5","4","7","8","8","8","7","8","7","8","7","5","5","6","5","6","5","6","6","6","5","1","6","5","7","2","6","5","6","5","6","5","5","6","5","5","5","6","5","6","6","7","6","3","6","3","3","6","3","6","3","6","763057227551739906","颜","374","Female","[""好她"",""坏我"",""好我"",""坏她""]","[""强她"",""弱我"",""强我"",""弱她""]","","","","","","","","","","","","","","","","","","","","","","","","","","","","","","","","","","","","","","",""
"49293","","[{""name"":""Sex"",""value"":""1""},{""name"":""friend_name"",""value"":""颜""},{""name"":""ParticipantID"",""value"":""374""}]","survey-html-form","2","50560","0.0-1.0-1.0","6","7","6","7","7","4","4","4","4","4","4","1","0","1","-2","1","2","1","1","4","5","4","4","4","5","4","4","5","4","7","8","8","8","7","8","7","8","7","5","5","6","5","6","5","6","6","6","5","1","6","5","7","2","6","5","6","5","6","5","5","6","5","5","5","6","5","6","6","7","6","3","6","3","3","6","3","6","3","6","763057227551739906","颜","374","Female","[""好她"",""坏我"",""好我"",""坏她""]","[""强她"",""弱我"",""强我"",""弱她""]","","","","","","","","","","","","","","","","","","","","","","","","","","","","","","","","","","","","","","",""
"","","","preload","3","50665","0.0-2.0","6","7","6","7","7","4","4","4","4","4","4","1","0","1","-2","1","2","1","1","4","5","4","4","4","5","4","4","5","4","7","8","8","8","7","8","7","8","7","5","5","6","5","6","5","6","6","6","5","1","6","5","7","2","6","5","6","5","6","5","5","6","5","5","5","6","5","6","6","7","6","3","6","3","3","6","3","6","3","6","763057227551739906","颜","374","Female","[""好她"",""坏我"",""好我"",""坏她""]","[""强她"",""弱我"",""强我"",""弱她""]","","true","false","[]","[]","[]","","","","","","","","","","","","","","","","","","","","","","","","","","","","","","","","",""
"","","","fullscreen","4","51604","0.0-3.0","6","7","6","7","7","4","4","4","4","4","4","1","0","1","-2","1","2","1","1","4","5","4","4","4","5","4","4","5","4","7","8","8","8","7","8","7","8","7","5","5","6","5","6","5","6","6","6","5","1","6","5","7","2","6","5","6","5","6","5","5","6","5","5","5","6","5","6","6","7","6","3","6","3","3","6","3","6","3","6","763057227551739906","颜","374","Female","[""好她"",""坏我"",""好我"",""坏她""]","[""强她"",""弱我"",""强我"",""弱她""]","","true","","","","","{}","","","","","","","","","","","","","","","","","","","","","","","","","","","","","","","",""
"6527.4000000059605","","{""Q01"":""6"",""Q02"":""7"",""Q03"":""6"",""Q04"":""7"",""Q05"":""7""}","survey-template","5","58136","0.0-4.0","6","7","6","7","7","4","4","4","4","4","4","1","0","1","-2","1","2","1","1","4","5","4","4","4","5","4","4","5","4","7","8","8","8","7","8","7","8","7","5","5","6","5","6","5","6","6","6","5","1","6","5","7","2","6","5","6","5","6","5","5","6","5","5","5","6","5","6","6","7","6","3","6","3","3","6","3","6","3","6","763057227551739906","颜","374","Female","[""好她"",""坏我"",""好我"",""坏她""]","[""强她"",""弱我"",""强我"",""弱她""]","","","","","","","","{""Q01"":""6"",""Q02"":""7"",""Q03"":""6"",""Q04"":""7"",""Q05"":""7""}","[0,1,2,3,4]","[""Q01"",""Q02"",""Q03"",""Q04"",""Q05""]","[1909.4000000059605,2838.300000011921,3556.0999999940395,4437,5621.5]","[]","[1909.4000000059605,2838.300000011921,3556.0999999940395,4437,5621.5,6053.199999988079,6525.199999988079]","0.6","0.75","0","","","","","","","","","","","","","","","","","","","","","","",""
"13936.40000000596","","{""Q01"":""4"",""Q02"":""4"",""Q03"":""4"",""Q04"":""4"",""Q05"":""4"",""Q06"":""4""}","survey-template","6","72087","0.0-5.0","6","7","6","7","7","4","4","4","4","4","4","1","0","1","-2","1","2","1","1","4","5","4","4","4","5","4","4","5","4","7","8","8","8","7","8","7","8","7","5","5","6","5","6","5","6","6","6","5","1","6","5","7","2","6","5","6","5","6","5","5","6","5","5","5","6","5","6","6","7","6","3","6","3","3","6","3","6","3","6","763057227551739906","颜","374","Female","[""好她"",""坏我"",""好我"",""坏她""]","[""强她"",""弱我"",""强我"",""弱她""]","","","","","","","","{""Q01"":""4"",""Q02"":""4"",""Q03"":""4"",""Q04"":""4"",""Q05"":""4"",""Q06"":""4""}","[0,1,2,3,4,5]","[""Q01"",""Q02"",""Q03"",""Q04"",""Q05"",""Q06""]","[1799.1000000238419,5831.4000000059605,8230.800000011921,10728.100000023842,11983.100000023842,13351.300000011921]","[]","[1799.1000000238419,5831.4000000059605,8230.800000011921,10728.100000023842,11983.100000023842,13351.300000011921,13935]","0.5","0","0","","","","","","","","","","","","","","","","","","","","","","",""
"16856.30000001192","","{""Q01"":""1"",""Q02"":""0"",""Q03"":""1"",""Q04"":""-2"",""Q05"":""1"",""Q06"":""2"",""Q07"":""1"",""Q08"":""1""}","survey-template","7","88953","0.0-6.0","6","7","6","7","7","4","4","4","4","4","4","1","0","1","-2","1","2","1","1","4","5","4","4","4","5","4","4","5","4","7","8","8","8","7","8","7","8","7","5","5","6","5","6","5","6","6","6","5","1","6","5","7","2","6","5","6","5","6","5","5","6","5","5","5","6","5","6","6","7","6","3","6","3","3","6","3","6","3","6","763057227551739906","颜","374","Female","[""好她"",""坏我"",""好我"",""坏她""]","[""强她"",""弱我"",""强我"",""弱她""]","","","","","","","","{""Q01"":""1"",""Q02"":""0"",""Q03"":""1"",""Q04"":""-2"",""Q05"":""1"",""Q06"":""2"",""Q07"":""1"",""Q08"":""1""}","[0,1,2,3,4,5,6,7]","[""Q01"",""Q02"",""Q03"",""Q03"",""Q04"",""Q05"",""Q06"",""Q07"",""Q08""]","[1566,4142,6493.699999988079,8782,9869.5,11117.59999999404,13221.40000000596,14989.699999988079,16334.300000011921]","[]","[1566,4142,6493.699999988079,8037.5999999940395,8782,9869.5,11117.59999999404,12237.5,13221.40000000596,14989.699999988079,15869.59999999404,16334.300000011921,16853.59999999404]","0.625","0.5714285714285714","0","","","","","","","","","","","","","","","","","","","","","","",""
"1264","","","instructions","8","90225","0.0-7.0","6","7","6","7","7","4","4","4","4","4","4","1","0","1","-2","1","2","1","1","4","5","4","4","4","5","4","4","5","4","7","8","8","8","7","8","7","8","7","5","5","6","5","6","5","6","6","6","5","1","6","5","7","2","6","5","6","5","6","5","5","6","5","5","5","6","5","6","6","7","6","3","6","3","3","6","3","6","3","6","763057227551739906","颜","374","Female","[""好她"",""坏我"",""好我"",""坏她""]","[""强她"",""弱我"",""强我"",""弱她""]","","","","","","","","","","","","","","","","","[{""page_index"":0,""viewing_time"":1263}]","","","","","","","","","","","","","","","","","","","","","",""
"152859","","","instructions","9","243086","0.0-8.0-0.0-0.0","6","7","6","7","7","4","4","4","4","4","4","1","0","1","-2","1","2","1","1","4","5","4","4","4","5","4","4","5","4","7","8","8","8","7","8","7","8","7","5","5","6","5","6","5","6","6","6","5","1","6","5","7","2","6","5","6","5","6","5","5","6","5","5","5","6","5","6","6","7","6","3","6","3","3","6","3","6","3","6","763057227551739906","颜","374","Female","[""好她"",""坏我"",""好我"",""坏她""]","[""强她"",""弱我"",""强我"",""弱她""]","","","","","","","","","","","","","","","","","[{""page_index"":0,""viewing_time"":1026},{""page_index"":1,""viewing_time"":148776},{""page_index"":2,""viewing_time"":2151},{""page_index"":3,""viewing_time"":905}]","","","","","","","","","","","","","","","","","","","","","",""
"1084","","j","psychophysics","10","245179","0.0-8.0-0.0-1.0-0.0-0.0","6","7","6","7","7","4","4","4","4","4","4","1","0","1","-2","1","2","1","1","4","5","4","4","4","5","4","4","5","4","7","8","8","8","7","8","7","8","7","5","5","6","5","6","5","6","6","6","5","1","6","5","7","2","6","5","6","5","6","5","5","6","5","5","5","6","5","6","6","7","6","3","6","3","3","6","3","6","3","6","763057227551739906","颜","374","Female","[""好她"",""坏我"",""好我"",""坏她""]","[""强她"",""弱我"",""强我"",""弱她""]","","","","","","","","nonmatch","","","","","","","","","","key","j","16.666080645161387","683","380","j","true","nonmatch","img/square.png","好她","坏她","prac_ALT2_moral","practice_moral","","","","","","","","",""
"null","<span style='color:GreenYellow; font-size: 70px;'>正确! </span>","null","html-keyboard-response","11","245681","0.0-8.0-0.0-1.0-0.0-1.0","6","7","6","7","7","4","4","4","4","4","4","1","0","1","-2","1","2","1","1","4","5","4","4","4","5","4","4","5","4","7","8","8","8","7","8","7","8","7","5","5","6","5","6","5","6","6","6","5","1","6","5","7","2","6","5","6","5","6","5","5","6","5","5","5","6","5","6","6","7","6","3","6","3","3","6","3","6","3","6","763057227551739906","颜","374","Female","[""好她"",""坏我"",""好我"",""坏她""]","[""强她"",""弱我"",""强我"",""弱她""]","","","","","","","","","","","","","","","","","","","","","","","","","","","","","","feedback_test","","","","","","","","",""
"1094","","j","psychophysics","12","247780","0.0-8.0-0.0-1.0-0.0-0.1","6","7","6","7","7","4","4","4","4","4","4","1","0","1","-2","1","2","1","1","4","5","4","4","4","5","4","4","5","4","7","8","8","8","7","8","7","8","7","5","5","6","5","6","5","6","6","6","5","1","6","5","7","2","6","5","6","5","6","5","5","6","5","5","5","6","5","6","6","7","6","3","6","3","3","6","3","6","3","6","763057227551739906","颜","374","Female","[""好她"",""坏我"",""好我"",""坏她""]","[""强她"",""弱我"",""强我"",""弱她""]","","","","","","","","nonmatch","","","","","","","","","","key","j","16.666423999999882","683","380","f","false","match","img/square.png","坏她","坏她","prac_ALT2_moral","practice_moral","","","","","","","","",""
"null","<span style='color:red; font-size: 70px;'>错误! </span>","null","html-keyboard-response","13","248283","0.0-8.0-0.0-1.0-0.0-1.1","6","7","6","7","7","4","4","4","4","4","4","1","0","1","-2","1","2","1","1","4","5","4","4","4","5","4","4","5","4","7","8","8","8","7","8","7","8","7","5","5","6","5","6","5","6","6","6","5","1","6","5","7","2","6","5","6","5","6","5","5","6","5","5","5","6","5","6","6","7","6","3","6","3","3","6","3","6","3","6","763057227551739906","颜","374","Female","[""好她"",""坏我"",""好我"",""坏她""]","[""强她"",""弱我"",""强我"",""弱她""]","","","","","","","","","","","","","","","","","","","","","","","","","","","","","","feedback_test","","","","","","","","",""
"null","","null","psychophysics","14","250495","0.0-8.0-0.0-1.0-0.0-0.2","6","7","6","7","7","4","4","4","4","4","4","1","0","1","-2","1","2","1","1","4","5","4","4","4","5","4","4","5","4","7","8","8","8","7","8","7","8","7","5","5","6","5","6","5","6","6","6","5","1","6","5","7","2","6","5","6","5","6","5","5","6","5","5","5","6","5","6","6","7","6","3","6","3","3","6","3","6","3","6","763057227551739906","颜","374","Female","[""好她"",""坏我"",""好我"",""坏她""]","[""强她"",""弱我"",""强我"",""弱她""]","","","","","","","","null","","","","","","","","","","key","null","16.665541984732947","683","380","j","false","nonmatch","img/trapezoid.png","好她","坏我","prac_ALT2_moral","practice_moral","","","","","","","","",""
"null","<span class='add_' style='color:yellow; font-size: 70px;'> 太慢! </span>","null","html-keyboard-response","15","250997","0.0-8.0-0.0-1.0-0.0-1.2","6","7","6","7","7","4","4","4","4","4","4","1","0","1","-2","1","2","1","1","4","5","4","4","4","5","4","4","5","4","7","8","8","8","7","8","7","8","7","5","5","6","5","6","5","6","6","6","5","1","6","5","7","2","6","5","6","5","6","5","5","6","5","5","5","6","5","6","6","7","6","3","6","3","3","6","3","6","3","6","763057227551739906","颜","374","Female","[""好她"",""坏我"",""好我"",""坏她""]","[""强她"",""弱我"",""强我"",""弱她""]","","","","","","","","","","","","","","","","","","","","","","","","","","","","","","feedback_test","","","","","","","","",""
"1187","","f","psychophysics","16","253186","0.0-8.0-0.0-1.0-0.0-0.3","6","7","6","7","7","4","4","4","4","4","4","1","0","1","-2","1","2","1","1","4","5","4","4","4","5","4","4","5","4","7","8","8","8","7","8","7","8","7","5","5","6","5","6","5","6","6","6","5","1","6","5","7","2","6","5","6","5","6","5","5","6","5","5","5","6","5","6","6","7","6","3","6","3","3","6","3","6","3","6","763057227551739906","颜","374","Female","[""好她"",""坏我"",""好我"",""坏她""]","[""强她"",""弱我"",""强我"",""弱她""]","","","","","","","","match","","","","","","","","","","key","f","16.666580152671866","683","380","f","true","match","img/ellipse.png","好我","好我","prac_ALT2_moral","practice_moral","","","","","","","","",""
"null","<span style='color:GreenYellow; font-size: 70px;'>正确! </span>","null","html-keyboard-response","17","253688","0.0-8.0-0.0-1.0-0.0-1.3","6","7","6","7","7","4","4","4","4","4","4","1","0","1","-2","1","2","1","1","4","5","4","4","4","5","4","4","5","4","7","8","8","8","7","8","7","8","7","5","5","6","5","6","5","6","6","6","5","1","6","5","7","2","6","5","6","5","6","5","5","6","5","5","5","6","5","6","6","7","6","3","6","3","3","6","3","6","3","6","763057227551739906","颜","374","Female","[""好她"",""坏我"",""好我"",""坏她""]","[""强她"",""弱我"",""强我"",""弱她""]","","","","","","","","","","","","","","","","","","","","","","","","","","","","","","feedback_test","","","","","","","","",""
"null","","null","psychophysics","18","255895","0.0-8.0-0.0-1.0-0.0-0.4","6","7","6","7","7","4","4","4","4","4","4","1","0","1","-2","1","2","1","1","4","5","4","4","4","5","4","4","5","4","7","8","8","8","7","8","7","8","7","5","5","6","5","6","5","6","6","6","5","1","6","5","7","2","6","5","6","5","6","5","5","6","5","5","5","6","5","6","6","7","6","3","6","3","3","6","3","6","3","6","763057227551739906","颜","374","Female","[""好她"",""坏我"",""好我"",""坏她""]","[""强她"",""弱我"",""强我"",""弱她""]","","","","","","","","null","","","","","","","","","","key","null","16.66529007633603","683","380","f","false","match","img/trapezoid.png","坏我","坏我","prac_ALT2_moral","practice_moral","","","","","","","","",""
"null","<span class='add_' style='color:yellow; font-size: 70px;'> 太慢! </span>","null","html-keyboard-response","19","256397","0.0-8.0-0.0-1.0-0.0-1.4","6","7","6","7","7","4","4","4","4","4","4","1","0","1","-2","1","2","1","1","4","5","4","4","4","5","4","4","5","4","7","8","8","8","7","8","7","8","7","5","5","6","5","6","5","6","6","6","5","1","6","5","7","2","6","5","6","5","6","5","5","6","5","5","5","6","5","6","6","7","6","3","6","3","3","6","3","6","3","6","763057227551739906","颜","374","Female","[""好她"",""坏我"",""好我"",""坏她""]","[""强她"",""弱我"",""强我"",""弱她""]","","","","","","","","","","","","","","","","","","","","","","","","","","","","","","feedback_test","","","","","","","","",""
"1081","","j","psychophysics","20","258483","0.0-8.0-0.0-1.0-0.0-0.5","6","7","6","7","7","4","4","4","4","4","4","1","0","1","-2","1","2","1","1","4","5","4","4","4","5","4","4","5","4","7","8","8","8","7","8","7","8","7","5","5","6","5","6","5","6","6","6","5","1","6","5","7","2","6","5","6","5","6","5","5","6","5","5","5","6","5","6","6","7","6","3","6","3","3","6","3","6","3","6","763057227551739906","颜","374","Female","[""好她"",""坏我"",""好我"",""坏她""]","[""强她"",""弱我"",""强我"",""弱她""]","","","","","","","","nonmatch","","","","","","","","","","key","j","16.666500000000063","683","380","j","true","nonmatch","img/pentagon.png","坏她","好她","prac_ALT2_moral","practice_moral","","","","","","","","",""
"null","<span style='color:GreenYellow; font-size: 70px;'>正确! </span>","null","html-keyboard-response","21","258986","0.0-8.0-0.0-1.0-0.0-1.5","6","7","6","7","7","4","4","4","4","4","4","1","0","1","-2","1","2","1","1","4","5","4","4","4","5","4","4","5","4","7","8","8","8","7","8","7","8","7","5","5","6","5","6","5","6","6","6","5","1","6","5","7","2","6","5","6","5","6","5","5","6","5","5","5","6","5","6","6","7","6","3","6","3","3","6","3","6","3","6","763057227551739906","颜","374","Female","[""好她"",""坏我"",""好我"",""坏她""]","[""强她"",""弱我"",""强我"",""弱她""]","","","","","","","","","","","","","","","","","","","","","","","","","","","","","","feedback_test","","","","","","","","",""
"879","","j","psychophysics","22","260868","0.0-8.0-0.0-1.0-0.0-0.6","6","7","6","7","7","4","4","4","4","4","4","1","0","1","-2","1","2","1","1","4","5","4","4","4","5","4","4","5","4","7","8","8","8","7","8","7","8","7","5","5","6","5","6","5","6","6","6","5","1","6","5","7","2","6","5","6","5","6","5","5","6","5","5","5","6","5","6","6","7","6","3","6","3","3","6","3","6","3","6","763057227551739906","颜","374","Female","[""好她"",""坏我"",""好我"",""坏她""]","[""强她"",""弱我"",""强我"",""弱她""]","","","","","","","","nonmatch","","","","","","","","","","key","j","16.66658928571425","683","380","f","false","match","img/pentagon.png","好她","好她","prac_ALT2_moral","practice_moral","","","","","","","","",""
"null","<span style='color:red; font-size: 70px;'>错误! </span>","null","html-keyboard-response","23","261370","0.0-8.0-0.0-1.0-0.0-1.6","6","7","6","7","7","4","4","4","4","4","4","1","0","1","-2","1","2","1","1","4","5","4","4","4","5","4","4","5","4","7","8","8","8","7","8","7","8","7","5","5","6","5","6","5","6","6","6","5","1","6","5","7","2","6","5","6","5","6","5","5","6","5","5","5","6","5","6","6","7","6","3","6","3","3","6","3","6","3","6","763057227551739906","颜","374","Female","[""好她"",""坏我"",""好我"",""坏她""]","[""强她"",""弱我"",""强我"",""弱她""]","","","","","","","","","","","","","","","","","","","","","","","","","","","","","","feedback_test","","","","","","","","",""
"1082","","j","psychophysics","24","263455","0.0-8.0-0.0-1.0-0.0-0.7","6","7","6","7","7","4","4","4","4","4","4","1","0","1","-2","1","2","1","1","4","5","4","4","4","5","4","4","5","4","7","8","8","8","7","8","7","8","7","5","5","6","5","6","5","6","6","6","5","1","6","5","7","2","6","5","6","5","6","5","5","6","5","5","5","6","5","6","6","7","6","3","6","3","3","6","3","6","3","6","763057227551739906","颜","374","Female","[""好她"",""坏我"",""好我"",""坏她""]","[""强她"",""弱我"",""强我"",""弱她""]","","","","","","","","nonmatch","","","","","","","","","","key","j","16.66621774193552","683","380","j","true","nonmatch","img/square.png","好我","坏她","prac_ALT2_moral","practice_moral","","","","","","","","",""
"null","<span style='color:GreenYellow; font-size: 70px;'>正确! </span>","null","html-keyboard-response","25","263957","0.0-8.0-0.0-1.0-0.0-1.7","6","7","6","7","7","4","4","4","4","4","4","1","0","1","-2","1","2","1","1","4","5","4","4","4","5","4","4","5","4","7","8","8","8","7","8","7","8","7","5","5","6","5","6","5","6","6","6","5","1","6","5","7","2","6","5","6","5","6","5","5","6","5","5","5","6","5","6","6","7","6","3","6","3","3","6","3","6","3","6","763057227551739906","颜","374","Female","[""好她"",""坏我"",""好我"",""坏她""]","[""强她"",""弱我"",""强我"",""弱她""]","","","","","","","","","","","","","","","","","","","","","","","","","","","","","","feedback_test","","","","","","","","",""
"1192","","j","psychophysics","26","266152","0.0-8.0-0.0-1.0-0.0-0.8","6","7","6","7","7","4","4","4","4","4","4","1","0","1","-2","1","2","1","1","4","5","4","4","4","5","4","4","5","4","7","8","8","8","7","8","7","8","7","5","5","6","5","6","5","6","6","6","5","1","6","5","7","2","6","5","6","5","6","5","5","6","5","5","5","6","5","6","6","7","6","3","6","3","3","6","3","6","3","6","763057227551739906","颜","374","Female","[""好她"",""坏我"",""好我"",""坏她""]","[""强她"",""弱我"",""强我"",""弱她""]","","","","","","","","nonmatch","","","","","","","","","","key","j","16.666190839694718","683","380","f","false","match","img/trapezoid.png","坏我","坏我","prac_ALT2_moral","practice_moral","","","","","","","","",""
"null","<span style='color:red; font-size: 70px;'>错误! </span>","null","html-keyboard-response","27","266654","0.0-8.0-0.0-1.0-0.0-1.8","6","7","6","7","7","4","4","4","4","4","4","1","0","1","-2","1","2","1","1","4","5","4","4","4","5","4","4","5","4","7","8","8","8","7","8","7","8","7","5","5","6","5","6","5","6","6","6","5","1","6","5","7","2","6","5","6","5","6","5","5","6","5","5","5","6","5","6","6","7","6","3","6","3","3","6","3","6","3","6","763057227551739906","颜","374","Female","[""好她"",""坏我"",""好我"",""坏她""]","[""强她"",""弱我"",""强我"",""弱她""]","","","","","","","","","","","","","","","","","","","","","","","","","","","","","","feedback_test","","","","","","","","",""
"null","","null","psychophysics","28","268860","0.0-8.0-0.0-1.0-0.0-0.9","6","7","6","7","7","4","4","4","4","4","4","1","0","1","-2","1","2","1","1","4","5","4","4","4","5","4","4","5","4","7","8","8","8","7","8","7","8","7","5","5","6","5","6","5","6","6","6","5","1","6","5","7","2","6","5","6","5","6","5","5","6","5","5","5","6","5","6","6","7","6","3","6","3","3","6","3","6","3","6","763057227551739906","颜","374","Female","[""好她"",""坏我"",""好我"",""坏她""]","[""强她"",""弱我"",""强我"",""弱她""]","","","","","","","","null","","","","","","","","","","key","null","16.66641221374037","683","380","j","false","nonmatch","img/trapezoid.png","好我","坏我","prac_ALT2_moral","practice_moral","","","","","","","","",""
"null","<span class='add_' style='color:yellow; font-size: 70px;'> 太慢! </span>","null","html-keyboard-response","29","269361","0.0-8.0-0.0-1.0-0.0-1.9","6","7","6","7","7","4","4","4","4","4","4","1","0","1","-2","1","2","1","1","4","5","4","4","4","5","4","4","5","4","7","8","8","8","7","8","7","8","7","5","5","6","5","6","5","6","6","6","5","1","6","5","7","2","6","5","6","5","6","5","5","6","5","5","5","6","5","6","6","7","6","3","6","3","3","6","3","6","3","6","763057227551739906","颜","374","Female","[""好她"",""坏我"",""好我"",""坏她""]","[""强她"",""弱我"",""强我"",""弱她""]","","","","","","","","","","","","","","","","","","","","","","","","","","","","","","feedback_test","","","","","","","","",""
"1004","","j","psychophysics","30","271369","0.0-8.0-0.0-1.0-0.0-0.10","6","7","6","7","7","4","4","4","4","4","4","1","0","1","-2","1","2","1","1","4","5","4","4","4","5","4","4","5","4","7","8","8","8","7","8","7","8","7","5","5","6","5","6","5","6","6","6","5","1","6","5","7","2","6","5","6","5","6","5","5","6","5","5","5","6","5","6","6","7","6","3","6","3","3","6","3","6","3","6","763057227551739906","颜","374","Female","[""好她"",""坏我"",""好我"",""坏她""]","[""强她"",""弱我"",""强我"",""弱她""]","","","","","","","","nonmatch","","","","","","","","","","key","j","16.666616666666716","683","380","f","false","match","img/square.png","坏她","坏她","prac_ALT2_moral","practice_moral","","","","","","","","",""
"null","<span style='color:red; font-size: 70px;'>错误! </span>","null","html-keyboard-response","31","271871","0.0-8.0-0.0-1.0-0.0-1.10","6","7","6","7","7","4","4","4","4","4","4","1","0","1","-2","1","2","1","1","4","5","4","4","4","5","4","4","5","4","7","8","8","8","7","8","7","8","7","5","5","6","5","6","5","6","6","6","5","1","6","5","7","2","6","5","6","5","6","5","5","6","5","5","5","6","5","6","6","7","6","3","6","3","3","6","3","6","3","6","763057227551739906","颜","374","Female","[""好她"",""坏我"",""好我"",""坏她""]","[""强她"",""弱我"",""强我"",""弱她""]","","","","","","","","","","","","","","","","","","","","","","","","","","","","","","feedback_test","","","","","","","","",""
"169","","j","psychophysics","32","273043","0.0-8.0-0.0-1.0-0.0-0.11","6","7","6","7","7","4","4","4","4","4","4","1","0","1","-2","1","2","1","1","4","5","4","4","4","5","4","4","5","4","7","8","8","8","7","8","7","8","7","5","5","6","5","6","5","6","6","6","5","1","6","5","7","2","6","5","6","5","6","5","5","6","5","5","5","6","5","6","6","7","6","3","6","3","3","6","3","6","3","6","763057227551739906","颜","374","Female","[""好她"",""坏我"",""好我"",""坏她""]","[""强她"",""弱我"",""强我"",""弱她""]","","","","","","","","nonmatch","","","","","","","","","","key","j","16.667202898550887","683","380","j","true","nonmatch","img/ellipse.png","坏她","好我","prac_ALT2_moral","practice_moral","","","","","","","","",""
"null","<span style='color:yellow; font-size: 70px;'>过快! </span>","null","html-keyboard-response","33","273546","0.0-8.0-0.0-1.0-0.0-1.11","6","7","6","7","7","4","4","4","4","4","4","1","0","1","-2","1","2","1","1","4","5","4","4","4","5","4","4","5","4","7","8","8","8","7","8","7","8","7","5","5","6","5","6","5","6","6","6","5","1","6","5","7","2","6","5","6","5","6","5","5","6","5","5","5","6","5","6","6","7","6","3","6","3","3","6","3","6","3","6","763057227551739906","颜","374","Female","[""好她"",""坏我"",""好我"",""坏她""]","[""强她"",""弱我"",""强我"",""弱她""]","","","","","","","","","","","","","","","","","","","","","","","","","","","","","","feedback_test","","","","","","","","",""
"null","","null","psychophysics","34","275754","0.0-8.0-0.0-1.0-0.0-0.12","6","7","6","7","7","4","4","4","4","4","4","1","0","1","-2","1","2","1","1","4","5","4","4","4","5","4","4","5","4","7","8","8","8","7","8","7","8","7","5","5","6","5","6","5","6","6","6","5","1","6","5","7","2","6","5","6","5","6","5","5","6","5","5","5","6","5","6","6","7","6","3","6","3","3","6","3","6","3","6","763057227551739906","颜","374","Female","[""好她"",""坏我"",""好我"",""坏她""]","[""强她"",""弱我"",""强我"",""弱她""]","","","","","","","","null","","","","","","","","","","key","null","16.664295454545275","683","380","j","false","nonmatch","img/pentagon.png","坏我","好她","prac_ALT2_moral","practice_moral","","","","","","","","",""
"null","<span class='add_' style='color:yellow; font-size: 70px;'> 太慢! </span>","null","html-keyboard-response","35","276256","0.0-8.0-0.0-1.0-0.0-1.12","6","7","6","7","7","4","4","4","4","4","4","1","0","1","-2","1","2","1","1","4","5","4","4","4","5","4","4","5","4","7","8","8","8","7","8","7","8","7","5","5","6","5","6","5","6","6","6","5","1","6","5","7","2","6","5","6","5","6","5","5","6","5","5","5","6","5","6","6","7","6","3","6","3","3","6","3","6","3","6","763057227551739906","颜","374","Female","[""好她"",""坏我"",""好我"",""坏她""]","[""强她"",""弱我"",""强我"",""弱她""]","","","","","","","","","","","","","","","","","","","","","","","","","","","","","","feedback_test","","","","","","","","",""
"null","","null","psychophysics","36","278459","0.0-8.0-0.0-1.0-0.0-0.13","6","7","6","7","7","4","4","4","4","4","4","1","0","1","-2","1","2","1","1","4","5","4","4","4","5","4","4","5","4","7","8","8","8","7","8","7","8","7","5","5","6","5","6","5","6","6","6","5","1","6","5","7","2","6","5","6","5","6","5","5","6","5","5","5","6","5","6","6","7","6","3","6","3","3","6","3","6","3","6","763057227551739906","颜","374","Female","[""好她"",""坏我"",""好我"",""坏她""]","[""强她"",""弱我"",""强我"",""弱她""]","","","","","","","","null","","","","","","","","","","key","null","16.666305343511173","683","380","j","false","nonmatch","img/ellipse.png","好她","好我","prac_ALT2_moral","practice_moral","","","","","","","","",""
"null","<span class='add_' style='color:yellow; font-size: 70px;'> 太慢! </span>","null","html-keyboard-response","37","278961","0.0-8.0-0.0-1.0-0.0-1.13","6","7","6","7","7","4","4","4","4","4","4","1","0","1","-2","1","2","1","1","4","5","4","4","4","5","4","4","5","4","7","8","8","8","7","8","7","8","7","5","5","6","5","6","5","6","6","6","5","1","6","5","7","2","6","5","6","5","6","5","5","6","5","5","5","6","5","6","6","7","6","3","6","3","3","6","3","6","3","6","763057227551739906","颜","374","Female","[""好她"",""坏我"",""好我"",""坏她""]","[""强她"",""弱我"",""强我"",""弱她""]","","","","","","","","","","","","","","","","","","","","","","","","","","","","","","feedback_test","","","","","","","","",""
"809","","f","psychophysics","38","280773","0.0-8.0-0.0-1.0-0.0-0.14","6","7","6","7","7","4","4","4","4","4","4","1","0","1","-2","1","2","1","1","4","5","4","4","4","5","4","4","5","4","7","8","8","8","7","8","7","8","7","5","5","6","5","6","5","6","6","6","5","1","6","5","7","2","6","5","6","5","6","5","5","6","5","5","5","6","5","6","6","7","6","3","6","3","3","6","3","6","3","6","763057227551739906","颜","374","Female","[""好她"",""坏我"",""好我"",""坏她""]","[""强她"",""弱我"",""强我"",""弱她""]","","","","","","","","match","","","","","","","","","","key","f","16.66657407407399","683","380","f","true","match","img/ellipse.png","好我","好我","prac_ALT2_moral","practice_moral","","","","","","","","",""
"null","<span style='color:GreenYellow; font-size: 70px;'>正确! </span>","null","html-keyboard-response","39","281275","0.0-8.0-0.0-1.0-0.0-1.14","6","7","6","7","7","4","4","4","4","4","4","1","0","1","-2","1","2","1","1","4","5","4","4","4","5","4","4","5","4","7","8","8","8","7","8","7","8","7","5","5","6","5","6","5","6","6","6","5","1","6","5","7","2","6","5","6","5","6","5","5","6","5","5","5","6","5","6","6","7","6","3","6","3","3","6","3","6","3","6","763057227551739906","颜","374","Female","[""好她"",""坏我"",""好我"",""坏她""]","[""强她"",""弱我"",""强我"",""弱她""]","","","","","","","","","","","","","","","","","","","","","","","","","","","","","","feedback_test","","","","","","","","",""
"1058","","j","psychophysics","40","283337","0.0-8.0-0.0-1.0-0.0-0.15","6","7","6","7","7","4","4","4","4","4","4","1","0","1","-2","1","2","1","1","4","5","4","4","4","5","4","4","5","4","7","8","8","8","7","8","7","8","7","5","5","6","5","6","5","6","6","6","5","1","6","5","7","2","6","5","6","5","6","5","5","6","5","5","5","6","5","6","6","7","6","3","6","3","3","6","3","6","3","6","763057227551739906","颜","374","Female","[""好她"",""坏我"",""好我"",""坏她""]","[""强她"",""弱我"",""强我"",""弱她""]","","","","","","","","nonmatch","","","","","","","","","","key","j","16.66616260162621","683","380","j","true","nonmatch","img/ellipse.png","坏我","好我","prac_ALT2_moral","practice_moral","","","","","","","","",""
"null","<span style='color:GreenYellow; font-size: 70px;'>正确! </span>","null","html-keyboard-response","41","283840","0.0-8.0-0.0-1.0-0.0-1.15","6","7","6","7","7","4","4","4","4","4","4","1","0","1","-2","1","2","1","1","4","5","4","4","4","5","4","4","5","4","7","8","8","8","7","8","7","8","7","5","5","6","5","6","5","6","6","6","5","1","6","5","7","2","6","5","6","5","6","5","5","6","5","5","5","6","5","6","6","7","6","3","6","3","3","6","3","6","3","6","763057227551739906","颜","374","Female","[""好她"",""坏我"",""好我"",""坏她""]","[""强她"",""弱我"",""强我"",""弱她""]","","","","","","","","","","","","","","","","","","","","","","","","","","","","","","feedback_test","","","","","","","","",""
"null","","null","psychophysics","42","286045","0.0-8.0-0.0-1.0-0.0-0.16","6","7","6","7","7","4","4","4","4","4","4","1","0","1","-2","1","2","1","1","4","5","4","4","4","5","4","4","5","4","7","8","8","8","7","8","7","8","7","5","5","6","5","6","5","6","6","6","5","1","6","5","7","2","6","5","6","5","6","5","5","6","5","5","5","6","5","6","6","7","6","3","6","3","3","6","3","6","3","6","763057227551739906","颜","374","Female","[""好她"",""坏我"",""好我"",""坏她""]","[""强她"",""弱我"",""强我"",""弱她""]","","","","","","","","null","","","","","","","","","","key","null","16.666572519083942","683","380","f","false","match","img/pentagon.png","好她","好她","prac_ALT2_moral","practice_moral","","","","","","","","",""
"null","<span class='add_' style='color:yellow; font-size: 70px;'> 太慢! </span>","null","html-keyboard-response","43","286548","0.0-8.0-0.0-1.0-0.0-1.16","6","7","6","7","7","4","4","4","4","4","4","1","0","1","-2","1","2","1","1","4","5","4","4","4","5","4","4","5","4","7","8","8","8","7","8","7","8","7","5","5","6","5","6","5","6","6","6","5","1","6","5","7","2","6","5","6","5","6","5","5","6","5","5","5","6","5","6","6","7","6","3","6","3","3","6","3","6","3","6","763057227551739906","颜","374","Female","[""好她"",""坏我"",""好我"",""坏她""]","[""强她"",""弱我"",""强我"",""弱她""]","","","","","","","","","","","","","","","","","","","","","","","","","","","","","","feedback_test","","","","","","","","",""
"null","","null","psychophysics","44","288759","0.0-8.0-0.0-1.0-0.0-0.17","6","7","6","7","7","4","4","4","4","4","4","1","0","1","-2","1","2","1","1","4","5","4","4","4","5","4","4","5","4","7","8","8","8","7","8","7","8","7","5","5","6","5","6","5","6","6","6","5","1","6","5","7","2","6","5","6","5","6","5","5","6","5","5","5","6","5","6","6","7","6","3","6","3","3","6","3","6","3","6","763057227551739906","颜","374","Female","[""好她"",""坏我"",""好我"",""坏她""]","[""强她"",""弱我"",""强我"",""弱她""]","","","","","","","","null","","","","","","","","","","key","null","16.666564885496236","683","380","j","false","nonmatch","img/square.png","坏我","坏她","prac_ALT2_moral","practice_moral","","","","","","","","",""
"null","<span class='add_' style='color:yellow; font-size: 70px;'> 太慢! </span>","null","html-keyboard-response","45","289261","0.0-8.0-0.0-1.0-0.0-1.17","6","7","6","7","7","4","4","4","4","4","4","1","0","1","-2","1","2","1","1","4","5","4","4","4","5","4","4","5","4","7","8","8","8","7","8","7","8","7","5","5","6","5","6","5","6","6","6","5","1","6","5","7","2","6","5","6","5","6","5","5","6","5","5","5","6","5","6","6","7","6","3","6","3","3","6","3","6","3","6","763057227551739906","颜","374","Female","[""好她"",""坏我"",""好我"",""坏她""]","[""强她"",""弱我"",""强我"",""弱她""]","","","","","","","","","","","","","","","","","","","","","","","","","","","","","","feedback_test","","","","","","","","",""
"1192","","j","psychophysics","46","291455","0.0-8.0-0.0-1.0-0.0-0.18","6","7","6","7","7","4","4","4","4","4","4","1","0","1","-2","1","2","1","1","4","5","4","4","4","5","4","4","5","4","7","8","8","8","7","8","7","8","7","5","5","6","5","6","5","6","6","6","5","1","6","5","7","2","6","5","6","5","6","5","5","6","5","5","5","6","5","6","6","7","6","3","6","3","3","6","3","6","3","6","763057227551739906","颜","374","Female","[""好她"",""坏我"",""好我"",""坏她""]","[""强她"",""弱我"",""强我"",""弱她""]","","","","","","","","nonmatch","","","","","","","","","","key","j","16.666603053435203","683","380","f","false","match","img/pentagon.png","好她","好她","prac_ALT2_moral","practice_moral","","","","","","","","",""
"null","<span style='color:red; font-size: 70px;'>错误! </span>","null","html-keyboard-response","47","291956","0.0-8.0-0.0-1.0-0.0-1.18","6","7","6","7","7","4","4","4","4","4","4","1","0","1","-2","1","2","1","1","4","5","4","4","4","5","4","4","5","4","7","8","8","8","7","8","7","8","7","5","5","6","5","6","5","6","6","6","5","1","6","5","7","2","6","5","6","5","6","5","5","6","5","5","5","6","5","6","6","7","6","3","6","3","3","6","3","6","3","6","763057227551739906","颜","374","Female","[""好她"",""坏我"",""好我"",""坏她""]","[""强她"",""弱我"",""强我"",""弱她""]","","","","","","","","","","","","","","","","","","","","","","","","","","","","","","feedback_test","","","","","","","","",""
"1058","","j","psychophysics","48","294016","0.0-8.0-0.0-1.0-0.0-0.19","6","7","6","7","7","4","4","4","4","4","4","1","0","1","-2","1","2","1","1","4","5","4","4","4","5","4","4","5","4","7","8","8","8","7","8","7","8","7","5","5","6","5","6","5","6","6","6","5","1","6","5","7","2","6","5","6","5","6","5","5","6","5","5","5","6","5","6","6","7","6","3","6","3","3","6","3","6","3","6","763057227551739906","颜","374","Female","[""好她"",""坏我"",""好我"",""坏她""]","[""强她"",""弱我"",""强我"",""弱她""]","","","","","","","","nonmatch","","","","","","","","","","key","j","16.66665853658498","683","380","f","false","match","img/square.png","坏她","坏她","prac_ALT2_moral","practice_moral","","","","","","","","",""
"null","<span style='color:red; font-size: 70px;'>错误! </span>","null","html-keyboard-response","49","294518","0.0-8.0-0.0-1.0-0.0-1.19","6","7","6","7","7","4","4","4","4","4","4","1","0","1","-2","1","2","1","1","4","5","4","4","4","5","4","4","5","4","7","8","8","8","7","8","7","8","7","5","5","6","5","6","5","6","6","6","5","1","6","5","7","2","6","5","6","5","6","5","5","6","5","5","5","6","5","6","6","7","6","3","6","3","3","6","3","6","3","6","763057227551739906","颜","374","Female","[""好她"",""坏我"",""好我"",""坏她""]","[""强她"",""弱我"",""强我"",""弱她""]","","","","","","","","","","","","","","","","","","","","","","","","","","","","","","feedback_test","","","","","","","","",""
"null","","null","psychophysics","50","296724","0.0-8.0-0.0-1.0-0.0-0.20","6","7","6","7","7","4","4","4","4","4","4","1","0","1","-2","1","2","1","1","4","5","4","4","4","5","4","4","5","4","7","8","8","8","7","8","7","8","7","5","5","6","5","6","5","6","6","6","5","1","6","5","7","2","6","5","6","5","6","5","5","6","5","5","5","6","5","6","6","7","6","3","6","3","3","6","3","6","3","6","763057227551739906","颜","374","Female","[""好她"",""坏我"",""好我"",""坏她""]","[""强她"",""弱我"",""强我"",""弱她""]","","","","","","","","null","","","","","","","","","","key","null","16.66646564885519","683","380","j","false","nonmatch","img/trapezoid.png","坏她","坏我","prac_ALT2_moral","practice_moral","","","","","","","","",""
"null","<span class='add_' style='color:yellow; font-size: 70px;'> 太慢! </span>","null","html-keyboard-response","51","297226","0.0-8.0-0.0-1.0-0.0-1.20","6","7","6","7","7","4","4","4","4","4","4","1","0","1","-2","1","2","1","1","4","5","4","4","4","5","4","4","5","4","7","8","8","8","7","8","7","8","7","5","5","6","5","6","5","6","6","6","5","1","6","5","7","2","6","5","6","5","6","5","5","6","5","5","5","6","5","6","6","7","6","3","6","3","3","6","3","6","3","6","763057227551739906","颜","374","Female","[""好她"",""坏我"",""好我"",""坏她""]","[""强她"",""弱我"",""强我"",""弱她""]","","","","","","","","","","","","","","","","","","","","","","","","","","","","","","feedback_test","","","","","","","","",""
"1012","","j","psychophysics","52","299242","0.0-8.0-0.0-1.0-0.0-0.21","6","7","6","7","7","4","4","4","4","4","4","1","0","1","-2","1","2","1","1","4","5","4","4","4","5","4","4","5","4","7","8","8","8","7","8","7","8","7","5","5","6","5","6","5","6","6","6","5","1","6","5","7","2","6","5","6","5","6","5","5","6","5","5","5","6","5","6","6","7","6","3","6","3","3","6","3","6","3","6","763057227551739906","颜","374","Female","[""好她"",""坏我"",""好我"",""坏她""]","[""强她"",""弱我"",""强我"",""弱她""]","","","","","","","","nonmatch","","","","","","","","","","key","j","16.6662916666668","683","380","f","false","match","img/trapezoid.png","坏我","坏我","prac_ALT2_moral","practice_moral","","","","","","","","",""
"null","<span style='color:red; font-size: 70px;'>错误! </span>","null","html-keyboard-response","53","299744","0.0-8.0-0.0-1.0-0.0-1.21","6","7","6","7","7","4","4","4","4","4","4","1","0","1","-2","1","2","1","1","4","5","4","4","4","5","4","4","5","4","7","8","8","8","7","8","7","8","7","5","5","6","5","6","5","6","6","6","5","1","6","5","7","2","6","5","6","5","6","5","5","6","5","5","5","6","5","6","6","7","6","3","6","3","3","6","3","6","3","6","763057227551739906","颜","374","Female","[""好她"",""坏我"",""好我"",""坏她""]","[""强她"",""弱我"",""强我"",""弱她""]","","","","","","","","","","","","","","","","","","","","","","","","","","","","","","feedback_test","","","","","","","","",""
"756","","f","psychophysics","54","301507","0.0-8.0-0.0-1.0-0.0-0.22","6","7","6","7","7","4","4","4","4","4","4","1","0","1","-2","1","2","1","1","4","5","4","4","4","5","4","4","5","4","7","8","8","8","7","8","7","8","7","5","5","6","5","6","5","6","6","6","5","1","6","5","7","2","6","5","6","5","6","5","5","6","5","5","5","6","5","6","6","7","6","3","6","3","3","6","3","6","3","6","763057227551739906","颜","374","Female","[""好她"",""坏我"",""好我"",""坏她""]","[""强她"",""弱我"",""强我"",""弱她""]","","","","","","","","match","","","","","","","","","","key","f","16.66639047619011","683","380","f","true","match","img/ellipse.png","好我","好我","prac_ALT2_moral","practice_moral","","","","","","","","",""
"null","<span style='color:GreenYellow; font-size: 70px;'>正确! </span>","null","html-keyboard-response","55","302008","0.0-8.0-0.0-1.0-0.0-1.22","6","7","6","7","7","4","4","4","4","4","4","1","0","1","-2","1","2","1","1","4","5","4","4","4","5","4","4","5","4","7","8","8","8","7","8","7","8","7","5","5","6","5","6","5","6","6","6","5","1","6","5","7","2","6","5","6","5","6","5","5","6","5","5","5","6","5","6","6","7","6","3","6","3","3","6","3","6","3","6","763057227551739906","颜","374","Female","[""好她"",""坏我"",""好我"",""坏她""]","[""强她"",""弱我"",""强我"",""弱她""]","","","","","","","","","","","","","","","","","","","","","","","","","","","","","","feedback_test","","","","","","","","",""
"1190","","j","psychophysics","56","304202","0.0-8.0-0.0-1.0-0.0-0.23","6","7","6","7","7","4","4","4","4","4","4","1","0","1","-2","1","2","1","1","4","5","4","4","4","5","4","4","5","4","7","8","8","8","7","8","7","8","7","5","5","6","5","6","5","6","6","6","5","1","6","5","7","2","6","5","6","5","6","5","5","6","5","5","5","6","5","6","6","7","6","3","6","3","3","6","3","6","3","6","763057227551739906","颜","374","Female","[""好她"",""坏我"",""好我"",""坏她""]","[""强她"",""弱我"",""强我"",""弱她""]","","","","","","","","nonmatch","","","","","","","","","","key","j","16.66537404580145","683","380","j","true","nonmatch","img/pentagon.png","好我","好她","prac_ALT2_moral","practice_moral","","","","","","","","",""
"null","<span style='color:GreenYellow; font-size: 70px;'>正确! </span>","null","html-keyboard-response","57","304704","0.0-8.0-0.0-1.0-0.0-1.23","6","7","6","7","7","4","4","4","4","4","4","1","0","1","-2","1","2","1","1","4","5","4","4","4","5","4","4","5","4","7","8","8","8","7","8","7","8","7","5","5","6","5","6","5","6","6","6","5","1","6","5","7","2","6","5","6","5","6","5","5","6","5","5","5","6","5","6","6","7","6","3","6","3","3","6","3","6","3","6","763057227551739906","颜","374","Female","[""好她"",""坏我"",""好我"",""坏她""]","[""强她"",""弱我"",""强我"",""弱她""]","","","","","","","","","","","","","","","","","","","","","","","","","","","","","","feedback_test","","","","","","","","",""
"935","","j","psychophysics","58","306643","0.0-8.0-0.0-1.0-0.0-0.24","6","7","6","7","7","4","4","4","4","4","4","1","0","1","-2","1","2","1","1","4","5","4","4","4","5","4","4","5","4","7","8","8","8","7","8","7","8","7","5","5","6","5","6","5","6","6","6","5","1","6","5","7","2","6","5","6","5","6","5","5","6","5","5","5","6","5","6","6","7","6","3","6","3","3","6","3","6","3","6","763057227551739906","颜","374","Female","[""好她"",""坏我"",""好我"",""坏她""]","[""强她"",""弱我"",""强我"",""弱她""]","","","","","","","","nonmatch","","","","","","","","","","key","j","16.666173913043863","683","380","j","true","nonmatch","img/ellipse.png","好她","好我","prac_ALT2_moral","practice_moral","","","","","","","","",""
"null","<span style='color:GreenYellow; font-size: 70px;'>正确! </span>","null","html-keyboard-response","59","307144","0.0-8.0-0.0-1.0-0.0-1.24","6","7","6","7","7","4","4","4","4","4","4","1","0","1","-2","1","2","1","1","4","5","4","4","4","5","4","4","5","4","7","8","8","8","7","8","7","8","7","5","5","6","5","6","5","6","6","6","5","1","6","5","7","2","6","5","6","5","6","5","5","6","5","5","5","6","5","6","6","7","6","3","6","3","3","6","3","6","3","6","763057227551739906","颜","374","Female","[""好她"",""坏我"",""好我"",""坏她""]","[""强她"",""弱我"",""强我"",""弱她""]","","","","","","","","","","","","","","","","","","","","","","","","","","","","","","feedback_test","","","","","","","","",""
"1022","","f","psychophysics","60","309170","0.0-8.0-0.0-1.0-0.0-0.25","6","7","6","7","7","4","4","4","4","4","4","1","0","1","-2","1","2","1","1","4","5","4","4","4","5","4","4","5","4","7","8","8","8","7","8","7","8","7","5","5","6","5","6","5","6","6","6","5","1","6","5","7","2","6","5","6","5","6","5","5","6","5","5","5","6","5","6","6","7","6","3","6","3","3","6","3","6","3","6","763057227551739906","颜","374","Female","[""好她"",""坏我"",""好我"",""坏她""]","[""强她"",""弱我"",""强我"",""弱她""]","","","","","","","","match","","","","","","","","","","key","f","16.666454545454574","683","380","f","true","match","img/pentagon.png","好她","好她","prac_ALT2_moral","practice_moral","","","","","","","","",""
"null","<span style='color:GreenYellow; font-size: 70px;'>正确! </span>","null","html-keyboard-response","61","309671","0.0-8.0-0.0-1.0-0.0-1.25","6","7","6","7","7","4","4","4","4","4","4","1","0","1","-2","1","2","1","1","4","5","4","4","4","5","4","4","5","4","7","8","8","8","7","8","7","8","7","5","5","6","5","6","5","6","6","6","5","1","6","5","7","2","6","5","6","5","6","5","5","6","5","5","5","6","5","6","6","7","6","3","6","3","3","6","3","6","3","6","763057227551739906","颜","374","Female","[""好她"",""坏我"",""好我"",""坏她""]","[""强她"",""弱我"",""强我"",""弱她""]","","","","","","","","","","","","","","","","","","","","","","","","","","","","","","feedback_test","","","","","","","","",""
"1013","","j","psychophysics","62","311687","0.0-8.0-0.0-1.0-0.0-0.26","6","7","6","7","7","4","4","4","4","4","4","1","0","1","-2","1","2","1","1","4","5","4","4","4","5","4","4","5","4","7","8","8","8","7","8","7","8","7","5","5","6","5","6","5","6","6","6","5","1","6","5","7","2","6","5","6","5","6","5","5","6","5","5","5","6","5","6","6","7","6","3","6","3","3","6","3","6","3","6","763057227551739906","颜","374","Female","[""好她"",""坏我"",""好我"",""坏她""]","[""强她"",""弱我"",""强我"",""弱她""]","","","","","","","","nonmatch","","","","","","","","","","key","j","16.666599999999743","683","380","j","true","nonmatch","img/square.png","坏我","坏她","prac_ALT2_moral","practice_moral","","","","","","","","",""
"null","<span style='color:GreenYellow; font-size: 70px;'>正确! </span>","null","html-keyboard-response","63","312188","0.0-8.0-0.0-1.0-0.0-1.26","6","7","6","7","7","4","4","4","4","4","4","1","0","1","-2","1","2","1","1","4","5","4","4","4","5","4","4","5","4","7","8","8","8","7","8","7","8","7","5","5","6","5","6","5","6","6","6","5","1","6","5","7","2","6","5","6","5","6","5","5","6","5","5","5","6","5","6","6","7","6","3","6","3","3","6","3","6","3","6","763057227551739906","颜","374","Female","[""好她"",""坏我"",""好我"",""坏她""]","[""强她"",""弱我"",""强我"",""弱她""]","","","","","","","","","","","","","","","","","","","","","","","","","","","","","","feedback_test","","","","","","","","",""
"1073","","f","psychophysics","64","314265","0.0-8.0-0.0-1.0-0.0-0.27","6","7","6","7","7","4","4","4","4","4","4","1","0","1","-2","1","2","1","1","4","5","4","4","4","5","4","4","5","4","7","8","8","8","7","8","7","8","7","5","5","6","5","6","5","6","6","6","5","1","6","5","7","2","6","5","6","5","6","5","5","6","5","5","5","6","5","6","6","7","6","3","6","3","3","6","3","6","3","6","763057227551739906","颜","374","Female","[""好她"",""坏我"",""好我"",""坏她""]","[""强她"",""弱我"",""强我"",""弱她""]","","","","","","","","match","","","","","","","","","","key","f","16.659483870967843","683","380","j","false","nonmatch","img/trapezoid.png","坏她","坏我","prac_ALT2_moral","practice_moral","","","","","","","","",""
"null","<span style='color:red; font-size: 70px;'>错误! </span>","null","html-keyboard-response","65","314767","0.0-8.0-0.0-1.0-0.0-1.27","6","7","6","7","7","4","4","4","4","4","4","1","0","1","-2","1","2","1","1","4","5","4","4","4","5","4","4","5","4","7","8","8","8","7","8","7","8","7","5","5","6","5","6","5","6","6","6","5","1","6","5","7","2","6","5","6","5","6","5","5","6","5","5","5","6","5","6","6","7","6","3","6","3","3","6","3","6","3","6","763057227551739906","颜","374","Female","[""好她"",""坏我"",""好我"",""坏她""]","[""强她"",""弱我"",""强我"",""弱她""]","","","","","","","","","","","","","","","","","","","","","","","","","","","","","","feedback_test","","","","","","","","",""
"864","","j","psychophysics","66","316633","0.0-8.0-0.0-1.0-0.0-0.28","6","7","6","7","7","4","4","4","4","4","4","1","0","1","-2","1","2","1","1","4","5","4","4","4","5","4","4","5","4","7","8","8","8","7","8","7","8","7","5","5","6","5","6","5","6","6","6","5","1","6","5","7","2","6","5","6","5","6","5","5","6","5","5","5","6","5","6","6","7","6","3","6","3","3","6","3","6","3","6","763057227551739906","颜","374","Female","[""好她"",""坏我"",""好我"",""坏她""]","[""强她"",""弱我"",""强我"",""弱她""]","","","","","","","","nonmatch","","","","","","","","","","key","j","16.666261261261408","683","380","f","false","match","img/square.png","坏她","坏她","prac_ALT2_moral","practice_moral","","","","","","","","",""
"null","<span style='color:red; font-size: 70px;'>错误! </span>","null","html-keyboard-response","67","317136","0.0-8.0-0.0-1.0-0.0-1.28","6","7","6","7","7","4","4","4","4","4","4","1","0","1","-2","1","2","1","1","4","5","4","4","4","5","4","4","5","4","7","8","8","8","7","8","7","8","7","5","5","6","5","6","5","6","6","6","5","1","6","5","7","2","6","5","6","5","6","5","5","6","5","5","5","6","5","6","6","7","6","3","6","3","3","6","3","6","3","6","763057227551739906","颜","374","Female","[""好她"",""坏我"",""好我"",""坏她""]","[""强她"",""弱我"",""强我"",""弱她""]","","","","","","","","","","","","","","","","","","","","","","","","","","","","","","feedback_test","","","","","","","","",""
"802","","j","psychophysics","68","318941","0.0-8.0-0.0-1.0-0.0-0.29","6","7","6","7","7","4","4","4","4","4","4","1","0","1","-2","1","2","1","1","4","5","4","4","4","5","4","4","5","4","7","8","8","8","7","8","7","8","7","5","5","6","5","6","5","6","6","6","5","1","6","5","7","2","6","5","6","5","6","5","5","6","5","5","5","6","5","6","6","7","6","3","6","3","3","6","3","6","3","6","763057227551739906","颜","374","Female","[""好她"",""坏我"",""好我"",""坏她""]","[""强她"",""弱我"",""强我"",""弱她""]","","","","","","","","nonmatch","","","","","","","","","","key","j","16.66665420560743","683","380","j","true","nonmatch","img/trapezoid.png","好我","坏我","prac_ALT2_moral","practice_moral","","","","","","","","",""
"null","<span style='color:GreenYellow; font-size: 70px;'>正确! </span>","null","html-keyboard-response","69","319442","0.0-8.0-0.0-1.0-0.0-1.29","6","7","6","7","7","4","4","4","4","4","4","1","0","1","-2","1","2","1","1","4","5","4","4","4","5","4","4","5","4","7","8","8","8","7","8","7","8","7","5","5","6","5","6","5","6","6","6","5","1","6","5","7","2","6","5","6","5","6","5","5","6","5","5","5","6","5","6","6","7","6","3","6","3","3","6","3","6","3","6","763057227551739906","颜","374","Female","[""好她"",""坏我"",""好我"",""坏她""]","[""强她"",""弱我"",""强我"",""弱她""]","","","","","","","","","","","","","","","","","","","","","","","","","","","","","","feedback_test","","","","","","","","",""
"857","","j","psychophysics","70","321301","0.0-8.0-0.0-1.0-0.0-0.30","6","7","6","7","7","4","4","4","4","4","4","1","0","1","-2","1","2","1","1","4","5","4","4","4","5","4","4","5","4","7","8","8","8","7","8","7","8","7","5","5","6","5","6","5","6","6","6","5","1","6","5","7","2","6","5","6","5","6","5","5","6","5","5","5","6","5","6","6","7","6","3","6","3","3","6","3","6","3","6","763057227551739906","颜","374","Female","[""好她"",""坏我"",""好我"",""坏她""]","[""强她"",""弱我"",""强我"",""弱她""]","","","","","","","","nonmatch","","","","","","","","","","key","j","16.666639639639406","683","380","j","true","nonmatch","img/pentagon.png","好我","好她","prac_ALT2_moral","practice_moral","","","","","","","","",""
"null","<span style='color:GreenYellow; font-size: 70px;'>正确! </span>","null","html-keyboard-response","71","321803","0.0-8.0-0.0-1.0-0.0-1.30","6","7","6","7","7","4","4","4","4","4","4","1","0","1","-2","1","2","1","1","4","5","4","4","4","5","4","4","5","4","7","8","8","8","7","8","7","8","7","5","5","6","5","6","5","6","6","6","5","1","6","5","7","2","6","5","6","5","6","5","5","6","5","5","5","6","5","6","6","7","6","3","6","3","3","6","3","6","3","6","763057227551739906","颜","374","Female","[""好她"",""坏我"",""好我"",""坏她""]","[""强她"",""弱我"",""强我"",""弱她""]","","","","","","","","","","","","","","","","","","","","","","","","","","","","","","feedback_test","","","","","","","","",""
"827","","f","psychophysics","72","323632","0.0-8.0-0.0-1.0-0.0-0.31","6","7","6","7","7","4","4","4","4","4","4","1","0","1","-2","1","2","1","1","4","5","4","4","4","5","4","4","5","4","7","8","8","8","7","8","7","8","7","5","5","6","5","6","5","6","6","6","5","1","6","5","7","2","6","5","6","5","6","5","5","6","5","5","5","6","5","6","6","7","6","3","6","3","3","6","3","6","3","6","763057227551739906","颜","374","Female","[""好她"",""坏我"",""好我"",""坏她""]","[""强她"",""弱我"",""强我"",""弱她""]","","","","","","","","match","","","","","","","","","","key","f","16.66659633027509","683","380","f","true","match","img/ellipse.png","好我","好我","prac_ALT2_moral","practice_moral","","","","","","","","",""
"null","<span style='color:GreenYellow; font-size: 70px;'>正确! </span>","null","html-keyboard-response","73","324133","0.0-8.0-0.0-1.0-0.0-1.31","6","7","6","7","7","4","4","4","4","4","4","1","0","1","-2","1","2","1","1","4","5","4","4","4","5","4","4","5","4","7","8","8","8","7","8","7","8","7","5","5","6","5","6","5","6","6","6","5","1","6","5","7","2","6","5","6","5","6","5","5","6","5","5","5","6","5","6","6","7","6","3","6","3","3","6","3","6","3","6","763057227551739906","颜","374","Female","[""好她"",""坏我"",""好我"",""坏她""]","[""强她"",""弱我"",""强我"",""弱她""]","","","","","","","","","","","","","","","","","","","","","","","","","","","","","","feedback_test","","","","","","","","",""
"1019","","f","psychophysics","74","326155","0.0-8.0-0.0-1.0-0.0-0.32","6","7","6","7","7","4","4","4","4","4","4","1","0","1","-2","1","2","1","1","4","5","4","4","4","5","4","4","5","4","7","8","8","8","7","8","7","8","7","5","5","6","5","6","5","6","6","6","5","1","6","5","7","2","6","5","6","5","6","5","5","6","5","5","5","6","5","6","6","7","6","3","6","3","3","6","3","6","3","6","763057227551739906","颜","374","Female","[""好她"",""坏我"",""好我"",""坏她""]","[""强她"",""弱我"",""强我"",""弱她""]","","","","","","","","match","","","","","","","","","","key","f","16.667300000000008","683","380","j","false","nonmatch","img/square.png","好我","坏她","prac_ALT2_moral","practice_moral","","","","","","","","",""
"null","<span style='color:red; font-size: 70px;'>错误! </span>","null","html-keyboard-response","75","326656","0.0-8.0-0.0-1.0-0.0-1.32","6","7","6","7","7","4","4","4","4","4","4","1","0","1","-2","1","2","1","1","4","5","4","4","4","5","4","4","5","4","7","8","8","8","7","8","7","8","7","5","5","6","5","6","5","6","6","6","5","1","6","5","7","2","6","5","6","5","6","5","5","6","5","5","5","6","5","6","6","7","6","3","6","3","3","6","3","6","3","6","763057227551739906","颜","374","Female","[""好她"",""坏我"",""好我"",""坏她""]","[""强她"",""弱我"",""强我"",""弱她""]","","","","","","","","","","","","","","","","","","","","","","","","","","","","","","feedback_test","","","","","","","","",""
"1015","","f","psychophysics","76","328673","0.0-8.0-0.0-1.0-0.0-0.33","6","7","6","7","7","4","4","4","4","4","4","1","0","1","-2","1","2","1","1","4","5","4","4","4","5","4","4","5","4","7","8","8","8","7","8","7","8","7","5","5","6","5","6","5","6","6","6","5","1","6","5","7","2","6","5","6","5","6","5","5","6","5","5","5","6","5","6","6","7","6","3","6","3","3","6","3","6","3","6","763057227551739906","颜","374","Female","[""好她"",""坏我"",""好我"",""坏她""]","[""强她"",""弱我"",""强我"",""弱她""]","","","","","","","","match","","","","","","","","","","key","f","16.666550000000278","683","380","f","true","match","img/pentagon.png","好她","好她","prac_ALT2_moral","practice_moral","","","","","","","","",""
"null","<span style='color:GreenYellow; font-size: 70px;'>正确! </span>","null","html-keyboard-response","77","329176","0.0-8.0-0.0-1.0-0.0-1.33","6","7","6","7","7","4","4","4","4","4","4","1","0","1","-2","1","2","1","1","4","5","4","4","4","5","4","4","5","4","7","8","8","8","7","8","7","8","7","5","5","6","5","6","5","6","6","6","5","1","6","5","7","2","6","5","6","5","6","5","5","6","5","5","5","6","5","6","6","7","6","3","6","3","3","6","3","6","3","6","763057227551739906","颜","374","Female","[""好她"",""坏我"",""好我"",""坏她""]","[""强她"",""弱我"",""强我"",""弱她""]","","","","","","","","","","","","","","","","","","","","","","","","","","","","","","feedback_test","","","","","","","","",""
"1014","","f","psychophysics","78","331192","0.0-8.0-0.0-1.0-0.0-0.34","6","7","6","7","7","4","4","4","4","4","4","1","0","1","-2","1","2","1","1","4","5","4","4","4","5","4","4","5","4","7","8","8","8","7","8","7","8","7","5","5","6","5","6","5","6","6","6","5","1","6","5","7","2","6","5","6","5","6","5","5","6","5","5","5","6","5","6","6","7","6","3","6","3","3","6","3","6","3","6","763057227551739906","颜","374","Female","[""好她"",""坏我"",""好我"",""坏她""]","[""强她"",""弱我"",""强我"",""弱她""]","","","","","","","","match","","","","","","","","","","key","f","16.666133333333224","683","380","f","true","match","img/trapezoid.png","坏我","坏我","prac_ALT2_moral","practice_moral","","","","","","","","",""
"null","<span style='color:GreenYellow; font-size: 70px;'>正确! </span>","null","html-keyboard-response","79","331693","0.0-8.0-0.0-1.0-0.0-1.34","6","7","6","7","7","4","4","4","4","4","4","1","0","1","-2","1","2","1","1","4","5","4","4","4","5","4","4","5","4","7","8","8","8","7","8","7","8","7","5","5","6","5","6","5","6","6","6","5","1","6","5","7","2","6","5","6","5","6","5","5","6","5","5","5","6","5","6","6","7","6","3","6","3","3","6","3","6","3","6","763057227551739906","颜","374","Female","[""好她"",""坏我"",""好我"",""坏她""]","[""强她"",""弱我"",""强我"",""弱她""]","","","","","","","","","","","","","","","","","","","","","","","","","","","","","","feedback_test","","","","","","","","",""
"1068","","j","psychophysics","80","333764","0.0-8.0-0.0-1.0-0.0-0.35","6","7","6","7","7","4","4","4","4","4","4","1","0","1","-2","1","2","1","1","4","5","4","4","4","5","4","4","5","4","7","8","8","8","7","8","7","8","7","5","5","6","5","6","5","6","6","6","5","1","6","5","7","2","6","5","6","5","6","5","5","6","5","5","5","6","5","6","6","7","6","3","6","3","3","6","3","6","3","6","763057227551739906","颜","374","Female","[""好她"",""坏我"",""好我"",""坏她""]","[""强她"",""弱我"",""强我"",""弱她""]","","","","","","","","nonmatch","","","","","","","","","","key","j","16.665999999999787","683","380","f","false","match","img/ellipse.png","好我","好我","prac_ALT2_moral","practice_moral","","","","","","","","",""
"null","<span style='color:red; font-size: 70px;'>错误! </span>","null","html-keyboard-response","81","334267","0.0-8.0-0.0-1.0-0.0-1.35","6","7","6","7","7","4","4","4","4","4","4","1","0","1","-2","1","2","1","1","4","5","4","4","4","5","4","4","5","4","7","8","8","8","7","8","7","8","7","5","5","6","5","6","5","6","6","6","5","1","6","5","7","2","6","5","6","5","6","5","5","6","5","5","5","6","5","6","6","7","6","3","6","3","3","6","3","6","3","6","763057227551739906","颜","374","Female","[""好她"",""坏我"",""好我"",""坏她""]","[""强她"",""弱我"",""强我"",""弱她""]","","","","","","","","","","","","","","","","","","","","","","","","","","","","","","feedback_test","","","","","","","","",""
"980","","f","psychophysics","82","336251","0.0-8.0-0.0-1.0-0.0-0.36","6","7","6","7","7","4","4","4","4","4","4","1","0","1","-2","1","2","1","1","4","5","4","4","4","5","4","4","5","4","7","8","8","8","7","8","7","8","7","5","5","6","5","6","5","6","6","6","5","1","6","5","7","2","6","5","6","5","6","5","5","6","5","5","5","6","5","6","6","7","6","3","6","3","3","6","3","6","3","6","763057227551739906","颜","374","Female","[""好她"",""坏我"",""好我"",""坏她""]","[""强她"",""弱我"",""强我"",""弱她""]","","","","","","","","match","","","","","","","","","","key","f","16.666474576270943","683","380","f","true","match","img/trapezoid.png","坏我","坏我","prac_ALT2_moral","practice_moral","","","","","","","","",""
"null","<span style='color:GreenYellow; font-size: 70px;'>正确! </span>","null","html-keyboard-response","83","336754","0.0-8.0-0.0-1.0-0.0-1.36","6","7","6","7","7","4","4","4","4","4","4","1","0","1","-2","1","2","1","1","4","5","4","4","4","5","4","4","5","4","7","8","8","8","7","8","7","8","7","5","5","6","5","6","5","6","6","6","5","1","6","5","7","2","6","5","6","5","6","5","5","6","5","5","5","6","5","6","6","7","6","3","6","3","3","6","3","6","3","6","763057227551739906","颜","374","Female","[""好她"",""坏我"",""好我"",""坏她""]","[""强她"",""弱我"",""强我"",""弱她""]","","","","","","","","","","","","","","","","","","","","","","","","","","","","","","feedback_test","","","","","","","","",""
"1034","","j","psychophysics","84","338791","0.0-8.0-0.0-1.0-0.0-0.37","6","7","6","7","7","4","4","4","4","4","4","1","0","1","-2","1","2","1","1","4","5","4","4","4","5","4","4","5","4","7","8","8","8","7","8","7","8","7","5","5","6","5","6","5","6","6","6","5","1","6","5","7","2","6","5","6","5","6","5","5","6","5","5","5","6","5","6","6","7","6","3","6","3","3","6","3","6","3","6","763057227551739906","颜","374","Female","[""好她"",""坏我"",""好我"",""坏她""]","[""强她"",""弱我"",""强我"",""弱她""]","","","","","","","","nonmatch","","","","","","","","","","key","j","16.6666942148759","683","380","j","true","nonmatch","img/ellipse.png","坏我","好我","prac_ALT2_moral","practice_moral","","","","","","","","",""
"null","<span style='color:GreenYellow; font-size: 70px;'>正确! </span>","null","html-keyboard-response","85","339296","0.0-8.0-0.0-1.0-0.0-1.37","6","7","6","7","7","4","4","4","4","4","4","1","0","1","-2","1","2","1","1","4","5","4","4","4","5","4","4","5","4","7","8","8","8","7","8","7","8","7","5","5","6","5","6","5","6","6","6","5","1","6","5","7","2","6","5","6","5","6","5","5","6","5","5","5","6","5","6","6","7","6","3","6","3","3","6","3","6","3","6","763057227551739906","颜","374","Female","[""好她"",""坏我"",""好我"",""坏她""]","[""强她"",""弱我"",""强我"",""弱她""]","","","","","","","","","","","","","","","","","","","","","","","","","","","","","","feedback_test","","","","","","","","",""
"750","","f","psychophysics","86","341051","0.0-8.0-0.0-1.0-0.0-0.38","6","7","6","7","7","4","4","4","4","4","4","1","0","1","-2","1","2","1","1","4","5","4","4","4","5","4","4","5","4","7","8","8","8","7","8","7","8","7","5","5","6","5","6","5","6","6","6","5","1","6","5","7","2","6","5","6","5","6","5","5","6","5","5","5","6","5","6","6","7","6","3","6","3","3","6","3","6","3","6","763057227551739906","颜","374","Female","[""好她"",""坏我"",""好我"",""坏她""]","[""强她"",""弱我"",""强我"",""弱她""]","","","","","","","","match","","","","","","","","","","key","f","16.666894230768847","683","380","f","true","match","img/ellipse.png","好我","好我","prac_ALT2_moral","practice_moral","","","","","","","","",""
"null","<span style='color:GreenYellow; font-size: 70px;'>正确! </span>","null","html-keyboard-response","87","341553","0.0-8.0-0.0-1.0-0.0-1.38","6","7","6","7","7","4","4","4","4","4","4","1","0","1","-2","1","2","1","1","4","5","4","4","4","5","4","4","5","4","7","8","8","8","7","8","7","8","7","5","5","6","5","6","5","6","6","6","5","1","6","5","7","2","6","5","6","5","6","5","5","6","5","5","5","6","5","6","6","7","6","3","6","3","3","6","3","6","3","6","763057227551739906","颜","374","Female","[""好她"",""坏我"",""好我"",""坏她""]","[""强她"",""弱我"",""强我"",""弱她""]","","","","","","","","","","","","","","","","","","","","","","","","","","","","","","feedback_test","","","","","","","","",""
"725","","f","psychophysics","88","343280","0.0-8.0-0.0-1.0-0.0-0.39","6","7","6","7","7","4","4","4","4","4","4","1","0","1","-2","1","2","1","1","4","5","4","4","4","5","4","4","5","4","7","8","8","8","7","8","7","8","7","5","5","6","5","6","5","6","6","6","5","1","6","5","7","2","6","5","6","5","6","5","5","6","5","5","5","6","5","6","6","7","6","3","6","3","3","6","3","6","3","6","763057227551739906","颜","374","Female","[""好她"",""坏我"",""好我"",""坏她""]","[""强她"",""弱我"",""强我"",""弱她""]","","","","","","","","match","","","","","","","","","","key","f","16.666135922329754","683","380","f","true","match","img/pentagon.png","好她","好她","prac_ALT2_moral","practice_moral","","","","","","","","",""
"null","<span style='color:GreenYellow; font-size: 70px;'>正确! </span>","null","html-keyboard-response","89","343783","0.0-8.0-0.0-1.0-0.0-1.39","6","7","6","7","7","4","4","4","4","4","4","1","0","1","-2","1","2","1","1","4","5","4","4","4","5","4","4","5","4","7","8","8","8","7","8","7","8","7","5","5","6","5","6","5","6","6","6","5","1","6","5","7","2","6","5","6","5","6","5","5","6","5","5","5","6","5","6","6","7","6","3","6","3","3","6","3","6","3","6","763057227551739906","颜","374","Female","[""好她"",""坏我"",""好我"",""坏她""]","[""强她"",""弱我"",""强我"",""弱她""]","","","","","","","","","","","","","","","","","","","","","","","","","","","","","","feedback_test","","","","","","","","",""
"936","","f","psychophysics","90","345721","0.0-8.0-0.0-1.0-0.0-0.40","6","7","6","7","7","4","4","4","4","4","4","1","0","1","-2","1","2","1","1","4","5","4","4","4","5","4","4","5","4","7","8","8","8","7","8","7","8","7","5","5","6","5","6","5","6","6","6","5","1","6","5","7","2","6","5","6","5","6","5","5","6","5","5","5","6","5","6","6","7","6","3","6","3","3","6","3","6","3","6","763057227551739906","颜","374","Female","[""好她"",""坏我"",""好我"",""坏她""]","[""强她"",""弱我"",""强我"",""弱她""]","","","","","","","","match","","","","","","","","","","key","f","16.812929824561394","683","380","f","true","match","img/square.png","坏她","坏她","prac_ALT2_moral","practice_moral","","","","","","","","",""
"null","<span style='color:GreenYellow; font-size: 70px;'>正确! </span>","null","html-keyboard-response","91","346222","0.0-8.0-0.0-1.0-0.0-1.40","6","7","6","7","7","4","4","4","4","4","4","1","0","1","-2","1","2","1","1","4","5","4","4","4","5","4","4","5","4","7","8","8","8","7","8","7","8","7","5","5","6","5","6","5","6","6","6","5","1","6","5","7","2","6","5","6","5","6","5","5","6","5","5","5","6","5","6","6","7","6","3","6","3","3","6","3","6","3","6","763057227551739906","颜","374","Female","[""好她"",""坏我"",""好我"",""坏她""]","[""强她"",""弱我"",""强我"",""弱她""]","","","","","","","","","","","","","","","","","","","","","","","","","","","","","","feedback_test","","","","","","","","",""
"841","","j","psychophysics","92","348066","0.0-8.0-0.0-1.0-0.0-0.41","6","7","6","7","7","4","4","4","4","4","4","1","0","1","-2","1","2","1","1","4","5","4","4","4","5","4","4","5","4","7","8","8","8","7","8","7","8","7","5","5","6","5","6","5","6","6","6","5","1","6","5","7","2","6","5","6","5","6","5","5","6","5","5","5","6","5","6","6","7","6","3","6","3","3","6","3","6","3","6","763057227551739906","颜","374","Female","[""好她"",""坏我"",""好我"",""坏她""]","[""强她"",""弱我"",""强我"",""弱她""]","","","","","","","","nonmatch","","","","","","","","","","key","j","16.666345454545013","683","380","j","true","nonmatch","img/ellipse.png","坏她","好我","prac_ALT2_moral","practice_moral","","","","","","","","",""
"null","<span style='color:GreenYellow; font-size: 70px;'>正确! </span>","null","html-keyboard-response","93","348567","0.0-8.0-0.0-1.0-0.0-1.41","6","7","6","7","7","4","4","4","4","4","4","1","0","1","-2","1","2","1","1","4","5","4","4","4","5","4","4","5","4","7","8","8","8","7","8","7","8","7","5","5","6","5","6","5","6","6","6","5","1","6","5","7","2","6","5","6","5","6","5","5","6","5","5","5","6","5","6","6","7","6","3","6","3","3","6","3","6","3","6","763057227551739906","颜","374","Female","[""好她"",""坏我"",""好我"",""坏她""]","[""强她"",""弱我"",""强我"",""弱她""]","","","","","","","","","","","","","","","","","","","","","","","","","","","","","","feedback_test","","","","","","","","",""
"818","","f","psychophysics","94","350388","0.0-8.0-0.0-1.0-0.0-0.42","6","7","6","7","7","4","4","4","4","4","4","1","0","1","-2","1","2","1","1","4","5","4","4","4","5","4","4","5","4","7","8","8","8","7","8","7","8","7","5","5","6","5","6","5","6","6","6","5","1","6","5","7","2","6","5","6","5","6","5","5","6","5","5","5","6","5","6","6","7","6","3","6","3","3","6","3","6","3","6","763057227551739906","颜","374","Female","[""好她"",""坏我"",""好我"",""坏她""]","[""强她"",""弱我"",""强我"",""弱她""]","","","","","","","","match","","","","","","","","","","key","f","16.666925925925845","683","380","f","true","match","img/square.png","坏她","坏她","prac_ALT2_moral","practice_moral","","","","","","","","",""
"null","<span style='color:GreenYellow; font-size: 70px;'>正确! </span>","null","html-keyboard-response","95","350889","0.0-8.0-0.0-1.0-0.0-1.42","6","7","6","7","7","4","4","4","4","4","4","1","0","1","-2","1","2","1","1","4","5","4","4","4","5","4","4","5","4","7","8","8","8","7","8","7","8","7","5","5","6","5","6","5","6","6","6","5","1","6","5","7","2","6","5","6","5","6","5","5","6","5","5","5","6","5","6","6","7","6","3","6","3","3","6","3","6","3","6","763057227551739906","颜","374","Female","[""好她"",""坏我"",""好我"",""坏她""]","[""强她"",""弱我"",""强我"",""弱她""]","","","","","","","","","","","","","","","","","","","","","","","","","","","","","","feedback_test","","","","","","","","",""
"773","","f","psychophysics","96","352665","0.0-8.0-0.0-1.0-0.0-0.43","6","7","6","7","7","4","4","4","4","4","4","1","0","1","-2","1","2","1","1","4","5","4","4","4","5","4","4","5","4","7","8","8","8","7","8","7","8","7","5","5","6","5","6","5","6","6","6","5","1","6","5","7","2","6","5","6","5","6","5","5","6","5","5","5","6","5","6","6","7","6","3","6","3","3","6","3","6","3","6","763057227551739906","颜","374","Female","[""好她"",""坏我"",""好我"",""坏她""]","[""强她"",""弱我"",""强我"",""弱她""]","","","","","","","","match","","","","","","","","","","key","f","16.66631132075486","683","380","j","false","nonmatch","img/square.png","好她","坏她","prac_ALT2_moral","practice_moral","","","","","","","","",""
"null","<span style='color:red; font-size: 70px;'>错误! </span>","null","html-keyboard-response","97","353166","0.0-8.0-0.0-1.0-0.0-1.43","6","7","6","7","7","4","4","4","4","4","4","1","0","1","-2","1","2","1","1","4","5","4","4","4","5","4","4","5","4","7","8","8","8","7","8","7","8","7","5","5","6","5","6","5","6","6","6","5","1","6","5","7","2","6","5","6","5","6","5","5","6","5","5","5","6","5","6","6","7","6","3","6","3","3","6","3","6","3","6","763057227551739906","颜","374","Female","[""好她"",""坏我"",""好我"",""坏她""]","[""强她"",""弱我"",""强我"",""弱她""]","","","","","","","","","","","","","","","","","","","","","","","","","","","","","","feedback_test","","","","","","","","",""
"847","","f","psychophysics","98","355015","0.0-8.0-0.0-1.0-0.0-0.44","6","7","6","7","7","4","4","4","4","4","4","1","0","1","-2","1","2","1","1","4","5","4","4","4","5","4","4","5","4","7","8","8","8","7","8","7","8","7","5","5","6","5","6","5","6","6","6","5","1","6","5","7","2","6","5","6","5","6","5","5","6","5","5","5","6","5","6","6","7","6","3","6","3","3","6","3","6","3","6","763057227551739906","颜","374","Female","[""好她"",""坏我"",""好我"",""坏她""]","[""强她"",""弱我"",""强我"",""弱她""]","","","","","","","","match","","","","","","","","","","key","f","16.666545454545517","683","380","j","false","nonmatch","img/pentagon.png","坏她","好她","prac_ALT2_moral","practice_moral","","","","","","","","",""
"null","<span style='color:red; font-size: 70px;'>错误! </span>","null","html-keyboard-response","99","355517","0.0-8.0-0.0-1.0-0.0-1.44","6","7","6","7","7","4","4","4","4","4","4","1","0","1","-2","1","2","1","1","4","5","4","4","4","5","4","4","5","4","7","8","8","8","7","8","7","8","7","5","5","6","5","6","5","6","6","6","5","1","6","5","7","2","6","5","6","5","6","5","5","6","5","5","5","6","5","6","6","7","6","3","6","3","3","6","3","6","3","6","763057227551739906","颜","374","Female","[""好她"",""坏我"",""好我"",""坏她""]","[""强她"",""弱我"",""强我"",""弱她""]","","","","","","","","","","","","","","","","","","","","","","","","","","","","","","feedback_test","","","","","","","","",""
"804","","j","psychophysics","100","357323","0.0-8.0-0.0-1.0-0.0-0.45","6","7","6","7","7","4","4","4","4","4","4","1","0","1","-2","1","2","1","1","4","5","4","4","4","5","4","4","5","4","7","8","8","8","7","8","7","8","7","5","5","6","5","6","5","6","6","6","5","1","6","5","7","2","6","5","6","5","6","5","5","6","5","5","5","6","5","6","6","7","6","3","6","3","3","6","3","6","3","6","763057227551739906","颜","374","Female","[""好她"",""坏我"",""好我"",""坏她""]","[""强她"",""弱我"",""强我"",""弱她""]","","","","","","","","nonmatch","","","","","","","","","","key","j","16.66678301886796","683","380","f","false","match","img/trapezoid.png","坏我","坏我","prac_ALT2_moral","practice_moral","","","","","","","","",""
"null","<span style='color:red; font-size: 70px;'>错误! </span>","null","html-keyboard-response","101","357826","0.0-8.0-0.0-1.0-0.0-1.45","6","7","6","7","7","4","4","4","4","4","4","1","0","1","-2","1","2","1","1","4","5","4","4","4","5","4","4","5","4","7","8","8","8","7","8","7","8","7","5","5","6","5","6","5","6","6","6","5","1","6","5","7","2","6","5","6","5","6","5","5","6","5","5","5","6","5","6","6","7","6","3","6","3","3","6","3","6","3","6","763057227551739906","颜","374","Female","[""好她"",""坏我"",""好我"",""坏她""]","[""强她"",""弱我"",""强我"",""弱她""]","","","","","","","","","","","","","","","","","","","","","","","","","","","","","","feedback_test","","","","","","","","",""
"1022","","j","psychophysics","102","359852","0.0-8.0-0.0-1.0-0.0-0.46","6","7","6","7","7","4","4","4","4","4","4","1","0","1","-2","1","2","1","1","4","5","4","4","4","5","4","4","5","4","7","8","8","8","7","8","7","8","7","5","5","6","5","6","5","6","6","6","5","1","6","5","7","2","6","5","6","5","6","5","5","6","5","5","5","6","5","6","6","7","6","3","6","3","3","6","3","6","3","6","763057227551739906","颜","374","Female","[""好她"",""坏我"",""好我"",""坏她""]","[""强她"",""弱我"",""强我"",""弱她""]","","","","","","","","nonmatch","","","","","","","","","","key","j","16.666675000000396","683","380","j","true","nonmatch","img/trapezoid.png","好她","坏我","prac_ALT2_moral","practice_moral","","","","","","","","",""
"null","<span style='color:GreenYellow; font-size: 70px;'>正确! </span>","null","html-keyboard-response","103","360354","0.0-8.0-0.0-1.0-0.0-1.46","6","7","6","7","7","4","4","4","4","4","4","1","0","1","-2","1","2","1","1","4","5","4","4","4","5","4","4","5","4","7","8","8","8","7","8","7","8","7","5","5","6","5","6","5","6","6","6","5","1","6","5","7","2","6","5","6","5","6","5","5","6","5","5","5","6","5","6","6","7","6","3","6","3","3","6","3","6","3","6","763057227551739906","颜","374","Female","[""好她"",""坏我"",""好我"",""坏她""]","[""强她"",""弱我"",""强我"",""弱她""]","","","","","","","","","","","","","","","","","","","","","","","","","","","","","","feedback_test","","","","","","","","",""
"918","","f","psychophysics","104","362274","0.0-8.0-0.0-1.0-0.0-0.47","6","7","6","7","7","4","4","4","4","4","4","1","0","1","-2","1","2","1","1","4","5","4","4","4","5","4","4","5","4","7","8","8","8","7","8","7","8","7","5","5","6","5","6","5","6","6","6","5","1","6","5","7","2","6","5","6","5","6","5","5","6","5","5","5","6","5","6","6","7","6","3","6","3","3","6","3","6","3","6","763057227551739906","颜","374","Female","[""好她"",""坏我"",""好我"",""坏她""]","[""强她"",""弱我"",""强我"",""弱她""]","","","","","","","","match","","","","","","","","","","key","f","16.666315789473867","683","380","j","false","nonmatch","img/pentagon.png","坏我","好她","prac_ALT2_moral","practice_moral","","","","","","","","",""
"null","<span style='color:red; font-size: 70px;'>错误! </span>","null","html-keyboard-response","105","362777","0.0-8.0-0.0-1.0-0.0-1.47","6","7","6","7","7","4","4","4","4","4","4","1","0","1","-2","1","2","1","1","4","5","4","4","4","5","4","4","5","4","7","8","8","8","7","8","7","8","7","5","5","6","5","6","5","6","6","6","5","1","6","5","7","2","6","5","6","5","6","5","5","6","5","5","5","6","5","6","6","7","6","3","6","3","3","6","3","6","3","6","763057227551739906","颜","374","Female","[""好她"",""坏我"",""好我"",""坏她""]","[""强她"",""弱我"",""强我"",""弱她""]","","","","","","","","","","","","","","","","","","","","","","","","","","","","","","feedback_test","","","","","","","","",""
"1121","<style>.context{color:white; font-size: 35px; line-height:40px}</style>                            <div><p class='context'>您正确回答了52% 的试次。</p><p class='context'>您的平均反应时为920毫秒。</p><p class='context'>按空格键继续。</p></div>"," ","html-keyboard-response","106","363902","0.0-8.0-0.0-1.0-1.0-0.0","6","7","6","7","7","4","4","4","4","4","4","1","0","1","-2","1","2","1","1","4","5","4","4","4","5","4","4","5","4","7","8","8","8","7","8","7","8","7","5","5","6","5","6","5","6","6","6","5","1","6","5","7","2","6","5","6","5","6","5","5","6","5","5","5","6","5","6","6","7","6","3","6","3","3","6","3","6","3","6","763057227551739906","颜","374","Female","[""好她"",""坏我"",""好我"",""坏她""]","[""强她"",""弱我"",""强我"",""弱她""]","","","","","","","","","","","","","","","","","","","","","","","","","","","","","","","","","","","","","","",""
"5008","","","instructions","107","368916","0.0-8.0-0.0-1.0-1.0-1.0","6","7","6","7","7","4","4","4","4","4","4","1","0","1","-2","1","2","1","1","4","5","4","4","4","5","4","4","5","4","7","8","8","8","7","8","7","8","7","5","5","6","5","6","5","6","6","6","5","1","6","5","7","2","6","5","6","5","6","5","5","6","5","5","5","6","5","6","6","7","6","3","6","3","3","6","3","6","3","6","763057227551739906","颜","374","Female","[""好她"",""坏我"",""好我"",""坏她""]","[""强她"",""弱我"",""强我"",""弱她""]","","","","","","","","","","","","","","","","","[{""page_index"":0,""viewing_time"":1577},{""page_index"":1,""viewing_time"":2503},{""page_index"":2,""viewing_time"":928}]","","","","","","","","","","","","","","","","","","","","","",""
"1023","","j","psychophysics","108","370943","0.0-8.0-0.0-1.1-0.1-0.48","6","7","6","7","7","4","4","4","4","4","4","1","0","1","-2","1","2","1","1","4","5","4","4","4","5","4","4","5","4","7","8","8","8","7","8","7","8","7","5","5","6","5","6","5","6","6","6","5","1","6","5","7","2","6","5","6","5","6","5","5","6","5","5","5","6","5","6","6","7","6","3","6","3","3","6","3","6","3","6","763057227551739906","颜","374","Female","[""好她"",""坏我"",""好我"",""坏她""]","[""强她"",""弱我"",""强我"",""弱她""]","","","","","","","","nonmatch","","","","","","","","","","key","j","16.66595798319337","683","380","j","true","nonmatch","img/ellipse.png","好她","好我","prac_ALT2_moral","practice_moral","","","","","","","","",""
"null","<span style='color:GreenYellow; font-size: 70px;'>正确! </span>","null","html-keyboard-response","109","371445","0.0-8.0-0.0-1.1-0.1-1.48","6","7","6","7","7","4","4","4","4","4","4","1","0","1","-2","1","2","1","1","4","5","4","4","4","5","4","4","5","4","7","8","8","8","7","8","7","8","7","5","5","6","5","6","5","6","6","6","5","1","6","5","7","2","6","5","6","5","6","5","5","6","5","5","5","6","5","6","6","7","6","3","6","3","3","6","3","6","3","6","763057227551739906","颜","374","Female","[""好她"",""坏我"",""好我"",""坏她""]","[""强她"",""弱我"",""强我"",""弱她""]","","","","","","","","","","","","","","","","","","","","","","","","","","","","","","feedback_test","","","","","","","","",""
"851","","f","psychophysics","110","373299","0.0-8.0-0.0-1.1-0.1-0.49","6","7","6","7","7","4","4","4","4","4","4","1","0","1","-2","1","2","1","1","4","5","4","4","4","5","4","4","5","4","7","8","8","8","7","8","7","8","7","5","5","6","5","6","5","6","6","6","5","1","6","5","7","2","6","5","6","5","6","5","5","6","5","5","5","6","5","6","6","7","6","3","6","3","3","6","3","6","3","6","763057227551739906","颜","374","Female","[""好她"",""坏我"",""好我"",""坏她""]","[""强她"",""弱我"",""强我"",""弱她""]","","","","","","","","match","","","","","","","","","","key","f","16.666272727273064","683","380","j","false","nonmatch","img/pentagon.png","坏她","好她","prac_ALT2_moral","practice_moral","","","","","","","","",""
"null","<span style='color:red; font-size: 70px;'>错误! </span>","null","html-keyboard-response","111","373800","0.0-8.0-0.0-1.1-0.1-1.49","6","7","6","7","7","4","4","4","4","4","4","1","0","1","-2","1","2","1","1","4","5","4","4","4","5","4","4","5","4","7","8","8","8","7","8","7","8","7","5","5","6","5","6","5","6","6","6","5","1","6","5","7","2","6","5","6","5","6","5","5","6","5","5","5","6","5","6","6","7","6","3","6","3","3","6","3","6","3","6","763057227551739906","颜","374","Female","[""好她"",""坏我"",""好我"",""坏她""]","[""强她"",""弱我"",""强我"",""弱她""]","","","","","","","","","","","","","","","","","","","","","","","","","","","","","","feedback_test","","","","","","","","",""
"736","","f","psychophysics","112","375540","0.0-8.0-0.0-1.1-0.1-0.50","6","7","6","7","7","4","4","4","4","4","4","1","0","1","-2","1","2","1","1","4","5","4","4","4","5","4","4","5","4","7","8","8","8","7","8","7","8","7","5","5","6","5","6","5","6","6","6","5","1","6","5","7","2","6","5","6","5","6","5","5","6","5","5","5","6","5","6","6","7","6","3","6","3","3","6","3","6","3","6","763057227551739906","颜","374","Female","[""好她"",""坏我"",""好我"",""坏她""]","[""强她"",""弱我"",""强我"",""弱她""]","","","","","","","","match","","","","","","","","","","key","f","16.666456310679227","683","380","f","true","match","img/pentagon.png","好她","好她","prac_ALT2_moral","practice_moral","","","","","","","","",""
"null","<span style='color:GreenYellow; font-size: 70px;'>正确! </span>","null","html-keyboard-response","113","376042","0.0-8.0-0.0-1.1-0.1-1.50","6","7","6","7","7","4","4","4","4","4","4","1","0","1","-2","1","2","1","1","4","5","4","4","4","5","4","4","5","4","7","8","8","8","7","8","7","8","7","5","5","6","5","6","5","6","6","6","5","1","6","5","7","2","6","5","6","5","6","5","5","6","5","5","5","6","5","6","6","7","6","3","6","3","3","6","3","6","3","6","763057227551739906","颜","374","Female","[""好她"",""坏我"",""好我"",""坏她""]","[""强她"",""弱我"",""强我"",""弱她""]","","","","","","","","","","","","","","","","","","","","","","","","","","","","","","feedback_test","","","","","","","","",""
"1000","","f","psychophysics","114","378045","0.0-8.0-0.0-1.1-0.1-0.51","6","7","6","7","7","4","4","4","4","4","4","1","0","1","-2","1","2","1","1","4","5","4","4","4","5","4","4","5","4","7","8","8","8","7","8","7","8","7","5","5","6","5","6","5","6","6","6","5","1","6","5","7","2","6","5","6","5","6","5","5","6","5","5","5","6","5","6","6","7","6","3","6","3","3","6","3","6","3","6","763057227551739906","颜","374","Female","[""好她"",""坏我"",""好我"",""坏她""]","[""强她"",""弱我"",""强我"",""弱她""]","","","","","","","","match","","","","","","","","","","key","f","16.66721008403399","683","380","f","true","match","img/trapezoid.png","坏我","坏我","prac_ALT2_moral","practice_moral","","","","","","","","",""
"null","<span style='color:GreenYellow; font-size: 70px;'>正确! </span>","null","html-keyboard-response","115","378547","0.0-8.0-0.0-1.1-0.1-1.51","6","7","6","7","7","4","4","4","4","4","4","1","0","1","-2","1","2","1","1","4","5","4","4","4","5","4","4","5","4","7","8","8","8","7","8","7","8","7","5","5","6","5","6","5","6","6","6","5","1","6","5","7","2","6","5","6","5","6","5","5","6","5","5","5","6","5","6","6","7","6","3","6","3","3","6","3","6","3","6","763057227551739906","颜","374","Female","[""好她"",""坏我"",""好我"",""坏她""]","[""强她"",""弱我"",""强我"",""弱她""]","","","","","","","","","","","","","","","","","","","","","","","","","","","","","","feedback_test","","","","","","","","",""
"806","","j","psychophysics","116","380357","0.0-8.0-0.0-1.1-0.1-0.52","6","7","6","7","7","4","4","4","4","4","4","1","0","1","-2","1","2","1","1","4","5","4","4","4","5","4","4","5","4","7","8","8","8","7","8","7","8","7","5","5","6","5","6","5","6","6","6","5","1","6","5","7","2","6","5","6","5","6","5","5","6","5","5","5","6","5","6","6","7","6","3","6","3","3","6","3","6","3","6","763057227551739906","颜","374","Female","[""好她"",""坏我"",""好我"",""坏她""]","[""强她"",""弱我"",""强我"",""弱她""]","","","","","","","","nonmatch","","","","","","","","","","key","j","16.668140186916244","683","380","j","true","nonmatch","img/trapezoid.png","坏她","坏我","prac_ALT2_moral","practice_moral","","","","","","","","",""
"null","<span style='color:GreenYellow; font-size: 70px;'>正确! </span>","null","html-keyboard-response","117","380858","0.0-8.0-0.0-1.1-0.1-1.52","6","7","6","7","7","4","4","4","4","4","4","1","0","1","-2","1","2","1","1","4","5","4","4","4","5","4","4","5","4","7","8","8","8","7","8","7","8","7","5","5","6","5","6","5","6","6","6","5","1","6","5","7","2","6","5","6","5","6","5","5","6","5","5","5","6","5","6","6","7","6","3","6","3","3","6","3","6","3","6","763057227551739906","颜","374","Female","[""好她"",""坏我"",""好我"",""坏她""]","[""强她"",""弱我"",""强我"",""弱她""]","","","","","","","","","","","","","","","","","","","","","","","","","","","","","","feedback_test","","","","","","","","",""
"null","","null","psychophysics","118","383065","0.0-8.0-0.0-1.1-0.1-0.53","6","7","6","7","7","4","4","4","4","4","4","1","0","1","-2","1","2","1","1","4","5","4","4","4","5","4","4","5","4","7","8","8","8","7","8","7","8","7","5","5","6","5","6","5","6","6","6","5","1","6","5","7","2","6","5","6","5","6","5","5","6","5","5","5","6","5","6","6","7","6","3","6","3","3","6","3","6","3","6","763057227551739906","颜","374","Female","[""好她"",""坏我"",""好我"",""坏她""]","[""强她"",""弱我"",""强我"",""弱她""]","","","","","","","","null","","","","","","","","","","key","null","16.666213740458275","683","380","j","false","nonmatch","img/square.png","好我","坏她","prac_ALT2_moral","practice_moral","","","","","","","","",""
"null","<span class='add_' style='color:yellow; font-size: 70px;'> 太慢! </span>","null","html-keyboard-response","119","383567","0.0-8.0-0.0-1.1-0.1-1.53","6","7","6","7","7","4","4","4","4","4","4","1","0","1","-2","1","2","1","1","4","5","4","4","4","5","4","4","5","4","7","8","8","8","7","8","7","8","7","5","5","6","5","6","5","6","6","6","5","1","6","5","7","2","6","5","6","5","6","5","5","6","5","5","5","6","5","6","6","7","6","3","6","3","3","6","3","6","3","6","763057227551739906","颜","374","Female","[""好她"",""坏我"",""好我"",""坏她""]","[""强她"",""弱我"",""强我"",""弱她""]","","","","","","","","","","","","","","","","","","","","","","","","","","","","","","feedback_test","","","","","","","","",""
"710","","f","psychophysics","120","385278","0.0-8.0-0.0-1.1-0.1-0.54","6","7","6","7","7","4","4","4","4","4","4","1","0","1","-2","1","2","1","1","4","5","4","4","4","5","4","4","5","4","7","8","8","8","7","8","7","8","7","5","5","6","5","6","5","6","6","6","5","1","6","5","7","2","6","5","6","5","6","5","5","6","5","5","5","6","5","6","6","7","6","3","6","3","3","6","3","6","3","6","763057227551739906","颜","374","Female","[""好她"",""坏我"",""好我"",""坏她""]","[""强她"",""弱我"",""强我"",""弱她""]","","","","","","","","match","","","","","","","","","","key","f","16.666960784314","683","380","f","true","match","img/ellipse.png","好我","好我","prac_ALT2_moral","practice_moral","","","","","","","","",""
"null","<span style='color:GreenYellow; font-size: 70px;'>正确! </span>","null","html-keyboard-response","121","385781","0.0-8.0-0.0-1.1-0.1-1.54","6","7","6","7","7","4","4","4","4","4","4","1","0","1","-2","1","2","1","1","4","5","4","4","4","5","4","4","5","4","7","8","8","8","7","8","7","8","7","5","5","6","5","6","5","6","6","6","5","1","6","5","7","2","6","5","6","5","6","5","5","6","5","5","5","6","5","6","6","7","6","3","6","3","3","6","3","6","3","6","763057227551739906","颜","374","Female","[""好她"",""坏我"",""好我"",""坏她""]","[""强她"",""弱我"",""强我"",""弱她""]","","","","","","","","","","","","","","","","","","","","","","","","","","","","","","feedback_test","","","","","","","","",""
"903","","f","psychophysics","122","387687","0.0-8.0-0.0-1.1-0.1-0.55","6","7","6","7","7","4","4","4","4","4","4","1","0","1","-2","1","2","1","1","4","5","4","4","4","5","4","4","5","4","7","8","8","8","7","8","7","8","7","5","5","6","5","6","5","6","6","6","5","1","6","5","7","2","6","5","6","5","6","5","5","6","5","5","5","6","5","6","6","7","6","3","6","3","3","6","3","6","3","6","763057227551739906","颜","374","Female","[""好她"",""坏我"",""好我"",""坏她""]","[""强她"",""弱我"",""强我"",""弱她""]","","","","","","","","match","","","","","","","","","","key","f","16.66609821428574","683","380","j","false","nonmatch","img/pentagon.png","坏我","好她","prac_ALT2_moral","practice_moral","","","","","","","","",""
"null","<span style='color:red; font-size: 70px;'>错误! </span>","null","html-keyboard-response","123","388189","0.0-8.0-0.0-1.1-0.1-1.55","6","7","6","7","7","4","4","4","4","4","4","1","0","1","-2","1","2","1","1","4","5","4","4","4","5","4","4","5","4","7","8","8","8","7","8","7","8","7","5","5","6","5","6","5","6","6","6","5","1","6","5","7","2","6","5","6","5","6","5","5","6","5","5","5","6","5","6","6","7","6","3","6","3","3","6","3","6","3","6","763057227551739906","颜","374","Female","[""好她"",""坏我"",""好我"",""坏她""]","[""强她"",""弱我"",""强我"",""弱她""]","","","","","","","","","","","","","","","","","","","","","","","","","","","","","","feedback_test","","","","","","","","",""
"1139","","j","psychophysics","124","390331","0.0-8.0-0.0-1.1-0.1-0.56","6","7","6","7","7","4","4","4","4","4","4","1","0","1","-2","1","2","1","1","4","5","4","4","4","5","4","4","5","4","7","8","8","8","7","8","7","8","7","5","5","6","5","6","5","6","6","6","5","1","6","5","7","2","6","5","6","5","6","5","5","6","5","5","5","6","5","6","6","7","6","3","6","3","3","6","3","6","3","6","763057227551739906","颜","374","Female","[""好她"",""坏我"",""好我"",""坏她""]","[""强她"",""弱我"",""强我"",""弱她""]","","","","","","","","nonmatch","","","","","","","","","","key","j","16.66605468749958","683","380","j","true","nonmatch","img/ellipse.png","坏我","好我","prac_ALT2_moral","practice_moral","","","","","","","","",""
"null","<span style='color:GreenYellow; font-size: 70px;'>正确! </span>","null","html-keyboard-response","125","390832","0.0-8.0-0.0-1.1-0.1-1.56","6","7","6","7","7","4","4","4","4","4","4","1","0","1","-2","1","2","1","1","4","5","4","4","4","5","4","4","5","4","7","8","8","8","7","8","7","8","7","5","5","6","5","6","5","6","6","6","5","1","6","5","7","2","6","5","6","5","6","5","5","6","5","5","5","6","5","6","6","7","6","3","6","3","3","6","3","6","3","6","763057227551739906","颜","374","Female","[""好她"",""坏我"",""好我"",""坏她""]","[""强她"",""弱我"",""强我"",""弱她""]","","","","","","","","","","","","","","","","","","","","","","","","","","","","","","feedback_test","","","","","","","","",""
"863","","j","psychophysics","126","392697","0.0-8.0-0.0-1.1-0.1-0.57","6","7","6","7","7","4","4","4","4","4","4","1","0","1","-2","1","2","1","1","4","5","4","4","4","5","4","4","5","4","7","8","8","8","7","8","7","8","7","5","5","6","5","6","5","6","6","6","5","1","6","5","7","2","6","5","6","5","6","5","5","6","5","5","5","6","5","6","6","7","6","3","6","3","3","6","3","6","3","6","763057227551739906","颜","374","Female","[""好她"",""坏我"",""好我"",""坏她""]","[""强她"",""弱我"",""强我"",""弱她""]","","","","","","","","nonmatch","","","","","","","","","","key","j","16.66481081081076","683","380","j","true","nonmatch","img/trapezoid.png","好我","坏我","prac_ALT2_moral","practice_moral","","","","","","","","",""
"null","<span style='color:GreenYellow; font-size: 70px;'>正确! </span>","null","html-keyboard-response","127","393199","0.0-8.0-0.0-1.1-0.1-1.57","6","7","6","7","7","4","4","4","4","4","4","1","0","1","-2","1","2","1","1","4","5","4","4","4","5","4","4","5","4","7","8","8","8","7","8","7","8","7","5","5","6","5","6","5","6","6","6","5","1","6","5","7","2","6","5","6","5","6","5","5","6","5","5","5","6","5","6","6","7","6","3","6","3","3","6","3","6","3","6","763057227551739906","颜","374","Female","[""好她"",""坏我"",""好我"",""坏她""]","[""强她"",""弱我"",""强我"",""弱她""]","","","","","","","","","","","","","","","","","","","","","","","","","","","","","","feedback_test","","","","","","","","",""
"980","","f","psychophysics","128","395181","0.0-8.0-0.0-1.1-0.1-0.58","6","7","6","7","7","4","4","4","4","4","4","1","0","1","-2","1","2","1","1","4","5","4","4","4","5","4","4","5","4","7","8","8","8","7","8","7","8","7","5","5","6","5","6","5","6","6","6","5","1","6","5","7","2","6","5","6","5","6","5","5","6","5","5","5","6","5","6","6","7","6","3","6","3","3","6","3","6","3","6","763057227551739906","颜","374","Female","[""好她"",""坏我"",""好我"",""坏她""]","[""强她"",""弱我"",""强我"",""弱她""]","","","","","","","","match","","","","","","","","","","key","f","16.66638983050815","683","380","f","true","match","img/square.png","坏她","坏她","prac_ALT2_moral","practice_moral","","","","","","","","",""
"null","<span style='color:GreenYellow; font-size: 70px;'>正确! </span>","null","html-keyboard-response","129","395684","0.0-8.0-0.0-1.1-0.1-1.58","6","7","6","7","7","4","4","4","4","4","4","1","0","1","-2","1","2","1","1","4","5","4","4","4","5","4","4","5","4","7","8","8","8","7","8","7","8","7","5","5","6","5","6","5","6","6","6","5","1","6","5","7","2","6","5","6","5","6","5","5","6","5","5","5","6","5","6","6","7","6","3","6","3","3","6","3","6","3","6","763057227551739906","颜","374","Female","[""好她"",""坏我"",""好我"",""坏她""]","[""强她"",""弱我"",""强我"",""弱她""]","","","","","","","","","","","","","","","","","","","","","","","","","","","","","","feedback_test","","","","","","","","",""
"852","","f","psychophysics","130","397539","0.0-8.0-0.0-1.1-0.1-0.59","6","7","6","7","7","4","4","4","4","4","4","1","0","1","-2","1","2","1","1","4","5","4","4","4","5","4","4","5","4","7","8","8","8","7","8","7","8","7","5","5","6","5","6","5","6","6","6","5","1","6","5","7","2","6","5","6","5","6","5","5","6","5","5","5","6","5","6","6","7","6","3","6","3","3","6","3","6","3","6","763057227551739906","颜","374","Female","[""好她"",""坏我"",""好我"",""坏她""]","[""强她"",""弱我"",""强我"",""弱她""]","","","","","","","","match","","","","","","","","","","key","f","16.666381818182046","683","380","f","true","match","img/pentagon.png","好她","好她","prac_ALT2_moral","practice_moral","","","","","","","","",""
"null","<span style='color:GreenYellow; font-size: 70px;'>正确! </span>","null","html-keyboard-response","131","398042","0.0-8.0-0.0-1.1-0.1-1.59","6","7","6","7","7","4","4","4","4","4","4","1","0","1","-2","1","2","1","1","4","5","4","4","4","5","4","4","5","4","7","8","8","8","7","8","7","8","7","5","5","6","5","6","5","6","6","6","5","1","6","5","7","2","6","5","6","5","6","5","5","6","5","5","5","6","5","6","6","7","6","3","6","3","3","6","3","6","3","6","763057227551739906","颜","374","Female","[""好她"",""坏我"",""好我"",""坏她""]","[""强她"",""弱我"",""强我"",""弱她""]","","","","","","","","","","","","","","","","","","","","","","","","","","","","","","feedback_test","","","","","","","","",""
"870","","j","psychophysics","132","399914","0.0-8.0-0.0-1.1-0.1-0.60","6","7","6","7","7","4","4","4","4","4","4","1","0","1","-2","1","2","1","1","4","5","4","4","4","5","4","4","5","4","7","8","8","8","7","8","7","8","7","5","5","6","5","6","5","6","6","6","5","1","6","5","7","2","6","5","6","5","6","5","5","6","5","5","5","6","5","6","6","7","6","3","6","3","3","6","3","6","3","6","763057227551739906","颜","374","Female","[""好她"",""坏我"",""好我"",""坏她""]","[""强她"",""弱我"",""强我"",""弱她""]","","","","","","","","nonmatch","","","","","","","","","","key","j","16.666126126126148","683","380","f","false","match","img/square.png","坏她","坏她","prac_ALT2_moral","practice_moral","","","","","","","","",""
"null","<span style='color:red; font-size: 70px;'>错误! </span>","null","html-keyboard-response","133","400415","0.0-8.0-0.0-1.1-0.1-1.60","6","7","6","7","7","4","4","4","4","4","4","1","0","1","-2","1","2","1","1","4","5","4","4","4","5","4","4","5","4","7","8","8","8","7","8","7","8","7","5","5","6","5","6","5","6","6","6","5","1","6","5","7","2","6","5","6","5","6","5","5","6","5","5","5","6","5","6","6","7","6","3","6","3","3","6","3","6","3","6","763057227551739906","颜","374","Female","[""好她"",""坏我"",""好我"",""坏她""]","[""强她"",""弱我"",""强我"",""弱她""]","","","","","","","","","","","","","","","","","","","","","","","","","","","","","","feedback_test","","","","","","","","",""
"802","","j","psychophysics","134","402219","0.0-8.0-0.0-1.1-0.1-0.61","6","7","6","7","7","4","4","4","4","4","4","1","0","1","-2","1","2","1","1","4","5","4","4","4","5","4","4","5","4","7","8","8","8","7","8","7","8","7","5","5","6","5","6","5","6","6","6","5","1","6","5","7","2","6","5","6","5","6","5","5","6","5","5","5","6","5","6","6","7","6","3","6","3","3","6","3","6","3","6","763057227551739906","颜","374","Female","[""好她"",""坏我"",""好我"",""坏她""]","[""强她"",""弱我"",""强我"",""弱她""]","","","","","","","","nonmatch","","","","","","","","","","key","j","16.666775700934863","683","380","j","true","nonmatch","img/pentagon.png","好我","好她","prac_ALT2_moral","practice_moral","","","","","","","","",""
"null","<span style='color:GreenYellow; font-size: 70px;'>正确! </span>","null","html-keyboard-response","135","402720","0.0-8.0-0.0-1.1-0.1-1.61","6","7","6","7","7","4","4","4","4","4","4","1","0","1","-2","1","2","1","1","4","5","4","4","4","5","4","4","5","4","7","8","8","8","7","8","7","8","7","5","5","6","5","6","5","6","6","6","5","1","6","5","7","2","6","5","6","5","6","5","5","6","5","5","5","6","5","6","6","7","6","3","6","3","3","6","3","6","3","6","763057227551739906","颜","374","Female","[""好她"",""坏我"",""好我"",""坏她""]","[""强她"",""弱我"",""强我"",""弱她""]","","","","","","","","","","","","","","","","","","","","","","","","","","","","","","feedback_test","","","","","","","","",""
"1012","","f","psychophysics","136","404735","0.0-8.0-0.0-1.1-0.1-0.62","6","7","6","7","7","4","4","4","4","4","4","1","0","1","-2","1","2","1","1","4","5","4","4","4","5","4","4","5","4","7","8","8","8","7","8","7","8","7","5","5","6","5","6","5","6","6","6","5","1","6","5","7","2","6","5","6","5","6","5","5","6","5","5","5","6","5","6","6","7","6","3","6","3","3","6","3","6","3","6","763057227551739906","颜","374","Female","[""好她"",""坏我"",""好我"",""坏她""]","[""强她"",""弱我"",""强我"",""弱她""]","","","","","","","","match","","","","","","","","","","key","f","16.666608333333475","683","380","j","false","nonmatch","img/square.png","坏我","坏她","prac_ALT2_moral","practice_moral","","","","","","","","",""
"null","<span style='color:red; font-size: 70px;'>错误! </span>","null","html-keyboard-response","137","405237","0.0-8.0-0.0-1.1-0.1-1.62","6","7","6","7","7","4","4","4","4","4","4","1","0","1","-2","1","2","1","1","4","5","4","4","4","5","4","4","5","4","7","8","8","8","7","8","7","8","7","5","5","6","5","6","5","6","6","6","5","1","6","5","7","2","6","5","6","5","6","5","5","6","5","5","5","6","5","6","6","7","6","3","6","3","3","6","3","6","3","6","763057227551739906","颜","374","Female","[""好她"",""坏我"",""好我"",""坏她""]","[""强她"",""弱我"",""强我"",""弱她""]","","","","","","","","","","","","","","","","","","","","","","","","","","","","","","feedback_test","","","","","","","","",""
