"rt","stimulus","response","trial_type","trial_index","time_elapsed","internal_node_id","swb_1","swb_2","swb_3","swb_4","swb_5","LOT_1","LOT_2","LOT_3","LOT_4","LOT_5","LOT_6","IPC_1","IPC_2","IPC_3","IPC_4","IPC_5","IPC_6","IPC_7","IPC_8","MorIden_1","MorIden_2","MorIden_3","MorIden_4","MorIden_5","MorIden_6","MorIden_7","MorIden_8","MorIden_9","MorIden_10","moralSeImag_1","moralSeImag_2","moralSeImag_3","moralSeImag_4","moralSeImag_5","moralSeImag_6","moralSeImag_7","moralSeImag_8","moralSeImag_9","sde_1","sde_2","sde_3","sde_4","sde_5","sde_6","sde_7","sde_8","sde_9","sde_10","trap2","sde_11","sde_12","sde_13","sde_14","sde_15","sde_16","sde_17","sde_18","sde_19","sde_20","IM_1","IM_2","IM_3","IM_4","IM_5","IM_6","IM_7","IM_8","IM_9","IM_10","IM_11","IM_12","IM_13","IM_14","IM_15","IM_16","IM_17","IM_18","IM_19","IM_20","subj_idx","friend_name","ParticipantID","Sex","Word","Word2","value","success","timeout","failed_images","failed_audio","failed_video","user_agent","responses","item_order","radio_event_ids","radio_event_times","key_event_times","mouse_event_times","straightlining","zigzagging","honeypot","task_id","screen_id","time_stamp","response_type","key_press","avg_frame_time","center_x","center_y","person","word","valence","domain","math","correct_response","correct","status","view_history","identity","duration","Image","condition","question_order","trap2_item"
"4538","
   <p><div style='color:white; font-size: 25px'>您好，欢迎参加本次实验。</div></p>
   <p><div style='color:white; font-size: 25px'>为充分保障您的权利，请确保您已经知晓并同意《参与实验同意书》以及《数据公开知情同意书》。</div></p>
   <p><div style='color:white; font-size: 25px'>如果您未见过上述内容，请咨询实验员。</div></p>
   <p style='color:white; font-size: 25px'>如果您选择继续实验，则表示您已经清楚两份知情同意书的内容并同意。</p>
   <p><div style = ""color: pink;font-size:30px;"">请确保您记得day0的实验编号，您将在本次实验输入该编号，若您忘记，请咨询实验员后作答。</div></p>
   <p><div style = ""color:lightblue;font-size:25px;"">请您尽可能认真地作答，我们将依据您在各问卷和按键任务中的作答质量发放报酬。</div></p>
   <p> <div style = ""color: green""><按空格键至下页></div> </p>
   "," ","html-keyboard-response","0","4542","0.0-0.0","5","5","6","3","4","5","4","4","4","5","5","0","-1","-1","0","1","1","1","1","4","4","5","4","3","2","2","3","2","3","5","4","6","6","6","6","5","6","6","3","5","5","4","4","3","6","5","5","5","1","4","3","5","2","4","4","5","7","6","5","2","4","3","1","2","3","6","6","2","7","7","6","7","4","4","6","1","6","3","7","799043749912125442","朱","391","Female","[""坏我"",""好我"",""坏她"",""好她""]","[""弱我"",""强我"",""弱她"",""强她""]","","","","","","","","","","","","","","","","","","","","","","","","","","","","","","","","","","","","","","",""
"","","","call-function","1","4544","0.0-1.0-0.0","5","5","6","3","4","5","4","4","4","5","5","0","-1","-1","0","1","1","1","1","4","4","5","4","3","2","2","3","2","3","5","4","6","6","6","6","5","6","6","3","5","5","4","4","3","6","5","5","5","1","4","3","5","2","4","4","5","7","6","5","2","4","3","1","2","3","6","6","2","7","7","6","7","4","4","6","1","6","3","7","799043749912125442","朱","391","Female","[""坏我"",""好我"",""坏她"",""好她""]","[""弱我"",""强我"",""弱她"",""强她""]","","","","","","","","","","","","","","","","","","","","","","","","","","","","","","","","","","","","","","",""
"25761","","[{""name"":""Sex"",""value"":""1""},{""name"":""friend_name"",""value"":""朱""},{""name"":""ParticipantID"",""value"":""391""}]","survey-html-form","2","30306","0.0-1.0-1.0","5","5","6","3","4","5","4","4","4","5","5","0","-1","-1","0","1","1","1","1","4","4","5","4","3","2","2","3","2","3","5","4","6","6","6","6","5","6","6","3","5","5","4","4","3","6","5","5","5","1","4","3","5","2","4","4","5","7","6","5","2","4","3","1","2","3","6","6","2","7","7","6","7","4","4","6","1","6","3","7","799043749912125442","朱","391","Female","[""坏我"",""好我"",""坏她"",""好她""]","[""弱我"",""强我"",""弱她"",""强她""]","","","","","","","","","","","","","","","","","","","","","","","","","","","","","","","","","","","","","","",""
"","","","preload","3","31536","0.0-2.0","5","5","6","3","4","5","4","4","4","5","5","0","-1","-1","0","1","1","1","1","4","4","5","4","3","2","2","3","2","3","5","4","6","6","6","6","5","6","6","3","5","5","4","4","3","6","5","5","5","1","4","3","5","2","4","4","5","7","6","5","2","4","3","1","2","3","6","6","2","7","7","6","7","4","4","6","1","6","3","7","799043749912125442","朱","391","Female","[""坏我"",""好我"",""坏她"",""好她""]","[""弱我"",""强我"",""弱她"",""强她""]","","true","false","[]","[]","[]","","","","","","","","","","","","","","","","","","","","","","","","","","","","","","","","",""
"","","","fullscreen","4","40261","0.0-3.0","5","5","6","3","4","5","4","4","4","5","5","0","-1","-1","0","1","1","1","1","4","4","5","4","3","2","2","3","2","3","5","4","6","6","6","6","5","6","6","3","5","5","4","4","3","6","5","5","5","1","4","3","5","2","4","4","5","7","6","5","2","4","3","1","2","3","6","6","2","7","7","6","7","4","4","6","1","6","3","7","799043749912125442","朱","391","Female","[""坏我"",""好我"",""坏她"",""好她""]","[""弱我"",""强我"",""弱她"",""强她""]","","true","","","","","{}","","","","","","","","","","","","","","","","","","","","","","","","","","","","","","","",""
"34421.5","","{""Q01"":""5"",""Q02"":""5"",""Q03"":""6"",""Q04"":""3"",""Q05"":""4""}","survey-template","5","74687","0.0-4.0","5","5","6","3","4","5","4","4","4","5","5","0","-1","-1","0","1","1","1","1","4","4","5","4","3","2","2","3","2","3","5","4","6","6","6","6","5","6","6","3","5","5","4","4","3","6","5","5","5","1","4","3","5","2","4","4","5","7","6","5","2","4","3","1","2","3","6","6","2","7","7","6","7","4","4","6","1","6","3","7","799043749912125442","朱","391","Female","[""坏我"",""好我"",""坏她"",""好她""]","[""弱我"",""强我"",""弱她"",""强她""]","","","","","","","","{""Q01"":""5"",""Q02"":""5"",""Q03"":""6"",""Q04"":""3"",""Q05"":""4""}","[0,1,2,3,4]","[""Q01"",""Q02"",""Q03"",""Q04"",""Q01"",""Q05""]","[11550.5,12537.5,13657.700000047684,19483.700000047684,24272.200000047684,33712.09999990463]","[]","[11550.5,12537.5,13657.700000047684,19483.700000047684,24272.200000047684,33712.09999990463,34419.90000009537]","0.4","0.5","0","","","","","","","","","","","","","","","","","","","","","","",""
"44145.799999952316","","{""Q01"":""5"",""Q02"":""4"",""Q03"":""4"",""Q04"":""4"",""Q05"":""5"",""Q06"":""5""}","survey-template","6","118840","0.0-5.0","5","5","6","3","4","5","4","4","4","5","5","0","-1","-1","0","1","1","1","1","4","4","5","4","3","2","2","3","2","3","5","4","6","6","6","6","5","6","6","3","5","5","4","4","3","6","5","5","5","1","4","3","5","2","4","4","5","7","6","5","2","4","3","1","2","3","6","6","2","7","7","6","7","4","4","6","1","6","3","7","799043749912125442","朱","391","Female","[""坏我"",""好我"",""坏她"",""好她""]","[""弱我"",""强我"",""弱她"",""强她""]","","","","","","","","{""Q01"":""5"",""Q02"":""4"",""Q03"":""4"",""Q04"":""4"",""Q05"":""5"",""Q06"":""5""}","[0,1,2,3,4,5]","[""Q01"",""Q02"",""Q03"",""Q06"",""Q05"",""Q04"",""Q02"",""Q01""]","[2782.7999999523163,7156.5,8393.399999856949,20648.5,25442.599999904633,30356.5,38334.700000047684,43150.799999952316]","[]","[2782.7999999523163,7156.5,8393.399999856949,20648.5,25442.599999904633,30356.5,38334.700000047684,42751.799999952316,43150.799999952316,44144.5]","0.3333333333333333","0.4","0","","","","","","","","","","","","","","","","","","","","","","",""
"38641.799999952316","","{""Q01"":""0"",""Q02"":""-1"",""Q03"":""-1"",""Q04"":""0"",""Q05"":""1"",""Q06"":""1"",""Q07"":""1"",""Q08"":""1""}","survey-template","7","157487","0.0-6.0","5","5","6","3","4","5","4","4","4","5","5","0","-1","-1","0","1","1","1","1","4","4","5","4","3","2","2","3","2","3","5","4","6","6","6","6","5","6","6","3","5","5","4","4","3","6","5","5","5","1","4","3","5","2","4","4","5","7","6","5","2","4","3","1","2","3","6","6","2","7","7","6","7","4","4","6","1","6","3","7","799043749912125442","朱","391","Female","[""坏我"",""好我"",""坏她"",""好她""]","[""弱我"",""强我"",""弱她"",""强她""]","","","","","","","","{""Q01"":""0"",""Q02"":""-1"",""Q03"":""-1"",""Q04"":""0"",""Q05"":""1"",""Q06"":""1"",""Q07"":""1"",""Q08"":""1""}","[0,1,2,3,4,5,6,7]","[""Q02"",""Q01"",""Q03"",""Q03"",""Q04"",""Q05"",""Q06"",""Q07"",""Q08""]","[10455.599999904633,16882.099999904633,19659.799999952316,21304.099999904633,26673.700000047684,29253.5,30841.599999904633,33415.59999990463,35471.39999985695]","[]","[10455.599999904633,16882.099999904633,19659.799999952316,21304.099999904633,26673.700000047684,29253.5,30841.599999904633,33415.59999990463,35471.39999985695,38639.700000047684]","0.5","0.42857142857142855","0","","","","","","","","","","","","","","","","","","","","","","",""
"80091","
    <p><div style='color:white;font-size:35px; line-height:20px;'>词汇评估任务</div></p><br>
    <p><div style='color:white;font-size:25px; line-height:20px;'>请再次回忆该亲密的朋友，你们至少2年前就认识了，并且最近2年经常见面。</div></p>
    <p><div style='color:white;font-size:25px; line-height:20px;'>在本实验中，您将会看到一些形容词。</div></p>
    <p><div style='color:yellow;font-size:25px; line-height:20px;'>您的任务是判断这些形容词是否符合对您自己或您的朋友的描述。</div></p><p style='font-size:35px'>符合按<span style=""color:lightgreen""> j 键</span>，不符合按<span style=""color:red""> f 键</span></p>","0","html-button-response","8","237583","0.0-7.0-0.0","5","5","6","3","4","5","4","4","4","5","5","0","-1","-1","0","1","1","1","1","4","4","5","4","3","2","2","3","2","3","5","4","6","6","6","6","5","6","6","3","5","5","4","4","3","6","5","5","5","1","4","3","5","2","4","4","5","7","6","5","2","4","3","1","2","3","6","6","2","7","7","6","7","4","4","6","1","6","3","7","799043749912125442","朱","391","Female","[""坏我"",""好我"",""坏她"",""好她""]","[""弱我"",""强我"",""弱她"",""强她""]","","","","","","","","","","","","","","","","","SRET_EW","EW_instructions","Fri Jan 19 2024 12:33:05 GMT+0800 (中国标准时间)","","","","","","","","","","","","","","","","","","","",""
"1764","","j","psychophysics","9","240370","0.0-7.0-1.0-0.0","5","5","6","3","4","5","4","4","4","5","5","0","-1","-1","0","1","1","1","1","4","4","5","4","3","2","2","3","2","3","5","4","6","6","6","6","5","6","6","3","5","5","4","4","3","6","5","5","5","1","4","3","5","2","4","4","5","7","6","5","2","4","3","1","2","3","6","6","2","7","7","6","7","4","4","6","1","6","3","7","799043749912125442","朱","391","Female","[""坏我"",""好我"",""坏她"",""好她""]","[""弱我"",""强我"",""弱她"",""强她""]","","","","","","","","yes","","","","","","","","","SRET_EW","EW_practice","","key","j","16.75011976047898","650.9524105141236","361.9047783399663","自己","严谨","Positive","ability","","","","","","","","","","",""
"808","","j","psychophysics","10","242179","0.0-7.0-1.0-0.1","5","5","6","3","4","5","4","4","4","5","5","0","-1","-1","0","1","1","1","1","4","4","5","4","3","2","2","3","2","3","5","4","6","6","6","6","5","6","6","3","5","5","4","4","3","6","5","5","5","1","4","3","5","2","4","4","5","7","6","5","2","4","3","1","2","3","6","6","2","7","7","6","7","4","4","6","1","6","3","7","799043749912125442","朱","391","Female","[""坏我"",""好我"",""坏她"",""好她""]","[""弱我"",""强我"",""弱她"",""强她""]","","","","","","","","yes","","","","","","","","","SRET_EW","EW_practice","","key","j","17.290663461538387","650.9524105141236","361.9047783399663","朋友","忠实","Positive","morality","","","","","","","","","","",""
"884","","j","psychophysics","11","244066","0.0-7.0-1.0-0.2","5","5","6","3","4","5","4","4","4","5","5","0","-1","-1","0","1","1","1","1","4","4","5","4","3","2","2","3","2","3","5","4","6","6","6","6","5","6","6","3","5","5","4","4","3","6","5","5","5","1","4","3","5","2","4","4","5","7","6","5","2","4","3","1","2","3","6","6","2","7","7","6","7","4","4","6","1","6","3","7","799043749912125442","朱","391","Female","[""坏我"",""好我"",""坏她"",""好她""]","[""弱我"",""强我"",""弱她"",""强她""]","","","","","","","","yes","","","","","","","","","SRET_EW","EW_practice","","key","j","16.651053571428616","650.9524105141236","361.9047783399663","自己","刻板","Negative","ability","","","","","","","","","","",""
"1268","","f","psychophysics","12","246335","0.0-7.0-1.0-0.3","5","5","6","3","4","5","4","4","4","5","5","0","-1","-1","0","1","1","1","1","4","4","5","4","3","2","2","3","2","3","5","4","6","6","6","6","5","6","6","3","5","5","4","4","3","6","5","5","5","1","4","3","5","2","4","4","5","7","6","5","2","4","3","1","2","3","6","6","2","7","7","6","7","4","4","6","1","6","3","7","799043749912125442","朱","391","Female","[""坏我"",""好我"",""坏她"",""好她""]","[""弱我"",""强我"",""弱她"",""强她""]","","","","","","","","no","","","","","","","","","SRET_EW","EW_practice","","key","f","16.774955223880685","650.9524105141236","361.9047783399663","朋友","徇私","Negative","morality","","","","","","","","","","",""
"11278","
    <p><div style='color:white;font-size:35px; line-height:20px;'>请您再次阅读实验要求</div></p><br>
    <p><div style='color:white;font-size:25px; line-height:20px;'>请回忆某一个亲密的朋友，你们至少2年前就认识了，并且最近2年经常见面。</div></p>
    <p><div style='color:white;font-size:25px; line-height:20px;'>在本实验中，您将会看到一些形容词。</div></p>
    <p><div style='color:yellow;font-size:25px; line-height:20px;'>您的任务是判断这些形容词是否符合对您自己或您的朋友的描述。</div></p>
    <p><div class='footer' style='font-size:25px; line-height:20px;'>如果对本实验还有不清楚之处，请立即向实验员咨询。</p><p style='font-size:25px; line-height:20px;'>如果您明白了规则：</p><p style='font-size:22px; line-height:20px;'>请按 继续 进入正式实验</p>
    </div>
    <p style='font-size:35px'>符合按<span style=""color:lightgreen""> j 键</span>，不符合按<span style=""color:red""> f 键</span></p>","0","html-button-response","13","257614","0.0-7.0-2.0","5","5","6","3","4","5","4","4","4","5","5","0","-1","-1","0","1","1","1","1","4","4","5","4","3","2","2","3","2","3","5","4","6","6","6","6","5","6","6","3","5","5","4","4","3","6","5","5","5","1","4","3","5","2","4","4","5","7","6","5","2","4","3","1","2","3","6","6","2","7","7","6","7","4","4","6","1","6","3","7","799043749912125442","朱","391","Female","[""坏我"",""好我"",""坏她"",""好她""]","[""弱我"",""强我"",""弱她"",""强她""]","","","","","","","","","","","","","","","","","SRET_EW","prac_instructions","Fri Jan 19 2024 12:33:05 GMT+0800 (中国标准时间)","","","","","","","","","","","","","","","","","","","",""
"737","","j","psychophysics","14","259354","0.0-7.0-3.0-0.0","5","5","6","3","4","5","4","4","4","5","5","0","-1","-1","0","1","1","1","1","4","4","5","4","3","2","2","3","2","3","5","4","6","6","6","6","5","6","6","3","5","5","4","4","3","6","5","5","5","1","4","3","5","2","4","4","5","7","6","5","2","4","3","1","2","3","6","6","2","7","7","6","7","4","4","6","1","6","3","7","799043749912125442","朱","391","Female","[""坏我"",""好我"",""坏她"",""好她""]","[""弱我"",""强我"",""弱她"",""强她""]","","","","","","","","yes","","","","","","","","","SRET","EW_formal","","key","j","16.651153846153857","650.9524105141236","361.9047783399663","自己","坚贞","Positive","morality","","","","","","","","","","",""
"774","","j","psychophysics","15","261130","0.0-7.0-3.0-0.1","5","5","6","3","4","5","4","4","4","5","5","0","-1","-1","0","1","1","1","1","4","4","5","4","3","2","2","3","2","3","5","4","6","6","6","6","5","6","6","3","5","5","4","4","3","6","5","5","5","1","4","3","5","2","4","4","5","7","6","5","2","4","3","1","2","3","6","6","2","7","7","6","7","4","4","6","1","6","3","7","799043749912125442","朱","391","Female","[""坏我"",""好我"",""坏她"",""好她""]","[""弱我"",""强我"",""弱她"",""强她""]","","","","","","","","yes","","","","","","","","","SRET","EW_formal","","key","j","16.650745283018793","650.9524105141236","361.9047783399663","朋友","务实","Positive","ability","","","","","","","","","","",""
"1080","","j","psychophysics","16","263211","0.0-7.0-3.0-0.2","5","5","6","3","4","5","4","4","4","5","5","0","-1","-1","0","1","1","1","1","4","4","5","4","3","2","2","3","2","3","5","4","6","6","6","6","5","6","6","3","5","5","4","4","3","6","5","5","5","1","4","3","5","2","4","4","5","7","6","5","2","4","3","1","2","3","6","6","2","7","7","6","7","4","4","6","1","6","3","7","799043749912125442","朱","391","Female","[""坏我"",""好我"",""坏她"",""好她""]","[""弱我"",""强我"",""弱她"",""强她""]","","","","","","","","yes","","","","","","","","","SRET","EW_formal","","key","j","16.65050000000009","650.9524105141236","361.9047783399663","朋友","迷糊","Negative","ability","","","","","","","","","","",""
"1038","","f","psychophysics","17","265251","0.0-7.0-3.0-0.3","5","5","6","3","4","5","4","4","4","5","5","0","-1","-1","0","1","1","1","1","4","4","5","4","3","2","2","3","2","3","5","4","6","6","6","6","5","6","6","3","5","5","4","4","3","6","5","5","5","1","4","3","5","2","4","4","5","7","6","5","2","4","3","1","2","3","6","6","2","7","7","6","7","4","4","6","1","6","3","7","799043749912125442","朱","391","Female","[""坏我"",""好我"",""坏她"",""好她""]","[""弱我"",""强我"",""弱她"",""强她""]","","","","","","","","no","","","","","","","","","SRET","EW_formal","","key","f","17.98845535714281","650.9524105141236","361.9047783399663","自己","说谎","Negative","morality","","","","","","","","","","",""
"1232","","j","psychophysics","18","267485","0.0-7.0-3.0-0.4","5","5","6","3","4","5","4","4","4","5","5","0","-1","-1","0","1","1","1","1","4","4","5","4","3","2","2","3","2","3","5","4","6","6","6","6","5","6","6","3","5","5","4","4","3","6","5","5","5","1","4","3","5","2","4","4","5","7","6","5","2","4","3","1","2","3","6","6","2","7","7","6","7","4","4","6","1","6","3","7","799043749912125442","朱","391","Female","[""坏我"",""好我"",""坏她"",""好她""]","[""弱我"",""强我"",""弱她"",""强她""]","","","","","","","","yes","","","","","","","","","SRET","EW_formal","","key","j","16.650406015037273","650.9524105141236","361.9047783399663","朋友","懂行","Positive","ability","","","","","","","","","","",""
"1224","","f","psychophysics","19","269709","0.0-7.0-3.0-0.5","5","5","6","3","4","5","4","4","4","5","5","0","-1","-1","0","1","1","1","1","4","4","5","4","3","2","2","3","2","3","5","4","6","6","6","6","5","6","6","3","5","5","4","4","3","6","5","5","5","1","4","3","5","2","4","4","5","7","6","5","2","4","3","1","2","3","6","6","2","7","7","6","7","4","4","6","1","6","3","7","799043749912125442","朱","391","Female","[""坏我"",""好我"",""坏她"",""好她""]","[""弱我"",""强我"",""弱她"",""强她""]","","","","","","","","no","","","","","","","","","SRET","EW_formal","","key","f","16.650218045112723","650.9524105141236","361.9047783399663","朋友","不端","Negative","morality","","","","","","","","","","",""
"1075","","f","psychophysics","20","271786","0.0-7.0-3.0-0.6","5","5","6","3","4","5","4","4","4","5","5","0","-1","-1","0","1","1","1","1","4","4","5","4","3","2","2","3","2","3","5","4","6","6","6","6","5","6","6","3","5","5","4","4","3","6","5","5","5","1","4","3","5","2","4","4","5","7","6","5","2","4","3","1","2","3","6","6","2","7","7","6","7","4","4","6","1","6","3","7","799043749912125442","朱","391","Female","[""坏我"",""好我"",""坏她"",""好她""]","[""弱我"",""强我"",""弱她"",""强她""]","","","","","","","","no","","","","","","","","","SRET","EW_formal","","key","f","17.205841666666675","650.9524105141236","361.9047783399663","朋友","拙笨","Negative","ability","","","","","","","","","","",""
"672","","j","psychophysics","21","273459","0.0-7.0-3.0-0.7","5","5","6","3","4","5","4","4","4","5","5","0","-1","-1","0","1","1","1","1","4","4","5","4","3","2","2","3","2","3","5","4","6","6","6","6","5","6","6","3","5","5","4","4","3","6","5","5","5","1","4","3","5","2","4","4","5","7","6","5","2","4","3","1","2","3","6","6","2","7","7","6","7","4","4","6","1","6","3","7","799043749912125442","朱","391","Female","[""坏我"",""好我"",""坏她"",""好她""]","[""弱我"",""强我"",""弱她"",""强她""]","","","","","","","","yes","","","","","","","","","SRET","EW_formal","","key","j","16.65083838383799","650.9524105141236","361.9047783399663","自己","自律","Positive","ability","","","","","","","","","","",""
"1192","","f","psychophysics","22","275653","0.0-7.0-3.0-0.8","5","5","6","3","4","5","4","4","4","5","5","0","-1","-1","0","1","1","1","1","4","4","5","4","3","2","2","3","2","3","5","4","6","6","6","6","5","6","6","3","5","5","4","4","3","6","5","5","5","1","4","3","5","2","4","4","5","7","6","5","2","4","3","1","2","3","6","6","2","7","7","6","7","4","4","6","1","6","3","7","799043749912125442","朱","391","Female","[""坏我"",""好我"",""坏她"",""好她""]","[""弱我"",""强我"",""弱她"",""强她""]","","","","","","","","no","","","","","","","","","SRET","EW_formal","","key","f","16.65041221374022","650.9524105141236","361.9047783399663","自己","驽钝","Negative","ability","","","","","","","","","","",""
"876","","f","psychophysics","23","277531","0.0-7.0-3.0-0.9","5","5","6","3","4","5","4","4","4","5","5","0","-1","-1","0","1","1","1","1","4","4","5","4","3","2","2","3","2","3","5","4","6","6","6","6","5","6","6","3","5","5","4","4","3","6","5","5","5","1","4","3","5","2","4","4","5","7","6","5","2","4","3","1","2","3","6","6","2","7","7","6","7","4","4","6","1","6","3","7","799043749912125442","朱","391","Female","[""坏我"",""好我"",""坏她"",""好她""]","[""弱我"",""强我"",""弱她"",""强她""]","","","","","","","","no","","","","","","","","","SRET","EW_formal","","key","f","16.65069642857166","650.9524105141236","361.9047783399663","朋友","愚蠢","Negative","ability","","","","","","","","","","",""
"1006","","f","psychophysics","24","279539","0.0-7.0-3.0-0.10","5","5","6","3","4","5","4","4","4","5","5","0","-1","-1","0","1","1","1","1","4","4","5","4","3","2","2","3","2","3","5","4","6","6","6","6","5","6","6","3","5","5","4","4","3","6","5","5","5","1","4","3","5","2","4","4","5","7","6","5","2","4","3","1","2","3","6","6","2","7","7","6","7","4","4","6","1","6","3","7","799043749912125442","朱","391","Female","[""坏我"",""好我"",""坏她"",""好她""]","[""弱我"",""强我"",""弱她"",""强她""]","","","","","","","","no","","","","","","","","","SRET","EW_formal","","key","f","16.650428571428677","650.9524105141236","361.9047783399663","朋友","高尚","Positive","morality","","","","","","","","","","",""
"1058","","f","psychophysics","25","281598","0.0-7.0-3.0-0.11","5","5","6","3","4","5","4","4","4","5","5","0","-1","-1","0","1","1","1","1","4","4","5","4","3","2","2","3","2","3","5","4","6","6","6","6","5","6","6","3","5","5","4","4","3","6","5","5","5","1","4","3","5","2","4","4","5","7","6","5","2","4","3","1","2","3","6","6","2","7","7","6","7","4","4","6","1","6","3","7","799043749912125442","朱","391","Female","[""坏我"",""好我"",""坏她"",""好她""]","[""弱我"",""强我"",""弱她"",""强她""]","","","","","","","","no","","","","","","","","","SRET","EW_formal","","key","f","16.65045528455327","650.9524105141236","361.9047783399663","朋友","草率","Negative","ability","","","","","","","","","","",""
"1567","","f","psychophysics","26","284166","0.0-7.0-3.0-0.12","5","5","6","3","4","5","4","4","4","5","5","0","-1","-1","0","1","1","1","1","4","4","5","4","3","2","2","3","2","3","5","4","6","6","6","6","5","6","6","3","5","5","4","4","3","6","5","5","5","1","4","3","5","2","4","4","5","7","6","5","2","4","3","1","2","3","6","6","2","7","7","6","7","4","4","6","1","6","3","7","799043749912125442","朱","391","Female","[""坏我"",""好我"",""坏她"",""好她""]","[""弱我"",""强我"",""弱她"",""强她""]","","","","","","","","no","","","","","","","","","SRET","EW_formal","","key","f","16.650339869280906","650.9524105141236","361.9047783399663","朋友","中用","Positive","ability","","","","","","","","","","",""
"903","","f","psychophysics","27","286072","0.0-7.0-3.0-0.13","5","5","6","3","4","5","4","4","4","5","5","0","-1","-1","0","1","1","1","1","4","4","5","4","3","2","2","3","2","3","5","4","6","6","6","6","5","6","6","3","5","5","4","4","3","6","5","5","5","1","4","3","5","2","4","4","5","7","6","5","2","4","3","1","2","3","6","6","2","7","7","6","7","4","4","6","1","6","3","7","799043749912125442","朱","391","Female","[""坏我"",""好我"",""坏她"",""好她""]","[""弱我"",""强我"",""弱她"",""强她""]","","","","","","","","no","","","","","","","","","SRET","EW_formal","","key","f","16.798486725663647","650.9524105141236","361.9047783399663","自己","伪善","Negative","morality","","","","","","","","","","",""
"888","","j","psychophysics","28","287962","0.0-7.0-3.0-0.14","5","5","6","3","4","5","4","4","4","5","5","0","-1","-1","0","1","1","1","1","4","4","5","4","3","2","2","3","2","3","5","4","6","6","6","6","5","6","6","3","5","5","4","4","3","6","5","5","5","1","4","3","5","2","4","4","5","7","6","5","2","4","3","1","2","3","6","6","2","7","7","6","7","4","4","6","1","6","3","7","799043749912125442","朱","391","Female","[""坏我"",""好我"",""坏她"",""好她""]","[""弱我"",""强我"",""弱她"",""强她""]","","","","","","","","yes","","","","","","","","","SRET","EW_formal","","key","j","16.64883928571414","650.9524105141236","361.9047783399663","自己","廉正","Positive","morality","","","","","","","","","","",""
"978","","f","psychophysics","29","289942","0.0-7.0-3.0-0.15","5","5","6","3","4","5","4","4","4","5","5","0","-1","-1","0","1","1","1","1","4","4","5","4","3","2","2","3","2","3","5","4","6","6","6","6","5","6","6","3","5","5","4","4","3","6","5","5","5","1","4","3","5","2","4","4","5","7","6","5","2","4","3","1","2","3","6","6","2","7","7","6","7","4","4","6","1","6","3","7","799043749912125442","朱","391","Female","[""坏我"",""好我"",""坏她"",""好她""]","[""弱我"",""强我"",""弱她"",""强她""]","","","","","","","","no","","","","","","","","","SRET","EW_formal","","key","f","16.65018644067804","650.9524105141236","361.9047783399663","自己","无助","Negative","ability","","","","","","","","","","",""
"1127","","j","psychophysics","30","292071","0.0-7.0-3.0-0.16","5","5","6","3","4","5","4","4","4","5","5","0","-1","-1","0","1","1","1","1","4","4","5","4","3","2","2","3","2","3","5","4","6","6","6","6","5","6","6","3","5","5","4","4","3","6","5","5","5","1","4","3","5","2","4","4","5","7","6","5","2","4","3","1","2","3","6","6","2","7","7","6","7","4","4","6","1","6","3","7","799043749912125442","朱","391","Female","[""坏我"",""好我"",""坏她"",""好她""]","[""弱我"",""强我"",""弱她"",""强她""]","","","","","","","","yes","","","","","","","","","SRET","EW_formal","","key","j","16.650551181102326","650.9524105141236","361.9047783399663","朋友","奉献","Positive","morality","","","","","","","","","","",""
"923","","f","psychophysics","31","293997","0.0-7.0-3.0-0.17","5","5","6","3","4","5","4","4","4","5","5","0","-1","-1","0","1","1","1","1","4","4","5","4","3","2","2","3","2","3","5","4","6","6","6","6","5","6","6","3","5","5","4","4","3","6","5","5","5","1","4","3","5","2","4","4","5","7","6","5","2","4","3","1","2","3","6","6","2","7","7","6","7","4","4","6","1","6","3","7","799043749912125442","朱","391","Female","[""坏我"",""好我"",""坏她"",""好她""]","[""弱我"",""强我"",""弱她"",""强她""]","","","","","","","","no","","","","","","","","","SRET","EW_formal","","key","f","16.65019298245642","650.9524105141236","361.9047783399663","朋友","淫乱","Negative","morality","","","","","","","","","","",""
"1607","","j","psychophysics","32","296606","0.0-7.0-3.0-0.18","5","5","6","3","4","5","4","4","4","5","5","0","-1","-1","0","1","1","1","1","4","4","5","4","3","2","2","3","2","3","5","4","6","6","6","6","5","6","6","3","5","5","4","4","3","6","5","5","5","1","4","3","5","2","4","4","5","7","6","5","2","4","3","1","2","3","6","6","2","7","7","6","7","4","4","6","1","6","3","7","799043749912125442","朱","391","Female","[""坏我"",""好我"",""坏她"",""好她""]","[""弱我"",""强我"",""弱她"",""强她""]","","","","","","","","yes","","","","","","","","","SRET","EW_formal","","key","j","16.650230769230685","650.9524105141236","361.9047783399663","朋友","高洁","Positive","morality","","","","","","","","","","",""
"730","","f","psychophysics","33","298338","0.0-7.0-3.0-0.19","5","5","6","3","4","5","4","4","4","5","5","0","-1","-1","0","1","1","1","1","4","4","5","4","3","2","2","3","2","3","5","4","6","6","6","6","5","6","6","3","5","5","4","4","3","6","5","5","5","1","4","3","5","2","4","4","5","7","6","5","2","4","3","1","2","3","6","6","2","7","7","6","7","4","4","6","1","6","3","7","799043749912125442","朱","391","Female","[""坏我"",""好我"",""坏她"",""好她""]","[""弱我"",""强我"",""弱她"",""强她""]","","","","","","","","no","","","","","","","","","SRET","EW_formal","","key","f","16.65033009708735","650.9524105141236","361.9047783399663","朋友","迂拙","Negative","ability","","","","","","","","","","",""
"738","","j","psychophysics","34","300077","0.0-7.0-3.0-0.20","5","5","6","3","4","5","4","4","4","5","5","0","-1","-1","0","1","1","1","1","4","4","5","4","3","2","2","3","2","3","5","4","6","6","6","6","5","6","6","3","5","5","4","4","3","6","5","5","5","1","4","3","5","2","4","4","5","7","6","5","2","4","3","1","2","3","6","6","2","7","7","6","7","4","4","6","1","6","3","7","799043749912125442","朱","391","Female","[""坏我"",""好我"",""坏她"",""好她""]","[""弱我"",""强我"",""弱她"",""强她""]","","","","","","","","yes","","","","","","","","","SRET","EW_formal","","key","j","16.650163461538725","650.9524105141236","361.9047783399663","朋友","厚道","Positive","morality","","","","","","","","","","",""
"739","","f","psychophysics","35","301819","0.0-7.0-3.0-0.21","5","5","6","3","4","5","4","4","4","5","5","0","-1","-1","0","1","1","1","1","4","4","5","4","3","2","2","3","2","3","5","4","6","6","6","6","5","6","6","3","5","5","4","4","3","6","5","5","5","1","4","3","5","2","4","4","5","7","6","5","2","4","3","1","2","3","6","6","2","7","7","6","7","4","4","6","1","6","3","7","799043749912125442","朱","391","Female","[""坏我"",""好我"",""坏她"",""好她""]","[""弱我"",""强我"",""弱她"",""强她""]","","","","","","","","no","","","","","","","","","SRET","EW_formal","","key","f","16.6506310679613","650.9524105141236","361.9047783399663","自己","黑心","Negative","morality","","","","","","","","","","",""
"834","","j","psychophysics","36","303654","0.0-7.0-3.0-0.22","5","5","6","3","4","5","4","4","4","5","5","0","-1","-1","0","1","1","1","1","4","4","5","4","3","2","2","3","2","3","5","4","6","6","6","6","5","6","6","3","5","5","4","4","3","6","5","5","5","1","4","3","5","2","4","4","5","7","6","5","2","4","3","1","2","3","6","6","2","7","7","6","7","4","4","6","1","6","3","7","799043749912125442","朱","391","Female","[""坏我"",""好我"",""坏她"",""好她""]","[""弱我"",""强我"",""弱她"",""强她""]","","","","","","","","yes","","","","","","","","","SRET","EW_formal","","key","j","16.65139999999982","650.9524105141236","361.9047783399663","自己","淡泊","Positive","morality","","","","","","","","","","",""
"875","","j","psychophysics","37","305531","0.0-7.0-3.0-0.23","5","5","6","3","4","5","4","4","4","5","5","0","-1","-1","0","1","1","1","1","4","4","5","4","3","2","2","3","2","3","5","4","6","6","6","6","5","6","6","3","5","5","4","4","3","6","5","5","5","1","4","3","5","2","4","4","5","7","6","5","2","4","3","1","2","3","6","6","2","7","7","6","7","4","4","6","1","6","3","7","799043749912125442","朱","391","Female","[""坏我"",""好我"",""坏她"",""好她""]","[""弱我"",""强我"",""弱她"",""强她""]","","","","","","","","yes","","","","","","","","","SRET","EW_formal","","key","j","18.482159999999567","650.9524105141236","361.9047783399663","朋友","仁厚","Positive","morality","","","","","","","","","","",""
"903","","f","psychophysics","38","307435","0.0-7.0-3.0-0.24","5","5","6","3","4","5","4","4","4","5","5","0","-1","-1","0","1","1","1","1","4","4","5","4","3","2","2","3","2","3","5","4","6","6","6","6","5","6","6","3","5","5","4","4","3","6","5","5","5","1","4","3","5","2","4","4","5","7","6","5","2","4","3","1","2","3","6","6","2","7","7","6","7","4","4","6","1","6","3","7","799043749912125442","朱","391","Female","[""坏我"",""好我"",""坏她"",""好她""]","[""弱我"",""强我"",""弱她"",""强她""]","","","","","","","","no","","","","","","","","","SRET","EW_formal","","key","f","16.6503245614034","650.9524105141236","361.9047783399663","自己","低劣","Negative","morality","","","","","","","","","","",""
"867","","f","psychophysics","39","309304","0.0-7.0-3.0-0.25","5","5","6","3","4","5","4","4","4","5","5","0","-1","-1","0","1","1","1","1","4","4","5","4","3","2","2","3","2","3","5","4","6","6","6","6","5","6","6","3","5","5","4","4","3","6","5","5","5","1","4","3","5","2","4","4","5","7","6","5","2","4","3","1","2","3","6","6","2","7","7","6","7","4","4","6","1","6","3","7","799043749912125442","朱","391","Female","[""坏我"",""好我"",""坏她"",""好她""]","[""弱我"",""强我"",""弱她"",""强她""]","","","","","","","","no","","","","","","","","","SRET","EW_formal","","key","f","16.650396396396033","650.9524105141236","361.9047783399663","朋友","自私","Negative","morality","","","","","","","","","","",""
"807","","j","psychophysics","40","311113","0.0-7.0-3.0-0.26","5","5","6","3","4","5","4","4","4","5","5","0","-1","-1","0","1","1","1","1","4","4","5","4","3","2","2","3","2","3","5","4","6","6","6","6","5","6","6","3","5","5","4","4","3","6","5","5","5","1","4","3","5","2","4","4","5","7","6","5","2","4","3","1","2","3","6","6","2","7","7","6","7","4","4","6","1","6","3","7","799043749912125442","朱","391","Female","[""坏我"",""好我"",""坏她"",""好她""]","[""弱我"",""强我"",""弱她"",""强她""]","","","","","","","","yes","","","","","","","","","SRET","EW_formal","","key","j","16.650472222222124","650.9524105141236","361.9047783399663","自己","守法","Positive","morality","","","","","","","","","","",""
"854","","j","psychophysics","41","312969","0.0-7.0-3.0-0.27","5","5","6","3","4","5","4","4","4","5","5","0","-1","-1","0","1","1","1","1","4","4","5","4","3","2","2","3","2","3","5","4","6","6","6","6","5","6","6","3","5","5","4","4","3","6","5","5","5","1","4","3","5","2","4","4","5","7","6","5","2","4","3","1","2","3","6","6","2","7","7","6","7","4","4","6","1","6","3","7","799043749912125442","朱","391","Female","[""坏我"",""好我"",""坏她"",""好她""]","[""弱我"",""强我"",""弱她"",""强她""]","","","","","","","","yes","","","","","","","","","SRET","EW_formal","","key","j","16.65052727272692","650.9524105141236","361.9047783399663","朋友","果决","Positive","ability","","","","","","","","","","",""
"699","","j","psychophysics","42","314670","0.0-7.0-3.0-0.28","5","5","6","3","4","5","4","4","4","5","5","0","-1","-1","0","1","1","1","1","4","4","5","4","3","2","2","3","2","3","5","4","6","6","6","6","5","6","6","3","5","5","4","4","3","6","5","5","5","1","4","3","5","2","4","4","5","7","6","5","2","4","3","1","2","3","6","6","2","7","7","6","7","4","4","6","1","6","3","7","799043749912125442","朱","391","Female","[""坏我"",""好我"",""坏她"",""好她""]","[""弱我"",""强我"",""弱她"",""强她""]","","","","","","","","yes","","","","","","","","","SRET","EW_formal","","key","j","16.65023762376237","650.9524105141236","361.9047783399663","自己","谦逊","Positive","morality","","","","","","","","","","",""
"797","","f","psychophysics","43","316468","0.0-7.0-3.0-0.29","5","5","6","3","4","5","4","4","4","5","5","0","-1","-1","0","1","1","1","1","4","4","5","4","3","2","2","3","2","3","5","4","6","6","6","6","5","6","6","3","5","5","4","4","3","6","5","5","5","1","4","3","5","2","4","4","5","7","6","5","2","4","3","1","2","3","6","6","2","7","7","6","7","4","4","6","1","6","3","7","799043749912125442","朱","391","Female","[""坏我"",""好我"",""坏她"",""好她""]","[""弱我"",""强我"",""弱她"",""强她""]","","","","","","","","no","","","","","","","","","SRET","EW_formal","","key","f","16.65063551401885","650.9524105141236","361.9047783399663","自己","庸碌","Negative","ability","","","","","","","","","","",""
"703","","j","psychophysics","44","318173","0.0-7.0-3.0-0.30","5","5","6","3","4","5","4","4","4","5","5","0","-1","-1","0","1","1","1","1","4","4","5","4","3","2","2","3","2","3","5","4","6","6","6","6","5","6","6","3","5","5","4","4","3","6","5","5","5","1","4","3","5","2","4","4","5","7","6","5","2","4","3","1","2","3","6","6","2","7","7","6","7","4","4","6","1","6","3","7","799043749912125442","朱","391","Female","[""坏我"",""好我"",""坏她"",""好她""]","[""弱我"",""强我"",""弱她"",""强她""]","","","","","","","","yes","","","","","","","","","SRET","EW_formal","","key","j","16.650647058823335","650.9524105141236","361.9047783399663","朋友","聪明","Positive","ability","","","","","","","","","","",""
"1000","","j","psychophysics","45","320176","0.0-7.0-3.0-0.31","5","5","6","3","4","5","4","4","4","5","5","0","-1","-1","0","1","1","1","1","4","4","5","4","3","2","2","3","2","3","5","4","6","6","6","6","5","6","6","3","5","5","4","4","3","6","5","5","5","1","4","3","5","2","4","4","5","7","6","5","2","4","3","1","2","3","6","6","2","7","7","6","7","4","4","6","1","6","3","7","799043749912125442","朱","391","Female","[""坏我"",""好我"",""坏她"",""好她""]","[""弱我"",""强我"",""弱她"",""强她""]","","","","","","","","yes","","","","","","","","","SRET","EW_formal","","key","j","16.651386554621965","650.9524105141236","361.9047783399663","自己","远见","Positive","ability","","","","","","","","","","",""
"580","","j","psychophysics","46","321757","0.0-7.0-3.0-0.32","5","5","6","3","4","5","4","4","4","5","5","0","-1","-1","0","1","1","1","1","4","4","5","4","3","2","2","3","2","3","5","4","6","6","6","6","5","6","6","3","5","5","4","4","3","6","5","5","5","1","4","3","5","2","4","4","5","7","6","5","2","4","3","1","2","3","6","6","2","7","7","6","7","4","4","6","1","6","3","7","799043749912125442","朱","391","Female","[""坏我"",""好我"",""坏她"",""好她""]","[""弱我"",""强我"",""弱她"",""强她""]","","","","","","","","yes","","","","","","","","","SRET","EW_formal","","key","j","16.650882978723608","650.9524105141236","361.9047783399663","自己","精干","Positive","ability","","","","","","","","","","",""
"727","","f","psychophysics","47","323486","0.0-7.0-3.0-0.33","5","5","6","3","4","5","4","4","4","5","5","0","-1","-1","0","1","1","1","1","4","4","5","4","3","2","2","3","2","3","5","4","6","6","6","6","5","6","6","3","5","5","4","4","3","6","5","5","5","1","4","3","5","2","4","4","5","7","6","5","2","4","3","1","2","3","6","6","2","7","7","6","7","4","4","6","1","6","3","7","799043749912125442","朱","391","Female","[""坏我"",""好我"",""坏她"",""好她""]","[""弱我"",""强我"",""弱她"",""强她""]","","","","","","","","no","","","","","","","","","SRET","EW_formal","","key","f","17.323393939393974","650.9524105141236","361.9047783399663","自己","窝囊","Negative","ability","","","","","","","","","","",""
"912","","f","psychophysics","48","325400","0.0-7.0-3.0-0.34","5","5","6","3","4","5","4","4","4","5","5","0","-1","-1","0","1","1","1","1","4","4","5","4","3","2","2","3","2","3","5","4","6","6","6","6","5","6","6","3","5","5","4","4","3","6","5","5","5","1","4","3","5","2","4","4","5","7","6","5","2","4","3","1","2","3","6","6","2","7","7","6","7","4","4","6","1","6","3","7","799043749912125442","朱","391","Female","[""坏我"",""好我"",""坏她"",""好她""]","[""弱我"",""强我"",""弱她"",""强她""]","","","","","","","","no","","","","","","","","","SRET","EW_formal","","key","f","16.650745614035067","650.9524105141236","361.9047783399663","朋友","贪腐","Negative","morality","","","","","","","","","","",""
"703","","j","psychophysics","49","327105","0.0-7.0-3.0-0.35","5","5","6","3","4","5","4","4","4","5","5","0","-1","-1","0","1","1","1","1","4","4","5","4","3","2","2","3","2","3","5","4","6","6","6","6","5","6","6","3","5","5","4","4","3","6","5","5","5","1","4","3","5","2","4","4","5","7","6","5","2","4","3","1","2","3","6","6","2","7","7","6","7","4","4","6","1","6","3","7","799043749912125442","朱","391","Female","[""坏我"",""好我"",""坏她"",""好她""]","[""弱我"",""强我"",""弱她"",""强她""]","","","","","","","","yes","","","","","","","","","SRET","EW_formal","","key","j","16.650841584158854","650.9524105141236","361.9047783399663","自己","敏捷","Positive","ability","","","","","","","","","","",""
"795","","f","psychophysics","50","328902","0.0-7.0-3.0-0.36","5","5","6","3","4","5","4","4","4","5","5","0","-1","-1","0","1","1","1","1","4","4","5","4","3","2","2","3","2","3","5","4","6","6","6","6","5","6","6","3","5","5","4","4","3","6","5","5","5","1","4","3","5","2","4","4","5","7","6","5","2","4","3","1","2","3","6","6","2","7","7","6","7","4","4","6","1","6","3","7","799043749912125442","朱","391","Female","[""坏我"",""好我"",""坏她"",""好她""]","[""弱我"",""强我"",""弱她"",""强她""]","","","","","","","","no","","","","","","","","","SRET","EW_formal","","key","f","16.650878504673173","650.9524105141236","361.9047783399663","自己","刻薄","Negative","morality","","","","","","","","","","",""
"769","","j","psychophysics","51","330672","0.0-7.0-3.0-0.37","5","5","6","3","4","5","4","4","4","5","5","0","-1","-1","0","1","1","1","1","4","4","5","4","3","2","2","3","2","3","5","4","6","6","6","6","5","6","6","3","5","5","4","4","3","6","5","5","5","1","4","3","5","2","4","4","5","7","6","5","2","4","3","1","2","3","6","6","2","7","7","6","7","4","4","6","1","6","3","7","799043749912125442","朱","391","Female","[""坏我"",""好我"",""坏她"",""好她""]","[""弱我"",""强我"",""弱她"",""强她""]","","","","","","","","yes","","","","","","","","","SRET","EW_formal","","key","j","16.650533333333165","650.9524105141236","361.9047783399663","朋友","廉明","Positive","morality","","","","","","","","","","",""
"621","","f","psychophysics","52","332294","0.0-7.0-3.0-0.38","5","5","6","3","4","5","4","4","4","5","5","0","-1","-1","0","1","1","1","1","4","4","5","4","3","2","2","3","2","3","5","4","6","6","6","6","5","6","6","3","5","5","4","4","3","6","5","5","5","1","4","3","5","2","4","4","5","7","6","5","2","4","3","1","2","3","6","6","2","7","7","6","7","4","4","6","1","6","3","7","799043749912125442","朱","391","Female","[""坏我"",""好我"",""坏她"",""好她""]","[""弱我"",""强我"",""弱她"",""强她""]","","","","","","","","no","","","","","","","","","SRET","EW_formal","","key","f","16.64907216494867","650.9524105141236","361.9047783399663","自己","浅薄","Negative","ability","","","","","","","","","","",""
"801","","f","psychophysics","53","334097","0.0-7.0-3.0-0.39","5","5","6","3","4","5","4","4","4","5","5","0","-1","-1","0","1","1","1","1","4","4","5","4","3","2","2","3","2","3","5","4","6","6","6","6","5","6","6","3","5","5","4","4","3","6","5","5","5","1","4","3","5","2","4","4","5","7","6","5","2","4","3","1","2","3","6","6","2","7","7","6","7","4","4","6","1","6","3","7","799043749912125442","朱","391","Female","[""坏我"",""好我"",""坏她"",""好她""]","[""弱我"",""强我"",""弱她"",""强她""]","","","","","","","","no","","","","","","","","","SRET","EW_formal","","key","f","16.650682242990854","650.9524105141236","361.9047783399663","自己","罪恶","Negative","morality","","","","","","","","","","",""
"653","","f","psychophysics","54","335752","0.0-7.0-3.0-0.40","5","5","6","3","4","5","4","4","4","5","5","0","-1","-1","0","1","1","1","1","4","4","5","4","3","2","2","3","2","3","5","4","6","6","6","6","5","6","6","3","5","5","4","4","3","6","5","5","5","1","4","3","5","2","4","4","5","7","6","5","2","4","3","1","2","3","6","6","2","7","7","6","7","4","4","6","1","6","3","7","799043749912125442","朱","391","Female","[""坏我"",""好我"",""坏她"",""好她""]","[""弱我"",""强我"",""弱她"",""强她""]","","","","","","","","no","","","","","","","","","SRET","EW_formal","","key","f","16.65043877550978","650.9524105141236","361.9047783399663","朋友","蛇蝎","Negative","morality","","","","","","","","","","",""
"561","","j","psychophysics","55","337316","0.0-7.0-3.0-0.41","5","5","6","3","4","5","4","4","4","5","5","0","-1","-1","0","1","1","1","1","4","4","5","4","3","2","2","3","2","3","5","4","6","6","6","6","5","6","6","3","5","5","4","4","3","6","5","5","5","1","4","3","5","2","4","4","5","7","6","5","2","4","3","1","2","3","6","6","2","7","7","6","7","4","4","6","1","6","3","7","799043749912125442","朱","391","Female","[""坏我"",""好我"",""坏她"",""好她""]","[""弱我"",""强我"",""弱她"",""强她""]","","","","","","","","yes","","","","","","","","","SRET","EW_formal","","key","j","16.65060215053757","650.9524105141236","361.9047783399663","朋友","忠良","Positive","morality","","","","","","","","","","",""
"838","","f","psychophysics","56","339156","0.0-7.0-3.0-0.42","5","5","6","3","4","5","4","4","4","5","5","0","-1","-1","0","1","1","1","1","4","4","5","4","3","2","2","3","2","3","5","4","6","6","6","6","5","6","6","3","5","5","4","4","3","6","5","5","5","1","4","3","5","2","4","4","5","7","6","5","2","4","3","1","2","3","6","6","2","7","7","6","7","4","4","6","1","6","3","7","799043749912125442","朱","391","Female","[""坏我"",""好我"",""坏她"",""好她""]","[""弱我"",""强我"",""弱她"",""强她""]","","","","","","","","no","","","","","","","","","SRET","EW_formal","","key","f","16.6501272727275","650.9524105141236","361.9047783399663","自己","扎实","Positive","ability","","","","","","","","","","",""
"837","","f","psychophysics","57","340995","0.0-7.0-3.0-0.43","5","5","6","3","4","5","4","4","4","5","5","0","-1","-1","0","1","1","1","1","4","4","5","4","3","2","2","3","2","3","5","4","6","6","6","6","5","6","6","3","5","5","4","4","3","6","5","5","5","1","4","3","5","2","4","4","5","7","6","5","2","4","3","1","2","3","6","6","2","7","7","6","7","4","4","6","1","6","3","7","799043749912125442","朱","391","Female","[""坏我"",""好我"",""坏她"",""好她""]","[""弱我"",""强我"",""弱她"",""强她""]","","","","","","","","no","","","","","","","","","SRET","EW_formal","","key","f","16.650889908256747","650.9524105141236","361.9047783399663","自己","昏庸","Negative","ability","","","","","","","","","","",""
"857","","f","psychophysics","58","342854","0.0-7.0-3.0-0.44","5","5","6","3","4","5","4","4","4","5","5","0","-1","-1","0","1","1","1","1","4","4","5","4","3","2","2","3","2","3","5","4","6","6","6","6","5","6","6","3","5","5","4","4","3","6","5","5","5","1","4","3","5","2","4","4","5","7","6","5","2","4","3","1","2","3","6","6","2","7","7","6","7","4","4","6","1","6","3","7","799043749912125442","朱","391","Female","[""坏我"",""好我"",""坏她"",""好她""]","[""弱我"",""强我"",""弱她"",""强她""]","","","","","","","","no","","","","","","","","","SRET","EW_formal","","key","f","17.943563106795885","650.9524105141236","361.9047783399663","自己","奸险","Negative","morality","","","","","","","","","","",""
"709","","f","psychophysics","59","344565","0.0-7.0-3.0-0.45","5","5","6","3","4","5","4","4","4","5","5","0","-1","-1","0","1","1","1","1","4","4","5","4","3","2","2","3","2","3","5","4","6","6","6","6","5","6","6","3","5","5","4","4","3","6","5","5","5","1","4","3","5","2","4","4","5","7","6","5","2","4","3","1","2","3","6","6","2","7","7","6","7","4","4","6","1","6","3","7","799043749912125442","朱","391","Female","[""坏我"",""好我"",""坏她"",""好她""]","[""弱我"",""强我"",""弱她"",""强她""]","","","","","","","","no","","","","","","","","","SRET","EW_formal","","key","f","16.650568627451054","650.9524105141236","361.9047783399663","朋友","龌龊","Negative","morality","","","","","","","","","","",""
"1214","","j","psychophysics","60","346781","0.0-7.0-3.0-0.46","5","5","6","3","4","5","4","4","4","5","5","0","-1","-1","0","1","1","1","1","4","4","5","4","3","2","2","3","2","3","5","4","6","6","6","6","5","6","6","3","5","5","4","4","3","6","5","5","5","1","4","3","5","2","4","4","5","7","6","5","2","4","3","1","2","3","6","6","2","7","7","6","7","4","4","6","1","6","3","7","799043749912125442","朱","391","Female","[""坏我"",""好我"",""坏她"",""好她""]","[""弱我"",""强我"",""弱她"",""强她""]","","","","","","","","yes","","","","","","","","","SRET","EW_formal","","key","j","16.650363636363622","650.9524105141236","361.9047783399663","朋友","干练","Positive","ability","","","","","","","","","","",""
"773","","f","psychophysics","61","348556","0.0-7.0-3.0-0.47","5","5","6","3","4","5","4","4","4","5","5","0","-1","-1","0","1","1","1","1","4","4","5","4","3","2","2","3","2","3","5","4","6","6","6","6","5","6","6","3","5","5","4","4","3","6","5","5","5","1","4","3","5","2","4","4","5","7","6","5","2","4","3","1","2","3","6","6","2","7","7","6","7","4","4","6","1","6","3","7","799043749912125442","朱","391","Female","[""坏我"",""好我"",""坏她"",""好她""]","[""弱我"",""强我"",""弱她"",""强她""]","","","","","","","","no","","","","","","","","","SRET","EW_formal","","key","f","17.310138613861607","650.9524105141236","361.9047783399663","朋友","卑鄙","Negative","morality","","","","","","","","","","",""
"727","","f","psychophysics","62","350286","0.0-7.0-3.0-0.48","5","5","6","3","4","5","4","4","4","5","5","0","-1","-1","0","1","1","1","1","4","4","5","4","3","2","2","3","2","3","5","4","6","6","6","6","5","6","6","3","5","5","4","4","3","6","5","5","5","1","4","3","5","2","4","4","5","7","6","5","2","4","3","1","2","3","6","6","2","7","7","6","7","4","4","6","1","6","3","7","799043749912125442","朱","391","Female","[""坏我"",""好我"",""坏她"",""好她""]","[""弱我"",""强我"",""弱她"",""强她""]","","","","","","","","no","","","","","","","","","SRET","EW_formal","","key","f","16.650359223300626","650.9524105141236","361.9047783399663","朋友","迟钝","Negative","ability","","","","","","","","","","",""
"675","","j","psychophysics","63","351962","0.0-7.0-3.0-0.49","5","5","6","3","4","5","4","4","4","5","5","0","-1","-1","0","1","1","1","1","4","4","5","4","3","2","2","3","2","3","5","4","6","6","6","6","5","6","6","3","5","5","4","4","3","6","5","5","5","1","4","3","5","2","4","4","5","7","6","5","2","4","3","1","2","3","6","6","2","7","7","6","7","4","4","6","1","6","3","7","799043749912125442","朱","391","Female","[""坏我"",""好我"",""坏她"",""好她""]","[""弱我"",""强我"",""弱她"",""强她""]","","","","","","","","yes","","","","","","","","","SRET","EW_formal","","key","j","16.650380000000006","650.9524105141236","361.9047783399663","朋友","善良","Positive","morality","","","","","","","","","","",""
"738","","f","psychophysics","64","353702","0.0-7.0-3.0-0.50","5","5","6","3","4","5","4","4","4","5","5","0","-1","-1","0","1","1","1","1","4","4","5","4","3","2","2","3","2","3","5","4","6","6","6","6","5","6","6","3","5","5","4","4","3","6","5","5","5","1","4","3","5","2","4","4","5","7","6","5","2","4","3","1","2","3","6","6","2","7","7","6","7","4","4","6","1","6","3","7","799043749912125442","朱","391","Female","[""坏我"",""好我"",""坏她"",""好她""]","[""弱我"",""强我"",""弱她"",""强她""]","","","","","","","","no","","","","","","","","","SRET","EW_formal","","key","f","16.650601941747457","650.9524105141236","361.9047783399663","朋友","无知","Negative","ability","","","","","","","","","","",""
"670","","f","psychophysics","65","355375","0.0-7.0-3.0-0.51","5","5","6","3","4","5","4","4","4","5","5","0","-1","-1","0","1","1","1","1","4","4","5","4","3","2","2","3","2","3","5","4","6","6","6","6","5","6","6","3","5","5","4","4","3","6","5","5","5","1","4","3","5","2","4","4","5","7","6","5","2","4","3","1","2","3","6","6","2","7","7","6","7","4","4","6","1","6","3","7","799043749912125442","朱","391","Female","[""坏我"",""好我"",""坏她"",""好她""]","[""弱我"",""强我"",""弱她"",""强她""]","","","","","","","","no","","","","","","","","","SRET","EW_formal","","key","f","16.650290000000386","650.9524105141236","361.9047783399663","自己","腐败","Negative","morality","","","","","","","","","","",""
"742","","j","psychophysics","66","357119","0.0-7.0-3.0-0.52","5","5","6","3","4","5","4","4","4","5","5","0","-1","-1","0","1","1","1","1","4","4","5","4","3","2","2","3","2","3","5","4","6","6","6","6","5","6","6","3","5","5","4","4","3","6","5","5","5","1","4","3","5","2","4","4","5","7","6","5","2","4","3","1","2","3","6","6","2","7","7","6","7","4","4","6","1","6","3","7","799043749912125442","朱","391","Female","[""坏我"",""好我"",""坏她"",""好她""]","[""弱我"",""强我"",""弱她"",""强她""]","","","","","","","","yes","","","","","","","","","SRET","EW_formal","","key","j","17.316739999999992","650.9524105141236","361.9047783399663","自己","学霸","Positive","ability","","","","","","","","","","",""
"676","","j","psychophysics","67","358796","0.0-7.0-3.0-0.53","5","5","6","3","4","5","4","4","4","5","5","0","-1","-1","0","1","1","1","1","4","4","5","4","3","2","2","3","2","3","5","4","6","6","6","6","5","6","6","3","5","5","4","4","3","6","5","5","5","1","4","3","5","2","4","4","5","7","6","5","2","4","3","1","2","3","6","6","2","7","7","6","7","4","4","6","1","6","3","7","799043749912125442","朱","391","Female","[""坏我"",""好我"",""坏她"",""好她""]","[""弱我"",""强我"",""弱她"",""强她""]","","","","","","","","yes","","","","","","","","","SRET","EW_formal","","key","j","16.65024242424253","650.9524105141236","361.9047783399663","自己","热心","Positive","morality","","","","","","","","","","",""
"1066","","f","psychophysics","68","360865","0.0-7.0-3.0-0.54","5","5","6","3","4","5","4","4","4","5","5","0","-1","-1","0","1","1","1","1","4","4","5","4","3","2","2","3","2","3","5","4","6","6","6","6","5","6","6","3","5","5","4","4","3","6","5","5","5","1","4","3","5","2","4","4","5","7","6","5","2","4","3","1","2","3","6","6","2","7","7","6","7","4","4","6","1","6","3","7","799043749912125442","朱","391","Female","[""坏我"",""好我"",""坏她"",""好她""]","[""弱我"",""强我"",""弱她"",""强她""]","","","","","","","","no","","","","","","","","","SRET","EW_formal","","key","f","16.65037903225851","650.9524105141236","361.9047783399663","朋友","逞能","Negative","ability","","","","","","","","","","",""
"736","","f","psychophysics","69","362602","0.0-7.0-3.0-0.55","5","5","6","3","4","5","4","4","4","5","5","0","-1","-1","0","1","1","1","1","4","4","5","4","3","2","2","3","2","3","5","4","6","6","6","6","5","6","6","3","5","5","4","4","3","6","5","5","5","1","4","3","5","2","4","4","5","7","6","5","2","4","3","1","2","3","6","6","2","7","7","6","7","4","4","6","1","6","3","7","799043749912125442","朱","391","Female","[""坏我"",""好我"",""坏她"",""好她""]","[""弱我"",""强我"",""弱她"",""强她""]","","","","","","","","no","","","","","","","","","SRET","EW_formal","","key","f","16.65102912621342","650.9524105141236","361.9047783399663","朋友","拖拉","Negative","ability","","","","","","","","","","",""
"864","","j","psychophysics","70","364469","0.0-7.0-3.0-0.56","5","5","6","3","4","5","4","4","4","5","5","0","-1","-1","0","1","1","1","1","4","4","5","4","3","2","2","3","2","3","5","4","6","6","6","6","5","6","6","3","5","5","4","4","3","6","5","5","5","1","4","3","5","2","4","4","5","7","6","5","2","4","3","1","2","3","6","6","2","7","7","6","7","4","4","6","1","6","3","7","799043749912125442","朱","391","Female","[""坏我"",""好我"",""坏她"",""好她""]","[""弱我"",""强我"",""弱她"",""强她""]","","","","","","","","yes","","","","","","","","","SRET","EW_formal","","key","j","19.05353608247452","650.9524105141236","361.9047783399663","朋友","礼貌","Positive","morality","","","","","","","","","","",""
"723","","j","psychophysics","71","366194","0.0-7.0-3.0-0.57","5","5","6","3","4","5","4","4","4","5","5","0","-1","-1","0","1","1","1","1","4","4","5","4","3","2","2","3","2","3","5","4","6","6","6","6","5","6","6","3","5","5","4","4","3","6","5","5","5","1","4","3","5","2","4","4","5","7","6","5","2","4","3","1","2","3","6","6","2","7","7","6","7","4","4","6","1","6","3","7","799043749912125442","朱","391","Female","[""坏我"",""好我"",""坏她"",""好她""]","[""弱我"",""强我"",""弱她"",""强她""]","","","","","","","","yes","","","","","","","","","SRET","EW_formal","","key","j","16.6504466019416","650.9524105141236","361.9047783399663","朋友","独立","Positive","ability","","","","","","","","","","",""
"682","","j","psychophysics","72","367878","0.0-7.0-3.0-0.58","5","5","6","3","4","5","4","4","4","5","5","0","-1","-1","0","1","1","1","1","4","4","5","4","3","2","2","3","2","3","5","4","6","6","6","6","5","6","6","3","5","5","4","4","3","6","5","5","5","1","4","3","5","2","4","4","5","7","6","5","2","4","3","1","2","3","6","6","2","7","7","6","7","4","4","6","1","6","3","7","799043749912125442","朱","391","Female","[""坏我"",""好我"",""坏她"",""好她""]","[""弱我"",""强我"",""弱她"",""强她""]","","","","","","","","yes","","","","","","","","","SRET","EW_formal","","key","j","17.34410416666651","650.9524105141236","361.9047783399663","朋友","智慧","Positive","ability","","","","","","","","","","",""
"650","","f","psychophysics","73","369531","0.0-7.0-3.0-0.59","5","5","6","3","4","5","4","4","4","5","5","0","-1","-1","0","1","1","1","1","4","4","5","4","3","2","2","3","2","3","5","4","6","6","6","6","5","6","6","3","5","5","4","4","3","6","5","5","5","1","4","3","5","2","4","4","5","7","6","5","2","4","3","1","2","3","6","6","2","7","7","6","7","4","4","6","1","6","3","7","799043749912125442","朱","391","Female","[""坏我"",""好我"",""坏她"",""好她""]","[""弱我"",""强我"",""弱她"",""强她""]","","","","","","","","no","","","","","","","","","SRET","EW_formal","","key","f","16.650724489795998","650.9524105141236","361.9047783399663","自己","短视","Negative","ability","","","","","","","","","","",""
"803","","f","psychophysics","74","371337","0.0-7.0-3.0-0.60","5","5","6","3","4","5","4","4","4","5","5","0","-1","-1","0","1","1","1","1","4","4","5","4","3","2","2","3","2","3","5","4","6","6","6","6","5","6","6","3","5","5","4","4","3","6","5","5","5","1","4","3","5","2","4","4","5","7","6","5","2","4","3","1","2","3","6","6","2","7","7","6","7","4","4","6","1","6","3","7","799043749912125442","朱","391","Female","[""坏我"",""好我"",""坏她"",""好她""]","[""弱我"",""强我"",""弱她"",""强她""]","","","","","","","","no","","","","","","","","","SRET","EW_formal","","key","f","16.650425925925784","650.9524105141236","361.9047783399663","自己","无耻","Negative","morality","","","","","","","","","","",""
"1140","","j","psychophysics","75","373478","0.0-7.0-3.0-0.61","5","5","6","3","4","5","4","4","4","5","5","0","-1","-1","0","1","1","1","1","4","4","5","4","3","2","2","3","2","3","5","4","6","6","6","6","5","6","6","3","5","5","4","4","3","6","5","5","5","1","4","3","5","2","4","4","5","7","6","5","2","4","3","1","2","3","6","6","2","7","7","6","7","4","4","6","1","6","3","7","799043749912125442","朱","391","Female","[""坏我"",""好我"",""坏她"",""好她""]","[""弱我"",""强我"",""弱她"",""强她""]","","","","","","","","yes","","","","","","","","","SRET","EW_formal","","key","j","16.650566929133653","650.9524105141236","361.9047783399663","朋友","顶事","Positive","ability","","","","","","","","","","",""
"649","","j","psychophysics","76","375129","0.0-7.0-3.0-0.62","5","5","6","3","4","5","4","4","4","5","5","0","-1","-1","0","1","1","1","1","4","4","5","4","3","2","2","3","2","3","5","4","6","6","6","6","5","6","6","3","5","5","4","4","3","6","5","5","5","1","4","3","5","2","4","4","5","7","6","5","2","4","3","1","2","3","6","6","2","7","7","6","7","4","4","6","1","6","3","7","799043749912125442","朱","391","Female","[""坏我"",""好我"",""坏她"",""好她""]","[""弱我"",""强我"",""弱她"",""强她""]","","","","","","","","yes","","","","","","","","","SRET","EW_formal","","key","j","16.650591836734414","650.9524105141236","361.9047783399663","自己","守信","Positive","morality","","","","","","","","","","",""
"979","","j","psychophysics","77","377109","0.0-7.0-3.0-0.63","5","5","6","3","4","5","4","4","4","5","5","0","-1","-1","0","1","1","1","1","4","4","5","4","3","2","2","3","2","3","5","4","6","6","6","6","5","6","6","3","5","5","4","4","3","6","5","5","5","1","4","3","5","2","4","4","5","7","6","5","2","4","3","1","2","3","6","6","2","7","7","6","7","4","4","6","1","6","3","7","799043749912125442","朱","391","Female","[""坏我"",""好我"",""坏她"",""好她""]","[""弱我"",""强我"",""弱她"",""强她""]","","","","","","","","yes","","","","","","","","","SRET","EW_formal","","key","j","17.23479824561397","650.9524105141236","361.9047783399663","朋友","毅力","Positive","ability","","","","","","","","","","",""
"727","","f","psychophysics","78","378838","0.0-7.0-3.0-0.64","5","5","6","3","4","5","4","4","4","5","5","0","-1","-1","0","1","1","1","1","4","4","5","4","3","2","2","3","2","3","5","4","6","6","6","6","5","6","6","3","5","5","4","4","3","6","5","5","5","1","4","3","5","2","4","4","5","7","6","5","2","4","3","1","2","3","6","6","2","7","7","6","7","4","4","6","1","6","3","7","799043749912125442","朱","391","Female","[""坏我"",""好我"",""坏她"",""好她""]","[""弱我"",""强我"",""弱她"",""强她""]","","","","","","","","no","","","","","","","","","SRET","EW_formal","","key","f","16.650300970874067","650.9524105141236","361.9047783399663","朋友","无赖","Negative","morality","","","","","","","","","","",""
"821","","f","psychophysics","79","380662","0.0-7.0-3.0-0.65","5","5","6","3","4","5","4","4","4","5","5","0","-1","-1","0","1","1","1","1","4","4","5","4","3","2","2","3","2","3","5","4","6","6","6","6","5","6","6","3","5","5","4","4","3","6","5","5","5","1","4","3","5","2","4","4","5","7","6","5","2","4","3","1","2","3","6","6","2","7","7","6","7","4","4","6","1","6","3","7","799043749912125442","朱","391","Female","[""坏我"",""好我"",""坏她"",""好她""]","[""弱我"",""强我"",""弱她"",""强她""]","","","","","","","","no","","","","","","","","","SRET","EW_formal","","key","f","16.96179439252347","650.9524105141236","361.9047783399663","朋友","不孝","Negative","morality","","","","","","","","","","",""
"700","","f","psychophysics","80","382364","0.0-7.0-3.0-0.66","5","5","6","3","4","5","4","4","4","5","5","0","-1","-1","0","1","1","1","1","4","4","5","4","3","2","2","3","2","3","5","4","6","6","6","6","5","6","6","3","5","5","4","4","3","6","5","5","5","1","4","3","5","2","4","4","5","7","6","5","2","4","3","1","2","3","6","6","2","7","7","6","7","4","4","6","1","6","3","7","799043749912125442","朱","391","Female","[""坏我"",""好我"",""坏她"",""好她""]","[""弱我"",""强我"",""弱她"",""强她""]","","","","","","","","no","","","","","","","","","SRET","EW_formal","","key","f","16.6505544554456","650.9524105141236","361.9047783399663","朋友","才尽","Negative","ability","","","","","","","","","","",""
"687","","f","psychophysics","81","384053","0.0-7.0-3.0-0.67","5","5","6","3","4","5","4","4","4","5","5","0","-1","-1","0","1","1","1","1","4","4","5","4","3","2","2","3","2","3","5","4","6","6","6","6","5","6","6","3","5","5","4","4","3","6","5","5","5","1","4","3","5","2","4","4","5","7","6","5","2","4","3","1","2","3","6","6","2","7","7","6","7","4","4","6","1","6","3","7","799043749912125442","朱","391","Female","[""坏我"",""好我"",""坏她"",""好她""]","[""弱我"",""强我"",""弱她"",""强她""]","","","","","","","","no","","","","","","","","","SRET","EW_formal","","key","f","16.650590000000083","650.9524105141236","361.9047783399663","朋友","无为","Negative","ability","","","","","","","","","","",""
"607","","j","psychophysics","82","385663","0.0-7.0-3.0-0.68","5","5","6","3","4","5","4","4","4","5","5","0","-1","-1","0","1","1","1","1","4","4","5","4","3","2","2","3","2","3","5","4","6","6","6","6","5","6","6","3","5","5","4","4","3","6","5","5","5","1","4","3","5","2","4","4","5","7","6","5","2","4","3","1","2","3","6","6","2","7","7","6","7","4","4","6","1","6","3","7","799043749912125442","朱","391","Female","[""坏我"",""好我"",""坏她"",""好她""]","[""弱我"",""强我"",""弱她"",""强她""]","","","","","","","","yes","","","","","","","","","SRET","EW_formal","","key","j","16.650479166666628","650.9524105141236","361.9047783399663","朋友","宽容","Positive","morality","","","","","","","","","","",""
"629","","j","psychophysics","83","387293","0.0-7.0-3.0-0.69","5","5","6","3","4","5","4","4","4","5","5","0","-1","-1","0","1","1","1","1","4","4","5","4","3","2","2","3","2","3","5","4","6","6","6","6","5","6","6","3","5","5","4","4","3","6","5","5","5","1","4","3","5","2","4","4","5","7","6","5","2","4","3","1","2","3","6","6","2","7","7","6","7","4","4","6","1","6","3","7","799043749912125442","朱","391","Female","[""坏我"",""好我"",""坏她"",""好她""]","[""弱我"",""强我"",""弱她"",""强她""]","","","","","","","","yes","","","","","","","","","SRET","EW_formal","","key","j","16.650371134020723","650.9524105141236","361.9047783399663","自己","敬业","Positive","morality","","","","","","","","","","",""
"690","","f","psychophysics","84","388986","0.0-7.0-3.0-0.70","5","5","6","3","4","5","4","4","4","5","5","0","-1","-1","0","1","1","1","1","4","4","5","4","3","2","2","3","2","3","5","4","6","6","6","6","5","6","6","3","5","5","4","4","3","6","5","5","5","1","4","3","5","2","4","4","5","7","6","5","2","4","3","1","2","3","6","6","2","7","7","6","7","4","4","6","1","6","3","7","799043749912125442","朱","391","Female","[""坏我"",""好我"",""坏她"",""好她""]","[""弱我"",""强我"",""弱她"",""强她""]","","","","","","","","no","","","","","","","","","SRET","EW_formal","","key","f","17.33741237113394","650.9524105141236","361.9047783399663","自己","畏难","Negative","ability","","","","","","","","","","",""
"668","","f","psychophysics","85","390657","0.0-7.0-3.0-0.71","5","5","6","3","4","5","4","4","4","5","5","0","-1","-1","0","1","1","1","1","4","4","5","4","3","2","2","3","2","3","5","4","6","6","6","6","5","6","6","3","5","5","4","4","3","6","5","5","5","1","4","3","5","2","4","4","5","7","6","5","2","4","3","1","2","3","6","6","2","7","7","6","7","4","4","6","1","6","3","7","799043749912125442","朱","391","Female","[""坏我"",""好我"",""坏她"",""好她""]","[""弱我"",""强我"",""弱她"",""强她""]","","","","","","","","no","","","","","","","","","SRET","EW_formal","","key","f","16.650707070706908","650.9524105141236","361.9047783399663","朋友","贪污","Negative","morality","","","","","","","","","","",""
"589","","f","psychophysics","86","392247","0.0-7.0-3.0-0.72","5","5","6","3","4","5","4","4","4","5","5","0","-1","-1","0","1","1","1","1","4","4","5","4","3","2","2","3","2","3","5","4","6","6","6","6","5","6","6","3","5","5","4","4","3","6","5","5","5","1","4","3","5","2","4","4","5","7","6","5","2","4","3","1","2","3","6","6","2","7","7","6","7","4","4","6","1","6","3","7","799043749912125442","朱","391","Female","[""坏我"",""好我"",""坏她"",""好她""]","[""弱我"",""强我"",""弱她"",""强她""]","","","","","","","","no","","","","","","","","","SRET","EW_formal","","key","f","16.650340425532356","650.9524105141236","361.9047783399663","自己","阴毒","Negative","morality","","","","","","","","","","",""
"1019","","j","psychophysics","87","394266","0.0-7.0-3.0-0.73","5","5","6","3","4","5","4","4","4","5","5","0","-1","-1","0","1","1","1","1","4","4","5","4","3","2","2","3","2","3","5","4","6","6","6","6","5","6","6","3","5","5","4","4","3","6","5","5","5","1","4","3","5","2","4","4","5","7","6","5","2","4","3","1","2","3","6","6","2","7","7","6","7","4","4","6","1","6","3","7","799043749912125442","朱","391","Female","[""坏我"",""好我"",""坏她"",""好她""]","[""弱我"",""强我"",""弱她"",""强她""]","","","","","","","","yes","","","","","","","","","SRET","EW_formal","","key","j","17.2199658119656","650.9524105141236","361.9047783399663","自己","娴熟","Positive","ability","","","","","","","","","","",""
"780","","f","psychophysics","88","396048","0.0-7.0-3.0-0.74","5","5","6","3","4","5","4","4","4","5","5","0","-1","-1","0","1","1","1","1","4","4","5","4","3","2","2","3","2","3","5","4","6","6","6","6","5","6","6","3","5","5","4","4","3","6","5","5","5","1","4","3","5","2","4","4","5","7","6","5","2","4","3","1","2","3","6","6","2","7","7","6","7","4","4","6","1","6","3","7","799043749912125442","朱","391","Female","[""坏我"",""好我"",""坏她"",""好她""]","[""弱我"",""强我"",""弱她"",""强她""]","","","","","","","","no","","","","","","","","","SRET","EW_formal","","key","f","16.65093396226425","650.9524105141236","361.9047783399663","自己","屈才","Negative","ability","","","","","","","","","","",""
"676","","f","psychophysics","89","397727","0.0-7.0-3.0-0.75","5","5","6","3","4","5","4","4","4","5","5","0","-1","-1","0","1","1","1","1","4","4","5","4","3","2","2","3","2","3","5","4","6","6","6","6","5","6","6","3","5","5","4","4","3","6","5","5","5","1","4","3","5","2","4","4","5","7","6","5","2","4","3","1","2","3","6","6","2","7","7","6","7","4","4","6","1","6","3","7","799043749912125442","朱","391","Female","[""坏我"",""好我"",""坏她"",""好她""]","[""弱我"",""强我"",""弱她"",""强她""]","","","","","","","","no","","","","","","","","","SRET","EW_formal","","key","f","16.64952525252481","650.9524105141236","361.9047783399663","自己","弱智","Negative","ability","","","","","","","","","","",""
"851","","j","psychophysics","90","399580","0.0-7.0-3.0-0.76","5","5","6","3","4","5","4","4","4","5","5","0","-1","-1","0","1","1","1","1","4","4","5","4","3","2","2","3","2","3","5","4","6","6","6","6","5","6","6","3","5","5","4","4","3","6","5","5","5","1","4","3","5","2","4","4","5","7","6","5","2","4","3","1","2","3","6","6","2","7","7","6","7","4","4","6","1","6","3","7","799043749912125442","朱","391","Female","[""坏我"",""好我"",""坏她"",""好她""]","[""弱我"",""强我"",""弱她"",""强她""]","","","","","","","","yes","","","","","","","","","SRET","EW_formal","","key","j","16.65046846846838","650.9524105141236","361.9047783399663","自己","肯干","Positive","ability","","","","","","","","","","",""
"729","","j","psychophysics","91","401312","0.0-7.0-3.0-0.77","5","5","6","3","4","5","4","4","4","5","5","0","-1","-1","0","1","1","1","1","4","4","5","4","3","2","2","3","2","3","5","4","6","6","6","6","5","6","6","3","5","5","4","4","3","6","5","5","5","1","4","3","5","2","4","4","5","7","6","5","2","4","3","1","2","3","6","6","2","7","7","6","7","4","4","6","1","6","3","7","799043749912125442","朱","391","Female","[""坏我"",""好我"",""坏她"",""好她""]","[""弱我"",""强我"",""弱她"",""强她""]","","","","","","","","yes","","","","","","","","","SRET","EW_formal","","key","j","16.650737864077794","650.9524105141236","361.9047783399663","朋友","思辨","Positive","ability","","","","","","","","","","",""
"745","","f","psychophysics","92","403058","0.0-7.0-3.0-0.78","5","5","6","3","4","5","4","4","4","5","5","0","-1","-1","0","1","1","1","1","4","4","5","4","3","2","2","3","2","3","5","4","6","6","6","6","5","6","6","3","5","5","4","4","3","6","5","5","5","1","4","3","5","2","4","4","5","7","6","5","2","4","3","1","2","3","6","6","2","7","7","6","7","4","4","6","1","6","3","7","799043749912125442","朱","391","Female","[""坏我"",""好我"",""坏她"",""好她""]","[""弱我"",""强我"",""弱她"",""强她""]","","","","","","","","no","","","","","","","","","SRET","EW_formal","","key","f","16.650288461538505","650.9524105141236","361.9047783399663","自己","果断","Positive","ability","","","","","","","","","","",""
"979","","f","psychophysics","93","405040","0.0-7.0-3.0-0.79","5","5","6","3","4","5","4","4","4","5","5","0","-1","-1","0","1","1","1","1","4","4","5","4","3","2","2","3","2","3","5","4","6","6","6","6","5","6","6","3","5","5","4","4","3","6","5","5","5","1","4","3","5","2","4","4","5","7","6","5","2","4","3","1","2","3","6","6","2","7","7","6","7","4","4","6","1","6","3","7","799043749912125442","朱","391","Female","[""坏我"",""好我"",""坏她"",""好她""]","[""弱我"",""强我"",""弱她"",""强她""]","","","","","","","","no","","","","","","","","","SRET","EW_formal","","key","f","16.65100847457642","650.9524105141236","361.9047783399663","自己","虚伪","Negative","morality","","","","","","","","","","",""
"834","","j","psychophysics","94","406876","0.0-7.0-3.0-0.80","5","5","6","3","4","5","4","4","4","5","5","0","-1","-1","0","1","1","1","1","4","4","5","4","3","2","2","3","2","3","5","4","6","6","6","6","5","6","6","3","5","5","4","4","3","6","5","5","5","1","4","3","5","2","4","4","5","7","6","5","2","4","3","1","2","3","6","6","2","7","7","6","7","4","4","6","1","6","3","7","799043749912125442","朱","391","Female","[""坏我"",""好我"",""坏她"",""好她""]","[""弱我"",""强我"",""弱她"",""强她""]","","","","","","","","yes","","","","","","","","","SRET","EW_formal","","key","j","16.650532110091703","650.9524105141236","361.9047783399663","自己","慈悲","Positive","morality","","","","","","","","","","",""
"626","","j","psychophysics","95","408503","0.0-7.0-3.0-0.81","5","5","6","3","4","5","4","4","4","5","5","0","-1","-1","0","1","1","1","1","4","4","5","4","3","2","2","3","2","3","5","4","6","6","6","6","5","6","6","3","5","5","4","4","3","6","5","5","5","1","4","3","5","2","4","4","5","7","6","5","2","4","3","1","2","3","6","6","2","7","7","6","7","4","4","6","1","6","3","7","799043749912125442","朱","391","Female","[""坏我"",""好我"",""坏她"",""好她""]","[""弱我"",""强我"",""弱她"",""强她""]","","","","","","","","yes","","","","","","","","","SRET","EW_formal","","key","j","16.651123711340052","650.9524105141236","361.9047783399663","自己","勤恳","Positive","morality","","","","","","","","","","",""
"582","","j","psychophysics","96","410088","0.0-7.0-3.0-0.82","5","5","6","3","4","5","4","4","4","5","5","0","-1","-1","0","1","1","1","1","4","4","5","4","3","2","2","3","2","3","5","4","6","6","6","6","5","6","6","3","5","5","4","4","3","6","5","5","5","1","4","3","5","2","4","4","5","7","6","5","2","4","3","1","2","3","6","6","2","7","7","6","7","4","4","6","1","6","3","7","799043749912125442","朱","391","Female","[""坏我"",""好我"",""坏她"",""好她""]","[""弱我"",""强我"",""弱她"",""强她""]","","","","","","","","yes","","","","","","","","","SRET","EW_formal","","key","j","16.65044680851056","650.9524105141236","361.9047783399663","自己","义气","Positive","morality","","","","","","","","","","",""
"597","","j","psychophysics","97","411687","0.0-7.0-3.0-0.83","5","5","6","3","4","5","4","4","4","5","5","0","-1","-1","0","1","1","1","1","4","4","5","4","3","2","2","3","2","3","5","4","6","6","6","6","5","6","6","3","5","5","4","4","3","6","5","5","5","1","4","3","5","2","4","4","5","7","6","5","2","4","3","1","2","3","6","6","2","7","7","6","7","4","4","6","1","6","3","7","799043749912125442","朱","391","Female","[""坏我"",""好我"",""坏她"",""好她""]","[""弱我"",""强我"",""弱她"",""强她""]","","","","","","","","yes","","","","","","","","","SRET","EW_formal","","key","j","16.650294736842014","650.9524105141236","361.9047783399663","自己","全才","Positive","ability","","","","","","","","","","",""
"901","","j","psychophysics","98","413590","0.0-7.0-3.0-0.84","5","5","6","3","4","5","4","4","4","5","5","0","-1","-1","0","1","1","1","1","4","4","5","4","3","2","2","3","2","3","5","4","6","6","6","6","5","6","6","3","5","5","4","4","3","6","5","5","5","1","4","3","5","2","4","4","5","7","6","5","2","4","3","1","2","3","6","6","2","7","7","6","7","4","4","6","1","6","3","7","799043749912125442","朱","391","Female","[""坏我"",""好我"",""坏她"",""好她""]","[""弱我"",""强我"",""弱她"",""强她""]","","","","","","","","yes","","","","","","","","","SRET","EW_formal","","key","j","16.650548672566263","650.9524105141236","361.9047783399663","朋友","素养","Positive","morality","","","","","","","","","","",""
"670","","j","psychophysics","99","415263","0.0-7.0-3.0-0.85","5","5","6","3","4","5","4","4","4","5","5","0","-1","-1","0","1","1","1","1","4","4","5","4","3","2","2","3","2","3","5","4","6","6","6","6","5","6","6","3","5","5","4","4","3","6","5","5","5","1","4","3","5","2","4","4","5","7","6","5","2","4","3","1","2","3","6","6","2","7","7","6","7","4","4","6","1","6","3","7","799043749912125442","朱","391","Female","[""坏我"",""好我"",""坏她"",""好她""]","[""弱我"",""强我"",""弱她"",""强她""]","","","","","","","","yes","","","","","","","","","SRET","EW_formal","","key","j","16.650470000000205","650.9524105141236","361.9047783399663","自己","主见","Positive","ability","","","","","","","","","","",""
"629","","f","psychophysics","100","416894","0.0-7.0-3.0-0.86","5","5","6","3","4","5","4","4","4","5","5","0","-1","-1","0","1","1","1","1","4","4","5","4","3","2","2","3","2","3","5","4","6","6","6","6","5","6","6","3","5","5","4","4","3","6","5","5","5","1","4","3","5","2","4","4","5","7","6","5","2","4","3","1","2","3","6","6","2","7","7","6","7","4","4","6","1","6","3","7","799043749912125442","朱","391","Female","[""坏我"",""好我"",""坏她"",""好她""]","[""弱我"",""强我"",""弱她"",""强她""]","","","","","","","","no","","","","","","","","","SRET","EW_formal","","key","f","16.650515463917884","650.9524105141236","361.9047783399663","朋友","低俗","Negative","morality","","","","","","","","","","",""
"1166","","f","psychophysics","101","419062","0.0-7.0-3.0-0.87","5","5","6","3","4","5","4","4","4","5","5","0","-1","-1","0","1","1","1","1","4","4","5","4","3","2","2","3","2","3","5","4","6","6","6","6","5","6","6","3","5","5","4","4","3","6","5","5","5","1","4","3","5","2","4","4","5","7","6","5","2","4","3","1","2","3","6","6","2","7","7","6","7","4","4","6","1","6","3","7","799043749912125442","朱","391","Female","[""坏我"",""好我"",""坏她"",""好她""]","[""弱我"",""强我"",""弱她"",""强她""]","","","","","","","","no","","","","","","","","","SRET","EW_formal","","key","f","16.65049612403093","650.9524105141236","361.9047783399663","自己","缓慢","Negative","ability","","","","","","","","","","",""
"17489","
    <p><div style='color:white;font-size:35px; line-height:20px;'>计算任务</div></p><br>
    <p><div style='color:red;font-size:25px; line-height:20px;'>接下来，您将看到一些四则运算题，<b>请从键盘选择 0-9 进行反应。</b></div></p>
    <p><div style='color:red;font-size:25px; line-height:20px;'>请尽可能快地进行计算，计算的速度和正确率将影响报酬的发放。</div></p>
    <p><div class='footer' style='color:white;font-size:25px; line-height:20px;'>如果对本实验还有不清楚之处，请立即向实验员咨询。</p><p style='color:white;font-size:25px; line-height:20px;'>如果您明白了规则：</p><p style='color:white;font-size:22px; line-height:20px;'>请按 继续 进入练习</p>
    </div>
    ","0","html-button-response","102","436553","0.0-7.0-4.0","5","5","6","3","4","5","4","4","4","5","5","0","-1","-1","0","1","1","1","1","4","4","5","4","3","2","2","3","2","3","5","4","6","6","6","6","5","6","6","3","5","5","4","4","3","6","5","5","5","1","4","3","5","2","4","4","5","7","6","5","2","4","3","1","2","3","6","6","2","7","7","6","7","4","4","6","1","6","3","7","799043749912125442","朱","391","Female","[""坏我"",""好我"",""坏她"",""好她""]","[""弱我"",""强我"",""弱她"",""强她""]","","","","","","","","","","","","","","","","","SRET_math","math_instructions","Fri Jan 19 2024 12:33:05 GMT+0800 (中国标准时间)","","","","","","","","","","","","","","","","","","","",""
"2372","","5","psychophysics","103","438930","0.0-7.0-5.0-0.0","5","5","6","3","4","5","4","4","4","5","5","0","-1","-1","0","1","1","1","1","4","4","5","4","3","2","2","3","2","3","5","4","6","6","6","6","5","6","6","3","5","5","4","4","3","6","5","5","5","1","4","3","5","2","4","4","5","7","6","5","2","4","3","1","2","3","6","6","2","7","7","6","7","4","4","6","1","6","3","7","799043749912125442","朱","391","Female","[""坏我"",""好我"",""坏她"",""好她""]","[""弱我"",""强我"",""弱她"",""强她""]","","","","","","","","5","","","","","","","","","SRET","SRET_math_calculate","","key","5","16.650832167831883","650.9524105141236","361.9047783399663","","","","","9-4= ?","5","1","","","","","","","",""
"3568","","8","psychophysics","104","442500","0.0-7.0-5.0-0.1","5","5","6","3","4","5","4","4","4","5","5","0","-1","-1","0","1","1","1","1","4","4","5","4","3","2","2","3","2","3","5","4","6","6","6","6","5","6","6","3","5","5","4","4","3","6","5","5","5","1","4","3","5","2","4","4","5","7","6","5","2","4","3","1","2","3","6","6","2","7","7","6","7","4","4","6","1","6","3","7","799043749912125442","朱","391","Female","[""坏我"",""好我"",""坏她"",""好她""]","[""弱我"",""强我"",""弱她"",""强她""]","","","","","","","","8","","","","","","","","","SRET","SRET_math_calculate","","key","8","16.650434579439384","650.9524105141236","361.9047783399663","","","","","72/9= ?","8","1","","","","","","","",""
"2271","","7","psychophysics","105","444774","0.0-7.0-5.0-0.2","5","5","6","3","4","5","4","4","4","5","5","0","-1","-1","0","1","1","1","1","4","4","5","4","3","2","2","3","2","3","5","4","6","6","6","6","5","6","6","3","5","5","4","4","3","6","5","5","5","1","4","3","5","2","4","4","5","7","6","5","2","4","3","1","2","3","6","6","2","7","7","6","7","4","4","6","1","6","3","7","799043749912125442","朱","391","Female","[""坏我"",""好我"",""坏她"",""好她""]","[""弱我"",""强我"",""弱她"",""强她""]","","","","","","","","7","","","","","","","","","SRET","SRET_math_calculate","","key","7","16.650792592592726","650.9524105141236","361.9047783399663","","","","","49/7 = ?","7","1","","","","","","","",""
"4396","","1","psychophysics","106","449172","0.0-7.0-5.0-0.3","5","5","6","3","4","5","4","4","4","5","5","0","-1","-1","0","1","1","1","1","4","4","5","4","3","2","2","3","2","3","5","4","6","6","6","6","5","6","6","3","5","5","4","4","3","6","5","5","5","1","4","3","5","2","4","4","5","7","6","5","2","4","3","1","2","3","6","6","2","7","7","6","7","4","4","6","1","6","3","7","799043749912125442","朱","391","Female","[""坏我"",""好我"",""坏她"",""好她""]","[""弱我"",""强我"",""弱她"",""强她""]","","","","","","","","1","","","","","","","","","SRET","SRET_math_calculate","","key","1","16.65049049429646","650.9524105141236","361.9047783399663","","","","","32-23= ?","9","0","","","","","","","",""
"169","","1","psychophysics","107","449344","0.0-7.0-5.0-0.4","5","5","6","3","4","5","4","4","4","5","5","0","-1","-1","0","1","1","1","1","4","4","5","4","3","2","2","3","2","3","5","4","6","6","6","6","5","6","6","3","5","5","4","4","3","6","5","5","5","1","4","3","5","2","4","4","5","7","6","5","2","4","3","1","2","3","6","6","2","7","7","6","7","4","4","6","1","6","3","7","799043749912125442","朱","391","Female","[""坏我"",""好我"",""坏她"",""好她""]","[""弱我"",""强我"",""弱她"",""强她""]","","","","","","","","1","","","","","","","","","SRET","SRET_math_calculate","","key","1","16.651600000000325","650.9524105141236","361.9047783399663","","","","","16-11= ?","5","0","","","","","","","",""
"2554","","9","psychophysics","108","451901","0.0-7.0-5.0-0.5","5","5","6","3","4","5","4","4","4","5","5","0","-1","-1","0","1","1","1","1","4","4","5","4","3","2","2","3","2","3","5","4","6","6","6","6","5","6","6","3","5","5","4","4","3","6","5","5","5","1","4","3","5","2","4","4","5","7","6","5","2","4","3","1","2","3","6","6","2","7","7","6","7","4","4","6","1","6","3","7","799043749912125442","朱","391","Female","[""坏我"",""好我"",""坏她"",""好她""]","[""弱我"",""强我"",""弱她"",""强她""]","","","","","","","","9","","","","","","","","","SRET","SRET_math_calculate","","key","9","16.65048684210495","650.9524105141236","361.9047783399663","","","","","4+5= ?","9","1","","","","","","","",""
"1980","","9","psychophysics","109","453882","0.0-7.0-5.0-0.6","5","5","6","3","4","5","4","4","4","5","5","0","-1","-1","0","1","1","1","1","4","4","5","4","3","2","2","3","2","3","5","4","6","6","6","6","5","6","6","3","5","5","4","4","3","6","5","5","5","1","4","3","5","2","4","4","5","7","6","5","2","4","3","1","2","3","6","6","2","7","7","6","7","4","4","6","1","6","3","7","799043749912125442","朱","391","Female","[""坏我"",""好我"",""坏她"",""好她""]","[""弱我"",""强我"",""弱她"",""强她""]","","","","","","","","9","","","","","","","","","SRET","SRET_math_calculate","","key","9","16.650720338982833","650.9524105141236","361.9047783399663","","","","","2+7= ?","9","1","","","","","","","",""
"2419","","0","psychophysics","110","456304","0.0-7.0-5.0-0.7","5","5","6","3","4","5","4","4","4","5","5","0","-1","-1","0","1","1","1","1","4","4","5","4","3","2","2","3","2","3","5","4","6","6","6","6","5","6","6","3","5","5","4","4","3","6","5","5","5","1","4","3","5","2","4","4","5","7","6","5","2","4","3","1","2","3","6","6","2","7","7","6","7","4","4","6","1","6","3","7","799043749912125442","朱","391","Female","[""坏我"",""好我"",""坏她"",""好她""]","[""弱我"",""强我"",""弱她"",""强她""]","","","","","","","","0","","","","","","","","","SRET","SRET_math_calculate","","key","0","16.6506413793103","650.9524105141236","361.9047783399663","","","","","5*0= ?","0","1","","","","","","","",""
"2622","","3","psychophysics","111","458928","0.0-7.0-5.0-0.8","5","5","6","3","4","5","4","4","4","5","5","0","-1","-1","0","1","1","1","1","4","4","5","4","3","2","2","3","2","3","5","4","6","6","6","6","5","6","6","3","5","5","4","4","3","6","5","5","5","1","4","3","5","2","4","4","5","7","6","5","2","4","3","1","2","3","6","6","2","7","7","6","7","4","4","6","1","6","3","7","799043749912125442","朱","391","Female","[""坏我"",""好我"",""坏她"",""好她""]","[""弱我"",""强我"",""弱她"",""强她""]","","","","","","","","3","","","","","","","","","SRET","SRET_math_calculate","","key","3","16.650493589743675","650.9524105141236","361.9047783399663","","","","","6/2= ?","3","1","","","","","","","",""
"2671","","5","psychophysics","112","461601","0.0-7.0-5.0-0.9","5","5","6","3","4","5","4","4","4","5","5","0","-1","-1","0","1","1","1","1","4","4","5","4","3","2","2","3","2","3","5","4","6","6","6","6","5","6","6","3","5","5","4","4","3","6","5","5","5","1","4","3","5","2","4","4","5","7","6","5","2","4","3","1","2","3","6","6","2","7","7","6","7","4","4","6","1","6","3","7","799043749912125442","朱","391","Female","[""坏我"",""好我"",""坏她"",""好她""]","[""弱我"",""强我"",""弱她"",""强她""]","","","","","","","","5","","","","","","","","","SRET","SRET_math_calculate","","key","5","16.650400000000083","650.9524105141236","361.9047783399663","","","","","19-17= ?","2","0","","","","","","","",""
"3577","","3","psychophysics","113","465180","0.0-7.0-5.0-0.10","5","5","6","3","4","5","4","4","4","5","5","0","-1","-1","0","1","1","1","1","4","4","5","4","3","2","2","3","2","3","5","4","6","6","6","6","5","6","6","3","5","5","4","4","3","6","5","5","5","1","4","3","5","2","4","4","5","7","6","5","2","4","3","1","2","3","6","6","2","7","7","6","7","4","4","6","1","6","3","7","799043749912125442","朱","391","Female","[""坏我"",""好我"",""坏她"",""好她""]","[""弱我"",""强我"",""弱她"",""强她""]","","","","","","","","3","","","","","","","","","SRET","SRET_math_calculate","","key","3","16.650471962616827","650.9524105141236","361.9047783399663","","","","","9-6= ?","3","1","","","","","","","",""
"6303","","8","psychophysics","114","471484","0.0-7.0-5.0-0.11","5","5","6","3","4","5","4","4","4","5","5","0","-1","-1","0","1","1","1","1","4","4","5","4","3","2","2","3","2","3","5","4","6","6","6","6","5","6","6","3","5","5","4","4","3","6","5","5","5","1","4","3","5","2","4","4","5","7","6","5","2","4","3","1","2","3","6","6","2","7","7","6","7","4","4","6","1","6","3","7","799043749912125442","朱","391","Female","[""坏我"",""好我"",""坏她"",""好她""]","[""弱我"",""强我"",""弱她"",""强她""]","","","","","","","","8","","","","","","","","","SRET","SRET_math_calculate","","key","8","16.650326259946976","650.9524105141236","361.9047783399663","","","","","50-42= ?","8","1","","","","","","","",""
"2004","","4","psychophysics","115","473491","0.0-7.0-5.0-0.12","5","5","6","3","4","5","4","4","4","5","5","0","-1","-1","0","1","1","1","1","4","4","5","4","3","2","2","3","2","3","5","4","6","6","6","6","5","6","6","3","5","5","4","4","3","6","5","5","5","1","4","3","5","2","4","4","5","7","6","5","2","4","3","1","2","3","6","6","2","7","7","6","7","4","4","6","1","6","3","7","799043749912125442","朱","391","Female","[""坏我"",""好我"",""坏她"",""好她""]","[""弱我"",""强我"",""弱她"",""强她""]","","","","","","","","4","","","","","","","","","SRET","SRET_math_calculate","","key","4","16.650391666666838","650.9524105141236","361.9047783399663","","","","","3+1= ?","4","1","","","","","","","",""
"3895","","2","psychophysics","116","477388","0.0-7.0-5.0-0.13","5","5","6","3","4","5","4","4","4","5","5","0","-1","-1","0","1","1","1","1","4","4","5","4","3","2","2","3","2","3","5","4","6","6","6","6","5","6","6","3","5","5","4","4","3","6","5","5","5","1","4","3","5","2","4","4","5","7","6","5","2","4","3","1","2","3","6","6","2","7","7","6","7","4","4","6","1","6","3","7","799043749912125442","朱","391","Female","[""坏我"",""好我"",""坏她"",""好她""]","[""弱我"",""强我"",""弱她"",""强她""]","","","","","","","","2","","","","","","","","","SRET","SRET_math_calculate","","key","2","16.650484978540874","650.9524105141236","361.9047783399663","","","","","12/6= ?","2","1","","","","","","","",""
"2583","","5","psychophysics","117","479972","0.0-7.0-5.0-0.14","5","5","6","3","4","5","4","4","4","5","5","0","-1","-1","0","1","1","1","1","4","4","5","4","3","2","2","3","2","3","5","4","6","6","6","6","5","6","6","3","5","5","4","4","3","6","5","5","5","1","4","3","5","2","4","4","5","7","6","5","2","4","3","1","2","3","6","6","2","7","7","6","7","4","4","6","1","6","3","7","799043749912125442","朱","391","Female","[""坏我"",""好我"",""坏她"",""好她""]","[""弱我"",""强我"",""弱她"",""强她""]","","","","","","","","5","","","","","","","","","SRET","SRET_math_calculate","","key","5","16.650642857143","650.9524105141236","361.9047783399663","","","","","5/1= ?","5","1","","","","","","","",""
"2162","","4","psychophysics","118","482135","0.0-7.0-5.0-0.15","5","5","6","3","4","5","4","4","4","5","5","0","-1","-1","0","1","1","1","1","4","4","5","4","3","2","2","3","2","3","5","4","6","6","6","6","5","6","6","3","5","5","4","4","3","6","5","5","5","1","4","3","5","2","4","4","5","7","6","5","2","4","3","1","2","3","6","6","2","7","7","6","7","4","4","6","1","6","3","7","799043749912125442","朱","391","Female","[""坏我"",""好我"",""坏她"",""好她""]","[""弱我"",""强我"",""弱她"",""强她""]","","","","","","","","4","","","","","","","","","SRET","SRET_math_calculate","","key","4","16.650271317829528","650.9524105141236","361.9047783399663","","","","","8-4= ?","4","1","","","","","","","",""
"2076","","7","psychophysics","119","484213","0.0-7.0-5.0-0.16","5","5","6","3","4","5","4","4","4","5","5","0","-1","-1","0","1","1","1","1","4","4","5","4","3","2","2","3","2","3","5","4","6","6","6","6","5","6","6","3","5","5","4","4","3","6","5","5","5","1","4","3","5","2","4","4","5","7","6","5","2","4","3","1","2","3","6","6","2","7","7","6","7","4","4","6","1","6","3","7","799043749912125442","朱","391","Female","[""坏我"",""好我"",""坏她"",""好她""]","[""弱我"",""强我"",""弱她"",""强她""]","","","","","","","","7","","","","","","","","","SRET","SRET_math_calculate","","key","7","16.64968548387086","650.9524105141236","361.9047783399663","","","","","6+1= ?","7","1","","","","","","","",""
"2678","","6","psychophysics","120","486893","0.0-7.0-5.0-0.17","5","5","6","3","4","5","4","4","4","5","5","0","-1","-1","0","1","1","1","1","4","4","5","4","3","2","2","3","2","3","5","4","6","6","6","6","5","6","6","3","5","5","4","4","3","6","5","5","5","1","4","3","5","2","4","4","5","7","6","5","2","4","3","1","2","3","6","6","2","7","7","6","7","4","4","6","1","6","3","7","799043749912125442","朱","391","Female","[""坏我"",""好我"",""坏她"",""好她""]","[""弱我"",""强我"",""弱她"",""强她""]","","","","","","","","6","","","","","","","","","SRET","SRET_math_calculate","","key","6","16.650343749999955","650.9524105141236","361.9047783399663","","","","","3+3= ?","6","1","","","","","","","",""
"2105","","0","psychophysics","121","489000","0.0-7.0-5.0-0.18","5","5","6","3","4","5","4","4","4","5","5","0","-1","-1","0","1","1","1","1","4","4","5","4","3","2","2","3","2","3","5","4","6","6","6","6","5","6","6","3","5","5","4","4","3","6","5","5","5","1","4","3","5","2","4","4","5","7","6","5","2","4","3","1","2","3","6","6","2","7","7","6","7","4","4","6","1","6","3","7","799043749912125442","朱","391","Female","[""坏我"",""好我"",""坏她"",""好她""]","[""弱我"",""强我"",""弱她"",""强她""]","","","","","","","","0","","","","","","","","","SRET","SRET_math_calculate","","key","0","16.650095999999902","650.9524105141236","361.9047783399663","","","","","9-9= ?","0","1","","","","","","","",""
"2663","","8","psychophysics","122","491664","0.0-7.0-5.0-0.19","5","5","6","3","4","5","4","4","4","5","5","0","-1","-1","0","1","1","1","1","4","4","5","4","3","2","2","3","2","3","5","4","6","6","6","6","5","6","6","3","5","5","4","4","3","6","5","5","5","1","4","3","5","2","4","4","5","7","6","5","2","4","3","1","2","3","6","6","2","7","7","6","7","4","4","6","1","6","3","7","799043749912125442","朱","391","Female","[""坏我"",""好我"",""坏她"",""好她""]","[""弱我"",""强我"",""弱她"",""强她""]","","","","","","","","8","","","","","","","","","SRET","SRET_math_calculate","","key","8","16.6505911949683","650.9524105141236","361.9047783399663","","","","","56/7= ?","8","1","","","","","","","",""
"4182","","7","psychophysics","123","495847","0.0-7.0-5.0-0.20","5","5","6","3","4","5","4","4","4","5","5","0","-1","-1","0","1","1","1","1","4","4","5","4","3","2","2","3","2","3","5","4","6","6","6","6","5","6","6","3","5","5","4","4","3","6","5","5","5","1","4","3","5","2","4","4","5","7","6","5","2","4","3","1","2","3","6","6","2","7","7","6","7","4","4","6","1","6","3","7","799043749912125442","朱","391","Female","[""坏我"",""好我"",""坏她"",""好她""]","[""弱我"",""强我"",""弱她"",""强她""]","","","","","","","","7","","","","","","","","","SRET","SRET_math_calculate","","key","7","16.650287999999943","650.9524105141236","361.9047783399663","","","","","13-6= ?","7","1","","","","","","","",""
"2142","","5","psychophysics","124","497993","0.0-7.0-5.0-0.21","5","5","6","3","4","5","4","4","4","5","5","0","-1","-1","0","1","1","1","1","4","4","5","4","3","2","2","3","2","3","5","4","6","6","6","6","5","6","6","3","5","5","4","4","3","6","5","5","5","1","4","3","5","2","4","4","5","7","6","5","2","4","3","1","2","3","6","6","2","7","7","6","7","4","4","6","1","6","3","7","799043749912125442","朱","391","Female","[""坏我"",""好我"",""坏她"",""好她""]","[""弱我"",""强我"",""弱她"",""强她""]","","","","","","","","5","","","","","","","","","SRET","SRET_math_calculate","","key","5","16.650562499999978","650.9524105141236","361.9047783399663","","","","","8-3= ? ","5","1","","","","","","","",""
"2130","","7","psychophysics","125","500141","0.0-7.0-5.0-0.22","5","5","6","3","4","5","4","4","4","5","5","0","-1","-1","0","1","1","1","1","4","4","5","4","3","2","2","3","2","3","5","4","6","6","6","6","5","6","6","3","5","5","4","4","3","6","5","5","5","1","4","3","5","2","4","4","5","7","6","5","2","4","3","1","2","3","6","6","2","7","7","6","7","4","4","6","1","6","3","7","799043749912125442","朱","391","Female","[""坏我"",""好我"",""坏她"",""好她""]","[""弱我"",""强我"",""弱她"",""强她""]","","","","","","","","7","","","","","","","","","SRET","SRET_math_calculate","","key","7","16.650046875000044","650.9524105141236","361.9047783399663","","","","","3+4= ?","7","1","","","","","","","",""
"2925","","8","psychophysics","126","503072","0.0-7.0-5.0-0.23","5","5","6","3","4","5","4","4","4","5","5","0","-1","-1","0","1","1","1","1","4","4","5","4","3","2","2","3","2","3","5","4","6","6","6","6","5","6","6","3","5","5","4","4","3","6","5","5","5","1","4","3","5","2","4","4","5","7","6","5","2","4","3","1","2","3","6","6","2","7","7","6","7","4","4","6","1","6","3","7","799043749912125442","朱","391","Female","[""坏我"",""好我"",""坏她"",""好她""]","[""弱我"",""强我"",""弱她"",""强她""]","","","","","","","","8","","","","","","","","","SRET","SRET_math_calculate","","key","8","16.65044571428593","650.9524105141236","361.9047783399663","","","","","2*4= ?","8","1","","","","","","","",""
"2246","","6","psychophysics","127","505324","0.0-7.0-5.0-0.24","5","5","6","3","4","5","4","4","4","5","5","0","-1","-1","0","1","1","1","1","4","4","5","4","3","2","2","3","2","3","5","4","6","6","6","6","5","6","6","3","5","5","4","4","3","6","5","5","5","1","4","3","5","2","4","4","5","7","6","5","2","4","3","1","2","3","6","6","2","7","7","6","7","4","4","6","1","6","3","7","799043749912125442","朱","391","Female","[""坏我"",""好我"",""坏她"",""好她""]","[""弱我"",""强我"",""弱她"",""强她""]","","","","","","","","6","","","","","","","","","SRET","SRET_math_calculate","","key","6","16.650325925925884","650.9524105141236","361.9047783399663","","","","","9-3= ?","6","1","","","","","","","",""
"6710","","7","psychophysics","128","512037","0.0-7.0-5.0-0.25","5","5","6","3","4","5","4","4","4","5","5","0","-1","-1","0","1","1","1","1","4","4","5","4","3","2","2","3","2","3","5","4","6","6","6","6","5","6","6","3","5","5","4","4","3","6","5","5","5","1","4","3","5","2","4","4","5","7","6","5","2","4","3","1","2","3","6","6","2","7","7","6","7","4","4","6","1","6","3","7","799043749912125442","朱","391","Female","[""坏我"",""好我"",""坏她"",""好她""]","[""弱我"",""强我"",""弱她"",""强她""]","","","","","","","","7","","","","","","","","","SRET","SRET_math_calculate","","key","7","16.650393034825974","650.9524105141236","361.9047783399663","","","","","11-4= ?","7","1","","","","","","","",""
"2224","","0","psychophysics","129","514263","0.0-7.0-5.0-0.26","5","5","6","3","4","5","4","4","4","5","5","0","-1","-1","0","1","1","1","1","4","4","5","4","3","2","2","3","2","3","5","4","6","6","6","6","5","6","6","3","5","5","4","4","3","6","5","5","5","1","4","3","5","2","4","4","5","7","6","5","2","4","3","1","2","3","6","6","2","7","7","6","7","4","4","6","1","6","3","7","799043749912125442","朱","391","Female","[""坏我"",""好我"",""坏她"",""好她""]","[""弱我"",""强我"",""弱她"",""强她""]","","","","","","","","0","","","","","","","","","SRET","SRET_math_calculate","","key","0","16.65066165413534","650.9524105141236","361.9047783399663","","","","","7*0= ?","0","1","","","","","","","",""
"2390","","2","psychophysics","130","516657","0.0-7.0-5.0-0.27","5","5","6","3","4","5","4","4","4","5","5","0","-1","-1","0","1","1","1","1","4","4","5","4","3","2","2","3","2","3","5","4","6","6","6","6","5","6","6","3","5","5","4","4","3","6","5","5","5","1","4","3","5","2","4","4","5","7","6","5","2","4","3","1","2","3","6","6","2","7","7","6","7","4","4","6","1","6","3","7","799043749912125442","朱","391","Female","[""坏我"",""好我"",""坏她"",""好她""]","[""弱我"",""强我"",""弱她"",""强她""]","","","","","","","","2","","","","","","","","","SRET","SRET_math_calculate","","key","2","16.650556338028277","650.9524105141236","361.9047783399663","","","","","9-7= ?","2","1","","","","","","","",""
"4457","","2","psychophysics","131","521116","0.0-7.0-5.0-0.28","5","5","6","3","4","5","4","4","4","5","5","0","-1","-1","0","1","1","1","1","4","4","5","4","3","2","2","3","2","3","5","4","6","6","6","6","5","6","6","3","5","5","4","4","3","6","5","5","5","1","4","3","5","2","4","4","5","7","6","5","2","4","3","1","2","3","6","6","2","7","7","6","7","4","4","6","1","6","3","7","799043749912125442","朱","391","Female","[""坏我"",""好我"",""坏她"",""好她""]","[""弱我"",""强我"",""弱她"",""强她""]","","","","","","","","2","","","","","","","","","SRET","SRET_math_calculate","","key","2","16.650299625468183","650.9524105141236","361.9047783399663","","","","","18/9= ?","2","1","","","","","","","",""
"2309","","8","psychophysics","132","523427","0.0-7.0-5.0-0.29","5","5","6","3","4","5","4","4","4","5","5","0","-1","-1","0","1","1","1","1","4","4","5","4","3","2","2","3","2","3","5","4","6","6","6","6","5","6","6","3","5","5","4","4","3","6","5","5","5","1","4","3","5","2","4","4","5","7","6","5","2","4","3","1","2","3","6","6","2","7","7","6","7","4","4","6","1","6","3","7","799043749912125442","朱","391","Female","[""坏我"",""好我"",""坏她"",""好她""]","[""弱我"",""强我"",""弱她"",""强她""]","","","","","","","","8","","","","","","","","","SRET","SRET_math_calculate","","key","8","16.65001449275313","650.9524105141236","361.9047783399663","","","","","4*2= ?","8","1","","","","","","","",""
"2027","","9","psychophysics","133","525455","0.0-7.0-5.0-0.30","5","5","6","3","4","5","4","4","4","5","5","0","-1","-1","0","1","1","1","1","4","4","5","4","3","2","2","3","2","3","5","4","6","6","6","6","5","6","6","3","5","5","4","4","3","6","5","5","5","1","4","3","5","2","4","4","5","7","6","5","2","4","3","1","2","3","6","6","2","7","7","6","7","4","4","6","1","6","3","7","799043749912125442","朱","391","Female","[""坏我"",""好我"",""坏她"",""好她""]","[""弱我"",""强我"",""弱她"",""强她""]","","","","","","","","9","","","","","","","","","SRET","SRET_math_calculate","","key","9","16.650528925620137","650.9524105141236","361.9047783399663","","","","","5+4= ?","9","1","","","","","","","",""
"2094","","3","psychophysics","134","527551","0.0-7.0-5.0-0.31","5","5","6","3","4","5","4","4","4","5","5","0","-1","-1","0","1","1","1","1","4","4","5","4","3","2","2","3","2","3","5","4","6","6","6","6","5","6","6","3","5","5","4","4","3","6","5","5","5","1","4","3","5","2","4","4","5","7","6","5","2","4","3","1","2","3","6","6","2","7","7","6","7","4","4","6","1","6","3","7","799043749912125442","朱","391","Female","[""坏我"",""好我"",""坏她"",""好她""]","[""弱我"",""强我"",""弱她"",""强她""]","","","","","","","","3","","","","","","","","","SRET","SRET_math_calculate","","key","3","16.650103999999352","650.9524105141236","361.9047783399663","","","","","2+1= ?","3","1","","","","","","","",""
"2082","","9","psychophysics","135","529636","0.0-7.0-5.0-0.32","5","5","6","3","4","5","4","4","4","5","5","0","-1","-1","0","1","1","1","1","4","4","5","4","3","2","2","3","2","3","5","4","6","6","6","6","5","6","6","3","5","5","4","4","3","6","5","5","5","1","4","3","5","2","4","4","5","7","6","5","2","4","3","1","2","3","6","6","2","7","7","6","7","4","4","6","1","6","3","7","799043749912125442","朱","391","Female","[""坏我"",""好我"",""坏她"",""好她""]","[""弱我"",""强我"",""弱她"",""强她""]","","","","","","","","9","","","","","","","","","SRET","SRET_math_calculate","","key","9","16.65059677419354","650.9524105141236","361.9047783399663","","","","","6+3= ?","9","1","","","","","","","",""
"2905","","2","psychophysics","136","532542","0.0-7.0-5.0-0.33","5","5","6","3","4","5","4","4","4","5","5","0","-1","-1","0","1","1","1","1","4","4","5","4","3","2","2","3","2","3","5","4","6","6","6","6","5","6","6","3","5","5","4","4","3","6","5","5","5","1","4","3","5","2","4","4","5","7","6","5","2","4","3","1","2","3","6","6","2","7","7","6","7","4","4","6","1","6","3","7","799043749912125442","朱","391","Female","[""坏我"",""好我"",""坏她"",""好她""]","[""弱我"",""强我"",""弱她"",""强她""]","","","","","","","","2","","","","","","","","","SRET","SRET_math_calculate","","key","2","16.650410404623987","650.9524105141236","361.9047783399663","","","","","8-6= ?","2","1","","","","","","","",""
