"rt","stimulus","response","trial_type","trial_index","time_elapsed","internal_node_id","swb_1","swb_2","swb_3","swb_4","swb_5","LOT_1","LOT_2","LOT_3","LOT_4","LOT_5","LOT_6","IPC_1","IPC_2","IPC_3","IPC_4","IPC_5","IPC_6","IPC_7","IPC_8","MorIden_1","MorIden_2","MorIden_3","MorIden_4","MorIden_5","MorIden_6","MorIden_7","MorIden_8","MorIden_9","MorIden_10","moralSeImag_1","moralSeImag_2","moralSeImag_3","moralSeImag_4","moralSeImag_5","moralSeImag_6","moralSeImag_7","moralSeImag_8","moralSeImag_9","sde_1","sde_2","sde_3","sde_4","sde_5","sde_6","sde_7","sde_8","sde_9","sde_10","trap2","sde_11","sde_12","sde_13","sde_14","sde_15","sde_16","sde_17","sde_18","sde_19","sde_20","IM_1","IM_2","IM_3","IM_4","IM_5","IM_6","IM_7","IM_8","IM_9","IM_10","IM_11","IM_12","IM_13","IM_14","IM_15","IM_16","IM_17","IM_18","IM_19","IM_20","subj_idx","friend_name","ParticipantID","Sex","Word","Word2","value","success","timeout","failed_images","failed_audio","failed_video","user_agent","responses","item_order","radio_event_ids","radio_event_times","key_event_times","mouse_event_times","straightlining","zigzagging","honeypot","task_id","screen_id","time_stamp","response_type","key_press","avg_frame_time","center_x","center_y","person","word","valence","domain","math","correct_response","correct","status","view_history","identity","duration","Image","condition","question_order","trap2_item"
"3468","
   <p><div style='color:white; font-size: 25px'>您好，欢迎参加本次实验。</div></p>
   <p><div style='color:white; font-size: 25px'>为充分保障您的权利，请确保您已经知晓并同意《参与实验同意书》以及《数据公开知情同意书》。</div></p>
   <p><div style='color:white; font-size: 25px'>如果您未见过上述内容，请咨询实验员。</div></p>
   <p style='color:white; font-size: 25px'>如果您选择继续实验，则表示您已经清楚两份知情同意书的内容并同意。</p>
   <p><div style = ""color: pink;font-size:30px;"">请确保您记得day0的实验编号，您将在本次实验输入该编号，若您忘记，请咨询实验员后作答。</div></p>
   <p><div style = ""color:lightblue;font-size:25px;"">请您尽可能认真地作答，我们将依据您在各问卷和按键任务中的作答质量发放报酬。</div></p>
   <p> <div style = ""color: green""><按空格键至下页></div> </p>
   "," ","html-keyboard-response","0","3470","0.0-0.0","5","6","6","6","5","4","4","4","5","4","2","0","2","1","1","1","1","0","1","4","4","5","4","3","4","4","4","4","4","5","5","5","5","4","4","6","4","5","5","6","6","5","6","3","6","6","6","5","1","5","5","5","3","5","5","5","4","4","5","3","6","3","3","4","5","5","5","7","7","7","7","7","3","4","1","3","7","6","5","730803764885458946","薄","524","Female","[""坏她"",""坏我"",""好我"",""好她""]","[""弱她"",""弱我"",""强我"",""强她""]","","","","","","","","","","","","","","","","","","","","","","","","","","","","","","","","","","","","","","",""
"","","","call-function","1","3472","0.0-1.0-0.0","5","6","6","6","5","4","4","4","5","4","2","0","2","1","1","1","1","0","1","4","4","5","4","3","4","4","4","4","4","5","5","5","5","4","4","6","4","5","5","6","6","5","6","3","6","6","6","5","1","5","5","5","3","5","5","5","4","4","5","3","6","3","3","4","5","5","5","7","7","7","7","7","3","4","1","3","7","6","5","730803764885458946","薄","524","Female","[""坏她"",""坏我"",""好我"",""好她""]","[""弱她"",""弱我"",""强我"",""强她""]","","","","","","","","","","","","","","","","","","","","","","","","","","","","","","","","","","","","","","",""
"12095","","[{""name"":""Sex"",""value"":""1""},{""name"":""friend_name"",""value"":""薄""},{""name"":""ParticipantID"",""value"":""524""}]","survey-html-form","2","15568","0.0-1.0-1.0","5","6","6","6","5","4","4","4","5","4","2","0","2","1","1","1","1","0","1","4","4","5","4","3","4","4","4","4","4","5","5","5","5","4","4","6","4","5","5","6","6","5","6","3","6","6","6","5","1","5","5","5","3","5","5","5","4","4","5","3","6","3","3","4","5","5","5","7","7","7","7","7","3","4","1","3","7","6","5","730803764885458946","薄","524","Female","[""坏她"",""坏我"",""好我"",""好她""]","[""弱她"",""弱我"",""强我"",""强她""]","","","","","","","","","","","","","","","","","","","","","","","","","","","","","","","","","","","","","","",""
"","","","preload","3","15941","0.0-2.0","5","6","6","6","5","4","4","4","5","4","2","0","2","1","1","1","1","0","1","4","4","5","4","3","4","4","4","4","4","5","5","5","5","4","4","6","4","5","5","6","6","5","6","3","6","6","6","5","1","5","5","5","3","5","5","5","4","4","5","3","6","3","3","4","5","5","5","7","7","7","7","7","3","4","1","3","7","6","5","730803764885458946","薄","524","Female","[""坏她"",""坏我"",""好我"",""好她""]","[""弱她"",""弱我"",""强我"",""强她""]","","true","false","[]","[]","[]","","","","","","","","","","","","","","","","","","","","","","","","","","","","","","","","",""
"","","","fullscreen","4","19668","0.0-3.0","5","6","6","6","5","4","4","4","5","4","2","0","2","1","1","1","1","0","1","4","4","5","4","3","4","4","4","4","4","5","5","5","5","4","4","6","4","5","5","6","6","5","6","3","6","6","6","5","1","5","5","5","3","5","5","5","4","4","5","3","6","3","3","4","5","5","5","7","7","7","7","7","3","4","1","3","7","6","5","730803764885458946","薄","524","Female","[""坏她"",""坏我"",""好我"",""好她""]","[""弱她"",""弱我"",""强我"",""强她""]","","true","","","","","{}","","","","","","","","","","","","","","","","","","","","","","","","","","","","","","","",""
"14034.800000000745","","{""Q01"":""5"",""Q02"":""6"",""Q03"":""6"",""Q04"":""6"",""Q05"":""5""}","survey-template","5","33705","0.0-4.0","5","6","6","6","5","4","4","4","5","4","2","0","2","1","1","1","1","0","1","4","4","5","4","3","4","4","4","4","4","5","5","5","5","4","4","6","4","5","5","6","6","5","6","3","6","6","6","5","1","5","5","5","3","5","5","5","4","4","5","3","6","3","3","4","5","5","5","7","7","7","7","7","3","4","1","3","7","6","5","730803764885458946","薄","524","Female","[""坏她"",""坏我"",""好我"",""好她""]","[""弱她"",""弱我"",""强我"",""强她""]","","","","","","","","{""Q01"":""5"",""Q02"":""6"",""Q03"":""6"",""Q04"":""6"",""Q05"":""5""}","[0,1,2,3,4]","[""Q01"",""Q02"",""Q03"",""Q04"",""Q05""]","[4536.20000000298,5727.900000002235,8062,9029.60000000149,11318]","[]","[4536.20000000298,5727.900000002235,8062,9029.60000000149,11318,14034.10000000149]","0.6","0.5","0","","","","","","","","","","","","","","","","","","","","","","",""
"18883.5","","{""Q01"":""4"",""Q02"":""4"",""Q03"":""4"",""Q04"":""5"",""Q05"":""4"",""Q06"":""2""}","survey-template","6","52591","0.0-5.0","5","6","6","6","5","4","4","4","5","4","2","0","2","1","1","1","1","0","1","4","4","5","4","3","4","4","4","4","4","5","5","5","5","4","4","6","4","5","5","6","6","5","6","3","6","6","6","5","1","5","5","5","3","5","5","5","4","4","5","3","6","3","3","4","5","5","5","7","7","7","7","7","3","4","1","3","7","6","5","730803764885458946","薄","524","Female","[""坏她"",""坏我"",""好我"",""好她""]","[""弱她"",""弱我"",""强我"",""强她""]","","","","","","","","{""Q01"":""4"",""Q02"":""4"",""Q03"":""4"",""Q04"":""5"",""Q05"":""4"",""Q06"":""2""}","[0,1,2,3,4,5]","[""Q01"",""Q02"",""Q03"",""Q04"",""Q05"",""Q06""]","[3302.5,7530.60000000149,9740.5,12384.5,14672.300000000745,18114.10000000149]","[]","[3302.5,7530.60000000149,9740.5,12384.5,14672.300000000745,16818.400000002235,18114.10000000149,18882.60000000149]","0.5","0.2","0","","","","","","","","","","","","","","","","","","","","","","",""
"20446.199999999255","","{""Q01"":""0"",""Q02"":""2"",""Q03"":""1"",""Q04"":""1"",""Q05"":""1"",""Q06"":""1"",""Q07"":""0"",""Q08"":""1""}","survey-template","7","73041","0.0-6.0","5","6","6","6","5","4","4","4","5","4","2","0","2","1","1","1","1","0","1","4","4","5","4","3","4","4","4","4","4","5","5","5","5","4","4","6","4","5","5","6","6","5","6","3","6","6","6","5","1","5","5","5","3","5","5","5","4","4","5","3","6","3","3","4","5","5","5","7","7","7","7","7","3","4","1","3","7","6","5","730803764885458946","薄","524","Female","[""坏她"",""坏我"",""好我"",""好她""]","[""弱她"",""弱我"",""强我"",""强她""]","","","","","","","","{""Q01"":""0"",""Q02"":""2"",""Q03"":""1"",""Q04"":""1"",""Q05"":""1"",""Q06"":""1"",""Q07"":""0"",""Q08"":""1""}","[0,1,2,3,4,5,6,7]","[""Q01"",""Q02"",""Q03"",""Q04"",""Q05"",""Q06"",""Q07"",""Q08""]","[5161.5,7346,9085.199999999255,10961.39999999851,13269.5,14939.199999999255,16863.39999999851,19119.10000000149]","[]","[5161.5,7346,9085.199999999255,10961.39999999851,13269.5,14939.199999999255,16863.39999999851,19119.10000000149,20445.300000000745]","0.625","0.42857142857142855","0","","","","","","","","","","","","","","","","","","","","","","",""
"7731","
    <p><div style='color:white;font-size:35px; line-height:20px;'>词汇评估任务</div></p><br>
    <p><div style='color:white;font-size:25px; line-height:20px;'>请再次回忆该亲密的朋友，你们至少2年前就认识了，并且最近2年经常见面。</div></p>
    <p><div style='color:white;font-size:25px; line-height:20px;'>在本实验中，您将会看到一些形容词。</div></p>
    <p><div style='color:yellow;font-size:25px; line-height:20px;'>您的任务是判断这些形容词是否符合对您自己或您的朋友的描述。</div></p><p style='font-size:35px'>符合按<span style=""color:lightgreen""> f 键</span>，不符合按<span style=""color:red""> j 键</span></p>","0","html-button-response","8","80774","0.0-7.0-0.0","5","6","6","6","5","4","4","4","5","4","2","0","2","1","1","1","1","0","1","4","4","5","4","3","4","4","4","4","4","5","5","5","5","4","4","6","4","5","5","6","6","5","6","3","6","6","6","5","1","5","5","5","3","5","5","5","4","4","5","3","6","3","3","4","5","5","5","7","7","7","7","7","3","4","1","3","7","6","5","730803764885458946","薄","524","Female","[""坏她"",""坏我"",""好我"",""好她""]","[""弱她"",""弱我"",""强我"",""强她""]","","","","","","","","","","","","","","","","","SRET_EW","EW_instructions","Thu Jan 18 2024 23:12:42 GMT+0800 (中国标准时间)","","","","","","","","","","","","","","","","","","","",""
"1094","","f","psychophysics","9","82873","0.0-7.0-1.0-0.0","5","6","6","6","5","4","4","4","5","4","2","0","2","1","1","1","1","0","1","4","4","5","4","3","4","4","4","4","4","5","5","5","5","4","4","6","4","5","5","6","6","5","6","3","6","6","6","5","1","5","5","5","3","5","5","5","4","4","5","3","6","3","3","4","5","5","5","7","7","7","7","7","3","4","1","3","7","6","5","730803764885458946","薄","524","Female","[""坏她"",""坏我"",""好我"",""好她""]","[""弱她"",""弱我"",""强我"",""强她""]","","","","","","","","yes","","","","","","","","","SRET_EW","EW_practice","","key","f","16.66349206349211","768","428","自己","严谨","Positive","ability","","","","","","","","","","",""
"null","","null","psychophysics","10","85879","0.0-7.0-1.0-0.1","5","6","6","6","5","4","4","4","5","4","2","0","2","1","1","1","1","0","1","4","4","5","4","3","4","4","4","4","4","5","5","5","5","4","4","6","4","5","5","6","6","5","6","3","6","6","6","5","1","5","5","5","3","5","5","5","4","4","5","3","6","3","3","4","5","5","5","7","7","7","7","7","3","4","1","3","7","6","5","730803764885458946","薄","524","Female","[""坏她"",""坏我"",""好我"",""好她""]","[""弱她"",""弱我"",""强我"",""强她""]","","","","","","","","","","","","","","","","","SRET_EW","EW_practice","","key","null","16.66648044692739","768","428","朋友","徇私","Negative","morality","","","","","","","","","","",""
"1660","","j","psychophysics","11","88541","0.0-7.0-1.0-0.2","5","6","6","6","5","4","4","4","5","4","2","0","2","1","1","1","1","0","1","4","4","5","4","3","4","4","4","4","4","5","5","5","5","4","4","6","4","5","5","6","6","5","6","3","6","6","6","5","1","5","5","5","3","5","5","5","4","4","5","3","6","3","3","4","5","5","5","7","7","7","7","7","3","4","1","3","7","6","5","730803764885458946","薄","524","Female","[""坏她"",""坏我"",""好我"",""好她""]","[""弱她"",""弱我"",""强我"",""强她""]","","","","","","","","no","","","","","","","","","SRET_EW","EW_practice","","key","j","16.66603773584902","768","428","自己","刻板","Negative","ability","","","","","","","","","","",""
"1022","","f","psychophysics","12","90566","0.0-7.0-1.0-0.3","5","6","6","6","5","4","4","4","5","4","2","0","2","1","1","1","1","0","1","4","4","5","4","3","4","4","4","4","4","5","5","5","5","4","4","6","4","5","5","6","6","5","6","3","6","6","6","5","1","5","5","5","3","5","5","5","4","4","5","3","6","3","3","4","5","5","5","7","7","7","7","7","3","4","1","3","7","6","5","730803764885458946","薄","524","Female","[""坏她"",""坏我"",""好我"",""好她""]","[""弱她"",""弱我"",""强我"",""强她""]","","","","","","","","yes","","","","","","","","","SRET_EW","EW_practice","","key","f","16.666115702479267","768","428","朋友","忠实","Positive","morality","","","","","","","","","","",""
"4234","
    <p><div style='color:white;font-size:35px; line-height:20px;'>请您再次阅读实验要求</div></p><br>
    <p><div style='color:white;font-size:25px; line-height:20px;'>请回忆某一个亲密的朋友，你们至少2年前就认识了，并且最近2年经常见面。</div></p>
    <p><div style='color:white;font-size:25px; line-height:20px;'>在本实验中，您将会看到一些形容词。</div></p>
    <p><div style='color:yellow;font-size:25px; line-height:20px;'>您的任务是判断这些形容词是否符合对您自己或您的朋友的描述。</div></p>
    <p><div class='footer' style='font-size:25px; line-height:20px;'>如果对本实验还有不清楚之处，请立即向实验员咨询。</p><p style='font-size:25px; line-height:20px;'>如果您明白了规则：</p><p style='font-size:22px; line-height:20px;'>请按 继续 进入正式实验</p>
    </div>
    <p style='font-size:35px'>符合按<span style=""color:lightgreen""> f 键</span>，不符合按<span style=""color:red""> j 键</span></p>","0","html-button-response","13","94800","0.0-7.0-2.0","5","6","6","6","5","4","4","4","5","4","2","0","2","1","1","1","1","0","1","4","4","5","4","3","4","4","4","4","4","5","5","5","5","4","4","6","4","5","5","6","6","5","6","3","6","6","6","5","1","5","5","5","3","5","5","5","4","4","5","3","6","3","3","4","5","5","5","7","7","7","7","7","3","4","1","3","7","6","5","730803764885458946","薄","524","Female","[""坏她"",""坏我"",""好我"",""好她""]","[""弱她"",""弱我"",""强我"",""强她""]","","","","","","","","","","","","","","","","","SRET_EW","prac_instructions","Thu Jan 18 2024 23:12:42 GMT+0800 (中国标准时间)","","","","","","","","","","","","","","","","","","","",""
"1723","","j","psychophysics","14","97525","0.0-7.0-3.0-0.0","5","6","6","6","5","4","4","4","5","4","2","0","2","1","1","1","1","0","1","4","4","5","4","3","4","4","4","4","4","5","5","5","5","4","4","6","4","5","5","6","6","5","6","3","6","6","6","5","1","5","5","5","3","5","5","5","4","4","5","3","6","3","3","4","5","5","5","7","7","7","7","7","3","4","1","3","7","6","5","730803764885458946","薄","524","Female","[""坏她"",""坏我"",""好我"",""好她""]","[""弱她"",""弱我"",""强我"",""强她""]","","","","","","","","no","","","","","","","","","SRET","EW_formal","","key","j","16.664417177914128","768","428","朋友","迷糊","Negative","ability","","","","","","","","","","",""
"1290","","f","psychophysics","15","99818","0.0-7.0-3.0-0.1","5","6","6","6","5","4","4","4","5","4","2","0","2","1","1","1","1","0","1","4","4","5","4","3","4","4","4","4","4","5","5","5","5","4","4","6","4","5","5","6","6","5","6","3","6","6","6","5","1","5","5","5","3","5","5","5","4","4","5","3","6","3","3","4","5","5","5","7","7","7","7","7","3","4","1","3","7","6","5","730803764885458946","薄","524","Female","[""坏她"",""坏我"",""好我"",""好她""]","[""弱她"",""弱我"",""强我"",""强她""]","","","","","","","","yes","","","","","","","","","SRET","EW_formal","","key","f","16.665693430656912","768","428","朋友","务实","Positive","ability","","","","","","","","","","",""
"1048","","j","psychophysics","16","101868","0.0-7.0-3.0-0.2","5","6","6","6","5","4","4","4","5","4","2","0","2","1","1","1","1","0","1","4","4","5","4","3","4","4","4","4","4","5","5","5","5","4","4","6","4","5","5","6","6","5","6","3","6","6","6","5","1","5","5","5","3","5","5","5","4","4","5","3","6","3","3","4","5","5","5","7","7","7","7","7","3","4","1","3","7","6","5","730803764885458946","薄","524","Female","[""坏她"",""坏我"",""好我"",""好她""]","[""弱她"",""弱我"",""强我"",""强她""]","","","","","","","","no","","","","","","","","","SRET","EW_formal","","key","j","16.66393442622951","768","428","自己","说谎","Negative","morality","","","","","","","","","","",""
"902","","f","psychophysics","17","103771","0.0-7.0-3.0-0.3","5","6","6","6","5","4","4","4","5","4","2","0","2","1","1","1","1","0","1","4","4","5","4","3","4","4","4","4","4","5","5","5","5","4","4","6","4","5","5","6","6","5","6","3","6","6","6","5","1","5","5","5","3","5","5","5","4","4","5","3","6","3","3","4","5","5","5","7","7","7","7","7","3","4","1","3","7","6","5","730803764885458946","薄","524","Female","[""坏她"",""坏我"",""好我"",""好她""]","[""弱她"",""弱我"",""强我"",""强她""]","","","","","","","","yes","","","","","","","","","SRET","EW_formal","","key","f","16.663716814159294","768","428","自己","坚贞","Positive","morality","","","","","","","","","","",""
"1012","","f","psychophysics","18","105787","0.0-7.0-3.0-0.4","5","6","6","6","5","4","4","4","5","4","2","0","2","1","1","1","1","0","1","4","4","5","4","3","4","4","4","4","4","5","5","5","5","4","4","6","4","5","5","6","6","5","6","3","6","6","6","5","1","5","5","5","3","5","5","5","4","4","5","3","6","3","3","4","5","5","5","7","7","7","7","7","3","4","1","3","7","6","5","730803764885458946","薄","524","Female","[""坏她"",""坏我"",""好我"",""好她""]","[""弱她"",""弱我"",""强我"",""强她""]","","","","","","","","yes","","","","","","","","","SRET","EW_formal","","key","f","16.66750000000005","768","428","朋友","勤奋","Positive","ability","","","","","","","","","","",""
"938","","j","psychophysics","19","107727","0.0-7.0-3.0-0.5","5","6","6","6","5","4","4","4","5","4","2","0","2","1","1","1","1","0","1","4","4","5","4","3","4","4","4","4","4","5","5","5","5","4","4","6","4","5","5","6","6","5","6","3","6","6","6","5","1","5","5","5","3","5","5","5","4","4","5","3","6","3","3","4","5","5","5","7","7","7","7","7","3","4","1","3","7","6","5","730803764885458946","薄","524","Female","[""坏她"",""坏我"",""好我"",""好她""]","[""弱她"",""弱我"",""强我"",""强她""]","","","","","","","","no","","","","","","","","","SRET","EW_formal","","key","j","16.66608695652179","768","428","朋友","龌龊","Negative","morality","","","","","","","","","","",""
"692","","j","psychophysics","20","109428","0.0-7.0-3.0-0.6","5","6","6","6","5","4","4","4","5","4","2","0","2","1","1","1","1","0","1","4","4","5","4","3","4","4","4","4","4","5","5","5","5","4","4","6","4","5","5","6","6","5","6","3","6","6","6","5","1","5","5","5","3","5","5","5","4","4","5","3","6","3","3","4","5","5","5","7","7","7","7","7","3","4","1","3","7","6","5","730803764885458946","薄","524","Female","[""坏她"",""坏我"",""好我"",""好她""]","[""弱她"",""弱我"",""强我"",""强她""]","","","","","","","","no","","","","","","","","","SRET","EW_formal","","key","j","16.666336633663395","768","428","朋友","狡狯","Negative","morality","","","","","","","","","","",""
"1022","","j","psychophysics","21","111456","0.0-7.0-3.0-0.7","5","6","6","6","5","4","4","4","5","4","2","0","2","1","1","1","1","0","1","4","4","5","4","3","4","4","4","4","4","5","5","5","5","4","4","6","4","5","5","6","6","5","6","3","6","6","6","5","1","5","5","5","3","5","5","5","4","4","5","3","6","3","3","4","5","5","5","7","7","7","7","7","3","4","1","3","7","6","5","730803764885458946","薄","524","Female","[""坏她"",""坏我"",""好我"",""好她""]","[""弱她"",""弱我"",""强我"",""强她""]","","","","","","","","no","","","","","","","","","SRET","EW_formal","","key","j","16.665289256198346","768","428","自己","畏难","Negative","ability","","","","","","","","","","",""
"825","","j","psychophysics","22","113285","0.0-7.0-3.0-0.8","5","6","6","6","5","4","4","4","5","4","2","0","2","1","1","1","1","0","1","4","4","5","4","3","4","4","4","4","4","5","5","5","5","4","4","6","4","5","5","6","6","5","6","3","6","6","6","5","1","5","5","5","3","5","5","5","4","4","5","3","6","3","3","4","5","5","5","7","7","7","7","7","3","4","1","3","7","6","5","730803764885458946","薄","524","Female","[""坏她"",""坏我"",""好我"",""好她""]","[""弱她"",""弱我"",""强我"",""强她""]","","","","","","","","no","","","","","","","","","SRET","EW_formal","","key","j","16.666972477064327","768","428","朋友","愚痴","Negative","ability","","","","","","","","","","",""
"775","","f","psychophysics","23","115061","0.0-7.0-3.0-0.9","5","6","6","6","5","4","4","4","5","4","2","0","2","1","1","1","1","0","1","4","4","5","4","3","4","4","4","4","4","5","5","5","5","4","4","6","4","5","5","6","6","5","6","3","6","6","6","5","1","5","5","5","3","5","5","5","4","4","5","3","6","3","3","4","5","5","5","7","7","7","7","7","3","4","1","3","7","6","5","730803764885458946","薄","524","Female","[""坏她"",""坏我"",""好我"",""好她""]","[""弱她"",""弱我"",""强我"",""强她""]","","","","","","","","yes","","","","","","","","","SRET","EW_formal","","key","f","16.66476190476193","768","428","朋友","奉献","Positive","morality","","","","","","","","","","",""
"972","","f","psychophysics","24","117038","0.0-7.0-3.0-0.10","5","6","6","6","5","4","4","4","5","4","2","0","2","1","1","1","1","0","1","4","4","5","4","3","4","4","4","4","4","5","5","5","5","4","4","6","4","5","5","6","6","5","6","3","6","6","6","5","1","5","5","5","3","5","5","5","4","4","5","3","6","3","3","4","5","5","5","7","7","7","7","7","3","4","1","3","7","6","5","730803764885458946","薄","524","Female","[""坏她"",""坏我"",""好我"",""好她""]","[""弱她"",""弱我"",""强我"",""强她""]","","","","","","","","yes","","","","","","","","","SRET","EW_formal","","key","f","16.666949152542347","768","428","朋友","君子","Positive","morality","","","","","","","","","","",""
"873","","f","psychophysics","25","118913","0.0-7.0-3.0-0.11","5","6","6","6","5","4","4","4","5","4","2","0","2","1","1","1","1","0","1","4","4","5","4","3","4","4","4","4","4","5","5","5","5","4","4","6","4","5","5","6","6","5","6","3","6","6","6","5","1","5","5","5","3","5","5","5","4","4","5","3","6","3","3","4","5","5","5","7","7","7","7","7","3","4","1","3","7","6","5","730803764885458946","薄","524","Female","[""坏她"",""坏我"",""好我"",""好她""]","[""弱她"",""弱我"",""强我"",""强她""]","","","","","","","","yes","","","","","","","","","SRET","EW_formal","","key","f","16.66785714285717","768","428","朋友","独立","Positive","ability","","","","","","","","","","",""
"632","","j","psychophysics","26","120548","0.0-7.0-3.0-0.12","5","6","6","6","5","4","4","4","5","4","2","0","2","1","1","1","1","0","1","4","4","5","4","3","4","4","4","4","4","5","5","5","5","4","4","6","4","5","5","6","6","5","6","3","6","6","6","5","1","5","5","5","3","5","5","5","4","4","5","3","6","3","3","4","5","5","5","7","7","7","7","7","3","4","1","3","7","6","5","730803764885458946","薄","524","Female","[""坏她"",""坏我"",""好我"",""好她""]","[""弱她"",""弱我"",""强我"",""强她""]","","","","","","","","no","","","","","","","","","SRET","EW_formal","","key","j","16.663917525773286","768","428","朋友","废物","Negative","ability","","","","","","","","","","",""
"856","","j","psychophysics","27","122405","0.0-7.0-3.0-0.13","5","6","6","6","5","4","4","4","5","4","2","0","2","1","1","1","1","0","1","4","4","5","4","3","4","4","4","4","4","5","5","5","5","4","4","6","4","5","5","6","6","5","6","3","6","6","6","5","1","5","5","5","3","5","5","5","4","4","5","3","6","3","3","4","5","5","5","7","7","7","7","7","3","4","1","3","7","6","5","730803764885458946","薄","524","Female","[""坏她"",""坏我"",""好我"",""好她""]","[""弱她"",""弱我"",""强我"",""强她""]","","","","","","","","no","","","","","","","","","SRET","EW_formal","","key","j","16.66545454545452","768","428","自己","粗心","Negative","ability","","","","","","","","","","",""
"684","","f","psychophysics","28","124092","0.0-7.0-3.0-0.14","5","6","6","6","5","4","4","4","5","4","2","0","2","1","1","1","1","0","1","4","4","5","4","3","4","4","4","4","4","5","5","5","5","4","4","6","4","5","5","6","6","5","6","3","6","6","6","5","1","5","5","5","3","5","5","5","4","4","5","3","6","3","3","4","5","5","5","7","7","7","7","7","3","4","1","3","7","6","5","730803764885458946","薄","524","Female","[""坏她"",""坏我"",""好我"",""好她""]","[""弱她"",""弱我"",""强我"",""强她""]","","","","","","","","yes","","","","","","","","","SRET","EW_formal","","key","f","16.667000000000115","768","428","自己","智慧","Positive","ability","","","","","","","","","","",""
"704","","j","psychophysics","29","125803","0.0-7.0-3.0-0.15","5","6","6","6","5","4","4","4","5","4","2","0","2","1","1","1","1","0","1","4","4","5","4","3","4","4","4","4","4","5","5","5","5","4","4","6","4","5","5","6","6","5","6","3","6","6","6","5","1","5","5","5","3","5","5","5","4","4","5","3","6","3","3","4","5","5","5","7","7","7","7","7","3","4","1","3","7","6","5","730803764885458946","薄","524","Female","[""坏她"",""坏我"",""好我"",""好她""]","[""弱她"",""弱我"",""强我"",""强她""]","","","","","","","","no","","","","","","","","","SRET","EW_formal","","key","j","16.666666666666668","768","428","朋友","阴毒","Negative","morality","","","","","","","","","","",""
"1233","","f","psychophysics","30","128039","0.0-7.0-3.0-0.16","5","6","6","6","5","4","4","4","5","4","2","0","2","1","1","1","1","0","1","4","4","5","4","3","4","4","4","4","4","5","5","5","5","4","4","6","4","5","5","6","6","5","6","3","6","6","6","5","1","5","5","5","3","5","5","5","4","4","5","3","6","3","3","4","5","5","5","7","7","7","7","7","3","4","1","3","7","6","5","730803764885458946","薄","524","Female","[""坏她"",""坏我"",""好我"",""好她""]","[""弱她"",""弱我"",""强我"",""强她""]","","","","","","","","yes","","","","","","","","","SRET","EW_formal","","key","f","16.667669172932243","768","428","自己","淡泊","Positive","morality","","","","","","","","","","",""
"1057","","j","psychophysics","31","130098","0.0-7.0-3.0-0.17","5","6","6","6","5","4","4","4","5","4","2","0","2","1","1","1","1","0","1","4","4","5","4","3","4","4","4","4","4","5","5","5","5","4","4","6","4","5","5","6","6","5","6","3","6","6","6","5","1","5","5","5","3","5","5","5","4","4","5","3","6","3","3","4","5","5","5","7","7","7","7","7","3","4","1","3","7","6","5","730803764885458946","薄","524","Female","[""坏她"",""坏我"",""好我"",""好她""]","[""弱她"",""弱我"",""强我"",""强她""]","","","","","","","","no","","","","","","","","","SRET","EW_formal","","key","j","16.667479674796677","768","428","自己","自私","Negative","morality","","","","","","","","","","",""
"813","","j","psychophysics","32","131911","0.0-7.0-3.0-0.18","5","6","6","6","5","4","4","4","5","4","2","0","2","1","1","1","1","0","1","4","4","5","4","3","4","4","4","4","4","5","5","5","5","4","4","6","4","5","5","6","6","5","6","3","6","6","6","5","1","5","5","5","3","5","5","5","4","4","5","3","6","3","3","4","5","5","5","7","7","7","7","7","3","4","1","3","7","6","5","730803764885458946","薄","524","Female","[""坏她"",""坏我"",""好我"",""好她""]","[""弱她"",""弱我"",""强我"",""强她""]","","","","","","","","no","","","","","","","","","SRET","EW_formal","","key","j","16.669444444444608","768","428","朋友","马虎","Negative","ability","","","","","","","","","","",""
"956","","j","psychophysics","33","133868","0.0-7.0-3.0-0.19","5","6","6","6","5","4","4","4","5","4","2","0","2","1","1","1","1","0","1","4","4","5","4","3","4","4","4","4","4","5","5","5","5","4","4","6","4","5","5","6","6","5","6","3","6","6","6","5","1","5","5","5","3","5","5","5","4","4","5","3","6","3","3","4","5","5","5","7","7","7","7","7","3","4","1","3","7","6","5","730803764885458946","薄","524","Female","[""坏她"",""坏我"",""好我"",""好她""]","[""弱她"",""弱我"",""强我"",""强她""]","","","","","","","","no","","","","","","","","","SRET","EW_formal","","key","j","16.666379310344727","768","428","自己","拜金","Negative","morality","","","","","","","","","","",""
"714","","f","psychophysics","34","135583","0.0-7.0-3.0-0.20","5","6","6","6","5","4","4","4","5","4","2","0","2","1","1","1","1","0","1","4","4","5","4","3","4","4","4","4","4","5","5","5","5","4","4","6","4","5","5","6","6","5","6","3","6","6","6","5","1","5","5","5","3","5","5","5","4","4","5","3","6","3","3","4","5","5","5","7","7","7","7","7","3","4","1","3","7","6","5","730803764885458946","薄","524","Female","[""坏她"",""坏我"",""好我"",""好她""]","[""弱她"",""弱我"",""强我"",""强她""]","","","","","","","","yes","","","","","","","","","SRET","EW_formal","","key","f","16.66470588235311","768","428","自己","聪明","Positive","ability","","","","","","","","","","",""
"727","","j","psychophysics","35","137312","0.0-7.0-3.0-0.21","5","6","6","6","5","4","4","4","5","4","2","0","2","1","1","1","1","0","1","4","4","5","4","3","4","4","4","4","4","5","5","5","5","4","4","6","4","5","5","6","6","5","6","3","6","6","6","5","1","5","5","5","3","5","5","5","4","4","5","3","6","3","3","4","5","5","5","7","7","7","7","7","3","4","1","3","7","6","5","730803764885458946","薄","524","Female","[""坏她"",""坏我"",""好我"",""好她""]","[""弱她"",""弱我"",""强我"",""强她""]","","","","","","","","no","","","","","","","","","SRET","EW_formal","","key","j","16.666019417475784","768","428","朋友","驽钝","Negative","ability","","","","","","","","","","",""
"828","","f","psychophysics","36","139141","0.0-7.0-3.0-0.22","5","6","6","6","5","4","4","4","5","4","2","0","2","1","1","1","1","0","1","4","4","5","4","3","4","4","4","4","4","5","5","5","5","4","4","6","4","5","5","6","6","5","6","3","6","6","6","5","1","5","5","5","3","5","5","5","4","4","5","3","6","3","3","4","5","5","5","7","7","7","7","7","3","4","1","3","7","6","5","730803764885458946","薄","524","Female","[""坏她"",""坏我"",""好我"",""好她""]","[""弱她"",""弱我"",""强我"",""强她""]","","","","","","","","yes","","","","","","","","","SRET","EW_formal","","key","f","16.666666666666668","768","428","自己","廉明","Positive","morality","","","","","","","","","","",""
"1198","","f","psychophysics","37","141341","0.0-7.0-3.0-0.23","5","6","6","6","5","4","4","4","5","4","2","0","2","1","1","1","1","0","1","4","4","5","4","3","4","4","4","4","4","5","5","5","5","4","4","6","4","5","5","6","6","5","6","3","6","6","6","5","1","5","5","5","3","5","5","5","4","4","5","3","6","3","3","4","5","5","5","7","7","7","7","7","3","4","1","3","7","6","5","730803764885458946","薄","524","Female","[""坏她"",""坏我"",""好我"",""好她""]","[""弱她"",""弱我"",""强我"",""强她""]","","","","","","","","yes","","","","","","","","","SRET","EW_formal","","key","f","16.66488549618325","768","428","朋友","清廉","Positive","morality","","","","","","","","","","",""
"728","","j","psychophysics","38","143070","0.0-7.0-3.0-0.24","5","6","6","6","5","4","4","4","5","4","2","0","2","1","1","1","1","0","1","4","4","5","4","3","4","4","4","4","4","5","5","5","5","4","4","6","4","5","5","6","6","5","6","3","6","6","6","5","1","5","5","5","3","5","5","5","4","4","5","3","6","3","3","4","5","5","5","7","7","7","7","7","3","4","1","3","7","6","5","730803764885458946","薄","524","Female","[""坏她"",""坏我"",""好我"",""好她""]","[""弱她"",""弱我"",""强我"",""强她""]","","","","","","","","no","","","","","","","","","SRET","EW_formal","","key","j","16.668932038834896","768","428","自己","窝囊","Negative","ability","","","","","","","","","","",""
"1107","","f","psychophysics","39","145179","0.0-7.0-3.0-0.25","5","6","6","6","5","4","4","4","5","4","2","0","2","1","1","1","1","0","1","4","4","5","4","3","4","4","4","4","4","5","5","5","5","4","4","6","4","5","5","6","6","5","6","3","6","6","6","5","1","5","5","5","3","5","5","5","4","4","5","3","6","3","3","4","5","5","5","7","7","7","7","7","3","4","1","3","7","6","5","730803764885458946","薄","524","Female","[""坏她"",""坏我"",""好我"",""好她""]","[""弱她"",""弱我"",""强我"",""强她""]","","","","","","","","yes","","","","","","","","","SRET","EW_formal","","key","f","16.667460317460364","768","428","自己","学霸","Positive","ability","","","","","","","","","","",""
"789","","j","psychophysics","40","146969","0.0-7.0-3.0-0.26","5","6","6","6","5","4","4","4","5","4","2","0","2","1","1","1","1","0","1","4","4","5","4","3","4","4","4","4","4","5","5","5","5","4","4","6","4","5","5","6","6","5","6","3","6","6","6","5","1","5","5","5","3","5","5","5","4","4","5","3","6","3","3","4","5","5","5","7","7","7","7","7","3","4","1","3","7","6","5","730803764885458946","薄","524","Female","[""坏她"",""坏我"",""好我"",""好她""]","[""弱她"",""弱我"",""强我"",""强她""]","","","","","","","","no","","","","","","","","","SRET","EW_formal","","key","j","16.666037735849113","768","428","朋友","不仁","Negative","morality","","","","","","","","","","",""
"789","","j","psychophysics","41","148760","0.0-7.0-3.0-0.27","5","6","6","6","5","4","4","4","5","4","2","0","2","1","1","1","1","0","1","4","4","5","4","3","4","4","4","4","4","5","5","5","5","4","4","6","4","5","5","6","6","5","6","3","6","6","6","5","1","5","5","5","3","5","5","5","4","4","5","3","6","3","3","4","5","5","5","7","7","7","7","7","3","4","1","3","7","6","5","730803764885458946","薄","524","Female","[""坏她"",""坏我"",""好我"",""好她""]","[""弱她"",""弱我"",""强我"",""强她""]","","","","","","","","no","","","","","","","","","SRET","EW_formal","","key","j","16.66822429906542","768","428","自己","贪腐","Negative","morality","","","","","","","","","","",""
"985","","j","psychophysics","42","150746","0.0-7.0-3.0-0.28","5","6","6","6","5","4","4","4","5","4","2","0","2","1","1","1","1","0","1","4","4","5","4","3","4","4","4","4","4","5","5","5","5","4","4","6","4","5","5","6","6","5","6","3","6","6","6","5","1","5","5","5","3","5","5","5","4","4","5","3","6","3","3","4","5","5","5","7","7","7","7","7","3","4","1","3","7","6","5","730803764885458946","薄","524","Female","[""坏她"",""坏我"",""好我"",""好她""]","[""弱她"",""弱我"",""强我"",""强她""]","","","","","","","","no","","","","","","","","","SRET","EW_formal","","key","j","16.66440677966097","768","428","自己","无敌","Positive","ability","","","","","","","","","","",""
"924","","j","psychophysics","43","152670","0.0-7.0-3.0-0.29","5","6","6","6","5","4","4","4","5","4","2","0","2","1","1","1","1","0","1","4","4","5","4","3","4","4","4","4","4","5","5","5","5","4","4","6","4","5","5","6","6","5","6","3","6","6","6","5","1","5","5","5","3","5","5","5","4","4","5","3","6","3","3","4","5","5","5","7","7","7","7","7","3","4","1","3","7","6","5","730803764885458946","薄","524","Female","[""坏她"",""坏我"",""好我"",""好她""]","[""弱她"",""弱我"",""强我"",""强她""]","","","","","","","","no","","","","","","","","","SRET","EW_formal","","key","j","16.66578947368416","768","428","自己","利己","Negative","morality","","","","","","","","","","",""
"777","","f","psychophysics","44","154450","0.0-7.0-3.0-0.30","5","6","6","6","5","4","4","4","5","4","2","0","2","1","1","1","1","0","1","4","4","5","4","3","4","4","4","4","4","5","5","5","5","4","4","6","4","5","5","6","6","5","6","3","6","6","6","5","1","5","5","5","3","5","5","5","4","4","5","3","6","3","3","4","5","5","5","7","7","7","7","7","3","4","1","3","7","6","5","730803764885458946","薄","524","Female","[""坏她"",""坏我"",""好我"",""好她""]","[""弱她"",""弱我"",""强我"",""强她""]","","","","","","","","yes","","","","","","","","","SRET","EW_formal","","key","f","16.666037735849113","768","428","朋友","娴熟","Positive","ability","","","","","","","","","","",""
"753","","j","psychophysics","45","156204","0.0-7.0-3.0-0.31","5","6","6","6","5","4","4","4","5","4","2","0","2","1","1","1","1","0","1","4","4","5","4","3","4","4","4","4","4","5","5","5","5","4","4","6","4","5","5","6","6","5","6","3","6","6","6","5","1","5","5","5","3","5","5","5","4","4","5","3","6","3","3","4","5","5","5","7","7","7","7","7","3","4","1","3","7","6","5","730803764885458946","薄","524","Female","[""坏她"",""坏我"",""好我"",""好她""]","[""弱她"",""弱我"",""强我"",""强她""]","","","","","","","","no","","","","","","","","","SRET","EW_formal","","key","j","16.666346153846042","768","428","自己","拙笨","Negative","ability","","","","","","","","","","",""
"757","","f","psychophysics","46","157963","0.0-7.0-3.0-0.32","5","6","6","6","5","4","4","4","5","4","2","0","2","1","1","1","1","0","1","4","4","5","4","3","4","4","4","4","4","5","5","5","5","4","4","6","4","5","5","6","6","5","6","3","6","6","6","5","1","5","5","5","3","5","5","5","4","4","5","3","6","3","3","4","5","5","5","7","7","7","7","7","3","4","1","3","7","6","5","730803764885458946","薄","524","Female","[""坏她"",""坏我"",""好我"",""好她""]","[""弱她"",""弱我"",""强我"",""强她""]","","","","","","","","yes","","","","","","","","","SRET","EW_formal","","key","f","16.66571428571423","768","428","自己","敬业","Positive","morality","","","","","","","","","","",""
"898","","j","psychophysics","47","159862","0.0-7.0-3.0-0.33","5","6","6","6","5","4","4","4","5","4","2","0","2","1","1","1","1","0","1","4","4","5","4","3","4","4","4","4","4","5","5","5","5","4","4","6","4","5","5","6","6","5","6","3","6","6","6","5","1","5","5","5","3","5","5","5","4","4","5","3","6","3","3","4","5","5","5","7","7","7","7","7","3","4","1","3","7","6","5","730803764885458946","薄","524","Female","[""坏她"",""坏我"",""好我"",""好她""]","[""弱她"",""弱我"",""强我"",""强她""]","","","","","","","","no","","","","","","","","","SRET","EW_formal","","key","j","16.66548672566382","768","428","朋友","短视","Negative","ability","","","","","","","","","","",""
"915","","j","psychophysics","48","161779","0.0-7.0-3.0-0.34","5","6","6","6","5","4","4","4","5","4","2","0","2","1","1","1","1","0","1","4","4","5","4","3","4","4","4","4","4","5","5","5","5","4","4","6","4","5","5","6","6","5","6","3","6","6","6","5","1","5","5","5","3","5","5","5","4","4","5","3","6","3","3","4","5","5","5","7","7","7","7","7","3","4","1","3","7","6","5","730803764885458946","薄","524","Female","[""坏她"",""坏我"",""好我"",""好她""]","[""弱她"",""弱我"",""强我"",""强她""]","","","","","","","","no","","","","","","","","","SRET","EW_formal","","key","j","16.667543859649175","768","428","朋友","邪恶","Negative","morality","","","","","","","","","","",""
"807","","f","psychophysics","49","163587","0.0-7.0-3.0-0.35","5","6","6","6","5","4","4","4","5","4","2","0","2","1","1","1","1","0","1","4","4","5","4","3","4","4","4","4","4","5","5","5","5","4","4","6","4","5","5","6","6","5","6","3","6","6","6","5","1","5","5","5","3","5","5","5","4","4","5","3","6","3","3","4","5","5","5","7","7","7","7","7","3","4","1","3","7","6","5","730803764885458946","薄","524","Female","[""坏她"",""坏我"",""好我"",""好她""]","[""弱她"",""弱我"",""强我"",""强她""]","","","","","","","","yes","","","","","","","","","SRET","EW_formal","","key","f","16.666355140186806","768","428","朋友","精干","Positive","ability","","","","","","","","","","",""
"839","","f","psychophysics","50","165429","0.0-7.0-3.0-0.36","5","6","6","6","5","4","4","4","5","4","2","0","2","1","1","1","1","0","1","4","4","5","4","3","4","4","4","4","4","5","5","5","5","4","4","6","4","5","5","6","6","5","6","3","6","6","6","5","1","5","5","5","3","5","5","5","4","4","5","3","6","3","3","4","5","5","5","7","7","7","7","7","3","4","1","3","7","6","5","730803764885458946","薄","524","Female","[""坏她"",""坏我"",""好我"",""好她""]","[""弱她"",""弱我"",""强我"",""强她""]","","","","","","","","yes","","","","","","","","","SRET","EW_formal","","key","f","16.66636363636353","768","428","朋友","有力","Positive","ability","","","","","","","","","","",""
"952","","f","psychophysics","51","167384","0.0-7.0-3.0-0.37","5","6","6","6","5","4","4","4","5","4","2","0","2","1","1","1","1","0","1","4","4","5","4","3","4","4","4","4","4","5","5","5","5","4","4","6","4","5","5","6","6","5","6","3","6","6","6","5","1","5","5","5","3","5","5","5","4","4","5","3","6","3","3","4","5","5","5","7","7","7","7","7","3","4","1","3","7","6","5","730803764885458946","薄","524","Female","[""坏她"",""坏我"",""好我"",""好她""]","[""弱她"",""弱我"",""强我"",""强她""]","","","","","","","","yes","","","","","","","","","SRET","EW_formal","","key","f","16.664655172413845","768","428","自己","刚正","Positive","morality","","","","","","","","","","",""
"810","","j","psychophysics","52","169196","0.0-7.0-3.0-0.38","5","6","6","6","5","4","4","4","5","4","2","0","2","1","1","1","1","0","1","4","4","5","4","3","4","4","4","4","4","5","5","5","5","4","4","6","4","5","5","6","6","5","6","3","6","6","6","5","1","5","5","5","3","5","5","5","4","4","5","3","6","3","3","4","5","5","5","7","7","7","7","7","3","4","1","3","7","6","5","730803764885458946","薄","524","Female","[""坏她"",""坏我"",""好我"",""好她""]","[""弱她"",""弱我"",""强我"",""强她""]","","","","","","","","no","","","","","","","","","SRET","EW_formal","","key","j","16.668518518518628","768","428","自己","无为","Negative","ability","","","","","","","","","","",""
"945","","j","psychophysics","53","171143","0.0-7.0-3.0-0.39","5","6","6","6","5","4","4","4","5","4","2","0","2","1","1","1","1","0","1","4","4","5","4","3","4","4","4","4","4","5","5","5","5","4","4","6","4","5","5","6","6","5","6","3","6","6","6","5","1","5","5","5","3","5","5","5","4","4","5","3","6","3","3","4","5","5","5","7","7","7","7","7","3","4","1","3","7","6","5","730803764885458946","薄","524","Female","[""坏她"",""坏我"",""好我"",""好她""]","[""弱她"",""弱我"",""强我"",""强她""]","","","","","","","","no","","","","","","","","","SRET","EW_formal","","key","j","16.665517241379412","768","428","朋友","屈才","Negative","ability","","","","","","","","","","",""
"1134","","j","psychophysics","54","173279","0.0-7.0-3.0-0.40","5","6","6","6","5","4","4","4","5","4","2","0","2","1","1","1","1","0","1","4","4","5","4","3","4","4","4","4","4","5","5","5","5","4","4","6","4","5","5","6","6","5","6","3","6","6","6","5","1","5","5","5","3","5","5","5","4","4","5","3","6","3","3","4","5","5","5","7","7","7","7","7","3","4","1","3","7","6","5","730803764885458946","薄","524","Female","[""坏她"",""坏我"",""好我"",""好她""]","[""弱她"",""弱我"",""强我"",""强她""]","","","","","","","","no","","","","","","","","","SRET","EW_formal","","key","j","16.665354330708663","768","428","朋友","无能","Negative","ability","","","","","","","","","","",""
"810","","f","psychophysics","55","175092","0.0-7.0-3.0-0.41","5","6","6","6","5","4","4","4","5","4","2","0","2","1","1","1","1","0","1","4","4","5","4","3","4","4","4","4","4","5","5","5","5","4","4","6","4","5","5","6","6","5","6","3","6","6","6","5","1","5","5","5","3","5","5","5","4","4","5","3","6","3","3","4","5","5","5","7","7","7","7","7","3","4","1","3","7","6","5","730803764885458946","薄","524","Female","[""坏她"",""坏我"",""好我"",""好她""]","[""弱她"",""弱我"",""强我"",""强她""]","","","","","","","","yes","","","","","","","","","SRET","EW_formal","","key","f","16.665740740740688","768","428","朋友","自律","Positive","ability","","","","","","","","","","",""
"825","","f","psychophysics","56","176919","0.0-7.0-3.0-0.42","5","6","6","6","5","4","4","4","5","4","2","0","2","1","1","1","1","0","1","4","4","5","4","3","4","4","4","4","4","5","5","5","5","4","4","6","4","5","5","6","6","5","6","3","6","6","6","5","1","5","5","5","3","5","5","5","4","4","5","3","6","3","3","4","5","5","5","7","7","7","7","7","3","4","1","3","7","6","5","730803764885458946","薄","524","Female","[""坏她"",""坏我"",""好我"",""好她""]","[""弱她"",""弱我"",""强我"",""强她""]","","","","","","","","yes","","","","","","","","","SRET","EW_formal","","key","f","16.663888888888728","768","428","自己","守信","Positive","morality","","","","","","","","","","",""
"736","","f","psychophysics","57","178657","0.0-7.0-3.0-0.43","5","6","6","6","5","4","4","4","5","4","2","0","2","1","1","1","1","0","1","4","4","5","4","3","4","4","4","4","4","5","5","5","5","4","4","6","4","5","5","6","6","5","6","3","6","6","6","5","1","5","5","5","3","5","5","5","4","4","5","3","6","3","3","4","5","5","5","7","7","7","7","7","3","4","1","3","7","6","5","730803764885458946","薄","524","Female","[""坏她"",""坏我"",""好我"",""好她""]","[""弱她"",""弱我"",""强我"",""强她""]","","","","","","","","yes","","","","","","","","","SRET","EW_formal","","key","f","16.665384615384728","768","428","朋友","宽容","Positive","morality","","","","","","","","","","",""
"734","","f","psychophysics","58","180393","0.0-7.0-3.0-0.44","5","6","6","6","5","4","4","4","5","4","2","0","2","1","1","1","1","0","1","4","4","5","4","3","4","4","4","4","4","5","5","5","5","4","4","6","4","5","5","6","6","5","6","3","6","6","6","5","1","5","5","5","3","5","5","5","4","4","5","3","6","3","3","4","5","5","5","7","7","7","7","7","3","4","1","3","7","6","5","730803764885458946","薄","524","Female","[""坏她"",""坏我"",""好我"",""好她""]","[""弱她"",""弱我"",""强我"",""强她""]","","","","","","","","yes","","","","","","","","","SRET","EW_formal","","key","f","16.666990291261968","768","428","朋友","义气","Positive","morality","","","","","","","","","","",""
"802","","f","psychophysics","59","182195","0.0-7.0-3.0-0.45","5","6","6","6","5","4","4","4","5","4","2","0","2","1","1","1","1","0","1","4","4","5","4","3","4","4","4","4","4","5","5","5","5","4","4","6","4","5","5","6","6","5","6","3","6","6","6","5","1","5","5","5","3","5","5","5","4","4","5","3","6","3","3","4","5","5","5","7","7","7","7","7","3","4","1","3","7","6","5","730803764885458946","薄","524","Female","[""坏她"",""坏我"",""好我"",""好她""]","[""弱她"",""弱我"",""强我"",""强她""]","","","","","","","","yes","","","","","","","","","SRET","EW_formal","","key","f","16.664485981308193","768","428","朋友","厚道","Positive","morality","","","","","","","","","","",""
"902","","f","psychophysics","60","184100","0.0-7.0-3.0-0.46","5","6","6","6","5","4","4","4","5","4","2","0","2","1","1","1","1","0","1","4","4","5","4","3","4","4","4","4","4","5","5","5","5","4","4","6","4","5","5","6","6","5","6","3","6","6","6","5","1","5","5","5","3","5","5","5","4","4","5","3","6","3","3","4","5","5","5","7","7","7","7","7","3","4","1","3","7","6","5","730803764885458946","薄","524","Female","[""坏她"",""坏我"",""好我"",""好她""]","[""弱她"",""弱我"",""强我"",""强她""]","","","","","","","","yes","","","","","","","","","SRET","EW_formal","","key","f","16.666371681415825","768","428","自己","全才","Positive","ability","","","","","","","","","","",""
"980","","j","psychophysics","61","186082","0.0-7.0-3.0-0.47","5","6","6","6","5","4","4","4","5","4","2","0","2","1","1","1","1","0","1","4","4","5","4","3","4","4","4","4","4","5","5","5","5","4","4","6","4","5","5","6","6","5","6","3","6","6","6","5","1","5","5","5","3","5","5","5","4","4","5","3","6","3","3","4","5","5","5","7","7","7","7","7","3","4","1","3","7","6","5","730803764885458946","薄","524","Female","[""坏她"",""坏我"",""好我"",""好她""]","[""弱她"",""弱我"",""强我"",""强她""]","","","","","","","","no","","","","","","","","","SRET","EW_formal","","key","j","16.666949152542227","768","428","朋友","草率","Negative","ability","","","","","","","","","","",""
"750","","j","psychophysics","62","187834","0.0-7.0-3.0-0.48","5","6","6","6","5","4","4","4","5","4","2","0","2","1","1","1","1","0","1","4","4","5","4","3","4","4","4","4","4","5","5","5","5","4","4","6","4","5","5","6","6","5","6","3","6","6","6","5","1","5","5","5","3","5","5","5","4","4","5","3","6","3","3","4","5","5","5","7","7","7","7","7","3","4","1","3","7","6","5","730803764885458946","薄","524","Female","[""坏她"",""坏我"",""好我"",""好她""]","[""弱她"",""弱我"",""强我"",""强她""]","","","","","","","","no","","","","","","","","","SRET","EW_formal","","key","j","16.667307692307915","768","428","朋友","淫乱","Negative","morality","","","","","","","","","","",""
"641","","j","psychophysics","63","189477","0.0-7.0-3.0-0.49","5","6","6","6","5","4","4","4","5","4","2","0","2","1","1","1","1","0","1","4","4","5","4","3","4","4","4","4","4","5","5","5","5","4","4","6","4","5","5","6","6","5","6","3","6","6","6","5","1","5","5","5","3","5","5","5","4","4","5","3","6","3","3","4","5","5","5","7","7","7","7","7","3","4","1","3","7","6","5","730803764885458946","薄","524","Female","[""坏她"",""坏我"",""好我"",""好她""]","[""弱她"",""弱我"",""强我"",""强她""]","","","","","","","","no","","","","","","","","","SRET","EW_formal","","key","j","16.667346938775452","768","428","朋友","短浅","Negative","ability","","","","","","","","","","",""
"743","","j","psychophysics","64","191224","0.0-7.0-3.0-0.50","5","6","6","6","5","4","4","4","5","4","2","0","2","1","1","1","1","0","1","4","4","5","4","3","4","4","4","4","4","5","5","5","5","4","4","6","4","5","5","6","6","5","6","3","6","6","6","5","1","5","5","5","3","5","5","5","4","4","5","3","6","3","3","4","5","5","5","7","7","7","7","7","3","4","1","3","7","6","5","730803764885458946","薄","524","Female","[""坏她"",""坏我"",""好我"",""好她""]","[""弱她"",""弱我"",""强我"",""强她""]","","","","","","","","no","","","","","","","","","SRET","EW_formal","","key","j","16.66346153846154","768","428","朋友","势利","Negative","morality","","","","","","","","","","",""
"625","","f","psychophysics","65","192851","0.0-7.0-3.0-0.51","5","6","6","6","5","4","4","4","5","4","2","0","2","1","1","1","1","0","1","4","4","5","4","3","4","4","4","4","4","5","5","5","5","4","4","6","4","5","5","6","6","5","6","3","6","6","6","5","1","5","5","5","3","5","5","5","4","4","5","3","6","3","3","4","5","5","5","7","7","7","7","7","3","4","1","3","7","6","5","730803764885458946","薄","524","Female","[""坏她"",""坏我"",""好我"",""好她""]","[""弱她"",""弱我"",""强我"",""强她""]","","","","","","","","yes","","","","","","","","","SRET","EW_formal","","key","f","16.663541666666486","768","428","自己","守法","Positive","morality","","","","","","","","","","",""
"606","","j","psychophysics","66","194459","0.0-7.0-3.0-0.52","5","6","6","6","5","4","4","4","5","4","2","0","2","1","1","1","1","0","1","4","4","5","4","3","4","4","4","4","4","5","5","5","5","4","4","6","4","5","5","6","6","5","6","3","6","6","6","5","1","5","5","5","3","5","5","5","4","4","5","3","6","3","3","4","5","5","5","7","7","7","7","7","3","4","1","3","7","6","5","730803764885458946","薄","524","Female","[""坏她"",""坏我"",""好我"",""好她""]","[""弱她"",""弱我"",""强我"",""强她""]","","","","","","","","no","","","","","","","","","SRET","EW_formal","","key","j","16.66875000000012","768","428","朋友","不良","Negative","morality","","","","","","","","","","",""
"758","","f","psychophysics","67","196218","0.0-7.0-3.0-0.53","5","6","6","6","5","4","4","4","5","4","2","0","2","1","1","1","1","0","1","4","4","5","4","3","4","4","4","4","4","5","5","5","5","4","4","6","4","5","5","6","6","5","6","3","6","6","6","5","1","5","5","5","3","5","5","5","4","4","5","3","6","3","3","4","5","5","5","7","7","7","7","7","3","4","1","3","7","6","5","730803764885458946","薄","524","Female","[""坏她"",""坏我"",""好我"",""好她""]","[""弱她"",""弱我"",""强我"",""强她""]","","","","","","","","yes","","","","","","","","","SRET","EW_formal","","key","f","16.666346153846042","768","428","自己","忠义","Positive","morality","","","","","","","","","","",""
"831","","f","psychophysics","68","198051","0.0-7.0-3.0-0.54","5","6","6","6","5","4","4","4","5","4","2","0","2","1","1","1","1","0","1","4","4","5","4","3","4","4","4","4","4","5","5","5","5","4","4","6","4","5","5","6","6","5","6","3","6","6","6","5","1","5","5","5","3","5","5","5","4","4","5","3","6","3","3","4","5","5","5","7","7","7","7","7","3","4","1","3","7","6","5","730803764885458946","薄","524","Female","[""坏她"",""坏我"",""好我"",""好她""]","[""弱她"",""弱我"",""强我"",""强她""]","","","","","","","","yes","","","","","","","","","SRET","EW_formal","","key","f","16.66330275229374","768","428","朋友","博学","Positive","ability","","","","","","","","","","",""
"1011","","f","psychophysics","69","200065","0.0-7.0-3.0-0.55","5","6","6","6","5","4","4","4","5","4","2","0","2","1","1","1","1","0","1","4","4","5","4","3","4","4","4","4","4","5","5","5","5","4","4","6","4","5","5","6","6","5","6","3","6","6","6","5","1","5","5","5","3","5","5","5","4","4","5","3","6","3","3","4","5","5","5","7","7","7","7","7","3","4","1","3","7","6","5","730803764885458946","薄","524","Female","[""坏她"",""坏我"",""好我"",""好她""]","[""弱她"",""弱我"",""强我"",""强她""]","","","","","","","","yes","","","","","","","","","SRET","EW_formal","","key","f","16.666666666666668","768","428","自己","刻苦","Positive","ability","","","","","","","","","","",""
"588","","f","psychophysics","70","201656","0.0-7.0-3.0-0.56","5","6","6","6","5","4","4","4","5","4","2","0","2","1","1","1","1","0","1","4","4","5","4","3","4","4","4","4","4","5","5","5","5","4","4","6","4","5","5","6","6","5","6","3","6","6","6","5","1","5","5","5","3","5","5","5","4","4","5","3","6","3","3","4","5","5","5","7","7","7","7","7","3","4","1","3","7","6","5","730803764885458946","薄","524","Female","[""坏她"",""坏我"",""好我"",""好她""]","[""弱她"",""弱我"",""强我"",""强她""]","","","","","","","","yes","","","","","","","","","SRET","EW_formal","","key","f","16.66736842105257","768","428","自己","肯干","Positive","ability","","","","","","","","","","",""
"650","","f","psychophysics","71","203306","0.0-7.0-3.0-0.57","5","6","6","6","5","4","4","4","5","4","2","0","2","1","1","1","1","0","1","4","4","5","4","3","4","4","4","4","4","5","5","5","5","4","4","6","4","5","5","6","6","5","6","3","6","6","6","5","1","5","5","5","3","5","5","5","4","4","5","3","6","3","3","4","5","5","5","7","7","7","7","7","3","4","1","3","7","6","5","730803764885458946","薄","524","Female","[""坏她"",""坏我"",""好我"",""好她""]","[""弱她"",""弱我"",""强我"",""强她""]","","","","","","","","yes","","","","","","","","","SRET","EW_formal","","key","f","16.664285714285775","768","428","自己","礼貌","Positive","morality","","","","","","","","","","",""
"931","","f","psychophysics","72","205241","0.0-7.0-3.0-0.58","5","6","6","6","5","4","4","4","5","4","2","0","2","1","1","1","1","0","1","4","4","5","4","3","4","4","4","4","4","5","5","5","5","4","4","6","4","5","5","6","6","5","6","3","6","6","6","5","1","5","5","5","3","5","5","5","4","4","5","3","6","3","3","4","5","5","5","7","7","7","7","7","3","4","1","3","7","6","5","730803764885458946","薄","524","Female","[""坏她"",""坏我"",""好我"",""好她""]","[""弱她"",""弱我"",""强我"",""强她""]","","","","","","","","yes","","","","","","","","","SRET","EW_formal","","key","f","16.66521739130435","768","428","朋友","骁勇","Positive","ability","","","","","","","","","","",""
"605","","f","psychophysics","73","206848","0.0-7.0-3.0-0.59","5","6","6","6","5","4","4","4","5","4","2","0","2","1","1","1","1","0","1","4","4","5","4","3","4","4","4","4","4","5","5","5","5","4","4","6","4","5","5","6","6","5","6","3","6","6","6","5","1","5","5","5","3","5","5","5","4","4","5","3","6","3","3","4","5","5","5","7","7","7","7","7","3","4","1","3","7","6","5","730803764885458946","薄","524","Female","[""坏她"",""坏我"",""好我"",""好她""]","[""弱她"",""弱我"",""强我"",""强她""]","","","","","","","","yes","","","","","","","","","SRET","EW_formal","","key","f","16.66315789473684","768","428","自己","稳健","Positive","ability","","","","","","","","","","",""
"574","","f","psychophysics","74","208425","0.0-7.0-3.0-0.60","5","6","6","6","5","4","4","4","5","4","2","0","2","1","1","1","1","0","1","4","4","5","4","3","4","4","4","4","4","5","5","5","5","4","4","6","4","5","5","6","6","5","6","3","6","6","6","5","1","5","5","5","3","5","5","5","4","4","5","3","6","3","3","4","5","5","5","7","7","7","7","7","3","4","1","3","7","6","5","730803764885458946","薄","524","Female","[""坏她"",""坏我"",""好我"",""好她""]","[""弱她"",""弱我"",""强我"",""强她""]","","","","","","","","yes","","","","","","","","","SRET","EW_formal","","key","f","16.668085106382854","768","428","朋友","诚信","Positive","morality","","","","","","","","","","",""
"630","","j","psychophysics","75","210057","0.0-7.0-3.0-0.61","5","6","6","6","5","4","4","4","5","4","2","0","2","1","1","1","1","0","1","4","4","5","4","3","4","4","4","4","4","5","5","5","5","4","4","6","4","5","5","6","6","5","6","3","6","6","6","5","1","5","5","5","3","5","5","5","4","4","5","3","6","3","3","4","5","5","5","7","7","7","7","7","3","4","1","3","7","6","5","730803764885458946","薄","524","Female","[""坏她"",""坏我"",""好我"",""好她""]","[""弱她"",""弱我"",""强我"",""强她""]","","","","","","","","no","","","","","","","","","SRET","EW_formal","","key","j","16.663917525773137","768","428","自己","无私","Positive","morality","","","","","","","","","","",""
"915","","j","psychophysics","76","211974","0.0-7.0-3.0-0.62","5","6","6","6","5","4","4","4","5","4","2","0","2","1","1","1","1","0","1","4","4","5","4","3","4","4","4","4","4","5","5","5","5","4","4","6","4","5","5","6","6","5","6","3","6","6","6","5","1","5","5","5","3","5","5","5","4","4","5","3","6","3","3","4","5","5","5","7","7","7","7","7","3","4","1","3","7","6","5","730803764885458946","薄","524","Female","[""坏她"",""坏我"",""好我"",""好她""]","[""弱她"",""弱我"",""强我"",""强她""]","","","","","","","","no","","","","","","","","","SRET","EW_formal","","key","j","16.66754385964892","768","428","朋友","失信","Negative","morality","","","","","","","","","","",""
"757","","f","psychophysics","77","213732","0.0-7.0-3.0-0.63","5","6","6","6","5","4","4","4","5","4","2","0","2","1","1","1","1","0","1","4","4","5","4","3","4","4","4","4","4","5","5","5","5","4","4","6","4","5","5","6","6","5","6","3","6","6","6","5","1","5","5","5","3","5","5","5","4","4","5","3","6","3","3","4","5","5","5","7","7","7","7","7","3","4","1","3","7","6","5","730803764885458946","薄","524","Female","[""坏她"",""坏我"",""好我"",""好她""]","[""弱她"",""弱我"",""强我"",""强她""]","","","","","","","","yes","","","","","","","","","SRET","EW_formal","","key","f","16.66346153846154","768","428","朋友","忠良","Positive","morality","","","","","","","","","","",""
"666","","f","psychophysics","78","215401","0.0-7.0-3.0-0.64","5","6","6","6","5","4","4","4","5","4","2","0","2","1","1","1","1","0","1","4","4","5","4","3","4","4","4","4","4","5","5","5","5","4","4","6","4","5","5","6","6","5","6","3","6","6","6","5","1","5","5","5","3","5","5","5","4","4","5","3","6","3","3","4","5","5","5","7","7","7","7","7","3","4","1","3","7","6","5","730803764885458946","薄","524","Female","[""坏她"",""坏我"",""好我"",""好她""]","[""弱她"",""弱我"",""强我"",""强她""]","","","","","","","","yes","","","","","","","","","SRET","EW_formal","","key","f","16.66363636363648","768","428","自己","忠诚","Positive","morality","","","","","","","","","","",""
"587","","j","psychophysics","79","216989","0.0-7.0-3.0-0.65","5","6","6","6","5","4","4","4","5","4","2","0","2","1","1","1","1","0","1","4","4","5","4","3","4","4","4","4","4","5","5","5","5","4","4","6","4","5","5","6","6","5","6","3","6","6","6","5","1","5","5","5","3","5","5","5","4","4","5","3","6","3","3","4","5","5","5","7","7","7","7","7","3","4","1","3","7","6","5","730803764885458946","薄","524","Female","[""坏她"",""坏我"",""好我"",""好她""]","[""弱她"",""弱我"",""强我"",""强她""]","","","","","","","","no","","","","","","","","","SRET","EW_formal","","key","j","16.66736842105257","768","428","自己","低劣","Negative","morality","","","","","","","","","","",""
"750","","j","psychophysics","80","218739","0.0-7.0-3.0-0.66","5","6","6","6","5","4","4","4","5","4","2","0","2","1","1","1","1","0","1","4","4","5","4","3","4","4","4","4","4","5","5","5","5","4","4","6","4","5","5","6","6","5","6","3","6","6","6","5","1","5","5","5","3","5","5","5","4","4","5","3","6","3","3","4","5","5","5","7","7","7","7","7","3","4","1","3","7","6","5","730803764885458946","薄","524","Female","[""坏她"",""坏我"",""好我"",""好她""]","[""弱她"",""弱我"",""强我"",""强她""]","","","","","","","","no","","","","","","","","","SRET","EW_formal","","key","j","16.665384615384447","768","428","自己","蛇蝎","Negative","morality","","","","","","","","","","",""
"653","","f","psychophysics","81","220399","0.0-7.0-3.0-0.67","5","6","6","6","5","4","4","4","5","4","2","0","2","1","1","1","1","0","1","4","4","5","4","3","4","4","4","4","4","5","5","5","5","4","4","6","4","5","5","6","6","5","6","3","6","6","6","5","1","5","5","5","3","5","5","5","4","4","5","3","6","3","3","4","5","5","5","7","7","7","7","7","3","4","1","3","7","6","5","730803764885458946","薄","524","Female","[""坏她"",""坏我"",""好我"",""好她""]","[""弱她"",""弱我"",""强我"",""强她""]","","","","","","","","yes","","","","","","","","","SRET","EW_formal","","key","f","16.667346938775747","768","428","朋友","周到","Positive","ability","","","","","","","","","","",""
"664","","j","psychophysics","82","222065","0.0-7.0-3.0-0.68","5","6","6","6","5","4","4","4","5","4","2","0","2","1","1","1","1","0","1","4","4","5","4","3","4","4","4","4","4","5","5","5","5","4","4","6","4","5","5","6","6","5","6","3","6","6","6","5","1","5","5","5","3","5","5","5","4","4","5","3","6","3","3","4","5","5","5","7","7","7","7","7","3","4","1","3","7","6","5","730803764885458946","薄","524","Female","[""坏她"",""坏我"",""好我"",""好她""]","[""弱她"",""弱我"",""强我"",""强她""]","","","","","","","","no","","","","","","","","","SRET","EW_formal","","key","j","16.666666666666668","768","428","朋友","刻薄","Negative","morality","","","","","","","","","","",""
"927","","f","psychophysics","83","223994","0.0-7.0-3.0-0.69","5","6","6","6","5","4","4","4","5","4","2","0","2","1","1","1","1","0","1","4","4","5","4","3","4","4","4","4","4","5","5","5","5","4","4","6","4","5","5","6","6","5","6","3","6","6","6","5","1","5","5","5","3","5","5","5","4","4","5","3","6","3","3","4","5","5","5","7","7","7","7","7","3","4","1","3","7","6","5","730803764885458946","薄","524","Female","[""坏她"",""坏我"",""好我"",""好她""]","[""弱她"",""弱我"",""强我"",""强她""]","","","","","","","","yes","","","","","","","","","SRET","EW_formal","","key","f","16.66521739130435","768","428","自己","思辨","Positive","ability","","","","","","","","","","",""
"772","","j","psychophysics","84","225770","0.0-7.0-3.0-0.70","5","6","6","6","5","4","4","4","5","4","2","0","2","1","1","1","1","0","1","4","4","5","4","3","4","4","4","4","4","5","5","5","5","4","4","6","4","5","5","6","6","5","6","3","6","6","6","5","1","5","5","5","3","5","5","5","4","4","5","3","6","3","3","4","5","5","5","7","7","7","7","7","3","4","1","3","7","6","5","730803764885458946","薄","524","Female","[""坏她"",""坏我"",""好我"",""好她""]","[""弱她"",""弱我"",""强我"",""强她""]","","","","","","","","no","","","","","","","","","SRET","EW_formal","","key","j","16.667924528302052","768","428","自己","浅薄","Negative","ability","","","","","","","","","","",""
"662","","j","psychophysics","85","227433","0.0-7.0-3.0-0.71","5","6","6","6","5","4","4","4","5","4","2","0","2","1","1","1","1","0","1","4","4","5","4","3","4","4","4","4","4","5","5","5","5","4","4","6","4","5","5","6","6","5","6","3","6","6","6","5","1","5","5","5","3","5","5","5","4","4","5","3","6","3","3","4","5","5","5","7","7","7","7","7","3","4","1","3","7","6","5","730803764885458946","薄","524","Female","[""坏她"",""坏我"",""好我"",""好她""]","[""弱她"",""弱我"",""强我"",""强她""]","","","","","","","","no","","","","","","","","","SRET","EW_formal","","key","j","16.6653061224488","768","428","自己","虚假","Negative","morality","","","","","","","","","","",""
"1209","","j","psychophysics","86","229649","0.0-7.0-3.0-0.72","5","6","6","6","5","4","4","4","5","4","2","0","2","1","1","1","1","0","1","4","4","5","4","3","4","4","4","4","4","5","5","5","5","4","4","6","4","5","5","6","6","5","6","3","6","6","6","5","1","5","5","5","3","5","5","5","4","4","5","3","6","3","3","4","5","5","5","7","7","7","7","7","3","4","1","3","7","6","5","730803764885458946","薄","524","Female","[""坏她"",""坏我"",""好我"",""好她""]","[""弱她"",""弱我"",""强我"",""强她""]","","","","","","","","no","","","","","","","","","SRET","EW_formal","","key","j","16.666666666666668","768","428","自己","逞强","Negative","ability","","","","","","","","","","",""
"629","","j","psychophysics","87","231281","0.0-7.0-3.0-0.73","5","6","6","6","5","4","4","4","5","4","2","0","2","1","1","1","1","0","1","4","4","5","4","3","4","4","4","4","4","5","5","5","5","4","4","6","4","5","5","6","6","5","6","3","6","6","6","5","1","5","5","5","3","5","5","5","4","4","5","3","6","3","3","4","5","5","5","7","7","7","7","7","3","4","1","3","7","6","5","730803764885458946","薄","524","Female","[""坏她"",""坏我"",""好我"",""好她""]","[""弱她"",""弱我"",""强我"",""强她""]","","","","","","","","no","","","","","","","","","SRET","EW_formal","","key","j","16.66804123711358","768","428","自己","无耻","Negative","morality","","","","","","","","","","",""
"625","","f","psychophysics","88","232909","0.0-7.0-3.0-0.74","5","6","6","6","5","4","4","4","5","4","2","0","2","1","1","1","1","0","1","4","4","5","4","3","4","4","4","4","4","5","5","5","5","4","4","6","4","5","5","6","6","5","6","3","6","6","6","5","1","5","5","5","3","5","5","5","4","4","5","3","6","3","3","4","5","5","5","7","7","7","7","7","3","4","1","3","7","6","5","730803764885458946","薄","524","Female","[""坏她"",""坏我"",""好我"",""好她""]","[""弱她"",""弱我"",""强我"",""强她""]","","","","","","","","yes","","","","","","","","","SRET","EW_formal","","key","f","16.66804123711358","768","428","朋友","热心","Positive","morality","","","","","","","","","","",""
"978","","j","psychophysics","89","234890","0.0-7.0-3.0-0.75","5","6","6","6","5","4","4","4","5","4","2","0","2","1","1","1","1","0","1","4","4","5","4","3","4","4","4","4","4","5","5","5","5","4","4","6","4","5","5","6","6","5","6","3","6","6","6","5","1","5","5","5","3","5","5","5","4","4","5","3","6","3","3","4","5","5","5","7","7","7","7","7","3","4","1","3","7","6","5","730803764885458946","薄","524","Female","[""坏她"",""坏我"",""好我"",""好她""]","[""弱她"",""弱我"",""强我"",""强她""]","","","","","","","","no","","","","","","","","","SRET","EW_formal","","key","j","16.66864406779656","768","428","自己","外行","Negative","ability","","","","","","","","","","",""
"789","","j","psychophysics","90","236681","0.0-7.0-3.0-0.76","5","6","6","6","5","4","4","4","5","4","2","0","2","1","1","1","1","0","1","4","4","5","4","3","4","4","4","4","4","5","5","5","5","4","4","6","4","5","5","6","6","5","6","3","6","6","6","5","1","5","5","5","3","5","5","5","4","4","5","3","6","3","3","4","5","5","5","7","7","7","7","7","3","4","1","3","7","6","5","730803764885458946","薄","524","Female","[""坏她"",""坏我"",""好我"",""好她""]","[""弱她"",""弱我"",""强我"",""强她""]","","","","","","","","no","","","","","","","","","SRET","EW_formal","","key","j","16.667924528302052","768","428","自己","差生","Negative","ability","","","","","","","","","","",""
"677","","f","psychophysics","91","238361","0.0-7.0-3.0-0.77","5","6","6","6","5","4","4","4","5","4","2","0","2","1","1","1","1","0","1","4","4","5","4","3","4","4","4","4","4","5","5","5","5","4","4","6","4","5","5","6","6","5","6","3","6","6","6","5","1","5","5","5","3","5","5","5","4","4","5","3","6","3","3","4","5","5","5","7","7","7","7","7","3","4","1","3","7","6","5","730803764885458946","薄","524","Female","[""坏她"",""坏我"",""好我"",""好她""]","[""弱她"",""弱我"",""强我"",""强她""]","","","","","","","","yes","","","","","","","","","SRET","EW_formal","","key","f","16.66899999999994","768","428","自己","专注","Positive","ability","","","","","","","","","","",""
"1031","","f","psychophysics","92","240395","0.0-7.0-3.0-0.78","5","6","6","6","5","4","4","4","5","4","2","0","2","1","1","1","1","0","1","4","4","5","4","3","4","4","4","4","4","5","5","5","5","4","4","6","4","5","5","6","6","5","6","3","6","6","6","5","1","5","5","5","3","5","5","5","4","4","5","3","6","3","3","4","5","5","5","7","7","7","7","7","3","4","1","3","7","6","5","730803764885458946","薄","524","Female","[""坏她"",""坏我"",""好我"",""好她""]","[""弱她"",""弱我"",""强我"",""强她""]","","","","","","","","yes","","","","","","","","","SRET","EW_formal","","key","f","16.66446280991755","768","428","朋友","变通","Positive","ability","","","","","","","","","","",""
"1027","","f","psychophysics","93","242424","0.0-7.0-3.0-0.79","5","6","6","6","5","4","4","4","5","4","2","0","2","1","1","1","1","0","1","4","4","5","4","3","4","4","4","4","4","5","5","5","5","4","4","6","4","5","5","6","6","5","6","3","6","6","6","5","1","5","5","5","3","5","5","5","4","4","5","3","6","3","3","4","5","5","5","7","7","7","7","7","3","4","1","3","7","6","5","730803764885458946","薄","524","Female","[""坏她"",""坏我"",""好我"",""好她""]","[""弱她"",""弱我"",""强我"",""强她""]","","","","","","","","yes","","","","","","","","","SRET","EW_formal","","key","f","16.669421487603305","768","428","朋友","高洁","Positive","morality","","","","","","","","","","",""
"616","","j","psychophysics","94","244043","0.0-7.0-3.0-0.80","5","6","6","6","5","4","4","4","5","4","2","0","2","1","1","1","1","0","1","4","4","5","4","3","4","4","4","4","4","5","5","5","5","4","4","6","4","5","5","6","6","5","6","3","6","6","6","5","1","5","5","5","3","5","5","5","4","4","5","3","6","3","3","4","5","5","5","7","7","7","7","7","3","4","1","3","7","6","5","730803764885458946","薄","524","Female","[""坏她"",""坏我"",""好我"",""好她""]","[""弱她"",""弱我"",""强我"",""强她""]","","","","","","","","no","","","","","","","","","SRET","EW_formal","","key","j","16.66875000000012","768","428","自己","迟钝","Negative","ability","","","","","","","","","","",""
"667","","j","psychophysics","95","245711","0.0-7.0-3.0-0.81","5","6","6","6","5","4","4","4","5","4","2","0","2","1","1","1","1","0","1","4","4","5","4","3","4","4","4","4","4","5","5","5","5","4","4","6","4","5","5","6","6","5","6","3","6","6","6","5","1","5","5","5","3","5","5","5","4","4","5","3","6","3","3","4","5","5","5","7","7","7","7","7","3","4","1","3","7","6","5","730803764885458946","薄","524","Female","[""坏她"",""坏我"",""好我"",""好她""]","[""弱她"",""弱我"",""强我"",""强她""]","","","","","","","","no","","","","","","","","","SRET","EW_formal","","key","j","16.668686868686986","768","428","朋友","拖拉","Negative","ability","","","","","","","","","","",""
"761","","j","psychophysics","96","247474","0.0-7.0-3.0-0.82","5","6","6","6","5","4","4","4","5","4","2","0","2","1","1","1","1","0","1","4","4","5","4","3","4","4","4","4","4","5","5","5","5","4","4","6","4","5","5","6","6","5","6","3","6","6","6","5","1","5","5","5","3","5","5","5","4","4","5","3","6","3","3","4","5","5","5","7","7","7","7","7","3","4","1","3","7","6","5","730803764885458946","薄","524","Female","[""坏她"",""坏我"",""好我"",""好她""]","[""弱她"",""弱我"",""强我"",""强她""]","","","","","","","","no","","","","","","","","","SRET","EW_formal","","key","j","16.66571428571423","768","428","自己","虚伪","Negative","morality","","","","","","","","","","",""
"670","","j","psychophysics","97","249145","0.0-7.0-3.0-0.83","5","6","6","6","5","4","4","4","5","4","2","0","2","1","1","1","1","0","1","4","4","5","4","3","4","4","4","4","4","5","5","5","5","4","4","6","4","5","5","6","6","5","6","3","6","6","6","5","1","5","5","5","3","5","5","5","4","4","5","3","6","3","3","4","5","5","5","7","7","7","7","7","3","4","1","3","7","6","5","730803764885458946","薄","524","Female","[""坏她"",""坏我"",""好我"",""好她""]","[""弱她"",""弱我"",""强我"",""强她""]","","","","","","","","no","","","","","","","","","SRET","EW_formal","","key","j","16.667676767676827","768","428","自己","不端","Negative","morality","","","","","","","","","","",""
"1166","","f","psychophysics","98","251312","0.0-7.0-3.0-0.84","5","6","6","6","5","4","4","4","5","4","2","0","2","1","1","1","1","0","1","4","4","5","4","3","4","4","4","4","4","5","5","5","5","4","4","6","4","5","5","6","6","5","6","3","6","6","6","5","1","5","5","5","3","5","5","5","4","4","5","3","6","3","3","4","5","5","5","7","7","7","7","7","3","4","1","3","7","6","5","730803764885458946","薄","524","Female","[""坏她"",""坏我"",""好我"",""好她""]","[""弱她"",""弱我"",""强我"",""强她""]","","","","","","","","yes","","","","","","","","","SRET","EW_formal","","key","f","16.668992248061926","768","428","朋友","素养","Positive","morality","","","","","","","","","","",""
"766","","f","psychophysics","99","253082","0.0-7.0-3.0-0.85","5","6","6","6","5","4","4","4","5","4","2","0","2","1","1","1","1","0","1","4","4","5","4","3","4","4","4","4","4","5","5","5","5","4","4","6","4","5","5","6","6","5","6","3","6","6","6","5","1","5","5","5","3","5","5","5","4","4","5","3","6","3","3","4","5","5","5","7","7","7","7","7","3","4","1","3","7","6","5","730803764885458946","薄","524","Female","[""坏她"",""坏我"",""好我"",""好她""]","[""弱她"",""弱我"",""强我"",""强她""]","","","","","","","","yes","","","","","","","","","SRET","EW_formal","","key","f","16.666666666666668","768","428","自己","主见","Positive","ability","","","","","","","","","","",""
"516","","j","psychophysics","100","254602","0.0-7.0-3.0-0.86","5","6","6","6","5","4","4","4","5","4","2","0","2","1","1","1","1","0","1","4","4","5","4","3","4","4","4","4","4","5","5","5","5","4","4","6","4","5","5","6","6","5","6","3","6","6","6","5","1","5","5","5","3","5","5","5","4","4","5","3","6","3","3","4","5","5","5","7","7","7","7","7","3","4","1","3","7","6","5","730803764885458946","薄","524","Female","[""坏她"",""坏我"",""好我"",""好她""]","[""弱她"",""弱我"",""强我"",""强她""]","","","","","","","","no","","","","","","","","","SRET","EW_formal","","key","j","16.664835164835164","768","428","朋友","低俗","Negative","morality","","","","","","","","","","",""
"848","","j","psychophysics","101","256451","0.0-7.0-3.0-0.87","5","6","6","6","5","4","4","4","5","4","2","0","2","1","1","1","1","0","1","4","4","5","4","3","4","4","4","4","4","5","5","5","5","4","4","6","4","5","5","6","6","5","6","3","6","6","6","5","1","5","5","5","3","5","5","5","4","4","5","3","6","3","3","4","5","5","5","7","7","7","7","7","3","4","1","3","7","6","5","730803764885458946","薄","524","Female","[""坏她"",""坏我"",""好我"",""好她""]","[""弱她"",""弱我"",""强我"",""强她""]","","","","","","","","no","","","","","","","","","SRET","EW_formal","","key","j","16.663636363636364","768","428","自己","缓慢","Negative","ability","","","","","","","","","","",""
"9181","
    <p><div style='color:white;font-size:35px; line-height:20px;'>计算任务</div></p><br>
    <p><div style='color:red;font-size:25px; line-height:20px;'>接下来，您将看到一些四则运算题，<b>请从键盘选择 0-9 进行反应。</b></div></p>
    <p><div style='color:red;font-size:25px; line-height:20px;'>请尽可能快地进行计算，计算的速度和正确率将影响报酬的发放。</div></p>
    <p><div class='footer' style='color:white;font-size:25px; line-height:20px;'>如果对本实验还有不清楚之处，请立即向实验员咨询。</p><p style='color:white;font-size:25px; line-height:20px;'>如果您明白了规则：</p><p style='color:white;font-size:22px; line-height:20px;'>请按 继续 进入练习</p>
    </div>
    ","0","html-button-response","102","265633","0.0-7.0-4.0","5","6","6","6","5","4","4","4","5","4","2","0","2","1","1","1","1","0","1","4","4","5","4","3","4","4","4","4","4","5","5","5","5","4","4","6","4","5","5","6","6","5","6","3","6","6","6","5","1","5","5","5","3","5","5","5","4","4","5","3","6","3","3","4","5","5","5","7","7","7","7","7","3","4","1","3","7","6","5","730803764885458946","薄","524","Female","[""坏她"",""坏我"",""好我"",""好她""]","[""弱她"",""弱我"",""强我"",""强她""]","","","","","","","","","","","","","","","","","SRET_math","math_instructions","Thu Jan 18 2024 23:12:42 GMT+0800 (中国标准时间)","","","","","","","","","","","","","","","","","","","",""
"2100","","0","psychophysics","103","267735","0.0-7.0-5.0-0.0","5","6","6","6","5","4","4","4","5","4","2","0","2","1","1","1","1","0","1","4","4","5","4","3","4","4","4","4","4","5","5","5","5","4","4","6","4","5","5","6","6","5","6","3","6","6","6","5","1","5","5","5","3","5","5","5","4","4","5","3","6","3","3","4","5","5","5","7","7","7","7","7","3","4","1","3","7","6","5","730803764885458946","薄","524","Female","[""坏她"",""坏我"",""好我"",""好她""]","[""弱她"",""弱我"",""强我"",""强她""]","","","","","","","","0","","","","","","","","","SRET","SRET_math_calculate","","key","0","16.66269841269841","768","428","","","","","32-32= ?","0","1","","","","","","","",""
"2118","","8","psychophysics","104","269854","0.0-7.0-5.0-0.1","5","6","6","6","5","4","4","4","5","4","2","0","2","1","1","1","1","0","1","4","4","5","4","3","4","4","4","4","4","5","5","5","5","4","4","6","4","5","5","6","6","5","6","3","6","6","6","5","1","5","5","5","3","5","5","5","4","4","5","3","6","3","3","4","5","5","5","7","7","7","7","7","3","4","1","3","7","6","5","730803764885458946","薄","524","Female","[""坏她"",""坏我"",""好我"",""好她""]","[""弱她"",""弱我"",""强我"",""强她""]","","","","","","","","8","","","","","","","","","SRET","SRET_math_calculate","","key","8","16.6658730158732","768","428","","","","","5+3= ?","8","1","","","","","","","",""
"1879","","7","psychophysics","105","271736","0.0-7.0-5.0-0.2","5","6","6","6","5","4","4","4","5","4","2","0","2","1","1","1","1","0","1","4","4","5","4","3","4","4","4","4","4","5","5","5","5","4","4","6","4","5","5","6","6","5","6","3","6","6","6","5","1","5","5","5","3","5","5","5","4","4","5","3","6","3","3","4","5","5","5","7","7","7","7","7","3","4","1","3","7","6","5","730803764885458946","薄","524","Female","[""坏她"",""坏我"",""好我"",""好她""]","[""弱她"",""弱我"",""强我"",""强她""]","","","","","","","","7","","","","","","","","","SRET","SRET_math_calculate","","key","7","16.664285714285402","768","428","","","","","6+1= ?","7","1","","","","","","","",""
"2018","","6","psychophysics","106","273755","0.0-7.0-5.0-0.3","5","6","6","6","5","4","4","4","5","4","2","0","2","1","1","1","1","0","1","4","4","5","4","3","4","4","4","4","4","5","5","5","5","4","4","6","4","5","5","6","6","5","6","3","6","6","6","5","1","5","5","5","3","5","5","5","4","4","5","3","6","3","3","4","5","5","5","7","7","7","7","7","3","4","1","3","7","6","5","730803764885458946","薄","524","Female","[""坏她"",""坏我"",""好我"",""好她""]","[""弱她"",""弱我"",""强我"",""强她""]","","","","","","","","6","","","","","","","","","SRET","SRET_math_calculate","","key","6","16.66416666666628","768","428","","","","","2+4= ?","6","1","","","","","","","",""
"1982","","9","psychophysics","107","275739","0.0-7.0-5.0-0.4","5","6","6","6","5","4","4","4","5","4","2","0","2","1","1","1","1","0","1","4","4","5","4","3","4","4","4","4","4","5","5","5","5","4","4","6","4","5","5","6","6","5","6","3","6","6","6","5","1","5","5","5","3","5","5","5","4","4","5","3","6","3","3","4","5","5","5","7","7","7","7","7","3","4","1","3","7","6","5","730803764885458946","薄","524","Female","[""坏她"",""坏我"",""好我"",""好她""]","[""弱她"",""弱我"",""强我"",""强她""]","","","","","","","","9","","","","","","","","","SRET","SRET_math_calculate","","key","9","16.663559322033798","768","428","","","","","4+5= ?","9","1","","","","","","","",""
"2239","","8","psychophysics","108","277979","0.0-7.0-5.0-0.5","5","6","6","6","5","4","4","4","5","4","2","0","2","1","1","1","1","0","1","4","4","5","4","3","4","4","4","4","4","5","5","5","5","4","4","6","4","5","5","6","6","5","6","3","6","6","6","5","1","5","5","5","3","5","5","5","4","4","5","3","6","3","3","4","5","5","5","7","7","7","7","7","3","4","1","3","7","6","5","730803764885458946","薄","524","Female","[""坏她"",""坏我"",""好我"",""好她""]","[""弱她"",""弱我"",""强我"",""强她""]","","","","","","","","8","","","","","","","","","SRET","SRET_math_calculate","","key","8","16.66691729323317","768","428","","","","","2*4= ?","8","1","","","","","","","",""
"1917","","0","psychophysics","109","279902","0.0-7.0-5.0-0.6","5","6","6","6","5","4","4","4","5","4","2","0","2","1","1","1","1","0","1","4","4","5","4","3","4","4","4","4","4","5","5","5","5","4","4","6","4","5","5","6","6","5","6","3","6","6","6","5","1","5","5","5","3","5","5","5","4","4","5","3","6","3","3","4","5","5","5","7","7","7","7","7","3","4","1","3","7","6","5","730803764885458946","薄","524","Female","[""坏她"",""坏我"",""好我"",""好她""]","[""弱她"",""弱我"",""强我"",""强她""]","","","","","","","","0","","","","","","","","","SRET","SRET_math_calculate","","key","0","16.66521739130435","768","428","","","","","43-34= ?","9","0","","","","","","","",""
"2113","","5","psychophysics","110","282017","0.0-7.0-5.0-0.7","5","6","6","6","5","4","4","4","5","4","2","0","2","1","1","1","1","0","1","4","4","5","4","3","4","4","4","4","4","5","5","5","5","4","4","6","4","5","5","6","6","5","6","3","6","6","6","5","1","5","5","5","3","5","5","5","4","4","5","3","6","3","3","4","5","5","5","7","7","7","7","7","3","4","1","3","7","6","5","730803764885458946","薄","524","Female","[""坏她"",""坏我"",""好我"",""好她""]","[""弱她"",""弱我"",""强我"",""强她""]","","","","","","","","5","","","","","","","","","SRET","SRET_math_calculate","","key","5","16.665079365079272","768","428","","","","","10-5= ?","5","1","","","","","","","",""
"1891","","8","psychophysics","111","283910","0.0-7.0-5.0-0.8","5","6","6","6","5","4","4","4","5","4","2","0","2","1","1","1","1","0","1","4","4","5","4","3","4","4","4","4","4","5","5","5","5","4","4","6","4","5","5","6","6","5","6","3","6","6","6","5","1","5","5","5","3","5","5","5","4","4","5","3","6","3","3","4","5","5","5","7","7","7","7","7","3","4","1","3","7","6","5","730803764885458946","薄","524","Female","[""坏她"",""坏我"",""好我"",""好她""]","[""弱她"",""弱我"",""强我"",""强她""]","","","","","","","","8","","","","","","","","","SRET","SRET_math_calculate","","key","8","16.667857142857038","768","428","","","","","7+1= ?","8","1","","","","","","","",""
"2061","","7","psychophysics","112","285976","0.0-7.0-5.0-0.9","5","6","6","6","5","4","4","4","5","4","2","0","2","1","1","1","1","0","1","4","4","5","4","3","4","4","4","4","4","5","5","5","5","4","4","6","4","5","5","6","6","5","6","3","6","6","6","5","1","5","5","5","3","5","5","5","4","4","5","3","6","3","3","4","5","5","5","7","7","7","7","7","3","4","1","3","7","6","5","730803764885458946","薄","524","Female","[""坏她"",""坏我"",""好我"",""好她""]","[""弱她"",""弱我"",""强我"",""强她""]","","","","","","","","7","","","","","","","","","SRET","SRET_math_calculate","","key","7","16.666666666666668","768","428","","","","","5+2= ?","7","1","","","","","","","",""
"3540","","5","psychophysics","113","289522","0.0-7.0-5.0-0.10","5","6","6","6","5","4","4","4","5","4","2","0","2","1","1","1","1","0","1","4","4","5","4","3","4","4","4","4","4","5","5","5","5","4","4","6","4","5","5","6","6","5","6","3","6","6","6","5","1","5","5","5","3","5","5","5","4","4","5","3","6","3","3","4","5","5","5","7","7","7","7","7","3","4","1","3","7","6","5","730803764885458946","薄","524","Female","[""坏她"",""坏我"",""好我"",""好她""]","[""弱她"",""弱我"",""强我"",""强她""]","","","","","","","","5","","","","","","","","","SRET","SRET_math_calculate","","key","5","16.666037735849113","768","428","","","","","12-7= ?","5","1","","","","","","","",""
"2310","","3","psychophysics","114","291835","0.0-7.0-5.0-0.11","5","6","6","6","5","4","4","4","5","4","2","0","2","1","1","1","1","0","1","4","4","5","4","3","4","4","4","4","4","5","5","5","5","4","4","6","4","5","5","6","6","5","6","3","6","6","6","5","1","5","5","5","3","5","5","5","4","4","5","3","6","3","3","4","5","5","5","7","7","7","7","7","3","4","1","3","7","6","5","730803764885458946","薄","524","Female","[""坏她"",""坏我"",""好我"",""好她""]","[""弱她"",""弱我"",""强我"",""强她""]","","","","","","","","3","","","","","","","","","SRET","SRET_math_calculate","","key","3","16.665942028985253","768","428","","","","","12/4= ?","3","1","","","","","","","",""
"1962","","8","psychophysics","115","293797","0.0-7.0-5.0-0.12","5","6","6","6","5","4","4","4","5","4","2","0","2","1","1","1","1","0","1","4","4","5","4","3","4","4","4","4","4","5","5","5","5","4","4","6","4","5","5","6","6","5","6","3","6","6","6","5","1","5","5","5","3","5","5","5","4","4","5","3","6","3","3","4","5","5","5","7","7","7","7","7","3","4","1","3","7","6","5","730803764885458946","薄","524","Female","[""坏她"",""坏我"",""好我"",""好她""]","[""弱她"",""弱我"",""强我"",""强她""]","","","","","","","","8","","","","","","","","","SRET","SRET_math_calculate","","key","8","16.664102564102663","768","428","","","","","2+6= ?","8","1","","","","","","","",""
"2294","","5","psychophysics","116","296093","0.0-7.0-5.0-0.13","5","6","6","6","5","4","4","4","5","4","2","0","2","1","1","1","1","0","1","4","4","5","4","3","4","4","4","4","4","5","5","5","5","4","4","6","4","5","5","6","6","5","6","3","6","6","6","5","1","5","5","5","3","5","5","5","4","4","5","3","6","3","3","4","5","5","5","7","7","7","7","7","3","4","1","3","7","6","5","730803764885458946","薄","524","Female","[""坏她"",""坏我"",""好我"",""好她""]","[""弱她"",""弱我"",""强我"",""强她""]","","","","","","","","5","","","","","","","","","SRET","SRET_math_calculate","","key","5","16.66470588235311","768","428","","","","","5/1= ?","5","1","","","","","","","",""
"1848","","9","psychophysics","117","297945","0.0-7.0-5.0-0.14","5","6","6","6","5","4","4","4","5","4","2","0","2","1","1","1","1","0","1","4","4","5","4","3","4","4","4","4","4","5","5","5","5","4","4","6","4","5","5","6","6","5","6","3","6","6","6","5","1","5","5","5","3","5","5","5","4","4","5","3","6","3","3","4","5","5","5","7","7","7","7","7","3","4","1","3","7","6","5","730803764885458946","薄","524","Female","[""坏她"",""坏我"",""好我"",""好她""]","[""弱她"",""弱我"",""强我"",""强她""]","","","","","","","","9","","","","","","","","","SRET","SRET_math_calculate","","key","9","16.66396396396407","768","428","","","","","1+8= ?","9","1","","","","","","","",""
"1916","","9","psychophysics","118","299862","0.0-7.0-5.0-0.15","5","6","6","6","5","4","4","4","5","4","2","0","2","1","1","1","1","0","1","4","4","5","4","3","4","4","4","4","4","5","5","5","5","4","4","6","4","5","5","6","6","5","6","3","6","6","6","5","1","5","5","5","3","5","5","5","4","4","5","3","6","3","3","4","5","5","5","7","7","7","7","7","3","4","1","3","7","6","5","730803764885458946","薄","524","Female","[""坏她"",""坏我"",""好我"",""好她""]","[""弱她"",""弱我"",""强我"",""强她""]","","","","","","","","9","","","","","","","","","SRET","SRET_math_calculate","","key","9","16.664912280701653","768","428","","","","","1*9= ?","9","1","","","","","","","",""
"2571","","6","psychophysics","119","302435","0.0-7.0-5.0-0.16","5","6","6","6","5","4","4","4","5","4","2","0","2","1","1","1","1","0","1","4","4","5","4","3","4","4","4","4","4","5","5","5","5","4","4","6","4","5","5","6","6","5","6","3","6","6","6","5","1","5","5","5","3","5","5","5","4","4","5","3","6","3","3","4","5","5","5","7","7","7","7","7","3","4","1","3","7","6","5","730803764885458946","薄","524","Female","[""坏她"",""坏我"",""好我"",""好她""]","[""弱她"",""弱我"",""强我"",""强她""]","","","","","","","","6","","","","","","","","","SRET","SRET_math_calculate","","key","6","16.666013071895577","768","428","","","","","3+3= ?","6","1","","","","","","","",""
"1802","","5","psychophysics","120","304240","0.0-7.0-5.0-0.17","5","6","6","6","5","4","4","4","5","4","2","0","2","1","1","1","1","0","1","4","4","5","4","3","4","4","4","4","4","5","5","5","5","4","4","6","4","5","5","6","6","5","6","3","6","6","6","5","1","5","5","5","3","5","5","5","4","4","5","3","6","3","3","4","5","5","5","7","7","7","7","7","3","4","1","3","7","6","5","730803764885458946","薄","524","Female","[""坏她"",""坏我"",""好我"",""好她""]","[""弱她"",""弱我"",""强我"",""强她""]","","","","","","","","5","","","","","","","","","SRET","SRET_math_calculate","","key","5","16.66822429906542","768","428","","","","","2+3= ?","5","1","","","","","","","",""
"2031","","7","psychophysics","121","306275","0.0-7.0-5.0-0.18","5","6","6","6","5","4","4","4","5","4","2","0","2","1","1","1","1","0","1","4","4","5","4","3","4","4","4","4","4","5","5","5","5","4","4","6","4","5","5","6","6","5","6","3","6","6","6","5","1","5","5","5","3","5","5","5","4","4","5","3","6","3","3","4","5","5","5","7","7","7","7","7","3","4","1","3","7","6","5","730803764885458946","薄","524","Female","[""坏她"",""坏我"",""好我"",""好她""]","[""弱她"",""弱我"",""强我"",""强她""]","","","","","","","","7","","","","","","","","","SRET","SRET_math_calculate","","key","7","16.666115702479146","768","428","","","","","3+4= ?","7","1","","","","","","","",""
"1989","","0","psychophysics","122","308266","0.0-7.0-5.0-0.19","5","6","6","6","5","4","4","4","5","4","2","0","2","1","1","1","1","0","1","4","4","5","4","3","4","4","4","4","4","5","5","5","5","4","4","6","4","5","5","6","6","5","6","3","6","6","6","5","1","5","5","5","3","5","5","5","4","4","5","3","6","3","3","4","5","5","5","7","7","7","7","7","3","4","1","3","7","6","5","730803764885458946","薄","524","Female","[""坏她"",""坏我"",""好我"",""好她""]","[""弱她"",""弱我"",""强我"",""强她""]","","","","","","","","0","","","","","","","","","SRET","SRET_math_calculate","","key","0","16.666386554621752","768","428","","","","","5*0= ?","0","1","","","","","","","",""
"1748","","5","psychophysics","123","310017","0.0-7.0-5.0-0.20","5","6","6","6","5","4","4","4","5","4","2","0","2","1","1","1","1","0","1","4","4","5","4","3","4","4","4","4","4","5","5","5","5","4","4","6","4","5","5","6","6","5","6","3","6","6","6","5","1","5","5","5","3","5","5","5","4","4","5","3","6","3","3","4","5","5","5","7","7","7","7","7","3","4","1","3","7","6","5","730803764885458946","薄","524","Female","[""坏她"",""坏我"",""好我"",""好她""]","[""弱她"",""弱我"",""强我"",""强她""]","","","","","","","","5","","","","","","","","","SRET","SRET_math_calculate","","key","5","16.664423076923413","768","428","","","","","3+2= ?","5","1","","","","","","","",""
"4295","","9","psychophysics","124","314315","0.0-7.0-5.0-0.21","5","6","6","6","5","4","4","4","5","4","2","0","2","1","1","1","1","0","1","4","4","5","4","3","4","4","4","4","4","5","5","5","5","4","4","6","4","5","5","6","6","5","6","3","6","6","6","5","1","5","5","5","3","5","5","5","4","4","5","3","6","3","3","4","5","5","5","7","7","7","7","7","3","4","1","3","7","6","5","730803764885458946","薄","524","Female","[""坏她"",""坏我"",""好我"",""好她""]","[""弱她"",""弱我"",""强我"",""强她""]","","","","","","","","9","","","","","","","","","SRET","SRET_math_calculate","","key","9","16.666147859922223","768","428","","","","","32-23= ?","9","1","","","","","","","",""
"2218","","9","psychophysics","125","316535","0.0-7.0-5.0-0.22","5","6","6","6","5","4","4","4","5","4","2","0","2","1","1","1","1","0","1","4","4","5","4","3","4","4","4","4","4","5","5","5","5","4","4","6","4","5","5","6","6","5","6","3","6","6","6","5","1","5","5","5","3","5","5","5","4","4","5","3","6","3","3","4","5","5","5","7","7","7","7","7","3","4","1","3","7","6","5","730803764885458946","薄","524","Female","[""坏她"",""坏我"",""好我"",""好她""]","[""弱她"",""弱我"",""强我"",""强她""]","","","","","","","","9","","","","","","","","","SRET","SRET_math_calculate","","key","9","16.665909090909267","768","428","","","","","5+4= ?","9","1","","","","","","","",""
"1837","","0","psychophysics","126","318373","0.0-7.0-5.0-0.23","5","6","6","6","5","4","4","4","5","4","2","0","2","1","1","1","1","0","1","4","4","5","4","3","4","4","4","4","4","5","5","5","5","4","4","6","4","5","5","6","6","5","6","3","6","6","6","5","1","5","5","5","3","5","5","5","4","4","5","3","6","3","3","4","5","5","5","7","7","7","7","7","3","4","1","3","7","6","5","730803764885458946","薄","524","Female","[""坏她"",""坏我"",""好我"",""好她""]","[""弱她"",""弱我"",""强我"",""强她""]","","","","","","","","0","","","","","","","","","SRET","SRET_math_calculate","","key","0","16.663302752293472","768","428","","","","","7*0= ?","0","1","","","","","","","",""
"1894","","0","psychophysics","127","320271","0.0-7.0-5.0-0.24","5","6","6","6","5","4","4","4","5","4","2","0","2","1","1","1","1","0","1","4","4","5","4","3","4","4","4","4","4","5","5","5","5","4","4","6","4","5","5","6","6","5","6","3","6","6","6","5","1","5","5","5","3","5","5","5","4","4","5","3","6","3","3","4","5","5","5","7","7","7","7","7","3","4","1","3","7","6","5","730803764885458946","薄","524","Female","[""坏她"",""坏我"",""好我"",""好她""]","[""弱她"",""弱我"",""强我"",""强她""]","","","","","","","","0","","","","","","","","","SRET","SRET_math_calculate","","key","0","16.667256637168347","768","428","","","","","9-9= ?","0","1","","","","","","","",""
"1801","","0","psychophysics","128","322075","0.0-7.0-5.0-0.25","5","6","6","6","5","4","4","4","5","4","2","0","2","1","1","1","1","0","1","4","4","5","4","3","4","4","4","4","4","5","5","5","5","4","4","6","4","5","5","6","6","5","6","3","6","6","6","5","1","5","5","5","3","5","5","5","4","4","5","3","6","3","3","4","5","5","5","7","7","7","7","7","3","4","1","3","7","6","5","730803764885458946","薄","524","Female","[""坏她"",""坏我"",""好我"",""好她""]","[""弱她"",""弱我"",""强我"",""强她""]","","","","","","","","0","","","","","","","","","SRET","SRET_math_calculate","","key","0","16.667289719625842","768","428","","","","","1-1= ?","0","1","","","","","","","",""
"1933","","6","psychophysics","129","324009","0.0-7.0-5.0-0.26","5","6","6","6","5","4","4","4","5","4","2","0","2","1","1","1","1","0","1","4","4","5","4","3","4","4","4","4","4","5","5","5","5","4","4","6","4","5","5","6","6","5","6","3","6","6","6","5","1","5","5","5","3","5","5","5","4","4","5","3","6","3","3","4","5","5","5","7","7","7","7","7","3","4","1","3","7","6","5","730803764885458946","薄","524","Female","[""坏她"",""坏我"",""好我"",""好她""]","[""弱她"",""弱我"",""强我"",""强她""]","","","","","","","","6","","","","","","","","","SRET","SRET_math_calculate","","key","6","16.66434782608716","768","428","","","","","5+1= ?","6","1","","","","","","","",""
"1904","","9","psychophysics","130","325916","0.0-7.0-5.0-0.27","5","6","6","6","5","4","4","4","5","4","2","0","2","1","1","1","1","0","1","4","4","5","4","3","4","4","4","4","4","5","5","5","5","4","4","6","4","5","5","6","6","5","6","3","6","6","6","5","1","5","5","5","3","5","5","5","4","4","5","3","6","3","3","4","5","5","5","7","7","7","7","7","3","4","1","3","7","6","5","730803764885458946","薄","524","Female","[""坏她"",""坏我"",""好我"",""好她""]","[""弱她"",""弱我"",""强我"",""强她""]","","","","","","","","9","","","","","","","","","SRET","SRET_math_calculate","","key","9","16.666666666666668","768","428","","","","","2+7= ?","9","1","","","","","","","",""
"2815","","9","psychophysics","131","328731","0.0-7.0-5.0-0.28","5","6","6","6","5","4","4","4","5","4","2","0","2","1","1","1","1","0","1","4","4","5","4","3","4","4","4","4","4","5","5","5","5","4","4","6","4","5","5","6","6","5","6","3","6","6","6","5","1","5","5","5","3","5","5","5","4","4","5","3","6","3","3","4","5","5","5","7","7","7","7","7","3","4","1","3","7","6","5","730803764885458946","薄","524","Female","[""坏她"",""坏我"",""好我"",""好她""]","[""弱她"",""弱我"",""强我"",""强她""]","","","","","","","","9","","","","","","","","","SRET","SRET_math_calculate","","key","9","16.664880952381022","768","428","","","","","81/9= ?","9","1","","","","","","","",""
"2126","","5","psychophysics","132","330858","0.0-7.0-5.0-0.29","5","6","6","6","5","4","4","4","5","4","2","0","2","1","1","1","1","0","1","4","4","5","4","3","4","4","4","4","4","5","5","5","5","4","4","6","4","5","5","6","6","5","6","3","6","6","6","5","1","5","5","5","3","5","5","5","4","4","5","3","6","3","3","4","5","5","5","7","7","7","7","7","3","4","1","3","7","6","5","730803764885458946","薄","524","Female","[""坏她"",""坏我"",""好我"",""好她""]","[""弱她"",""弱我"",""强我"",""强她""]","","","","","","","","5","","","","","","","","","SRET","SRET_math_calculate","","key","5","16.665079365079272","768","428","","","","","15-10= ?","5","1","","","","","","","",""
"2101","","6","psychophysics","133","332963","0.0-7.0-5.0-0.30","5","6","6","6","5","4","4","4","5","4","2","0","2","1","1","1","1","0","1","4","4","5","4","3","4","4","4","4","4","5","5","5","5","4","4","6","4","5","5","6","6","5","6","3","6","6","6","5","1","5","5","5","3","5","5","5","4","4","5","3","6","3","3","4","5","5","5","7","7","7","7","7","3","4","1","3","7","6","5","730803764885458946","薄","524","Female","[""坏她"",""坏我"",""好我"",""好她""]","[""弱她"",""弱我"",""强我"",""强她""]","","","","","","","","6","","","","","","","","","SRET","SRET_math_calculate","","key","6","16.6658730158732","768","428","","","","","8-2= ?","6","1","","","","","","","",""
"1871","","4","psychophysics","134","334835","0.0-7.0-5.0-0.31","5","6","6","6","5","4","4","4","5","4","2","0","2","1","1","1","1","0","1","4","4","5","4","3","4","4","4","4","4","5","5","5","5","4","4","6","4","5","5","6","6","5","6","3","6","6","6","5","1","5","5","5","3","5","5","5","4","4","5","3","6","3","3","4","5","5","5","7","7","7","7","7","3","4","1","3","7","6","5","730803764885458946","薄","524","Female","[""坏她"",""坏我"",""好我"",""好她""]","[""弱她"",""弱我"",""强我"",""强她""]","","","","","","","","4","","","","","","","","","SRET","SRET_math_calculate","","key","4","16.66396396396407","768","428","","","","","2+2= ?","4","1","","","","","","","",""
"2143","","4","psychophysics","135","336979","0.0-7.0-5.0-0.32","5","6","6","6","5","4","4","4","5","4","2","0","2","1","1","1","1","0","1","4","4","5","4","3","4","4","4","4","4","5","5","5","5","4","4","6","4","5","5","6","6","5","6","3","6","6","6","5","1","5","5","5","3","5","5","5","4","4","5","3","6","3","3","4","5","5","5","7","7","7","7","7","3","4","1","3","7","6","5","730803764885458946","薄","524","Female","[""坏她"",""坏我"",""好我"",""好她""]","[""弱她"",""弱我"",""强我"",""强她""]","","","","","","","","4","","","","","","","","","SRET","SRET_math_calculate","","key","4","16.668749999999818","768","428","","","","","3+1= ?","4","1","","","","","","","",""
"2931","","7","psychophysics","136","339911","0.0-7.0-5.0-0.33","5","6","6","6","5","4","4","4","5","4","2","0","2","1","1","1","1","0","1","4","4","5","4","3","4","4","4","4","4","5","5","5","5","4","4","6","4","5","5","6","6","5","6","3","6","6","6","5","1","5","5","5","3","5","5","5","4","4","5","3","6","3","3","4","5","5","5","7","7","7","7","7","3","4","1","3","7","6","5","730803764885458946","薄","524","Female","[""坏她"",""坏我"",""好我"",""好她""]","[""弱她"",""弱我"",""强我"",""强她""]","","","","","","","","7","","","","","","","","","SRET","SRET_math_calculate","","key","7","16.664571428571364","768","428","","","","","7*1=  ?","7","1","","","","","","","",""
"3372","","7","psychophysics","137","343284","0.0-7.0-5.0-0.34","5","6","6","6","5","4","4","4","5","4","2","0","2","1","1","1","1","0","1","4","4","5","4","3","4","4","4","4","4","5","5","5","5","4","4","6","4","5","5","6","6","5","6","3","6","6","6","5","1","5","5","5","3","5","5","5","4","4","5","3","6","3","3","4","5","5","5","7","7","7","7","7","3","4","1","3","7","6","5","730803764885458946","薄","524","Female","[""坏她"",""坏我"",""好我"",""好她""]","[""弱她"",""弱我"",""强我"",""强她""]","","","","","","","","7","","","","","","","","","SRET","SRET_math_calculate","","key","7","16.665671641790986","768","428","","","","","11-4= ?","7","1","","","","","","","",""
"4294","","3","psychophysics","138","347581","0.0-7.0-5.0-0.35","5","6","6","6","5","4","4","4","5","4","2","0","2","1","1","1","1","0","1","4","4","5","4","3","4","4","4","4","4","5","5","5","5","4","4","6","4","5","5","6","6","5","6","3","6","6","6","5","1","5","5","5","3","5","5","5","4","4","5","3","6","3","3","4","5","5","5","7","7","7","7","7","3","4","1","3","7","6","5","730803764885458946","薄","524","Female","[""坏她"",""坏我"",""好我"",""好她""]","[""弱她"",""弱我"",""强我"",""强她""]","","","","","","","","3","","","","","","","","","SRET","SRET_math_calculate","","key","3","16.666147859922223","768","428","","","","","11-8= ?","3","1","","","","","","","",""
"2063","","6","psychophysics","139","349646","0.0-7.0-5.0-0.36","5","6","6","6","5","4","4","4","5","4","2","0","2","1","1","1","1","0","1","4","4","5","4","3","4","4","4","4","4","5","5","5","5","4","4","6","4","5","5","6","6","5","6","3","6","6","6","5","1","5","5","5","3","5","5","5","4","4","5","3","6","3","3","4","5","5","5","7","7","7","7","7","3","4","1","3","7","6","5","730803764885458946","薄","524","Female","[""坏她"",""坏我"",""好我"",""好她""]","[""弱她"",""弱我"",""强我"",""强她""]","","","","","","","","6","","","","","","","","","SRET","SRET_math_calculate","","key","6","16.665853658536303","768","428","","","","","9-3= ?","6","1","","","","","","","",""
"2081","","5","psychophysics","140","351728","0.0-7.0-5.0-0.37","5","6","6","6","5","4","4","4","5","4","2","0","2","1","1","1","1","0","1","4","4","5","4","3","4","4","4","4","4","5","5","5","5","4","4","6","4","5","5","6","6","5","6","3","6","6","6","5","1","5","5","5","3","5","5","5","4","4","5","3","6","3","3","4","5","5","5","7","7","7","7","7","3","4","1","3","7","6","5","730803764885458946","薄","524","Female","[""坏她"",""坏我"",""好我"",""好她""]","[""弱她"",""弱我"",""强我"",""强她""]","","","","","","","","5","","","","","","","","","SRET","SRET_math_calculate","","key","5","16.66370967741926","768","428","","","","","17-12= ? ","5","1","","","","","","","",""
"1873","","0","psychophysics","141","353602","0.0-7.0-5.0-0.38","5","6","6","6","5","4","4","4","5","4","2","0","2","1","1","1","1","0","1","4","4","5","4","3","4","4","4","4","4","5","5","5","5","4","4","6","4","5","5","6","6","5","6","3","6","6","6","5","1","5","5","5","3","5","5","5","4","4","5","3","6","3","3","4","5","5","5","7","7","7","7","7","3","4","1","3","7","6","5","730803764885458946","薄","524","Female","[""坏她"",""坏我"",""好我"",""好她""]","[""弱她"",""弱我"",""强我"",""强她""]","","","","","","","","0","","","","","","","","","SRET","SRET_math_calculate","","key","0","16.665765765765975","768","428","","","","","6*0= ?","0","1","","","","","","","",""
"3277","","5","psychophysics","142","356882","0.0-7.0-5.0-0.39","5","6","6","6","5","4","4","4","5","4","2","0","2","1","1","1","1","0","1","4","4","5","4","3","4","4","4","4","4","5","5","5","5","4","4","6","4","5","5","6","6","5","6","3","6","6","6","5","1","5","5","5","3","5","5","5","4","4","5","3","6","3","3","4","5","5","5","7","7","7","7","7","3","4","1","3","7","6","5","730803764885458946","薄","524","Female","[""坏她"",""坏我"",""好我"",""好她""]","[""弱她"",""弱我"",""强我"",""强她""]","","","","","","","","5","","","","","","","","","SRET","SRET_math_calculate","","key","5","16.665816326530614","768","428","","","","","14-9= ?","5","1","","","","","","","",""
