"rt","stimulus","response","trial_type","trial_index","time_elapsed","internal_node_id","swb_1","swb_2","swb_3","swb_4","swb_5","LOT_1","LOT_2","LOT_3","LOT_4","LOT_5","LOT_6","IPC_1","IPC_2","IPC_3","IPC_4","IPC_5","IPC_6","IPC_7","IPC_8","MorIden_1","MorIden_2","MorIden_3","MorIden_4","MorIden_5","MorIden_6","MorIden_7","MorIden_8","MorIden_9","MorIden_10","moralSeImag_1","moralSeImag_2","moralSeImag_3","moralSeImag_4","moralSeImag_5","moralSeImag_6","moralSeImag_7","moralSeImag_8","moralSeImag_9","sde_1","sde_2","sde_3","sde_4","sde_5","sde_6","sde_7","sde_8","sde_9","sde_10","trap2","sde_11","sde_12","sde_13","sde_14","sde_15","sde_16","sde_17","sde_18","sde_19","sde_20","IM_1","IM_2","IM_3","IM_4","IM_5","IM_6","IM_7","IM_8","IM_9","IM_10","IM_11","IM_12","IM_13","IM_14","IM_15","IM_16","IM_17","IM_18","IM_19","IM_20","subj_idx","friend_name","ParticipantID","Sex","Word","Word2","value","success","timeout","failed_images","failed_audio","failed_video","user_agent","responses","item_order","radio_event_ids","radio_event_times","key_event_times","mouse_event_times","straightlining","zigzagging","honeypot","task_id","screen_id","time_stamp","response_type","key_press","avg_frame_time","center_x","center_y","person","word","valence","domain","math","correct_response","correct","status","view_history","identity","duration","Image","condition","question_order","trap2_item"
"14925","
   <p><div style='color:white; font-size: 25px'>您好，欢迎参加本次实验。</div></p>
   <p><div style='color:white; font-size: 25px'>为充分保障您的权利，请确保您已经知晓并同意《参与实验同意书》以及《数据公开知情同意书》。</div></p>
   <p><div style='color:white; font-size: 25px'>如果您未见过上述内容，请咨询实验员。</div></p>
   <p style='color:white; font-size: 25px'>如果您选择继续实验，则表示您已经清楚两份知情同意书的内容并同意。</p>
   <p><div style = ""color: pink;font-size:30px;"">请确保您记得day0的实验编号，您将在本次实验输入该编号，若您忘记，请咨询实验员后作答。</div></p>
   <p><div style = ""color:lightblue;font-size:25px;"">请您尽可能认真地作答，我们将依据您在各问卷和按键任务中的作答质量发放报酬。</div></p>
   <p> <div style = ""color: green""><按空格键至下页></div> </p>
   "," ","html-keyboard-response","0","14932","0.0-0.0","6","5","6","6","5","4","4","4","4","5","5","1","1","2","0","1","1","2","2","5","4","5","5","5","4","5","4","4","5","6","8","6","8","7","6","7","8","8","5","5","5","6","5","3","6","3","5","5","1","5","5","6","3","3","5","5","5","5","6","3","6","3","3","3","6","3","7","5","7","6","5","5","6","3","6","5","6","5","5","781508741223944193","陈","217","Female","[""好我"",""坏我"",""坏她"",""好她""]","[""强我"",""弱我"",""弱她"",""强她""]","","","","","","","","","","","","","","","","","","","","","","","","","","","","","","","","","","","","","","",""
"","","","call-function","1","14936","0.0-1.0-0.0","6","5","6","6","5","4","4","4","4","5","5","1","1","2","0","1","1","2","2","5","4","5","5","5","4","5","4","4","5","6","8","6","8","7","6","7","8","8","5","5","5","6","5","3","6","3","5","5","1","5","5","6","3","3","5","5","5","5","6","3","6","3","3","3","6","3","7","5","7","6","5","5","6","3","6","5","6","5","5","781508741223944193","陈","217","Female","[""好我"",""坏我"",""坏她"",""好她""]","[""强我"",""弱我"",""弱她"",""强她""]","","","","","","","","","","","","","","","","","","","","","","","","","","","","","","","","","","","","","","",""
"44973","","[{""name"":""Sex"",""value"":""1""},{""name"":""friend_name"",""value"":""陈""},{""name"":""ParticipantID"",""value"":""217""}]","survey-html-form","2","59912","0.0-1.0-1.0","6","5","6","6","5","4","4","4","4","5","5","1","1","2","0","1","1","2","2","5","4","5","5","5","4","5","4","4","5","6","8","6","8","7","6","7","8","8","5","5","5","6","5","3","6","3","5","5","1","5","5","6","3","3","5","5","5","5","6","3","6","3","3","3","6","3","7","5","7","6","5","5","6","3","6","5","6","5","5","781508741223944193","陈","217","Female","[""好我"",""坏我"",""坏她"",""好她""]","[""强我"",""弱我"",""弱她"",""强她""]","","","","","","","","","","","","","","","","","","","","","","","","","","","","","","","","","","","","","","",""
"","","","preload","3","62111","0.0-2.0","6","5","6","6","5","4","4","4","4","5","5","1","1","2","0","1","1","2","2","5","4","5","5","5","4","5","4","4","5","6","8","6","8","7","6","7","8","8","5","5","5","6","5","3","6","3","5","5","1","5","5","6","3","3","5","5","5","5","6","3","6","3","3","3","6","3","7","5","7","6","5","5","6","3","6","5","6","5","5","781508741223944193","陈","217","Female","[""好我"",""坏我"",""坏她"",""好她""]","[""强我"",""弱我"",""弱她"",""强她""]","","true","false","[]","[]","[]","","","","","","","","","","","","","","","","","","","","","","","","","","","","","","","","",""
"","","","fullscreen","4","75039","0.0-3.0","6","5","6","6","5","4","4","4","4","5","5","1","1","2","0","1","1","2","2","5","4","5","5","5","4","5","4","4","5","6","8","6","8","7","6","7","8","8","5","5","5","6","5","3","6","3","5","5","1","5","5","6","3","3","5","5","5","5","6","3","6","3","3","3","6","3","7","5","7","6","5","5","6","3","6","5","6","5","5","781508741223944193","陈","217","Female","[""好我"",""坏我"",""坏她"",""好她""]","[""强我"",""弱我"",""弱她"",""强她""]","","true","","","","","{}","","","","","","","","","","","","","","","","","","","","","","","","","","","","","","","",""
"10981.099999999977","","{""Q01"":""6"",""Q02"":""5"",""Q03"":""6"",""Q04"":""6"",""Q05"":""5""}","survey-template","5","86028","0.0-4.0","6","5","6","6","5","4","4","4","4","5","5","1","1","2","0","1","1","2","2","5","4","5","5","5","4","5","4","4","5","6","8","6","8","7","6","7","8","8","5","5","5","6","5","3","6","3","5","5","1","5","5","6","3","3","5","5","5","5","6","3","6","3","3","3","6","3","7","5","7","6","5","5","6","3","6","5","6","5","5","781508741223944193","陈","217","Female","[""好我"",""坏我"",""坏她"",""好她""]","[""强我"",""弱我"",""弱她"",""强她""]","","","","","","","","{""Q01"":""6"",""Q02"":""5"",""Q03"":""6"",""Q04"":""6"",""Q05"":""5""}","[0,1,2,3,4]","[""Q01"",""Q01"",""Q02"",""Q03"",""Q04"",""Q05""]","[3202.5,4362.700000000012,5203.599999999977,6442.599999999977,8938.5,9778.700000000012]","[]","[3202.5,4362.700000000012,5203.599999999977,6442.599999999977,8938.5,9778.700000000012,10978.5]","0.6","0.75","0","","","","","","","","","","","","","","","","","","","","","","",""
"31810.600000000035","","{""Q01"":""4"",""Q02"":""4"",""Q03"":""4"",""Q04"":""4"",""Q05"":""5"",""Q06"":""5""}","survey-template","6","117852","0.0-5.0","6","5","6","6","5","4","4","4","4","5","5","1","1","2","0","1","1","2","2","5","4","5","5","5","4","5","4","4","5","6","8","6","8","7","6","7","8","8","5","5","5","6","5","3","6","3","5","5","1","5","5","6","3","3","5","5","5","5","6","3","6","3","3","3","6","3","7","5","7","6","5","5","6","3","6","5","6","5","5","781508741223944193","陈","217","Female","[""好我"",""坏我"",""坏她"",""好她""]","[""强我"",""弱我"",""弱她"",""强她""]","","","","","","","","{""Q01"":""4"",""Q02"":""4"",""Q03"":""4"",""Q04"":""4"",""Q05"":""5"",""Q06"":""5""}","[0,1,2,3,4,5]","[""Q01"",""Q02"",""Q03"",""Q04"",""Q05"",""Q04"",""Q05"",""Q05"",""Q06"",""Q04""]","[2673.7000000000116,5584.800000000047,6928.800000000047,10281.300000000047,17427.5,17439.20000000001,17446.400000000023,17452.70000000001,25497.70000000001,28017.5]","[]","[2673.7000000000116,5584.800000000047,6928.800000000047,10281.300000000047,17427.5,17439.20000000001,17446.400000000023,17452.70000000001,25497.70000000001,28017.5,31807.600000000035]","0.3333333333333333","0.4","0","","","","","","","","","","","","","","","","","","","","","","",""
"34746.59999999998","","{""Q01"":""1"",""Q02"":""1"",""Q03"":""2"",""Q04"":""0"",""Q05"":""1"",""Q06"":""1"",""Q07"":""2"",""Q08"":""2""}","survey-template","7","152616","0.0-6.0","6","5","6","6","5","4","4","4","4","5","5","1","1","2","0","1","1","2","2","5","4","5","5","5","4","5","4","4","5","6","8","6","8","7","6","7","8","8","5","5","5","6","5","3","6","3","5","5","1","5","5","6","3","3","5","5","5","5","6","3","6","3","3","3","6","3","7","5","7","6","5","5","6","3","6","5","6","5","5","781508741223944193","陈","217","Female","[""好我"",""坏我"",""坏她"",""好她""]","[""强我"",""弱我"",""弱她"",""强她""]","","","","","","","","{""Q01"":""1"",""Q02"":""1"",""Q03"":""2"",""Q04"":""0"",""Q05"":""1"",""Q06"":""1"",""Q07"":""2"",""Q08"":""2""}","[0,1,2,3,4,5,6,7]","[""Q01"",""Q02"",""Q02"",""Q03"",""Q04"",""Q05"",""Q07"",""Q06"",""Q08""]","[3054.6999999999534,6142.299999999988,8799.099999999977,12774.899999999965,14406.899999999965,16742.79999999999,20239.900000000023,21391.199999999953,25303.5]","[]","[3054.6999999999534,6142.299999999988,8799.099999999977,12774.899999999965,14406.899999999965,16742.79999999999,20239.900000000023,21391.199999999953,24663.199999999953,25303.5,34743.40000000002]","0.5","0.42857142857142855","0","","","","","","","","","","","","","","","","","","","","","","",""
"21930","
    <p><div style='color:white;font-size:35px; line-height:20px;'>词汇评估任务</div></p><br>
    <p><div style='color:white;font-size:25px; line-height:20px;'>请再次回忆该亲密的朋友，你们至少2年前就认识了，并且最近2年经常见面。</div></p>
    <p><div style='color:white;font-size:25px; line-height:20px;'>在本实验中，您将会看到一些形容词。</div></p>
    <p><div style='color:yellow;font-size:25px; line-height:20px;'>您的任务是判断这些形容词是否符合对您自己或您的朋友的描述。</div></p><p style='font-size:35px'>符合按<span style=""color:lightgreen""> j 键</span>，不符合按<span style=""color:red""> f 键</span></p>","0","html-button-response","8","174556","0.0-7.0-0.0","6","5","6","6","5","4","4","4","4","5","5","1","1","2","0","1","1","2","2","5","4","5","5","5","4","5","4","4","5","6","8","6","8","7","6","7","8","8","5","5","5","6","5","3","6","3","5","5","1","5","5","6","3","3","5","5","5","5","6","3","6","3","3","3","6","3","7","5","7","6","5","5","6","3","6","5","6","5","5","781508741223944193","陈","217","Female","[""好我"",""坏我"",""坏她"",""好她""]","[""强我"",""弱我"",""弱她"",""强她""]","","","","","","","","","","","","","","","","","SRET_EW","EW_instructions","Fri Jan 19 2024 18:09:43 GMT+0800 (中国标准时间)","","","","","","","","","","","","","","","","","","","",""
"1471","","f","psychophysics","9","177037","0.0-7.0-1.0-0.0","6","5","6","6","5","4","4","4","4","5","5","1","1","2","0","1","1","2","2","5","4","5","5","5","4","5","4","4","5","6","8","6","8","7","6","7","8","8","5","5","5","6","5","3","6","3","5","5","1","5","5","6","3","3","5","5","5","5","6","3","6","3","3","3","6","3","7","5","7","6","5","5","6","3","6","5","6","5","5","781508741223944193","陈","217","Female","[""好我"",""坏我"",""坏她"",""好她""]","[""强我"",""弱我"",""弱她"",""强她""]","","","","","","","","no","","","","","","","","","SRET_EW","EW_practice","","key","f","16.98002758620684","720","446","自己","刻板","Negative","ability","","","","","","","","","","",""
"null","","null","psychophysics","10","180042","0.0-7.0-1.0-0.1","6","5","6","6","5","4","4","4","4","5","5","1","1","2","0","1","1","2","2","5","4","5","5","5","4","5","4","4","5","6","8","6","8","7","6","7","8","8","5","5","5","6","5","3","6","3","5","5","1","5","5","6","3","3","5","5","5","5","6","3","6","3","3","3","6","3","7","5","7","6","5","5","6","3","6","5","6","5","5","781508741223944193","陈","217","Female","[""好我"",""坏我"",""坏她"",""好她""]","[""强我"",""弱我"",""弱她"",""强她""]","","","","","","","","","","","","","","","","","SRET_EW","EW_practice","","key","null","16.645555555555458","720","446","自己","严谨","Positive","ability","","","","","","","","","","",""
"1862","","f","psychophysics","11","182908","0.0-7.0-1.0-0.2","6","5","6","6","5","4","4","4","4","5","5","1","1","2","0","1","1","2","2","5","4","5","5","5","4","5","4","4","5","6","8","6","8","7","6","7","8","8","5","5","5","6","5","3","6","3","5","5","1","5","5","6","3","3","5","5","5","5","6","3","6","3","3","3","6","3","7","5","7","6","5","5","6","3","6","5","6","5","5","781508741223944193","陈","217","Female","[""好我"",""坏我"",""坏她"",""好她""]","[""强我"",""弱我"",""弱她"",""强她""]","","","","","","","","no","","","","","","","","","SRET_EW","EW_practice","","key","f","16.645029239766014","720","446","朋友","忠实","Positive","morality","","","","","","","","","","",""
"1542","","f","psychophysics","12","185453","0.0-7.0-1.0-0.3","6","5","6","6","5","4","4","4","4","5","5","1","1","2","0","1","1","2","2","5","4","5","5","5","4","5","4","4","5","6","8","6","8","7","6","7","8","8","5","5","5","6","5","3","6","3","5","5","1","5","5","6","3","3","5","5","5","5","6","3","6","3","3","3","6","3","7","5","7","6","5","5","6","3","6","5","6","5","5","781508741223944193","陈","217","Female","[""好我"",""坏我"",""坏她"",""好她""]","[""强我"",""弱我"",""弱她"",""强她""]","","","","","","","","no","","","","","","","","","SRET_EW","EW_practice","","key","f","16.755629139072887","720","446","朋友","徇私","Negative","morality","","","","","","","","","","",""
"23163","
    <p><div style='color:white;font-size:35px; line-height:20px;'>请您再次阅读实验要求</div></p><br>
    <p><div style='color:white;font-size:25px; line-height:20px;'>请回忆某一个亲密的朋友，你们至少2年前就认识了，并且最近2年经常见面。</div></p>
    <p><div style='color:white;font-size:25px; line-height:20px;'>在本实验中，您将会看到一些形容词。</div></p>
    <p><div style='color:yellow;font-size:25px; line-height:20px;'>您的任务是判断这些形容词是否符合对您自己或您的朋友的描述。</div></p>
    <p><div class='footer' style='font-size:25px; line-height:20px;'>如果对本实验还有不清楚之处，请立即向实验员咨询。</p><p style='font-size:25px; line-height:20px;'>如果您明白了规则：</p><p style='font-size:22px; line-height:20px;'>请按 继续 进入正式实验</p>
    </div>
    <p style='font-size:35px'>符合按<span style=""color:lightgreen""> j 键</span>，不符合按<span style=""color:red""> f 键</span></p>","0","html-button-response","13","208620","0.0-7.0-2.0","6","5","6","6","5","4","4","4","4","5","5","1","1","2","0","1","1","2","2","5","4","5","5","5","4","5","4","4","5","6","8","6","8","7","6","7","8","8","5","5","5","6","5","3","6","3","5","5","1","5","5","6","3","3","5","5","5","5","6","3","6","3","3","3","6","3","7","5","7","6","5","5","6","3","6","5","6","5","5","781508741223944193","陈","217","Female","[""好我"",""坏我"",""坏她"",""好她""]","[""强我"",""弱我"",""弱她"",""强她""]","","","","","","","","","","","","","","","","","SRET_EW","prac_instructions","Fri Jan 19 2024 18:09:43 GMT+0800 (中国标准时间)","","","","","","","","","","","","","","","","","","","",""
"701","","j","psychophysics","14","210325","0.0-7.0-3.0-0.0","6","5","6","6","5","4","4","4","4","5","5","1","1","2","0","1","1","2","2","5","4","5","5","5","4","5","4","4","5","6","8","6","8","7","6","7","8","8","5","5","5","6","5","3","6","3","5","5","1","5","5","6","3","3","5","5","5","5","6","3","6","3","3","3","6","3","7","5","7","6","5","5","6","3","6","5","6","5","5","781508741223944193","陈","217","Female","[""好我"",""坏我"",""坏她"",""好她""]","[""强我"",""弱我"",""弱她"",""强她""]","","","","","","","","yes","","","","","","","","","SRET","EW_formal","","key","j","16.538873786407915","720","446","自己","坚贞","Positive","morality","","","","","","","","","","",""
"796","","f","psychophysics","15","212125","0.0-7.0-3.0-0.1","6","5","6","6","5","4","4","4","4","5","5","1","1","2","0","1","1","2","2","5","4","5","5","5","4","5","4","4","5","6","8","6","8","7","6","7","8","8","5","5","5","6","5","3","6","3","5","5","1","5","5","6","3","3","5","5","5","5","6","3","6","3","3","3","6","3","7","5","7","6","5","5","6","3","6","5","6","5","5","781508741223944193","陈","217","Female","[""好我"",""坏我"",""坏她"",""好她""]","[""强我"",""弱我"",""弱她"",""强她""]","","","","","","","","no","","","","","","","","","SRET","EW_formal","","key","f","16.64579439252342","720","446","朋友","迷糊","Negative","ability","","","","","","","","","","",""
"765","","f","psychophysics","16","213893","0.0-7.0-3.0-0.2","6","5","6","6","5","4","4","4","4","5","5","1","1","2","0","1","1","2","2","5","4","5","5","5","4","5","4","4","5","6","8","6","8","7","6","7","8","8","5","5","5","6","5","3","6","3","5","5","1","5","5","6","3","3","5","5","5","5","6","3","6","3","3","3","6","3","7","5","7","6","5","5","6","3","6","5","6","5","5","781508741223944193","陈","217","Female","[""好我"",""坏我"",""坏她"",""好她""]","[""强我"",""弱我"",""弱她"",""强她""]","","","","","","","","no","","","","","","","","","SRET","EW_formal","","key","f","17.135294117646946","720","446","自己","说谎","Negative","morality","","","","","","","","","","",""
"809","","j","psychophysics","17","215709","0.0-7.0-3.0-0.3","6","5","6","6","5","4","4","4","4","5","5","1","1","2","0","1","1","2","2","5","4","5","5","5","4","5","4","4","5","6","8","6","8","7","6","7","8","8","5","5","5","6","5","3","6","3","5","5","1","5","5","6","3","3","5","5","5","5","6","3","6","3","3","3","6","3","7","5","7","6","5","5","6","3","6","5","6","5","5","781508741223944193","陈","217","Female","[""好我"",""坏我"",""坏她"",""好她""]","[""强我"",""弱我"",""弱她"",""强她""]","","","","","","","","yes","","","","","","","","","SRET","EW_formal","","key","j","16.64629629629619","720","446","朋友","务实","Positive","ability","","","","","","","","","","",""
"696","","f","psychophysics","18","217413","0.0-7.0-3.0-0.4","6","5","6","6","5","4","4","4","4","5","5","1","1","2","0","1","1","2","2","5","4","5","5","5","4","5","4","4","5","6","8","6","8","7","6","7","8","8","5","5","5","6","5","3","6","3","5","5","1","5","5","6","3","3","5","5","5","5","6","3","6","3","3","3","6","3","7","5","7","6","5","5","6","3","6","5","6","5","5","781508741223944193","陈","217","Female","[""好我"",""坏我"",""坏她"",""好她""]","[""强我"",""弱我"",""弱她"",""强她""]","","","","","","","","no","","","","","","","","","SRET","EW_formal","","key","f","16.64607843137249","720","446","朋友","下流","Negative","morality","","","","","","","","","","",""
"973","","f","psychophysics","19","219389","0.0-7.0-3.0-0.5","6","5","6","6","5","4","4","4","4","5","5","1","1","2","0","1","1","2","2","5","4","5","5","5","4","5","4","4","5","6","8","6","8","7","6","7","8","8","5","5","5","6","5","3","6","3","5","5","1","5","5","6","3","3","5","5","5","5","6","3","6","3","3","3","6","3","7","5","7","6","5","5","6","3","6","5","6","5","5","781508741223944193","陈","217","Female","[""好我"",""坏我"",""坏她"",""好她""]","[""强我"",""弱我"",""弱她"",""强她""]","","","","","","","","no","","","","","","","","","SRET","EW_formal","","key","f","16.646153846153897","720","446","朋友","畏难","Negative","ability","","","","","","","","","","",""
"750","","f","psychophysics","20","221142","0.0-7.0-3.0-0.6","6","5","6","6","5","4","4","4","4","5","5","1","1","2","0","1","1","2","2","5","4","5","5","5","4","5","4","4","5","6","8","6","8","7","6","7","8","8","5","5","5","6","5","3","6","3","5","5","1","5","5","6","3","3","5","5","5","5","6","3","6","3","3","3","6","3","7","5","7","6","5","5","6","3","6","5","6","5","5","781508741223944193","陈","217","Female","[""好我"",""坏我"",""坏她"",""好她""]","[""强我"",""弱我"",""弱她"",""强她""]","","","","","","","","no","","","","","","","","","SRET","EW_formal","","key","f","16.806730769230715","720","446","朋友","拙笨","Negative","ability","","","","","","","","","","",""
"1013","","f","psychophysics","21","223158","0.0-7.0-3.0-0.7","6","5","6","6","5","4","4","4","4","5","5","1","1","2","0","1","1","2","2","5","4","5","5","5","4","5","4","4","5","6","8","6","8","7","6","7","8","8","5","5","5","6","5","3","6","3","5","5","1","5","5","6","3","3","5","5","5","5","6","3","6","3","3","3","6","3","7","5","7","6","5","5","6","3","6","5","6","5","5","781508741223944193","陈","217","Female","[""好我"",""坏我"",""坏她"",""好她""]","[""强我"",""弱我"",""弱她"",""强她""]","","","","","","","","no","","","","","","","","","SRET","EW_formal","","key","f","16.645833333333332","720","446","朋友","迟钝","Negative","ability","","","","","","","","","","",""
"877","","f","psychophysics","22","225037","0.0-7.0-3.0-0.8","6","5","6","6","5","4","4","4","4","5","5","1","1","2","0","1","1","2","2","5","4","5","5","5","4","5","4","4","5","6","8","6","8","7","6","7","8","8","5","5","5","6","5","3","6","3","5","5","1","5","5","6","3","3","5","5","5","5","6","3","6","3","3","3","6","3","7","5","7","6","5","5","6","3","6","5","6","5","5","781508741223944193","陈","217","Female","[""好我"",""坏我"",""坏她"",""好她""]","[""强我"",""弱我"",""弱她"",""强她""]","","","","","","","","no","","","","","","","","","SRET","EW_formal","","key","f","16.64642857142878","720","446","自己","虚假","Negative","morality","","","","","","","","","","",""
"933","","f","psychophysics","23","226974","0.0-7.0-3.0-0.9","6","5","6","6","5","4","4","4","4","5","5","1","1","2","0","1","1","2","2","5","4","5","5","5","4","5","4","4","5","6","8","6","8","7","6","7","8","8","5","5","5","6","5","3","6","3","5","5","1","5","5","6","3","3","5","5","5","5","6","3","6","3","3","3","6","3","7","5","7","6","5","5","6","3","6","5","6","5","5","781508741223944193","陈","217","Female","[""好我"",""坏我"",""坏她"",""好她""]","[""强我"",""弱我"",""弱她"",""强她""]","","","","","","","","no","","","","","","","","","SRET","EW_formal","","key","f","16.64608695652189","720","446","朋友","贪腐","Negative","morality","","","","","","","","","","",""
"897","","j","psychophysics","24","228878","0.0-7.0-3.0-0.10","6","5","6","6","5","4","4","4","4","5","5","1","1","2","0","1","1","2","2","5","4","5","5","5","4","5","4","4","5","6","8","6","8","7","6","7","8","8","5","5","5","6","5","3","6","3","5","5","1","5","5","6","3","3","5","5","5","5","6","3","6","3","3","3","6","3","7","5","7","6","5","5","6","3","6","5","6","5","5","781508741223944193","陈","217","Female","[""好我"",""坏我"",""坏她"",""好她""]","[""强我"",""弱我"",""弱她"",""强她""]","","","","","","","","yes","","","","","","","","","SRET","EW_formal","","key","j","16.64513274336304","720","446","朋友","独立","Positive","ability","","","","","","","","","","",""
"853","","f","psychophysics","25","230734","0.0-7.0-3.0-0.11","6","5","6","6","5","4","4","4","4","5","5","1","1","2","0","1","1","2","2","5","4","5","5","5","4","5","4","4","5","6","8","6","8","7","6","7","8","8","5","5","5","6","5","3","6","3","5","5","1","5","5","6","3","3","5","5","5","5","6","3","6","3","3","3","6","3","7","5","7","6","5","5","6","3","6","5","6","5","5","781508741223944193","陈","217","Female","[""好我"",""坏我"",""坏她"",""好她""]","[""强我"",""弱我"",""弱她"",""强她""]","","","","","","","","no","","","","","","","","","SRET","EW_formal","","key","f","16.64594594594605","720","446","自己","短视","Negative","ability","","","","","","","","","","",""
"733","","f","psychophysics","26","232470","0.0-7.0-3.0-0.12","6","5","6","6","5","4","4","4","4","5","5","1","1","2","0","1","1","2","2","5","4","5","5","5","4","5","4","4","5","6","8","6","8","7","6","7","8","8","5","5","5","6","5","3","6","3","5","5","1","5","5","6","3","3","5","5","5","5","6","3","6","3","3","3","6","3","7","5","7","6","5","5","6","3","6","5","6","5","5","781508741223944193","陈","217","Female","[""好我"",""坏我"",""坏她"",""好她""]","[""强我"",""弱我"",""弱她"",""强她""]","","","","","","","","no","","","","","","","","","SRET","EW_formal","","key","f","16.646601941747345","720","446","朋友","拖延","Negative","ability","","","","","","","","","","",""
"870","","f","psychophysics","27","234342","0.0-7.0-3.0-0.13","6","5","6","6","5","4","4","4","4","5","5","1","1","2","0","1","1","2","2","5","4","5","5","5","4","5","4","4","5","6","8","6","8","7","6","7","8","8","5","5","5","6","5","3","6","3","5","5","1","5","5","6","3","3","5","5","5","5","6","3","6","3","3","3","6","3","7","5","7","6","5","5","6","3","6","5","6","5","5","781508741223944193","陈","217","Female","[""好我"",""坏我"",""坏她"",""好她""]","[""强我"",""弱我"",""弱她"",""强她""]","","","","","","","","no","","","","","","","","","SRET","EW_formal","","key","f","16.64642857142852","720","446","朋友","无能","Negative","ability","","","","","","","","","","",""
"717","","f","psychophysics","28","236062","0.0-7.0-3.0-0.14","6","5","6","6","5","4","4","4","4","5","5","1","1","2","0","1","1","2","2","5","4","5","5","5","4","5","4","4","5","6","8","6","8","7","6","7","8","8","5","5","5","6","5","3","6","3","5","5","1","5","5","6","3","3","5","5","5","5","6","3","6","3","3","3","6","3","7","5","7","6","5","5","6","3","6","5","6","5","5","781508741223944193","陈","217","Female","[""好我"",""坏我"",""坏她"",""好她""]","[""强我"",""弱我"",""弱她"",""强她""]","","","","","","","","no","","","","","","","","","SRET","EW_formal","","key","f","16.645098039215572","720","446","自己","淫乱","Negative","morality","","","","","","","","","","",""
"817","","j","psychophysics","29","237886","0.0-7.0-3.0-0.15","6","5","6","6","5","4","4","4","4","5","5","1","1","2","0","1","1","2","2","5","4","5","5","5","4","5","4","4","5","6","8","6","8","7","6","7","8","8","5","5","5","6","5","3","6","3","5","5","1","5","5","6","3","3","5","5","5","5","6","3","6","3","3","3","6","3","7","5","7","6","5","5","6","3","6","5","6","5","5","781508741223944193","陈","217","Female","[""好我"",""坏我"",""坏她"",""好她""]","[""强我"",""弱我"",""弱她"",""强她""]","","","","","","","","yes","","","","","","","","","SRET","EW_formal","","key","j","16.801869158878397","720","446","朋友","敏捷","Positive","ability","","","","","","","","","","",""
"740","","f","psychophysics","30","239630","0.0-7.0-3.0-0.16","6","5","6","6","5","4","4","4","4","5","5","1","1","2","0","1","1","2","2","5","4","5","5","5","4","5","4","4","5","6","8","6","8","7","6","7","8","8","5","5","5","6","5","3","6","3","5","5","1","5","5","6","3","3","5","5","5","5","6","3","6","3","3","3","6","3","7","5","7","6","5","5","6","3","6","5","6","5","5","781508741223944193","陈","217","Female","[""好我"",""坏我"",""坏她"",""好她""]","[""强我"",""弱我"",""弱她"",""强她""]","","","","","","","","no","","","","","","","","","SRET","EW_formal","","key","f","16.646153846153958","720","446","朋友","盲目","Negative","ability","","","","","","","","","","",""
"718","","j","psychophysics","31","241350","0.0-7.0-3.0-0.17","6","5","6","6","5","4","4","4","4","5","5","1","1","2","0","1","1","2","2","5","4","5","5","5","4","5","4","4","5","6","8","6","8","7","6","7","8","8","5","5","5","6","5","3","6","3","5","5","1","5","5","6","3","3","5","5","5","5","6","3","6","3","3","3","6","3","7","5","7","6","5","5","6","3","6","5","6","5","5","781508741223944193","陈","217","Female","[""好我"",""坏我"",""坏她"",""好她""]","[""强我"",""弱我"",""弱她"",""强她""]","","","","","","","","yes","","","","","","","","","SRET","EW_formal","","key","j","17.145","720","446","朋友","宽容","Positive","morality","","","","","","","","","","",""
"862","","f","psychophysics","32","243214","0.0-7.0-3.0-0.18","6","5","6","6","5","4","4","4","4","5","5","1","1","2","0","1","1","2","2","5","4","5","5","5","4","5","4","4","5","6","8","6","8","7","6","7","8","8","5","5","5","6","5","3","6","3","5","5","1","5","5","6","3","3","5","5","5","5","6","3","6","3","3","3","6","3","7","5","7","6","5","5","6","3","6","5","6","5","5","781508741223944193","陈","217","Female","[""好我"",""坏我"",""坏她"",""好她""]","[""强我"",""弱我"",""弱她"",""强她""]","","","","","","","","no","","","","","","","","","SRET","EW_formal","","key","f","16.64594594594605","720","446","自己","短浅","Negative","ability","","","","","","","","","","",""
"941","","j","psychophysics","33","245158","0.0-7.0-3.0-0.19","6","5","6","6","5","4","4","4","4","5","5","1","1","2","0","1","1","2","2","5","4","5","5","5","4","5","4","4","5","6","8","6","8","7","6","7","8","8","5","5","5","6","5","3","6","3","5","5","1","5","5","6","3","3","5","5","5","5","6","3","6","3","3","3","6","3","7","5","7","6","5","5","6","3","6","5","6","5","5","781508741223944193","陈","217","Female","[""好我"",""坏我"",""坏她"",""好她""]","[""强我"",""弱我"",""弱她"",""强她""]","","","","","","","","yes","","","","","","","","","SRET","EW_formal","","key","j","16.64608695652189","720","446","朋友","博识","Positive","ability","","","","","","","","","","",""
"766","","j","psychophysics","34","246927","0.0-7.0-3.0-0.20","6","5","6","6","5","4","4","4","4","5","5","1","1","2","0","1","1","2","2","5","4","5","5","5","4","5","4","4","5","6","8","6","8","7","6","7","8","8","5","5","5","6","5","3","6","3","5","5","1","5","5","6","3","3","5","5","5","5","6","3","6","3","3","3","6","3","7","5","7","6","5","5","6","3","6","5","6","5","5","781508741223944193","陈","217","Female","[""好我"",""坏我"",""坏她"",""好她""]","[""强我"",""弱我"",""弱她"",""强她""]","","","","","","","","yes","","","","","","","","","SRET","EW_formal","","key","j","16.64622641509434","720","446","朋友","侠义","Positive","morality","","","","","","","","","","",""
"941","","j","psychophysics","35","248870","0.0-7.0-3.0-0.21","6","5","6","6","5","4","4","4","4","5","5","1","1","2","0","1","1","2","2","5","4","5","5","5","4","5","4","4","5","6","8","6","8","7","6","7","8","8","5","5","5","6","5","3","6","3","5","5","1","5","5","6","3","3","5","5","5","5","6","3","6","3","3","3","6","3","7","5","7","6","5","5","6","3","6","5","6","5","5","781508741223944193","陈","217","Female","[""好我"",""坏我"",""坏她"",""好她""]","[""强我"",""弱我"",""弱她"",""强她""]","","","","","","","","yes","","","","","","","","","SRET","EW_formal","","key","j","16.64521739130445","720","446","朋友","仁爱","Positive","morality","","","","","","","","","","",""
"757","","j","psychophysics","36","250630","0.0-7.0-3.0-0.22","6","5","6","6","5","4","4","4","4","5","5","1","1","2","0","1","1","2","2","5","4","5","5","5","4","5","4","4","5","6","8","6","8","7","6","7","8","8","5","5","5","6","5","3","6","3","5","5","1","5","5","6","3","3","5","5","5","5","6","3","6","3","3","3","6","3","7","5","7","6","5","5","6","3","6","5","6","5","5","781508741223944193","陈","217","Female","[""好我"",""坏我"",""坏她"",""好她""]","[""强我"",""弱我"",""弱她"",""强她""]","","","","","","","","yes","","","","","","","","","SRET","EW_formal","","key","j","16.64666666666689","720","446","自己","肯干","Positive","ability","","","","","","","","","","",""
"1110","","j","psychophysics","37","252742","0.0-7.0-3.0-0.23","6","5","6","6","5","4","4","4","4","5","5","1","1","2","0","1","1","2","2","5","4","5","5","5","4","5","4","4","5","6","8","6","8","7","6","7","8","8","5","5","5","6","5","3","6","3","5","5","1","5","5","6","3","3","5","5","5","5","6","3","6","3","3","3","6","3","7","5","7","6","5","5","6","3","6","5","6","5","5","781508741223944193","陈","217","Female","[""好我"",""坏我"",""坏她"",""好她""]","[""强我"",""弱我"",""弱她"",""强她""]","","","","","","","","yes","","","","","","","","","SRET","EW_formal","","key","j","16.64603174603193","720","446","朋友","有力","Positive","ability","","","","","","","","","","",""
"974","","f","psychophysics","38","254719","0.0-7.0-3.0-0.24","6","5","6","6","5","4","4","4","4","5","5","1","1","2","0","1","1","2","2","5","4","5","5","5","4","5","4","4","5","6","8","6","8","7","6","7","8","8","5","5","5","6","5","3","6","3","5","5","1","5","5","6","3","3","5","5","5","5","6","3","6","3","3","3","6","3","7","5","7","6","5","5","6","3","6","5","6","5","5","781508741223944193","陈","217","Female","[""好我"",""坏我"",""坏她"",""好她""]","[""强我"",""弱我"",""弱她"",""强她""]","","","","","","","","no","","","","","","","","","SRET","EW_formal","","key","f","16.646610169491428","720","446","朋友","无为","Negative","ability","","","","","","","","","","",""
"1045","","f","psychophysics","39","256774","0.0-7.0-3.0-0.25","6","5","6","6","5","4","4","4","4","5","5","1","1","2","0","1","1","2","2","5","4","5","5","5","4","5","4","4","5","6","8","6","8","7","6","7","8","8","5","5","5","6","5","3","6","3","5","5","1","5","5","6","3","3","5","5","5","5","6","3","6","3","3","3","6","3","7","5","7","6","5","5","6","3","6","5","6","5","5","781508741223944193","陈","217","Female","[""好我"",""坏我"",""坏她"",""好她""]","[""强我"",""弱我"",""弱她"",""强她""]","","","","","","","","no","","","","","","","","","SRET","EW_formal","","key","f","16.645901639344167","720","446","自己","昏庸","Negative","ability","","","","","","","","","","",""
"1006","","f","psychophysics","40","258783","0.0-7.0-3.0-0.26","6","5","6","6","5","4","4","4","4","5","5","1","1","2","0","1","1","2","2","5","4","5","5","5","4","5","4","4","5","6","8","6","8","7","6","7","8","8","5","5","5","6","5","3","6","3","5","5","1","5","5","6","3","3","5","5","5","5","6","3","6","3","3","3","6","3","7","5","7","6","5","5","6","3","6","5","6","5","5","781508741223944193","陈","217","Female","[""好我"",""坏我"",""坏她"",""好她""]","[""强我"",""弱我"",""弱她"",""强她""]","","","","","","","","no","","","","","","","","","SRET","EW_formal","","key","f","16.646666666666956","720","446","自己","废物","Negative","ability","","","","","","","","","","",""
"1381","","j","psychophysics","41","261166","0.0-7.0-3.0-0.27","6","5","6","6","5","4","4","4","4","5","5","1","1","2","0","1","1","2","2","5","4","5","5","5","4","5","4","4","5","6","8","6","8","7","6","7","8","8","5","5","5","6","5","3","6","3","5","5","1","5","5","6","3","3","5","5","5","5","6","3","6","3","3","3","6","3","7","5","7","6","5","5","6","3","6","5","6","5","5","781508741223944193","陈","217","Female","[""好我"",""坏我"",""坏她"",""好她""]","[""强我"",""弱我"",""弱她"",""强她""]","","","","","","","","yes","","","","","","","","","SRET","EW_formal","","key","j","16.646478873239353","720","446","朋友","孝顺","Positive","morality","","","","","","","","","","",""
"837","","j","psychophysics","42","263007","0.0-7.0-3.0-0.28","6","5","6","6","5","4","4","4","4","5","5","1","1","2","0","1","1","2","2","5","4","5","5","5","4","5","4","4","5","6","8","6","8","7","6","7","8","8","5","5","5","6","5","3","6","3","5","5","1","5","5","6","3","3","5","5","5","5","6","3","6","3","3","3","6","3","7","5","7","6","5","5","6","3","6","5","6","5","5","781508741223944193","陈","217","Female","[""好我"",""坏我"",""坏她"",""好她""]","[""强我"",""弱我"",""弱她"",""强她""]","","","","","","","","yes","","","","","","","","","SRET","EW_formal","","key","j","16.646363636363425","720","446","朋友","专注","Positive","ability","","","","","","","","","","",""
"757","","f","psychophysics","43","264775","0.0-7.0-3.0-0.29","6","5","6","6","5","4","4","4","4","5","5","1","1","2","0","1","1","2","2","5","4","5","5","5","4","5","4","4","5","6","8","6","8","7","6","7","8","8","5","5","5","6","5","3","6","3","5","5","1","5","5","6","3","3","5","5","5","5","6","3","6","3","3","3","6","3","7","5","7","6","5","5","6","3","6","5","6","5","5","781508741223944193","陈","217","Female","[""好我"",""坏我"",""坏她"",""好她""]","[""强我"",""弱我"",""弱她"",""强她""]","","","","","","","","no","","","","","","","","","SRET","EW_formal","","key","f","16.646666666666334","720","446","自己","小人","Negative","morality","","","","","","","","","","",""
"807","","f","psychophysics","44","266584","0.0-7.0-3.0-0.30","6","5","6","6","5","4","4","4","4","5","5","1","1","2","0","1","1","2","2","5","4","5","5","5","4","5","4","4","5","6","8","6","8","7","6","7","8","8","5","5","5","6","5","3","6","3","5","5","1","5","5","6","3","3","5","5","5","5","6","3","6","3","3","3","6","3","7","5","7","6","5","5","6","3","6","5","6","5","5","781508741223944193","陈","217","Female","[""好我"",""坏我"",""坏她"",""好她""]","[""强我"",""弱我"",""弱她"",""强她""]","","","","","","","","no","","","","","","","","","SRET","EW_formal","","key","f","16.64629629629619","720","446","自己","差生","Negative","ability","","","","","","","","","","",""
"1196","","f","psychophysics","45","268784","0.0-7.0-3.0-0.31","6","5","6","6","5","4","4","4","4","5","5","1","1","2","0","1","1","2","2","5","4","5","5","5","4","5","4","4","5","6","8","6","8","7","6","7","8","8","5","5","5","6","5","3","6","3","5","5","1","5","5","6","3","3","5","5","5","5","6","3","6","3","3","3","6","3","7","5","7","6","5","5","6","3","6","5","6","5","5","781508741223944193","陈","217","Female","[""好我"",""坏我"",""坏她"",""好她""]","[""强我"",""弱我"",""弱她"",""强她""]","","","","","","","","no","","","","","","","","","SRET","EW_formal","","key","f","16.64656488549627","720","446","朋友","驽钝","Negative","ability","","","","","","","","","","",""
"739","","j","psychophysics","46","270527","0.0-7.0-3.0-0.32","6","5","6","6","5","4","4","4","4","5","5","1","1","2","0","1","1","2","2","5","4","5","5","5","4","5","4","4","5","6","8","6","8","7","6","7","8","8","5","5","5","6","5","3","6","3","5","5","1","5","5","6","3","3","5","5","5","5","6","3","6","3","3","3","6","3","7","5","7","6","5","5","6","3","6","5","6","5","5","781508741223944193","陈","217","Female","[""好我"",""坏我"",""坏她"",""好她""]","[""强我"",""弱我"",""弱她"",""强她""]","","","","","","","","yes","","","","","","","","","SRET","EW_formal","","key","j","16.645631067961165","720","446","自己","好心","Positive","morality","","","","","","","","","","",""
"741","","j","psychophysics","47","272271","0.0-7.0-3.0-0.33","6","5","6","6","5","4","4","4","4","5","5","1","1","2","0","1","1","2","2","5","4","5","5","5","4","5","4","4","5","6","8","6","8","7","6","7","8","8","5","5","5","6","5","3","6","3","5","5","1","5","5","6","3","3","5","5","5","5","6","3","6","3","3","3","6","3","7","5","7","6","5","5","6","3","6","5","6","5","5","781508741223944193","陈","217","Female","[""好我"",""坏我"",""坏她"",""好她""]","[""强我"",""弱我"",""弱她"",""强她""]","","","","","","","","yes","","","","","","","","","SRET","EW_formal","","key","j","16.647115384615272","720","446","自己","聪明","Positive","ability","","","","","","","","","","",""
"702","","j","psychophysics","48","273976","0.0-7.0-3.0-0.34","6","5","6","6","5","4","4","4","4","5","5","1","1","2","0","1","1","2","2","5","4","5","5","5","4","5","4","4","5","6","8","6","8","7","6","7","8","8","5","5","5","6","5","3","6","3","5","5","1","5","5","6","3","3","5","5","5","5","6","3","6","3","3","3","6","3","7","5","7","6","5","5","6","3","6","5","6","5","5","781508741223944193","陈","217","Female","[""好我"",""坏我"",""坏她"",""好她""]","[""强我"",""弱我"",""弱她"",""强她""]","","","","","","","","yes","","","","","","","","","SRET","EW_formal","","key","j","16.979000000000234","720","446","自己","奉献","Positive","morality","","","","","","","","","","",""
"739","","j","psychophysics","49","275719","0.0-7.0-3.0-0.35","6","5","6","6","5","4","4","4","4","5","5","1","1","2","0","1","1","2","2","5","4","5","5","5","4","5","4","4","5","6","8","6","8","7","6","7","8","8","5","5","5","6","5","3","6","3","5","5","1","5","5","6","3","3","5","5","5","5","6","3","6","3","3","3","6","3","7","5","7","6","5","5","6","3","6","5","6","5","5","781508741223944193","陈","217","Female","[""好我"",""坏我"",""坏她"",""好她""]","[""强我"",""弱我"",""弱她"",""强她""]","","","","","","","","yes","","","","","","","","","SRET","EW_formal","","key","j","16.64660194174791","720","446","自己","思辨","Positive","ability","","","","","","","","","","",""
"654","","j","psychophysics","50","277375","0.0-7.0-3.0-0.36","6","5","6","6","5","4","4","4","4","5","5","1","1","2","0","1","1","2","2","5","4","5","5","5","4","5","4","4","5","6","8","6","8","7","6","7","8","8","5","5","5","6","5","3","6","3","5","5","1","5","5","6","3","3","5","5","5","5","6","3","6","3","3","3","6","3","7","5","7","6","5","5","6","3","6","5","6","5","5","781508741223944193","陈","217","Female","[""好我"",""坏我"",""坏她"",""好她""]","[""强我"",""弱我"",""弱她"",""强她""]","","","","","","","","yes","","","","","","","","","SRET","EW_formal","","key","j","16.646464646464647","720","446","自己","自律","Positive","ability","","","","","","","","","","",""
"909","","f","psychophysics","51","279287","0.0-7.0-3.0-0.37","6","5","6","6","5","4","4","4","4","5","5","1","1","2","0","1","1","2","2","5","4","5","5","5","4","5","4","4","5","6","8","6","8","7","6","7","8","8","5","5","5","6","5","3","6","3","5","5","1","5","5","6","3","3","5","5","5","5","6","3","6","3","3","3","6","3","7","5","7","6","5","5","6","3","6","5","6","5","5","781508741223944193","陈","217","Female","[""好我"",""坏我"",""坏她"",""好她""]","[""强我"",""弱我"",""弱她"",""强她""]","","","","","","","","no","","","","","","","","","SRET","EW_formal","","key","f","16.645614035087515","720","446","朋友","腐败","Negative","morality","","","","","","","","","","",""
"853","","j","psychophysics","52","281143","0.0-7.0-3.0-0.38","6","5","6","6","5","4","4","4","4","5","5","1","1","2","0","1","1","2","2","5","4","5","5","5","4","5","4","4","5","6","8","6","8","7","6","7","8","8","5","5","5","6","5","3","6","3","5","5","1","5","5","6","3","3","5","5","5","5","6","3","6","3","3","3","6","3","7","5","7","6","5","5","6","3","6","5","6","5","5","781508741223944193","陈","217","Female","[""好我"",""坏我"",""坏她"",""好她""]","[""强我"",""弱我"",""弱她"",""强她""]","","","","","","","","yes","","","","","","","","","SRET","EW_formal","","key","j","16.645454545454545","720","446","自己","周到","Positive","ability","","","","","","","","","","",""
"1086","","j","psychophysics","53","283233","0.0-7.0-3.0-0.39","6","5","6","6","5","4","4","4","4","5","5","1","1","2","0","1","1","2","2","5","4","5","5","5","4","5","4","4","5","6","8","6","8","7","6","7","8","8","5","5","5","6","5","3","6","3","5","5","1","5","5","6","3","3","5","5","5","5","6","3","6","3","3","3","6","3","7","5","7","6","5","5","6","3","6","5","6","5","5","781508741223944193","陈","217","Female","[""好我"",""坏我"",""坏她"",""好她""]","[""强我"",""弱我"",""弱她"",""强她""]","","","","","","","","yes","","","","","","","","","SRET","EW_formal","","key","j","16.645600000000094","720","446","自己","守法","Positive","morality","","","","","","","","","","",""
"612","","j","psychophysics","54","284848","0.0-7.0-3.0-0.40","6","5","6","6","5","4","4","4","4","5","5","1","1","2","0","1","1","2","2","5","4","5","5","5","4","5","4","4","5","6","8","6","8","7","6","7","8","8","5","5","5","6","5","3","6","3","5","5","1","5","5","6","3","3","5","5","5","5","6","3","6","3","3","3","6","3","7","5","7","6","5","5","6","3","6","5","6","5","5","781508741223944193","陈","217","Female","[""好我"",""坏我"",""坏她"",""好她""]","[""强我"",""弱我"",""弱她"",""强她""]","","","","","","","","yes","","","","","","","","","SRET","EW_formal","","key","j","16.644791666666304","720","446","自己","礼貌","Positive","morality","","","","","","","","","","",""
"804","","f","psychophysics","55","286655","0.0-7.0-3.0-0.41","6","5","6","6","5","4","4","4","4","5","5","1","1","2","0","1","1","2","2","5","4","5","5","5","4","5","4","4","5","6","8","6","8","7","6","7","8","8","5","5","5","6","5","3","6","3","5","5","1","5","5","6","3","3","5","5","5","5","6","3","6","3","3","3","6","3","7","5","7","6","5","5","6","3","6","5","6","5","5","781508741223944193","陈","217","Female","[""好我"",""坏我"",""坏她"",""好她""]","[""强我"",""弱我"",""弱她"",""强她""]","","","","","","","","no","","","","","","","","","SRET","EW_formal","","key","f","16.645794392523147","720","446","朋友","不良","Negative","morality","","","","","","","","","","",""
"1086","","f","psychophysics","56","288743","0.0-7.0-3.0-0.42","6","5","6","6","5","4","4","4","4","5","5","1","1","2","0","1","1","2","2","5","4","5","5","5","4","5","4","4","5","6","8","6","8","7","6","7","8","8","5","5","5","6","5","3","6","3","5","5","1","5","5","6","3","3","5","5","5","5","6","3","6","3","3","3","6","3","7","5","7","6","5","5","6","3","6","5","6","5","5","781508741223944193","陈","217","Female","[""好我"",""坏我"",""坏她"",""好她""]","[""强我"",""弱我"",""弱她"",""强她""]","","","","","","","","no","","","","","","","","","SRET","EW_formal","","key","f","16.645600000000094","720","446","自己","罪恶","Negative","morality","","","","","","","","","","",""
"1021","","j","psychophysics","57","290767","0.0-7.0-3.0-0.43","6","5","6","6","5","4","4","4","4","5","5","1","1","2","0","1","1","2","2","5","4","5","5","5","4","5","4","4","5","6","8","6","8","7","6","7","8","8","5","5","5","6","5","3","6","3","5","5","1","5","5","6","3","3","5","5","5","5","6","3","6","3","3","3","6","3","7","5","7","6","5","5","6","3","6","5","6","5","5","781508741223944193","陈","217","Female","[""好我"",""坏我"",""坏她"",""好她""]","[""强我"",""弱我"",""弱她"",""强她""]","","","","","","","","yes","","","","","","","","","SRET","EW_formal","","key","j","16.785714285714285","720","446","自己","君子","Positive","morality","","","","","","","","","","",""
"861","","f","psychophysics","58","292632","0.0-7.0-3.0-0.44","6","5","6","6","5","4","4","4","4","5","5","1","1","2","0","1","1","2","2","5","4","5","5","5","4","5","4","4","5","6","8","6","8","7","6","7","8","8","5","5","5","6","5","3","6","3","5","5","1","5","5","6","3","3","5","5","5","5","6","3","6","3","3","3","6","3","7","5","7","6","5","5","6","3","6","5","6","5","5","781508741223944193","陈","217","Female","[""好我"",""坏我"",""坏她"",""好她""]","[""强我"",""弱我"",""弱她"",""强她""]","","","","","","","","no","","","","","","","","","SRET","EW_formal","","key","f","16.645045045044835","720","446","自己","蛇蝎","Negative","morality","","","","","","","","","","",""
"798","","j","psychophysics","59","294432","0.0-7.0-3.0-0.45","6","5","6","6","5","4","4","4","4","5","5","1","1","2","0","1","1","2","2","5","4","5","5","5","4","5","4","4","5","6","8","6","8","7","6","7","8","8","5","5","5","6","5","3","6","3","5","5","1","5","5","6","3","3","5","5","5","5","6","3","6","3","3","3","6","3","7","5","7","6","5","5","6","3","6","5","6","5","5","781508741223944193","陈","217","Female","[""好我"",""坏我"",""坏她"",""好她""]","[""强我"",""弱我"",""弱她"",""强她""]","","","","","","","","yes","","","","","","","","","SRET","EW_formal","","key","j","16.645794392523147","720","446","朋友","正气","Positive","morality","","","","","","","","","","",""
"701","","j","psychophysics","60","296136","0.0-7.0-3.0-0.46","6","5","6","6","5","4","4","4","4","5","5","1","1","2","0","1","1","2","2","5","4","5","5","5","4","5","4","4","5","6","8","6","8","7","6","7","8","8","5","5","5","6","5","3","6","3","5","5","1","5","5","6","3","3","5","5","5","5","6","3","6","3","3","3","6","3","7","5","7","6","5","5","6","3","6","5","6","5","5","781508741223944193","陈","217","Female","[""好我"",""坏我"",""坏她"",""好她""]","[""强我"",""弱我"",""弱她"",""强她""]","","","","","","","","yes","","","","","","","","","SRET","EW_formal","","key","j","16.64607843137278","720","446","自己","干练","Positive","ability","","","","","","","","","","",""
"749","","j","psychophysics","61","297887","0.0-7.0-3.0-0.47","6","5","6","6","5","4","4","4","4","5","5","1","1","2","0","1","1","2","2","5","4","5","5","5","4","5","4","4","5","6","8","6","8","7","6","7","8","8","5","5","5","6","5","3","6","3","5","5","1","5","5","6","3","3","5","5","5","5","6","3","6","3","3","3","6","3","7","5","7","6","5","5","6","3","6","5","6","5","5","781508741223944193","陈","217","Female","[""好我"",""坏我"",""坏她"",""好她""]","[""强我"",""弱我"",""弱她"",""强她""]","","","","","","","","yes","","","","","","","","","SRET","EW_formal","","key","j","16.645192307692643","720","446","自己","稳健","Positive","ability","","","","","","","","","","",""
"887","","j","psychophysics","62","299778","0.0-7.0-3.0-0.48","6","5","6","6","5","4","4","4","4","5","5","1","1","2","0","1","1","2","2","5","4","5","5","5","4","5","4","4","5","6","8","6","8","7","6","7","8","8","5","5","5","6","5","3","6","3","5","5","1","5","5","6","3","3","5","5","5","5","6","3","6","3","3","3","6","3","7","5","7","6","5","5","6","3","6","5","6","5","5","781508741223944193","陈","217","Female","[""好我"",""坏我"",""坏她"",""好她""]","[""强我"",""弱我"",""弱她"",""强她""]","","","","","","","","yes","","","","","","","","","SRET","EW_formal","","key","j","16.646902654867567","720","446","朋友","果断","Positive","ability","","","","","","","","","","",""
"641","","j","psychophysics","63","301432","0.0-7.0-3.0-0.49","6","5","6","6","5","4","4","4","4","5","5","1","1","2","0","1","1","2","2","5","4","5","5","5","4","5","4","4","5","6","8","6","8","7","6","7","8","8","5","5","5","6","5","3","6","3","5","5","1","5","5","6","3","3","5","5","5","5","6","3","6","3","3","3","6","3","7","5","7","6","5","5","6","3","6","5","6","5","5","781508741223944193","陈","217","Female","[""好我"",""坏我"",""坏她"",""好她""]","[""强我"",""弱我"",""弱她"",""强她""]","","","","","","","","yes","","","","","","","","","SRET","EW_formal","","key","j","16.64591836734682","720","446","自己","刚正","Positive","morality","","","","","","","","","","",""
"708","","j","psychophysics","64","303145","0.0-7.0-3.0-0.50","6","5","6","6","5","4","4","4","4","5","5","1","1","2","0","1","1","2","2","5","4","5","5","5","4","5","4","4","5","6","8","6","8","7","6","7","8","8","5","5","5","6","5","3","6","3","5","5","1","5","5","6","3","3","5","5","5","5","6","3","6","3","3","3","6","3","7","5","7","6","5","5","6","3","6","5","6","5","5","781508741223944193","陈","217","Female","[""好我"",""坏我"",""坏她"",""好她""]","[""强我"",""弱我"",""弱她"",""强她""]","","","","","","","","yes","","","","","","","","","SRET","EW_formal","","key","j","16.64607843137278","720","446","自己","爱国","Positive","morality","","","","","","","","","","",""
"781","","f","psychophysics","65","304928","0.0-7.0-3.0-0.51","6","5","6","6","5","4","4","4","4","5","5","1","1","2","0","1","1","2","2","5","4","5","5","5","4","5","4","4","5","6","8","6","8","7","6","7","8","8","5","5","5","6","5","3","6","3","5","5","1","5","5","6","3","3","5","5","5","5","6","3","6","3","3","3","6","3","7","5","7","6","5","5","6","3","6","5","6","5","5","781508741223944193","陈","217","Female","[""好我"",""坏我"",""坏她"",""好她""]","[""强我"",""弱我"",""弱她"",""强她""]","","","","","","","","no","","","","","","","","","SRET","EW_formal","","key","f","16.64622641509434","720","446","自己","无知","Negative","ability","","","","","","","","","","",""
"973","","j","psychophysics","66","306905","0.0-7.0-3.0-0.52","6","5","6","6","5","4","4","4","4","5","5","1","1","2","0","1","1","2","2","5","4","5","5","5","4","5","4","4","5","6","8","6","8","7","6","7","8","8","5","5","5","6","5","3","6","3","5","5","1","5","5","6","3","3","5","5","5","5","6","3","6","3","3","3","6","3","7","5","7","6","5","5","6","3","6","5","6","5","5","781508741223944193","陈","217","Female","[""好我"",""坏我"",""坏她"",""好她""]","[""强我"",""弱我"",""弱她"",""强她""]","","","","","","","","yes","","","","","","","","","SRET","EW_formal","","key","j","16.64491525423709","720","446","朋友","守时","Positive","morality","","","","","","","","","","",""
"868","","f","psychophysics","67","308777","0.0-7.0-3.0-0.53","6","5","6","6","5","4","4","4","4","5","5","1","1","2","0","1","1","2","2","5","4","5","5","5","4","5","4","4","5","6","8","6","8","7","6","7","8","8","5","5","5","6","5","3","6","3","5","5","1","5","5","6","3","3","5","5","5","5","6","3","6","3","3","3","6","3","7","5","7","6","5","5","6","3","6","5","6","5","5","781508741223944193","陈","217","Female","[""好我"",""坏我"",""坏她"",""好她""]","[""强我"",""弱我"",""弱她"",""强她""]","","","","","","","","no","","","","","","","","","SRET","EW_formal","","key","f","16.64594594594605","720","446","自己","才尽","Negative","ability","","","","","","","","","","",""
"902","","f","psychophysics","68","310681","0.0-7.0-3.0-0.54","6","5","6","6","5","4","4","4","4","5","5","1","1","2","0","1","1","2","2","5","4","5","5","5","4","5","4","4","5","6","8","6","8","7","6","7","8","8","5","5","5","6","5","3","6","3","5","5","1","5","5","6","3","3","5","5","5","5","6","3","6","3","3","3","6","3","7","5","7","6","5","5","6","3","6","5","6","5","5","781508741223944193","陈","217","Female","[""好我"",""坏我"",""坏她"",""好她""]","[""强我"",""弱我"",""弱她"",""强她""]","","","","","","","","no","","","","","","","","","SRET","EW_formal","","key","f","16.64649122807028","720","446","自己","奸险","Negative","morality","","","","","","","","","","",""
"756","","f","psychophysics","69","312441","0.0-7.0-3.0-0.55","6","5","6","6","5","4","4","4","4","5","5","1","1","2","0","1","1","2","2","5","4","5","5","5","4","5","4","4","5","6","8","6","8","7","6","7","8","8","5","5","5","6","5","3","6","3","5","5","1","5","5","6","3","3","5","5","5","5","6","3","6","3","3","3","6","3","7","5","7","6","5","5","6","3","6","5","6","5","5","781508741223944193","陈","217","Female","[""好我"",""坏我"",""坏她"",""好她""]","[""强我"",""弱我"",""弱她"",""强她""]","","","","","","","","no","","","","","","","","","SRET","EW_formal","","key","f","16.645192307692085","720","446","自己","歹毒","Negative","morality","","","","","","","","","","",""
"684","","f","psychophysics","70","314129","0.0-7.0-3.0-0.56","6","5","6","6","5","4","4","4","4","5","5","1","1","2","0","1","1","2","2","5","4","5","5","5","4","5","4","4","5","6","8","6","8","7","6","7","8","8","5","5","5","6","5","3","6","3","5","5","1","5","5","6","3","3","5","5","5","5","6","3","6","3","3","3","6","3","7","5","7","6","5","5","6","3","6","5","6","5","5","781508741223944193","陈","217","Female","[""好我"",""坏我"",""坏她"",""好她""]","[""强我"",""弱我"",""弱她"",""强她""]","","","","","","","","no","","","","","","","","","SRET","EW_formal","","key","f","16.64554455445556","720","446","朋友","无耻","Negative","morality","","","","","","","","","","",""
"1029","","f","psychophysics","71","316161","0.0-7.0-3.0-0.57","6","5","6","6","5","4","4","4","4","5","5","1","1","2","0","1","1","2","2","5","4","5","5","5","4","5","4","4","5","6","8","6","8","7","6","7","8","8","5","5","5","6","5","3","6","3","5","5","1","5","5","6","3","3","5","5","5","5","6","3","6","3","3","3","6","3","7","5","7","6","5","5","6","3","6","5","6","5","5","781508741223944193","陈","217","Female","[""好我"",""坏我"",""坏她"",""好她""]","[""强我"",""弱我"",""弱她"",""强她""]","","","","","","","","no","","","","","","","","","SRET","EW_formal","","key","f","19.74803921568616","720","446","自己","低劣","Negative","morality","","","","","","","","","","",""
"733","","f","psychophysics","72","317897","0.0-7.0-3.0-0.58","6","5","6","6","5","4","4","4","4","5","5","1","1","2","0","1","1","2","2","5","4","5","5","5","4","5","4","4","5","6","8","6","8","7","6","7","8","8","5","5","5","6","5","3","6","3","5","5","1","5","5","6","3","3","5","5","5","5","6","3","6","3","3","3","6","3","7","5","7","6","5","5","6","3","6","5","6","5","5","781508741223944193","陈","217","Female","[""好我"",""坏我"",""坏她"",""好她""]","[""强我"",""弱我"",""弱她"",""强她""]","","","","","","","","no","","","","","","","","","SRET","EW_formal","","key","f","16.645631067961165","720","446","自己","窝囊","Negative","ability","","","","","","","","","","",""
"926","","j","psychophysics","73","319826","0.0-7.0-3.0-0.59","6","5","6","6","5","4","4","4","4","5","5","1","1","2","0","1","1","2","2","5","4","5","5","5","4","5","4","4","5","6","8","6","8","7","6","7","8","8","5","5","5","6","5","3","6","3","5","5","1","5","5","6","3","3","5","5","5","5","6","3","6","3","3","3","6","3","7","5","7","6","5","5","6","3","6","5","6","5","5","781508741223944193","陈","217","Female","[""好我"",""坏我"",""坏她"",""好她""]","[""强我"",""弱我"",""弱她"",""强她""]","","","","","","","","yes","","","","","","","","","SRET","EW_formal","","key","j","16.64608695652164","720","446","自己","善良","Positive","morality","","","","","","","","","","",""
"805","","f","psychophysics","74","321634","0.0-7.0-3.0-0.60","6","5","6","6","5","4","4","4","4","5","5","1","1","2","0","1","1","2","2","5","4","5","5","5","4","5","4","4","5","6","8","6","8","7","6","7","8","8","5","5","5","6","5","3","6","3","5","5","1","5","5","6","3","3","5","5","5","5","6","3","6","3","3","3","6","3","7","5","7","6","5","5","6","3","6","5","6","5","5","781508741223944193","陈","217","Female","[""好我"",""坏我"",""坏她"",""好她""]","[""强我"",""弱我"",""弱她"",""强她""]","","","","","","","","no","","","","","","","","","SRET","EW_formal","","key","f","16.64629629629619","720","446","朋友","混账","Negative","morality","","","","","","","","","","",""
"1261","","f","psychophysics","75","323898","0.0-7.0-3.0-0.61","6","5","6","6","5","4","4","4","4","5","5","1","1","2","0","1","1","2","2","5","4","5","5","5","4","5","4","4","5","6","8","6","8","7","6","7","8","8","5","5","5","6","5","3","6","3","5","5","1","5","5","6","3","3","5","5","5","5","6","3","6","3","3","3","6","3","7","5","7","6","5","5","6","3","6","5","6","5","5","781508741223944193","陈","217","Female","[""好我"",""坏我"",""坏她"",""好她""]","[""强我"",""弱我"",""弱她"",""强她""]","","","","","","","","no","","","","","","","","","SRET","EW_formal","","key","f","16.64592592592601","720","446","自己","学霸","Positive","ability","","","","","","","","","","",""
"852","","j","psychophysics","76","325753","0.0-7.0-3.0-0.62","6","5","6","6","5","4","4","4","4","5","5","1","1","2","0","1","1","2","2","5","4","5","5","5","4","5","4","4","5","6","8","6","8","7","6","7","8","8","5","5","5","6","5","3","6","3","5","5","1","5","5","6","3","3","5","5","5","5","6","3","6","3","3","3","6","3","7","5","7","6","5","5","6","3","6","5","6","5","5","781508741223944193","陈","217","Female","[""好我"",""坏我"",""坏她"",""好她""]","[""强我"",""弱我"",""弱她"",""强她""]","","","","","","","","yes","","","","","","","","","SRET","EW_formal","","key","j","16.646363636363954","720","446","自己","谦逊","Positive","morality","","","","","","","","","","",""
"813","","f","psychophysics","77","327569","0.0-7.0-3.0-0.63","6","5","6","6","5","4","4","4","4","5","5","1","1","2","0","1","1","2","2","5","4","5","5","5","4","5","4","4","5","6","8","6","8","7","6","7","8","8","5","5","5","6","5","3","6","3","5","5","1","5","5","6","3","3","5","5","5","5","6","3","6","3","3","3","6","3","7","5","7","6","5","5","6","3","6","5","6","5","5","781508741223944193","陈","217","Female","[""好我"",""坏我"",""坏她"",""好她""]","[""强我"",""弱我"",""弱她"",""强她""]","","","","","","","","no","","","","","","","","","SRET","EW_formal","","key","f","16.64537037037048","720","446","朋友","无赖","Negative","morality","","","","","","","","","","",""
"1053","","j","psychophysics","78","329626","0.0-7.0-3.0-0.64","6","5","6","6","5","4","4","4","4","5","5","1","1","2","0","1","1","2","2","5","4","5","5","5","4","5","4","4","5","6","8","6","8","7","6","7","8","8","5","5","5","6","5","3","6","3","5","5","1","5","5","6","3","3","5","5","5","5","6","3","6","3","3","3","6","3","7","5","7","6","5","5","6","3","6","5","6","5","5","781508741223944193","陈","217","Female","[""好我"",""坏我"",""坏她"",""好她""]","[""强我"",""弱我"",""弱她"",""强她""]","","","","","","","","yes","","","","","","","","","SRET","EW_formal","","key","j","16.646341463414632","720","446","朋友","无私","Positive","morality","","","","","","","","","","",""
"893","","j","psychophysics","79","331522","0.0-7.0-3.0-0.65","6","5","6","6","5","4","4","4","4","5","5","1","1","2","0","1","1","2","2","5","4","5","5","5","4","5","4","4","5","6","8","6","8","7","6","7","8","8","5","5","5","6","5","3","6","3","5","5","1","5","5","6","3","3","5","5","5","5","6","3","6","3","3","3","6","3","7","5","7","6","5","5","6","3","6","5","6","5","5","781508741223944193","陈","217","Female","[""好我"",""坏我"",""坏她"",""好她""]","[""强我"",""弱我"",""弱她"",""强她""]","","","","","","","","yes","","","","","","","","","SRET","EW_formal","","key","j","16.646017699115045","720","446","朋友","廉正","Positive","morality","","","","","","","","","","",""
"1005","","j","psychophysics","80","333530","0.0-7.0-3.0-0.66","6","5","6","6","5","4","4","4","4","5","5","1","1","2","0","1","1","2","2","5","4","5","5","5","4","5","4","4","5","6","8","6","8","7","6","7","8","8","5","5","5","6","5","3","6","3","5","5","1","5","5","6","3","3","5","5","5","5","6","3","6","3","3","3","6","3","7","5","7","6","5","5","6","3","6","5","6","5","5","781508741223944193","陈","217","Female","[""好我"",""坏我"",""坏她"",""好她""]","[""强我"",""弱我"",""弱她"",""强她""]","","","","","","","","yes","","","","","","","","","SRET","EW_formal","","key","j","16.646218487395153","720","446","朋友","骁勇","Positive","ability","","","","","","","","","","",""
"830","","j","psychophysics","81","335362","0.0-7.0-3.0-0.67","6","5","6","6","5","4","4","4","4","5","5","1","1","2","0","1","1","2","2","5","4","5","5","5","4","5","4","4","5","6","8","6","8","7","6","7","8","8","5","5","5","6","5","3","6","3","5","5","1","5","5","6","3","3","5","5","5","5","6","3","6","3","3","3","6","3","7","5","7","6","5","5","6","3","6","5","6","5","5","781508741223944193","陈","217","Female","[""好我"",""坏我"",""坏她"",""好她""]","[""强我"",""弱我"",""弱她"",""强她""]","","","","","","","","yes","","","","","","","","","SRET","EW_formal","","key","j","16.645871559633242","720","446","朋友","果决","Positive","ability","","","","","","","","","","",""
"998","","j","psychophysics","82","337361","0.0-7.0-3.0-0.68","6","5","6","6","5","4","4","4","4","5","5","1","1","2","0","1","1","2","2","5","4","5","5","5","4","5","4","4","5","6","8","6","8","7","6","7","8","8","5","5","5","6","5","3","6","3","5","5","1","5","5","6","3","3","5","5","5","5","6","3","6","3","3","3","6","3","7","5","7","6","5","5","6","3","6","5","6","5","5","781508741223944193","陈","217","Female","[""好我"",""坏我"",""坏她"",""好她""]","[""强我"",""弱我"",""弱她"",""强她""]","","","","","","","","yes","","","","","","","","","SRET","EW_formal","","key","j","16.646218487395153","720","446","朋友","忠勇","Positive","morality","","","","","","","","","","",""
"846","","j","psychophysics","83","339210","0.0-7.0-3.0-0.69","6","5","6","6","5","4","4","4","4","5","5","1","1","2","0","1","1","2","2","5","4","5","5","5","4","5","4","4","5","6","8","6","8","7","6","7","8","8","5","5","5","6","5","3","6","3","5","5","1","5","5","6","3","3","5","5","5","5","6","3","6","3","3","3","6","3","7","5","7","6","5","5","6","3","6","5","6","5","5","781508741223944193","陈","217","Female","[""好我"",""坏我"",""坏她"",""好她""]","[""强我"",""弱我"",""弱她"",""强她""]","","","","","","","","yes","","","","","","","","","SRET","EW_formal","","key","j","16.645454545454545","720","446","自己","中用","Positive","ability","","","","","","","","","","",""
"725","","j","psychophysics","84","340938","0.0-7.0-3.0-0.70","6","5","6","6","5","4","4","4","4","5","5","1","1","2","0","1","1","2","2","5","4","5","5","5","4","5","4","4","5","6","8","6","8","7","6","7","8","8","5","5","5","6","5","3","6","3","5","5","1","5","5","6","3","3","5","5","5","5","6","3","6","3","3","3","6","3","7","5","7","6","5","5","6","3","6","5","6","5","5","781508741223944193","陈","217","Female","[""好我"",""坏我"",""坏她"",""好她""]","[""强我"",""弱我"",""弱她"",""强她""]","","","","","","","","yes","","","","","","","","","SRET","EW_formal","","key","j","16.645631067961165","720","446","朋友","扎实","Positive","ability","","","","","","","","","","",""
"796","","j","psychophysics","85","342738","0.0-7.0-3.0-0.71","6","5","6","6","5","4","4","4","4","5","5","1","1","2","0","1","1","2","2","5","4","5","5","5","4","5","4","4","5","6","8","6","8","7","6","7","8","8","5","5","5","6","5","3","6","3","5","5","1","5","5","6","3","3","5","5","5","5","6","3","6","3","3","3","6","3","7","5","7","6","5","5","6","3","6","5","6","5","5","781508741223944193","陈","217","Female","[""好我"",""坏我"",""坏她"",""好她""]","[""强我"",""弱我"",""弱她"",""强她""]","","","","","","","","yes","","","","","","","","","SRET","EW_formal","","key","j","16.645794392523147","720","446","朋友","坦荡","Positive","morality","","","","","","","","","","",""
"1118","","f","psychophysics","86","344858","0.0-7.0-3.0-0.72","6","5","6","6","5","4","4","4","4","5","5","1","1","2","0","1","1","2","2","5","4","5","5","5","4","5","4","4","5","6","8","6","8","7","6","7","8","8","5","5","5","6","5","3","6","3","5","5","1","5","5","6","3","3","5","5","5","5","6","3","6","3","3","3","6","3","7","5","7","6","5","5","6","3","6","5","6","5","5","781508741223944193","陈","217","Female","[""好我"",""坏我"",""坏她"",""好她""]","[""强我"",""弱我"",""弱她"",""强她""]","","","","","","","","no","","","","","","","","","SRET","EW_formal","","key","f","16.6464566929132","720","446","朋友","拖拉","Negative","ability","","","","","","","","","","",""
"790","","j","psychophysics","87","346650","0.0-7.0-3.0-0.73","6","5","6","6","5","4","4","4","4","5","5","1","1","2","0","1","1","2","2","5","4","5","5","5","4","5","4","4","5","6","8","6","8","7","6","7","8","8","5","5","5","6","5","3","6","3","5","5","1","5","5","6","3","3","5","5","5","5","6","3","6","3","3","3","6","3","7","5","7","6","5","5","6","3","6","5","6","5","5","781508741223944193","陈","217","Female","[""好我"",""坏我"",""坏她"",""好她""]","[""强我"",""弱我"",""弱她"",""强她""]","","","","","","","","yes","","","","","","","","","SRET","EW_formal","","key","j","16.645283018868145","720","446","自己","勤奋","Positive","ability","","","","","","","","","","",""
"733","","f","psychophysics","88","348386","0.0-7.0-3.0-0.74","6","5","6","6","5","4","4","4","4","5","5","1","1","2","0","1","1","2","2","5","4","5","5","5","4","5","4","4","5","6","8","6","8","7","6","7","8","8","5","5","5","6","5","3","6","3","5","5","1","5","5","6","3","3","5","5","5","5","6","3","6","3","3","3","6","3","7","5","7","6","5","5","6","3","6","5","6","5","5","781508741223944193","陈","217","Female","[""好我"",""坏我"",""坏她"",""好她""]","[""强我"",""弱我"",""弱她"",""强她""]","","","","","","","","no","","","","","","","","","SRET","EW_formal","","key","f","16.645192307692643","720","446","自己","笨蛋","Negative","ability","","","","","","","","","","",""
"1565","","j","psychophysics","89","350955","0.0-7.0-3.0-0.75","6","5","6","6","5","4","4","4","4","5","5","1","1","2","0","1","1","2","2","5","4","5","5","5","4","5","4","4","5","6","8","6","8","7","6","7","8","8","5","5","5","6","5","3","6","3","5","5","1","5","5","6","3","3","5","5","5","5","6","3","6","3","3","3","6","3","7","5","7","6","5","5","6","3","6","5","6","5","5","781508741223944193","陈","217","Female","[""好我"",""坏我"",""坏她"",""好她""]","[""强我"",""弱我"",""弱她"",""强她""]","","","","","","","","yes","","","","","","","","","SRET","EW_formal","","key","j","16.646405228757942","720","446","朋友","远见","Positive","ability","","","","","","","","","","",""
"741","","f","psychophysics","90","352698","0.0-7.0-3.0-0.76","6","5","6","6","5","4","4","4","4","5","5","1","1","2","0","1","1","2","2","5","4","5","5","5","4","5","4","4","5","6","8","6","8","7","6","7","8","8","5","5","5","6","5","3","6","3","5","5","1","5","5","6","3","3","5","5","5","5","6","3","6","3","3","3","6","3","7","5","7","6","5","5","6","3","6","5","6","5","5","781508741223944193","陈","217","Female","[""好我"",""坏我"",""坏她"",""好她""]","[""强我"",""弱我"",""弱她"",""强她""]","","","","","","","","no","","","","","","","","","SRET","EW_formal","","key","f","16.6461538461534","720","446","自己","弱智","Negative","ability","","","","","","","","","","",""
"845","","f","psychophysics","91","354547","0.0-7.0-3.0-0.77","6","5","6","6","5","4","4","4","4","5","5","1","1","2","0","1","1","2","2","5","4","5","5","5","4","5","4","4","5","6","8","6","8","7","6","7","8","8","5","5","5","6","5","3","6","3","5","5","1","5","5","6","3","3","5","5","5","5","6","3","6","3","3","3","6","3","7","5","7","6","5","5","6","3","6","5","6","5","5","781508741223944193","陈","217","Female","[""好我"",""坏我"",""坏她"",""好她""]","[""强我"",""弱我"",""弱她"",""强她""]","","","","","","","","no","","","","","","","","","SRET","EW_formal","","key","f","16.646363636363425","720","446","自己","不孝","Negative","morality","","","","","","","","","","",""
"861","","f","psychophysics","92","356410","0.0-7.0-3.0-0.78","6","5","6","6","5","4","4","4","4","5","5","1","1","2","0","1","1","2","2","5","4","5","5","5","4","5","4","4","5","6","8","6","8","7","6","7","8","8","5","5","5","6","5","3","6","3","5","5","1","5","5","6","3","3","5","5","5","5","6","3","6","3","3","3","6","3","7","5","7","6","5","5","6","3","6","5","6","5","5","781508741223944193","陈","217","Female","[""好我"",""坏我"",""坏她"",""好她""]","[""强我"",""弱我"",""弱她"",""强她""]","","","","","","","","no","","","","","","","","","SRET","EW_formal","","key","f","16.645045045044835","720","446","朋友","黑心","Negative","morality","","","","","","","","","","",""
"694","","f","psychophysics","93","358106","0.0-7.0-3.0-0.79","6","5","6","6","5","4","4","4","4","5","5","1","1","2","0","1","1","2","2","5","4","5","5","5","4","5","4","4","5","6","8","6","8","7","6","7","8","8","5","5","5","6","5","3","6","3","5","5","1","5","5","6","3","3","5","5","5","5","6","3","6","3","3","3","6","3","7","5","7","6","5","5","6","3","6","5","6","5","5","781508741223944193","陈","217","Female","[""好我"",""坏我"",""坏她"",""好她""]","[""强我"",""弱我"",""弱她"",""强她""]","","","","","","","","no","","","","","","","","","SRET","EW_formal","","key","f","16.64653465346523","720","446","自己","背叛","Negative","morality","","","","","","","","","","",""
"726","","f","psychophysics","94","359836","0.0-7.0-3.0-0.80","6","5","6","6","5","4","4","4","4","5","5","1","1","2","0","1","1","2","2","5","4","5","5","5","4","5","4","4","5","6","8","6","8","7","6","7","8","8","5","5","5","6","5","3","6","3","5","5","1","5","5","6","3","3","5","5","5","5","6","3","6","3","3","3","6","3","7","5","7","6","5","5","6","3","6","5","6","5","5","781508741223944193","陈","217","Female","[""好我"",""坏我"",""坏她"",""好她""]","[""强我"",""弱我"",""弱她"",""强她""]","","","","","","","","no","","","","","","","","","SRET","EW_formal","","key","f","16.645631067961165","720","446","朋友","阴毒","Negative","morality","","","","","","","","","","",""
"756","","f","psychophysics","95","361594","0.0-7.0-3.0-0.81","6","5","6","6","5","4","4","4","4","5","5","1","1","2","0","1","1","2","2","5","4","5","5","5","4","5","4","4","5","6","8","6","8","7","6","7","8","8","5","5","5","6","5","3","6","3","5","5","1","5","5","6","3","3","5","5","5","5","6","3","6","3","3","3","6","3","7","5","7","6","5","5","6","3","6","5","6","5","5","781508741223944193","陈","217","Female","[""好我"",""坏我"",""坏她"",""好她""]","[""强我"",""弱我"",""弱她"",""强她""]","","","","","","","","no","","","","","","","","","SRET","EW_formal","","key","f","16.6461538461534","720","446","朋友","自私","Negative","morality","","","","","","","","","","",""
"845","","j","psychophysics","96","363442","0.0-7.0-3.0-0.82","6","5","6","6","5","4","4","4","4","5","5","1","1","2","0","1","1","2","2","5","4","5","5","5","4","5","4","4","5","6","8","6","8","7","6","7","8","8","5","5","5","6","5","3","6","3","5","5","1","5","5","6","3","3","5","5","5","5","6","3","6","3","3","3","6","3","7","5","7","6","5","5","6","3","6","5","6","5","5","781508741223944193","陈","217","Female","[""好我"",""坏我"",""坏她"",""好她""]","[""强我"",""弱我"",""弱她"",""强她""]","","","","","","","","yes","","","","","","","","","SRET","EW_formal","","key","j","16.646363636363425","720","446","自己","诚信","Positive","morality","","","","","","","","","","",""
"702","","f","psychophysics","97","365147","0.0-7.0-3.0-0.83","6","5","6","6","5","4","4","4","4","5","5","1","1","2","0","1","1","2","2","5","4","5","5","5","4","5","4","4","5","6","8","6","8","7","6","7","8","8","5","5","5","6","5","3","6","3","5","5","1","5","5","6","3","3","5","5","5","5","6","3","6","3","3","3","6","3","7","5","7","6","5","5","6","3","6","5","6","5","5","781508741223944193","陈","217","Female","[""好我"",""坏我"",""坏她"",""好她""]","[""强我"",""弱我"",""弱她"",""强她""]","","","","","","","","no","","","","","","","","","SRET","EW_formal","","key","f","16.646078431372207","720","446","朋友","庸碌","Negative","ability","","","","","","","","","","",""
"652","","f","psychophysics","98","366802","0.0-7.0-3.0-0.84","6","5","6","6","5","4","4","4","4","5","5","1","1","2","0","1","1","2","2","5","4","5","5","5","4","5","4","4","5","6","8","6","8","7","6","7","8","8","5","5","5","6","5","3","6","3","5","5","1","5","5","6","3","3","5","5","5","5","6","3","6","3","3","3","6","3","7","5","7","6","5","5","6","3","6","5","6","5","5","781508741223944193","陈","217","Female","[""好我"",""坏我"",""坏她"",""好她""]","[""强我"",""弱我"",""弱她"",""强她""]","","","","","","","","no","","","","","","","","","SRET","EW_formal","","key","f","16.64591836734682","720","446","朋友","低俗","Negative","morality","","","","","","","","","","",""
"871","","f","psychophysics","99","368676","0.0-7.0-3.0-0.85","6","5","6","6","5","4","4","4","4","5","5","1","1","2","0","1","1","2","2","5","4","5","5","5","4","5","4","4","5","6","8","6","8","7","6","7","8","8","5","5","5","6","5","3","6","3","5","5","1","5","5","6","3","3","5","5","5","5","6","3","6","3","3","3","6","3","7","5","7","6","5","5","6","3","6","5","6","5","5","781508741223944193","陈","217","Female","[""好我"",""坏我"",""坏她"",""好她""]","[""强我"",""弱我"",""弱她"",""强她""]","","","","","","","","no","","","","","","","","","SRET","EW_formal","","key","f","16.64553571428561","720","446","自己","缓慢","Negative","ability","","","","","","","","","","",""
"1203","","j","psychophysics","100","370882","0.0-7.0-3.0-0.86","6","5","6","6","5","4","4","4","4","5","5","1","1","2","0","1","1","2","2","5","4","5","5","5","4","5","4","4","5","6","8","6","8","7","6","7","8","8","5","5","5","6","5","3","6","3","5","5","1","5","5","6","3","3","5","5","5","5","6","3","6","3","3","3","6","3","7","5","7","6","5","5","6","3","6","5","6","5","5","781508741223944193","陈","217","Female","[""好我"",""坏我"",""坏她"",""好她""]","[""强我"",""弱我"",""弱她"",""强她""]","","","","","","","","yes","","","","","","","","","SRET","EW_formal","","key","j","16.64503816793893","720","446","自己","主见","Positive","ability","","","","","","","","","","",""
"838","","f","psychophysics","101","372723","0.0-7.0-3.0-0.87","6","5","6","6","5","4","4","4","4","5","5","1","1","2","0","1","1","2","2","5","4","5","5","5","4","5","4","4","5","6","8","6","8","7","6","7","8","8","5","5","5","6","5","3","6","3","5","5","1","5","5","6","3","3","5","5","5","5","6","3","6","3","3","3","6","3","7","5","7","6","5","5","6","3","6","5","6","5","5","781508741223944193","陈","217","Female","[""好我"",""坏我"",""坏她"",""好她""]","[""强我"",""弱我"",""弱她"",""强她""]","","","","","","","","no","","","","","","","","","SRET","EW_formal","","key","f","16.645454545454545","720","446","朋友","素养","Positive","morality","","","","","","","","","","",""
"33398","
    <p><div style='color:white;font-size:35px; line-height:20px;'>计算任务</div></p><br>
    <p><div style='color:red;font-size:25px; line-height:20px;'>接下来，您将看到一些四则运算题，<b>请从键盘选择 0-9 进行反应。</b></div></p>
    <p><div style='color:red;font-size:25px; line-height:20px;'>请尽可能快地进行计算，计算的速度和正确率将影响报酬的发放。</div></p>
    <p><div class='footer' style='color:white;font-size:25px; line-height:20px;'>如果对本实验还有不清楚之处，请立即向实验员咨询。</p><p style='color:white;font-size:25px; line-height:20px;'>如果您明白了规则：</p><p style='color:white;font-size:22px; line-height:20px;'>请按 继续 进入练习</p>
    </div>
    ","0","html-button-response","102","406123","0.0-7.0-4.0","6","5","6","6","5","4","4","4","4","5","5","1","1","2","0","1","1","2","2","5","4","5","5","5","4","5","4","4","5","6","8","6","8","7","6","7","8","8","5","5","5","6","5","3","6","3","5","5","1","5","5","6","3","3","5","5","5","5","6","3","6","3","3","3","6","3","7","5","7","6","5","5","6","3","6","5","6","5","5","781508741223944193","陈","217","Female","[""好我"",""坏我"",""坏她"",""好她""]","[""强我"",""弱我"",""弱她"",""强她""]","","","","","","","","","","","","","","","","","SRET_math","math_instructions","Fri Jan 19 2024 18:09:43 GMT+0800 (中国标准时间)","","","","","","","","","","","","","","","","","","","",""
"3529","","2","psychophysics","103","409661","0.0-7.0-5.0-0.0","6","5","6","6","5","4","4","4","4","5","5","1","1","2","0","1","1","2","2","5","4","5","5","5","4","5","4","4","5","6","8","6","8","7","6","7","8","8","5","5","5","6","5","3","6","3","5","5","1","5","5","6","3","3","5","5","5","5","6","3","6","3","3","3","6","3","7","5","7","6","5","5","6","3","6","5","6","5","5","781508741223944193","陈","217","Female","[""好我"",""坏我"",""坏她"",""好她""]","[""强我"",""弱我"",""弱她"",""强她""]","","","","","","","","2","","","","","","","","","SRET","SRET_math_calculate","","key","2","16.565896713615125","720","446","","","","","8/4= ?","2","1","","","","","","","",""
"2635","","9","psychophysics","104","412300","0.0-7.0-5.0-0.1","6","5","6","6","5","4","4","4","4","5","5","1","1","2","0","1","1","2","2","5","4","5","5","5","4","5","4","4","5","6","8","6","8","7","6","7","8","8","5","5","5","6","5","3","6","3","5","5","1","5","5","6","3","3","5","5","5","5","6","3","6","3","3","3","6","3","7","5","7","6","5","5","6","3","6","5","6","5","5","781508741223944193","陈","217","Female","[""好我"",""坏我"",""坏她"",""好她""]","[""强我"",""弱我"",""弱她"",""强她""]","","","","","","","","9","","","","","","","","","SRET","SRET_math_calculate","","key","9","16.645859872611243","720","446","","","","","3+6= ?","9","1","","","","","","","",""
"2034","","9","psychophysics","105","414340","0.0-7.0-5.0-0.2","6","5","6","6","5","4","4","4","4","5","5","1","1","2","0","1","1","2","2","5","4","5","5","5","4","5","4","4","5","6","8","6","8","7","6","7","8","8","5","5","5","6","5","3","6","3","5","5","1","5","5","6","3","3","5","5","5","5","6","3","6","3","3","3","6","3","7","5","7","6","5","5","6","3","6","5","6","5","5","781508741223944193","陈","217","Female","[""好我"",""坏我"",""坏她"",""好她""]","[""强我"",""弱我"",""弱她"",""强她""]","","","","","","","","9","","","","","","","","","SRET","SRET_math_calculate","","key","9","16.642622950819387","720","446","","","","","8+1= ?","9","1","","","","","","","",""
"3686","","3","psychophysics","106","418028","0.0-7.0-5.0-0.3","6","5","6","6","5","4","4","4","4","5","5","1","1","2","0","1","1","2","2","5","4","5","5","5","4","5","4","4","5","6","8","6","8","7","6","7","8","8","5","5","5","6","5","3","6","3","5","5","1","5","5","6","3","3","5","5","5","5","6","3","6","3","3","3","6","3","7","5","7","6","5","5","6","3","6","5","6","5","5","781508741223944193","陈","217","Female","[""好我"",""坏我"",""坏她"",""好她""]","[""强我"",""弱我"",""弱她"",""强她""]","","","","","","","","3","","","","","","","","","SRET","SRET_math_calculate","","key","3","17.112616822429796","720","446","","","","","21/7=  ?","3","1","","","","","","","",""
"3218","","8","psychophysics","107","421252","0.0-7.0-5.0-0.4","6","5","6","6","5","4","4","4","4","5","5","1","1","2","0","1","1","2","2","5","4","5","5","5","4","5","4","4","5","6","8","6","8","7","6","7","8","8","5","5","5","6","5","3","6","3","5","5","1","5","5","6","3","3","5","5","5","5","6","3","6","3","3","3","6","3","7","5","7","6","5","5","6","3","6","5","6","5","5","781508741223944193","陈","217","Female","[""好我"",""坏我"",""坏她"",""好她""]","[""强我"",""弱我"",""弱她"",""强她""]","","","","","","","","8","","","","","","","","","SRET","SRET_math_calculate","","key","8","16.64559585492216","720","446","","","","","8*1= ?","8","1","","","","","","","",""
"2869","","6","psychophysics","108","424125","0.0-7.0-5.0-0.5","6","5","6","6","5","4","4","4","4","5","5","1","1","2","0","1","1","2","2","5","4","5","5","5","4","5","4","4","5","6","8","6","8","7","6","7","8","8","5","5","5","6","5","3","6","3","5","5","1","5","5","6","3","3","5","5","5","5","6","3","6","3","3","3","6","3","7","5","7","6","5","5","6","3","6","5","6","5","5","781508741223944193","陈","217","Female","[""好我"",""坏我"",""坏她"",""好她""]","[""强我"",""弱我"",""弱她"",""强她""]","","","","","","","","6","","","","","","","","","SRET","SRET_math_calculate","","key","6","16.645930232558342","720","446","","","","","3+3= ?","6","1","","","","","","","",""
"2707","","0","psychophysics","109","426835","0.0-7.0-5.0-0.6","6","5","6","6","5","4","4","4","4","5","5","1","1","2","0","1","1","2","2","5","4","5","5","5","4","5","4","4","5","6","8","6","8","7","6","7","8","8","5","5","5","6","5","3","6","3","5","5","1","5","5","6","3","3","5","5","5","5","6","3","6","3","3","3","6","3","7","5","7","6","5","5","6","3","6","5","6","5","5","781508741223944193","陈","217","Female","[""好我"",""坏我"",""坏她"",""好她""]","[""强我"",""弱我"",""弱她"",""强她""]","","","","","","","","0","","","","","","","","","SRET","SRET_math_calculate","","key","0","16.645341614906616","720","446","","","","","22-22= ?","0","1","","","","","","","",""
"2892","","0","psychophysics","110","429733","0.0-7.0-5.0-0.7","6","5","6","6","5","4","4","4","4","5","5","1","1","2","0","1","1","2","2","5","4","5","5","5","4","5","4","4","5","6","8","6","8","7","6","7","8","8","5","5","5","6","5","3","6","3","5","5","1","5","5","6","3","3","5","5","5","5","6","3","6","3","3","3","6","3","7","5","7","6","5","5","6","3","6","5","6","5","5","781508741223944193","陈","217","Female","[""好我"",""坏我"",""坏她"",""好她""]","[""强我"",""弱我"",""弱她"",""强她""]","","","","","","","","0","","","","","","","","","SRET","SRET_math_calculate","","key","0","16.645977011494388","720","446","","","","","32-32= ?","0","1","","","","","","","",""
"2347","","8","psychophysics","111","432084","0.0-7.0-5.0-0.8","6","5","6","6","5","4","4","4","4","5","5","1","1","2","0","1","1","2","2","5","4","5","5","5","4","5","4","4","5","6","8","6","8","7","6","7","8","8","5","5","5","6","5","3","6","3","5","5","1","5","5","6","3","3","5","5","5","5","6","3","6","3","3","3","6","3","7","5","7","6","5","5","6","3","6","5","6","5","5","781508741223944193","陈","217","Female","[""好我"",""坏我"",""坏她"",""好她""]","[""强我"",""弱我"",""弱她"",""强她""]","","","","","","","","8","","","","","","","","","SRET","SRET_math_calculate","","key","8","16.646428571428572","720","446","","","","","7+1= ?","8","1","","","","","","","",""
"3480","","5","psychophysics","112","435567","0.0-7.0-5.0-0.9","6","5","6","6","5","4","4","4","4","5","5","1","1","2","0","1","1","2","2","5","4","5","5","5","4","5","4","4","5","6","8","6","8","7","6","7","8","8","5","5","5","6","5","3","6","3","5","5","1","5","5","6","3","3","5","5","5","5","6","3","6","3","3","3","6","3","7","5","7","6","5","5","6","3","6","5","6","5","5","781508741223944193","陈","217","Female","[""好我"",""坏我"",""坏她"",""好她""]","[""强我"",""弱我"",""弱她"",""强她""]","","","","","","","","5","","","","","","","","","SRET","SRET_math_calculate","","key","5","16.64567307692302","720","446","","","","","12-7= ?","5","1","","","","","","","",""
"2258","","3","psychophysics","113","437828","0.0-7.0-5.0-0.10","6","5","6","6","5","4","4","4","4","5","5","1","1","2","0","1","1","2","2","5","4","5","5","5","4","5","4","4","5","6","8","6","8","7","6","7","8","8","5","5","5","6","5","3","6","3","5","5","1","5","5","6","3","3","5","5","5","5","6","3","6","3","3","3","6","3","7","5","7","6","5","5","6","3","6","5","6","5","5","781508741223944193","陈","217","Female","[""好我"",""坏我"",""坏她"",""好她""]","[""强我"",""弱我"",""弱她"",""强她""]","","","","","","","","3","","","","","","","","","SRET","SRET_math_calculate","","key","3","16.645185185185014","720","446","","","","","1+2= ?","3","1","","","","","","","",""
"3877","","8","psychophysics","114","441709","0.0-7.0-5.0-0.11","6","5","6","6","5","4","4","4","4","5","5","1","1","2","0","1","1","2","2","5","4","5","5","5","4","5","4","4","5","6","8","6","8","7","6","7","8","8","5","5","5","6","5","3","6","3","5","5","1","5","5","6","3","3","5","5","5","5","6","3","6","3","3","3","6","3","7","5","7","6","5","5","6","3","6","5","6","5","5","781508741223944193","陈","217","Female","[""好我"",""坏我"",""坏她"",""好她""]","[""强我"",""弱我"",""弱她"",""强她""]","","","","","","","","8","","","","","","","","","SRET","SRET_math_calculate","","key","8","16.646120689655273","720","446","","","","","56/7= ?","8","1","","","","","","","",""
"2933","","2","psychophysics","115","444644","0.0-7.0-5.0-0.12","6","5","6","6","5","4","4","4","4","5","5","1","1","2","0","1","1","2","2","5","4","5","5","5","4","5","4","4","5","6","8","6","8","7","6","7","8","8","5","5","5","6","5","3","6","3","5","5","1","5","5","6","3","3","5","5","5","5","6","3","6","3","3","3","6","3","7","5","7","6","5","5","6","3","6","5","6","5","5","781508741223944193","陈","217","Female","[""好我"",""坏我"",""坏她"",""好她""]","[""强我"",""弱我"",""弱她"",""强她""]","","","","","","","","2","","","","","","","","","SRET","SRET_math_calculate","","key","2","16.645714285714284","720","446","","","","","9-7= ?","2","1","","","","","","","",""
"2074","","3","psychophysics","116","446725","0.0-7.0-5.0-0.13","6","5","6","6","5","4","4","4","4","5","5","1","1","2","0","1","1","2","2","5","4","5","5","5","4","5","4","4","5","6","8","6","8","7","6","7","8","8","5","5","5","6","5","3","6","3","5","5","1","5","5","6","3","3","5","5","5","5","6","3","6","3","3","3","6","3","7","5","7","6","5","5","6","3","6","5","6","5","5","781508741223944193","陈","217","Female","[""好我"",""坏我"",""坏她"",""好她""]","[""强我"",""弱我"",""弱她"",""强她""]","","","","","","","","3","","","","","","","","","SRET","SRET_math_calculate","","key","3","16.64677419354848","720","446","","","","","2+1= ?","3","1","","","","","","","",""
"6019","","5","psychophysics","117","452750","0.0-7.0-5.0-0.14","6","5","6","6","5","4","4","4","4","5","5","1","1","2","0","1","1","2","2","5","4","5","5","5","4","5","4","4","5","6","8","6","8","7","6","7","8","8","5","5","5","6","5","3","6","3","5","5","1","5","5","6","3","3","5","5","5","5","6","3","6","3","3","3","6","3","7","5","7","6","5","5","6","3","6","5","6","5","5","781508741223944193","陈","217","Female","[""好我"",""坏我"",""坏她"",""好她""]","[""强我"",""弱我"",""弱她"",""强她""]","","","","","","","","5","","","","","","","","","SRET","SRET_math_calculate","","key","5","16.6462603878116","720","446","","","","","49/7 = ?","7","0","","","","","","","",""
"3801","","8","psychophysics","118","456557","0.0-7.0-5.0-0.15","6","5","6","6","5","4","4","4","4","5","5","1","1","2","0","1","1","2","2","5","4","5","5","5","4","5","4","4","5","6","8","6","8","7","6","7","8","8","5","5","5","6","5","3","6","3","5","5","1","5","5","6","3","3","5","5","5","5","6","3","6","3","3","3","6","3","7","5","7","6","5","5","6","3","6","5","6","5","5","781508741223944193","陈","217","Female","[""好我"",""坏我"",""坏她"",""好她""]","[""强我"",""弱我"",""弱她"",""强她""]","","","","","","","","8","","","","","","","","","SRET","SRET_math_calculate","","key","8","16.646052631578897","720","446","","","","","50-42= ?","8","1","","","","","","","",""
"2686","","0","psychophysics","119","459246","0.0-7.0-5.0-0.16","6","5","6","6","5","4","4","4","4","5","5","1","1","2","0","1","1","2","2","5","4","5","5","5","4","5","4","4","5","6","8","6","8","7","6","7","8","8","5","5","5","6","5","3","6","3","5","5","1","5","5","6","3","3","5","5","5","5","6","3","6","3","3","3","6","3","7","5","7","6","5","5","6","3","6","5","6","5","5","781508741223944193","陈","217","Female","[""好我"",""坏我"",""坏她"",""好她""]","[""强我"",""弱我"",""弱她"",""强她""]","","","","","","","","0","","","","","","","","","SRET","SRET_math_calculate","","key","0","16.646250000000144","720","446","","","","","5*0= ?","0","1","","","","","","","",""
"2442","","1","psychophysics","120","461694","0.0-7.0-5.0-0.17","6","5","6","6","5","4","4","4","4","5","5","1","1","2","0","1","1","2","2","5","4","5","5","5","4","5","4","4","5","6","8","6","8","7","6","7","8","8","5","5","5","6","5","3","6","3","5","5","1","5","5","6","3","3","5","5","5","5","6","3","6","3","3","3","6","3","7","5","7","6","5","5","6","3","6","5","6","5","5","781508741223944193","陈","217","Female","[""好我"",""坏我"",""坏她"",""好她""]","[""强我"",""弱我"",""弱她"",""强她""]","","","","","","","","1","","","","","","","","","SRET","SRET_math_calculate","","key","1","16.64557823129228","720","446","","","","","12/12= ?","1","1","","","","","","","",""
"5100","","8","psychophysics","121","466798","0.0-7.0-5.0-0.18","6","5","6","6","5","4","4","4","4","5","5","1","1","2","0","1","1","2","2","5","4","5","5","5","4","5","4","4","5","6","8","6","8","7","6","7","8","8","5","5","5","6","5","3","6","3","5","5","1","5","5","6","3","3","5","5","5","5","6","3","6","3","3","3","6","3","7","5","7","6","5","5","6","3","6","5","6","5","5","781508741223944193","陈","217","Female","[""好我"",""坏我"",""坏她"",""好她""]","[""强我"",""弱我"",""弱她"",""强她""]","","","","","","","","8","","","","","","","","","SRET","SRET_math_calculate","","key","8","16.646229508196644","720","446","","","","","13-5= ?","8","1","","","","","","","",""
"9316","","9","psychophysics","122","476118","0.0-7.0-5.0-0.19","6","5","6","6","5","4","4","4","4","5","5","1","1","2","0","1","1","2","2","5","4","5","5","5","4","5","4","4","5","6","8","6","8","7","6","7","8","8","5","5","5","6","5","3","6","3","5","5","1","5","5","6","3","3","5","5","5","5","6","3","6","3","3","3","6","3","7","5","7","6","5","5","6","3","6","5","6","5","5","781508741223944193","陈","217","Female","[""好我"",""坏我"",""坏她"",""好她""]","[""强我"",""弱我"",""弱她"",""强她""]","","","","","","","","9","","","","","","","","","SRET","SRET_math_calculate","","key","9","16.64615384615387","720","446","","","","","32-23= ?","9","1","","","","","","","",""
"4613","","3","psychophysics","123","480734","0.0-7.0-5.0-0.20","6","5","6","6","5","4","4","4","4","5","5","1","1","2","0","1","1","2","2","5","4","5","5","5","4","5","4","4","5","6","8","6","8","7","6","7","8","8","5","5","5","6","5","3","6","3","5","5","1","5","5","6","3","3","5","5","5","5","6","3","6","3","3","3","6","3","7","5","7","6","5","5","6","3","6","5","6","5","5","781508741223944193","陈","217","Female","[""好我"",""坏我"",""坏她"",""好她""]","[""强我"",""弱我"",""弱她"",""强她""]","","","","","","","","3","","","","","","","","","SRET","SRET_math_calculate","","key","3","16.645652173912875","720","446","","","","","12/4= ?","3","1","","","","","","","",""
"5177","","4","psychophysics","124","485918","0.0-7.0-5.0-0.21","6","5","6","6","5","4","4","4","4","5","5","1","1","2","0","1","1","2","2","5","4","5","5","5","4","5","4","4","5","6","8","6","8","7","6","7","8","8","5","5","5","6","5","3","6","3","5","5","1","5","5","6","3","3","5","5","5","5","6","3","6","3","3","3","6","3","7","5","7","6","5","5","6","3","6","5","6","5","5","781508741223944193","陈","217","Female","[""好我"",""坏我"",""坏她"",""好她""]","[""强我"",""弱我"",""弱她"",""强她""]","","","","","","","","4","","","","","","","","","SRET","SRET_math_calculate","","key","4","16.645980707395385","720","446","","","","","13-9= ?","4","1","","","","","","","",""
"5070","","6","psychophysics","125","490991","0.0-7.0-5.0-0.22","6","5","6","6","5","4","4","4","4","5","5","1","1","2","0","1","1","2","2","5","4","5","5","5","4","5","4","4","5","6","8","6","8","7","6","7","8","8","5","5","5","6","5","3","6","3","5","5","1","5","5","6","3","3","5","5","5","5","6","3","6","3","3","3","6","3","7","5","7","6","5","5","6","3","6","5","6","5","5","781508741223944193","陈","217","Female","[""好我"",""坏我"",""坏她"",""好她""]","[""强我"",""弱我"",""弱她"",""强她""]","","","","","","","","6","","","","","","","","","SRET","SRET_math_calculate","","key","6","16.646052631578833","720","446","","","","","11-5= ?","6","1","","","","","","","",""
"2572","","3","psychophysics","126","493566","0.0-7.0-5.0-0.23","6","5","6","6","5","4","4","4","4","5","5","1","1","2","0","1","1","2","2","5","4","5","5","5","4","5","4","4","5","6","8","6","8","7","6","7","8","8","5","5","5","6","5","3","6","3","5","5","1","5","5","6","3","3","5","5","5","5","6","3","6","3","3","3","6","3","7","5","7","6","5","5","6","3","6","5","6","5","5","781508741223944193","陈","217","Female","[""好我"",""坏我"",""坏她"",""好她""]","[""强我"",""弱我"",""弱她"",""强她""]","","","","","","","","3","","","","","","","","","SRET","SRET_math_calculate","","key","3","16.646405228757942","720","446","","","","","3+0= ?","3","1","","","","","","","",""
"2832","","1","psychophysics","127","496406","0.0-7.0-5.0-0.24","6","5","6","6","5","4","4","4","4","5","5","1","1","2","0","1","1","2","2","5","4","5","5","5","4","5","4","4","5","6","8","6","8","7","6","7","8","8","5","5","5","6","5","3","6","3","5","5","1","5","5","6","3","3","5","5","5","5","6","3","6","3","3","3","6","3","7","5","7","6","5","5","6","3","6","5","6","5","5","781508741223944193","陈","217","Female","[""好我"",""坏我"",""坏她"",""好她""]","[""强我"",""弱我"",""弱她"",""强她""]","","","","","","","","1","","","","","","","","","SRET","SRET_math_calculate","","key","1","16.64647058823509","720","446","","","","","30-29= ?","1","1","","","","","","","",""
"3446","","5","psychophysics","128","499854","0.0-7.0-5.0-0.25","6","5","6","6","5","4","4","4","4","5","5","1","1","2","0","1","1","2","2","5","4","5","5","5","4","5","4","4","5","6","8","6","8","7","6","7","8","8","5","5","5","6","5","3","6","3","5","5","1","5","5","6","3","3","5","5","5","5","6","3","6","3","3","3","6","3","7","5","7","6","5","5","6","3","6","5","6","5","5","781508741223944193","陈","217","Female","[""好我"",""坏我"",""坏她"",""好她""]","[""强我"",""弱我"",""弱她"",""强她""]","","","","","","","","5","","","","","","","","","SRET","SRET_math_calculate","","key","5","16.646116504854255","720","446","","","","","5/1= ?","5","1","","","","","","","",""
"2757","","1","psychophysics","129","502614","0.0-7.0-5.0-0.26","6","5","6","6","5","4","4","4","4","5","5","1","1","2","0","1","1","2","2","5","4","5","5","5","4","5","4","4","5","6","8","6","8","7","6","7","8","8","5","5","5","6","5","3","6","3","5","5","1","5","5","6","3","3","5","5","5","5","6","3","6","3","3","3","6","3","7","5","7","6","5","5","6","3","6","5","6","5","5","781508741223944193","陈","217","Female","[""好我"",""坏我"",""坏她"",""好她""]","[""强我"",""弱我"",""弱她"",""强她""]","","","","","","","","1","","","","","","","","","SRET","SRET_math_calculate","","key","1","16.645454545454545","720","446","","","","","4/4= ?","1","1","","","","","","","",""
"2749","","5","psychophysics","130","505366","0.0-7.0-5.0-0.27","6","5","6","6","5","4","4","4","4","5","5","1","1","2","0","1","1","2","2","5","4","5","5","5","4","5","4","4","5","6","8","6","8","7","6","7","8","8","5","5","5","6","5","3","6","3","5","5","1","5","5","6","3","3","5","5","5","5","6","3","6","3","3","3","6","3","7","5","7","6","5","5","6","3","6","5","6","5","5","781508741223944193","陈","217","Female","[""好我"",""坏我"",""坏她"",""好她""]","[""强我"",""弱我"",""弱她"",""强她""]","","","","","","","","5","","","","","","","","","SRET","SRET_math_calculate","","key","5","16.64573170731686","720","446","","","","","9-4= ?","5","1","","","","","","","",""
"2830","","8","psychophysics","131","508198","0.0-7.0-5.0-0.28","6","5","6","6","5","4","4","4","4","5","5","1","1","2","0","1","1","2","2","5","4","5","5","5","4","5","4","4","5","6","8","6","8","7","6","7","8","8","5","5","5","6","5","3","6","3","5","5","1","5","5","6","3","3","5","5","5","5","6","3","6","3","3","3","6","3","7","5","7","6","5","5","6","3","6","5","6","5","5","781508741223944193","陈","217","Female","[""好我"",""坏我"",""坏她"",""好她""]","[""强我"",""弱我"",""弱她"",""强她""]","","","","","","","","8","","","","","","","","","SRET","SRET_math_calculate","","key","8","16.646745562130107","720","446","","","","","6+2= ?","8","1","","","","","","","",""
"2288","","7","psychophysics","132","510495","0.0-7.0-5.0-0.29","6","5","6","6","5","4","4","4","4","5","5","1","1","2","0","1","1","2","2","5","4","5","5","5","4","5","4","4","5","6","8","6","8","7","6","7","8","8","5","5","5","6","5","3","6","3","5","5","1","5","5","6","3","3","5","5","5","5","6","3","6","3","3","3","6","3","7","5","7","6","5","5","6","3","6","5","6","5","5","781508741223944193","陈","217","Female","[""好我"",""坏我"",""坏她"",""好她""]","[""强我"",""弱我"",""弱她"",""强她""]","","","","","","","","7","","","","","","","","","SRET","SRET_math_calculate","","key","7","16.645985401459853","720","446","","","","","2+5= ?","7","1","","","","","","","",""
"2665","","3","psychophysics","133","513167","0.0-7.0-5.0-0.30","6","5","6","6","5","4","4","4","4","5","5","1","1","2","0","1","1","2","2","5","4","5","5","5","4","5","4","4","5","6","8","6","8","7","6","7","8","8","5","5","5","6","5","3","6","3","5","5","1","5","5","6","3","3","5","5","5","5","6","3","6","3","3","3","6","3","7","5","7","6","5","5","6","3","6","5","6","5","5","781508741223944193","陈","217","Female","[""好我"",""坏我"",""坏她"",""好她""]","[""强我"",""弱我"",""弱她"",""强她""]","","","","","","","","3","","","","","","","","","SRET","SRET_math_calculate","","key","3","16.645624999999928","720","446","","","","","6/2= ?","3","1","","","","","","","",""
"5174","","6","psychophysics","134","518343","0.0-7.0-5.0-0.31","6","5","6","6","5","4","4","4","4","5","5","1","1","2","0","1","1","2","2","5","4","5","5","5","4","5","4","4","5","6","8","6","8","7","6","7","8","8","5","5","5","6","5","3","6","3","5","5","1","5","5","6","3","3","5","5","5","5","6","3","6","3","3","3","6","3","7","5","7","6","5","5","6","3","6","5","6","5","5","781508741223944193","陈","217","Female","[""好我"",""坏我"",""坏她"",""好她""]","[""强我"",""弱我"",""弱她"",""强她""]","","","","","","","","6","","","","","","","","","SRET","SRET_math_calculate","","key","6","16.646129032258216","720","446","","","","","2*3= ?","6","1","","","","","","","",""
"2582","","9","psychophysics","135","520927","0.0-7.0-5.0-0.32","6","5","6","6","5","4","4","4","4","5","5","1","1","2","0","1","1","2","2","5","4","5","5","5","4","5","4","4","5","6","8","6","8","7","6","7","8","8","5","5","5","6","5","3","6","3","5","5","1","5","5","6","3","3","5","5","5","5","6","3","6","3","3","3","6","3","7","5","7","6","5","5","6","3","6","5","6","5","5","781508741223944193","陈","217","Female","[""好我"",""坏我"",""坏她"",""好她""]","[""强我"",""弱我"",""弱她"",""强她""]","","","","","","","","9","","","","","","","","","SRET","SRET_math_calculate","","key","9","16.646753246753097","720","446","","","","","1+8= ?","9","1","","","","","","","",""
"2949","","5","psychophysics","136","523879","0.0-7.0-5.0-0.33","6","5","6","6","5","4","4","4","4","5","5","1","1","2","0","1","1","2","2","5","4","5","5","5","4","5","4","4","5","6","8","6","8","7","6","7","8","8","5","5","5","6","5","3","6","3","5","5","1","5","5","6","3","3","5","5","5","5","6","3","6","3","3","3","6","3","7","5","7","6","5","5","6","3","6","5","6","5","5","781508741223944193","陈","217","Female","[""好我"",""坏我"",""坏她"",""好她""]","[""强我"",""弱我"",""弱她"",""强她""]","","","","","","","","5","","","","","","","","","SRET","SRET_math_calculate","","key","5","16.646022727272463","720","446","","","","","17-12= ? ","5","1","","","","","","","",""
"2310","","6","psychophysics","137","526215","0.0-7.0-5.0-0.34","6","5","6","6","5","4","4","4","4","5","5","1","1","2","0","1","1","2","2","5","4","5","5","5","4","5","4","4","5","6","8","6","8","7","6","7","8","8","5","5","5","6","5","3","6","3","5","5","1","5","5","6","3","3","5","5","5","5","6","3","6","3","3","3","6","3","7","5","7","6","5","5","6","3","6","5","6","5","5","781508741223944193","陈","217","Female","[""好我"",""坏我"",""坏她"",""好她""]","[""强我"",""弱我"",""弱她"",""强她""]","","","","","","","","6","","","","","","","","","SRET","SRET_math_calculate","","key","6","16.76618705035971","720","446","","","","","2+4= ?","6","1","","","","","","","",""
"2332","","2","psychophysics","138","528551","0.0-7.0-5.0-0.35","6","5","6","6","5","4","4","4","4","5","5","1","1","2","0","1","1","2","2","5","4","5","5","5","4","5","4","4","5","6","8","6","8","7","6","7","8","8","5","5","5","6","5","3","6","3","5","5","1","5","5","6","3","3","5","5","5","5","6","3","6","3","3","3","6","3","7","5","7","6","5","5","6","3","6","5","6","5","5","781508741223944193","陈","217","Female","[""好我"",""坏我"",""坏她"",""好她""]","[""强我"",""弱我"",""弱她"",""强她""]","","","","","","","","2","","","","","","","","","SRET","SRET_math_calculate","","key","2","16.64532374100686","720","446","","","","","19-17= ?","2","1","","","","","","","",""
"2487","","0","psychophysics","139","531040","0.0-7.0-5.0-0.36","6","5","6","6","5","4","4","4","4","5","5","1","1","2","0","1","1","2","2","5","4","5","5","5","4","5","4","4","5","6","8","6","8","7","6","7","8","8","5","5","5","6","5","3","6","3","5","5","1","5","5","6","3","3","5","5","5","5","6","3","6","3","3","3","6","3","7","5","7","6","5","5","6","3","6","5","6","5","5","781508741223944193","陈","217","Female","[""好我"",""坏我"",""坏她"",""好她""]","[""强我"",""弱我"",""弱她"",""强她""]","","","","","","","","0","","","","","","","","","SRET","SRET_math_calculate","","key","0","16.646308724831744","720","446","","","","","1-1= ?","0","1","","","","","","","",""
"2541","","9","psychophysics","140","533584","0.0-7.0-5.0-0.37","6","5","6","6","5","4","4","4","4","5","5","1","1","2","0","1","1","2","2","5","4","5","5","5","4","5","4","4","5","6","8","6","8","7","6","7","8","8","5","5","5","6","5","3","6","3","5","5","1","5","5","6","3","3","5","5","5","5","6","3","6","3","3","3","6","3","7","5","7","6","5","5","6","3","6","5","6","5","5","781508741223944193","陈","217","Female","[""好我"",""坏我"",""坏她"",""好她""]","[""强我"",""弱我"",""弱她"",""强她""]","","","","","","","","9","","","","","","","","","SRET","SRET_math_calculate","","key","9","16.646357615893887","720","446","","","","","1*9= ?","9","1","","","","","","","",""
"5585","","7","psychophysics","141","539175","0.0-7.0-5.0-0.38","6","5","6","6","5","4","4","4","4","5","5","1","1","2","0","1","1","2","2","5","4","5","5","5","4","5","4","4","5","6","8","6","8","7","6","7","8","8","5","5","5","6","5","3","6","3","5","5","1","5","5","6","3","3","5","5","5","5","6","3","6","3","3","3","6","3","7","5","7","6","5","5","6","3","6","5","6","5","5","781508741223944193","陈","217","Female","[""好我"",""坏我"",""坏她"",""好她""]","[""强我"",""弱我"",""弱她"",""强她""]","","","","","","","","7","","","","","","","","","SRET","SRET_math_calculate","","key","7","16.645970149253802","720","446","","","","","13-6= ?","7","1","","","","","","","",""
"2638","","5","psychophysics","142","541815","0.0-7.0-5.0-0.39","6","5","6","6","5","4","4","4","4","5","5","1","1","2","0","1","1","2","2","5","4","5","5","5","4","5","4","4","5","6","8","6","8","7","6","7","8","8","5","5","5","6","5","3","6","3","5","5","1","5","5","6","3","3","5","5","5","5","6","3","6","3","3","3","6","3","7","5","7","6","5","5","6","3","6","5","6","5","5","781508741223944193","陈","217","Female","[""好我"",""坏我"",""坏她"",""好她""]","[""强我"",""弱我"",""弱她"",""强她""]","","","","","","","","5","","","","","","","","","SRET","SRET_math_calculate","","key","5","16.645569620253166","720","446","","","","","3+2= ?","5","1","","","","","","","",""
