"rt","stimulus","response","trial_type","trial_index","time_elapsed","internal_node_id","swb_1","swb_2","swb_3","swb_4","swb_5","LOT_1","LOT_2","LOT_3","LOT_4","LOT_5","LOT_6","IPC_1","IPC_2","IPC_3","IPC_4","IPC_5","IPC_6","IPC_7","IPC_8","MorIden_1","MorIden_2","MorIden_3","MorIden_4","MorIden_5","MorIden_6","MorIden_7","MorIden_8","MorIden_9","MorIden_10","moralSeImag_1","moralSeImag_2","moralSeImag_3","moralSeImag_4","moralSeImag_5","moralSeImag_6","moralSeImag_7","moralSeImag_8","moralSeImag_9","sde_1","sde_2","sde_3","sde_4","sde_5","sde_6","sde_7","sde_8","sde_9","sde_10","trap2","sde_11","sde_12","sde_13","sde_14","sde_15","sde_16","sde_17","sde_18","sde_19","sde_20","IM_1","IM_2","IM_3","IM_4","IM_5","IM_6","IM_7","IM_8","IM_9","IM_10","IM_11","IM_12","IM_13","IM_14","IM_15","IM_16","IM_17","IM_18","IM_19","IM_20","subj_idx","friend_name","ParticipantID","Sex","Word","Word2","value","success","timeout","failed_images","failed_audio","failed_video","user_agent","responses","item_order","radio_event_ids","radio_event_times","key_event_times","mouse_event_times","straightlining","zigzagging","honeypot","task_id","screen_id","time_stamp","response_type","key_press","avg_frame_time","center_x","center_y","person","word","valence","domain","math","correct_response","correct","status","view_history","identity","duration","Image","condition","question_order","trap2_item"
"1455","
   <p><div style='color:white; font-size: 25px'>您好，欢迎参加本次实验。</div></p>
   <p><div style='color:white; font-size: 25px'>为充分保障您的权利，请确保您已经知晓并同意《参与实验同意书》以及《数据公开知情同意书》。</div></p>
   <p><div style='color:white; font-size: 25px'>如果您未见过上述内容，请咨询实验员。</div></p>
   <p style='color:white; font-size: 25px'>如果您选择继续实验，则表示您已经清楚两份知情同意书的内容并同意。</p>
   <p><div style = ""color: pink;font-size:30px;"">请确保您记得day0的实验编号，您将在本次实验输入该编号，若您忘记，请咨询实验员后作答。</div></p>
   <p><div style = ""color:lightblue;font-size:25px;"">请您尽可能认真地作答，我们将依据您在各问卷和按键任务中的作答质量发放报酬。</div></p>
   <p> <div style = ""color: green""><按空格键至下页></div> </p>
   "," ","html-keyboard-response","0","1459","0.0-0.0","5","4","5","3","2","4","3","4","4","3","4","1","-1","0","1","-1","0","1","0","4","4","4","3","4","3","4","3","4","3","6","7","6","6","5","7","7","6","7","4","5","5","4","6","3","5","5","5","4","1","3","3","5","4","5","4","6","4","5","4","3","3","3","2","4","6","3","5","5","4","3","3","5","4","4","3","2","5","3","4","781945721594318849","钟","595","Male","[""坏他"",""好我"",""好他"",""坏我""]","[""弱他"",""强我"",""强他"",""弱我""]","","","","","","","","","","","","","","","","","","","","","","","","","","","","","","","","","","","","","","",""
"","","","call-function","1","1460","0.0-1.0-0.0","5","4","5","3","2","4","3","4","4","3","4","1","-1","0","1","-1","0","1","0","4","4","4","3","4","3","4","3","4","3","6","7","6","6","5","7","7","6","7","4","5","5","4","6","3","5","5","5","4","1","3","3","5","4","5","4","6","4","5","4","3","3","3","2","4","6","3","5","5","4","3","3","5","4","4","3","2","5","3","4","781945721594318849","钟","595","Male","[""坏他"",""好我"",""好他"",""坏我""]","[""弱他"",""强我"",""强他"",""弱我""]","","","","","","","","","","","","","","","","","","","","","","","","","","","","","","","","","","","","","","",""
"19917","","[{""name"":""Sex"",""value"":""0""},{""name"":""friend_name"",""value"":""钟""},{""name"":""ParticipantID"",""value"":""595""}]","survey-html-form","2","21378","0.0-1.0-1.0","5","4","5","3","2","4","3","4","4","3","4","1","-1","0","1","-1","0","1","0","4","4","4","3","4","3","4","3","4","3","6","7","6","6","5","7","7","6","7","4","5","5","4","6","3","5","5","5","4","1","3","3","5","4","5","4","6","4","5","4","3","3","3","2","4","6","3","5","5","4","3","3","5","4","4","3","2","5","3","4","781945721594318849","钟","595","Male","[""坏他"",""好我"",""好他"",""坏我""]","[""弱他"",""强我"",""强他"",""弱我""]","","","","","","","","","","","","","","","","","","","","","","","","","","","","","","","","","","","","","","",""
"","","","preload","3","22015","0.0-2.0","5","4","5","3","2","4","3","4","4","3","4","1","-1","0","1","-1","0","1","0","4","4","4","3","4","3","4","3","4","3","6","7","6","6","5","7","7","6","7","4","5","5","4","6","3","5","5","5","4","1","3","3","5","4","5","4","6","4","5","4","3","3","3","2","4","6","3","5","5","4","3","3","5","4","4","3","2","5","3","4","781945721594318849","钟","595","Male","[""坏他"",""好我"",""好他"",""坏我""]","[""弱他"",""强我"",""强他"",""弱我""]","","true","false","[]","[]","[]","","","","","","","","","","","","","","","","","","","","","","","","","","","","","","","","",""
"","","","fullscreen","4","46110","0.0-3.0","5","4","5","3","2","4","3","4","4","3","4","1","-1","0","1","-1","0","1","0","4","4","4","3","4","3","4","3","4","3","6","7","6","6","5","7","7","6","7","4","5","5","4","6","3","5","5","5","4","1","3","3","5","4","5","4","6","4","5","4","3","3","3","2","4","6","3","5","5","4","3","3","5","4","4","3","2","5","3","4","781945721594318849","钟","595","Male","[""坏他"",""好我"",""好他"",""坏我""]","[""弱他"",""强我"",""强他"",""弱我""]","","true","","","","","{}","","","","","","","","","","","","","","","","","","","","","","","","","","","","","","","",""
"9771.199999809265","","{""Q01"":""5"",""Q02"":""4"",""Q03"":""5"",""Q04"":""3"",""Q05"":""2""}","survey-template","5","55885","0.0-4.0","5","4","5","3","2","4","3","4","4","3","4","1","-1","0","1","-1","0","1","0","4","4","4","3","4","3","4","3","4","3","6","7","6","6","5","7","7","6","7","4","5","5","4","6","3","5","5","5","4","1","3","3","5","4","5","4","6","4","5","4","3","3","3","2","4","6","3","5","5","4","3","3","5","4","4","3","2","5","3","4","781945721594318849","钟","595","Male","[""坏他"",""好我"",""好他"",""坏我""]","[""弱他"",""强我"",""强他"",""弱我""]","","","","","","","","{""Q01"":""5"",""Q02"":""4"",""Q03"":""5"",""Q04"":""3"",""Q05"":""2""}","[0,1,2,3,4]","[""Q01"",""Q03"",""Q02"",""Q04"",""Q05""]","[3560.399999856949,5536.299999952316,6600.399999856949,7545.099999904633,8825.199999809265]","[]","[3560.399999856949,5536.299999952316,6600.399999856949,7545.099999904633,8825.199999809265,9769.399999856949]","0.4","0.75","0","","","","","","","","","","","","","","","","","","","","","","",""
"16284.700000047684","","{""Q01"":""4"",""Q02"":""3"",""Q03"":""4"",""Q04"":""4"",""Q05"":""3"",""Q06"":""4""}","survey-template","6","72178","0.0-5.0","5","4","5","3","2","4","3","4","4","3","4","1","-1","0","1","-1","0","1","0","4","4","4","3","4","3","4","3","4","3","6","7","6","6","5","7","7","6","7","4","5","5","4","6","3","5","5","5","4","1","3","3","5","4","5","4","6","4","5","4","3","3","3","2","4","6","3","5","5","4","3","3","5","4","4","3","2","5","3","4","781945721594318849","钟","595","Male","[""坏他"",""好我"",""好他"",""坏我""]","[""弱他"",""强我"",""强他"",""弱我""]","","","","","","","","{""Q01"":""4"",""Q02"":""3"",""Q03"":""4"",""Q04"":""4"",""Q05"":""3"",""Q06"":""4""}","[0,1,2,3,4,5]","[""Q01"",""Q02"",""Q03"",""Q04"",""Q05"",""Q06""]","[4412.600000143051,8596.5,10452.400000095367,11317,12764.600000143051,15540.600000143051]","[]","[4412.600000143051,8596.5,9733.700000047684,10452.400000095367,11317,12764.600000143051,15540.600000143051,16283.700000047684]","0.5","0.8","0","","","","","","","","","","","","","","","","","","","","","","",""
"22907.39999985695","","{""Q01"":""1"",""Q02"":""-1"",""Q03"":""0"",""Q04"":""1"",""Q05"":""-1"",""Q06"":""0"",""Q07"":""1"",""Q08"":""0""}","survey-template","7","95091","0.0-6.0","5","4","5","3","2","4","3","4","4","3","4","1","-1","0","1","-1","0","1","0","4","4","4","3","4","3","4","3","4","3","6","7","6","6","5","7","7","6","7","4","5","5","4","6","3","5","5","5","4","1","3","3","5","4","5","4","6","4","5","4","3","3","3","2","4","6","3","5","5","4","3","3","5","4","4","3","2","5","3","4","781945721594318849","钟","595","Male","[""坏他"",""好我"",""好他"",""坏我""]","[""弱他"",""强我"",""强他"",""弱我""]","","","","","","","","{""Q01"":""1"",""Q02"":""-1"",""Q03"":""0"",""Q04"":""1"",""Q05"":""-1"",""Q06"":""0"",""Q07"":""1"",""Q08"":""0""}","[0,1,2,3,4,5,6,7]","[""Q01"",""Q02"",""Q03"",""Q04"",""Q05"",""Q06"",""Q07"",""Q08""]","[6226.899999856949,7258.799999952316,12962,14338.099999904633,15746.399999856949,17538.799999952316,20866.599999904633,22298.799999952316]","[]","[4267.700000047684,6226.899999856949,7258.799999952316,12962,14338.099999904633,15746.399999856949,17538.799999952316,20866.599999904633,21659.200000047684,22298.799999952316,22906.200000047684]","0.375","0.7142857142857143","0","","","","","","","","","","","","","","","","","","","","","","",""
"19922","
    <p><div style='color:white;font-size:35px; line-height:20px;'>词汇评估任务</div></p><br>
    <p><div style='color:white;font-size:25px; line-height:20px;'>请再次回忆该亲密的朋友，你们至少2年前就认识了，并且最近2年经常见面。</div></p>
    <p><div style='color:white;font-size:25px; line-height:20px;'>在本实验中，您将会看到一些形容词。</div></p>
    <p><div style='color:yellow;font-size:25px; line-height:20px;'>您的任务是判断这些形容词是否符合对您自己或您的朋友的描述。</div></p><p style='font-size:35px'>符合按<span style=""color:lightgreen""> j 键</span>，不符合按<span style=""color:red""> f 键</span></p>","0","html-button-response","8","115017","0.0-7.0-0.0","5","4","5","3","2","4","3","4","4","3","4","1","-1","0","1","-1","0","1","0","4","4","4","3","4","3","4","3","4","3","6","7","6","6","5","7","7","6","7","4","5","5","4","6","3","5","5","5","4","1","3","3","5","4","5","4","6","4","5","4","3","3","3","2","4","6","3","5","5","4","3","3","5","4","4","3","2","5","3","4","781945721594318849","钟","595","Male","[""坏他"",""好我"",""好他"",""坏我""]","[""弱他"",""强我"",""强他"",""弱我""]","","","","","","","","","","","","","","","","","SRET_EW","EW_instructions","Fri Jan 19 2024 14:58:05 GMT+0800 (中国标准时间)","","","","","","","","","","","","","","","","","","","",""
"1417","","j","psychophysics","9","117441","0.0-7.0-1.0-0.0","5","4","5","3","2","4","3","4","4","3","4","1","-1","0","1","-1","0","1","0","4","4","4","3","4","3","4","3","4","3","6","7","6","6","5","7","7","6","7","4","5","5","4","6","3","5","5","5","4","1","3","3","5","4","5","4","6","4","5","4","3","3","3","2","4","6","3","5","5","4","3","3","5","4","4","3","2","5","3","4","781945721594318849","钟","595","Male","[""坏他"",""好我"",""好他"",""坏我""]","[""弱他"",""强我"",""强他"",""弱我""]","","","","","","","","yes","","","","","","","","","SRET_EW","EW_practice","","key","j","8.479332167832142","853.3333333333334","529.3333333333334","朋友","徇私","Negative","morality","","","","","","","","","","",""
"993","","j","psychophysics","10","119437","0.0-7.0-1.0-0.1","5","4","5","3","2","4","3","4","4","3","4","1","-1","0","1","-1","0","1","0","4","4","4","3","4","3","4","3","4","3","6","7","6","6","5","7","7","6","7","4","5","5","4","6","3","5","5","5","4","1","3","3","5","4","5","4","6","4","5","4","3","3","3","2","4","6","3","5","5","4","3","3","5","4","4","3","2","5","3","4","781945721594318849","钟","595","Male","[""坏他"",""好我"",""好他"",""坏我""]","[""弱他"",""强我"",""强他"",""弱我""]","","","","","","","","yes","","","","","","","","","SRET_EW","EW_practice","","key","j","8.498773504273457","853.3333333333334","529.3333333333334","自己","严谨","Positive","ability","","","","","","","","","","",""
"647","","j","psychophysics","11","121086","0.0-7.0-1.0-0.2","5","4","5","3","2","4","3","4","4","3","4","1","-1","0","1","-1","0","1","0","4","4","4","3","4","3","4","3","4","3","6","7","6","6","5","7","7","6","7","4","5","5","4","6","3","5","5","5","4","1","3","3","5","4","5","4","6","4","5","4","3","3","3","2","4","6","3","5","5","4","3","3","5","4","4","3","2","5","3","4","781945721594318849","钟","595","Male","[""坏他"",""好我"",""好他"",""坏我""]","[""弱他"",""强我"",""强他"",""弱我""]","","","","","","","","yes","","","","","","","","","SRET_EW","EW_practice","","key","j","8.352974489795942","853.3333333333334","529.3333333333334","朋友","忠实","Positive","morality","","","","","","","","","","",""
"751","","j","psychophysics","12","122839","0.0-7.0-1.0-0.3","5","4","5","3","2","4","3","4","4","3","4","1","-1","0","1","-1","0","1","0","4","4","4","3","4","3","4","3","4","3","6","7","6","6","5","7","7","6","7","4","5","5","4","6","3","5","5","5","4","1","3","3","5","4","5","4","6","4","5","4","3","3","3","2","4","6","3","5","5","4","3","3","5","4","4","3","2","5","3","4","781945721594318849","钟","595","Male","[""坏他"",""好我"",""好他"",""坏我""]","[""弱他"",""强我"",""强他"",""弱我""]","","","","","","","","yes","","","","","","","","","SRET_EW","EW_practice","","key","j","8.378636363636339","853.3333333333334","529.3333333333334","自己","刻板","Negative","ability","","","","","","","","","","",""
"4624","
    <p><div style='color:white;font-size:35px; line-height:20px;'>请您再次阅读实验要求</div></p><br>
    <p><div style='color:white;font-size:25px; line-height:20px;'>请回忆某一个亲密的朋友，你们至少2年前就认识了，并且最近2年经常见面。</div></p>
    <p><div style='color:white;font-size:25px; line-height:20px;'>在本实验中，您将会看到一些形容词。</div></p>
    <p><div style='color:yellow;font-size:25px; line-height:20px;'>您的任务是判断这些形容词是否符合对您自己或您的朋友的描述。</div></p>
    <p><div class='footer' style='font-size:25px; line-height:20px;'>如果对本实验还有不清楚之处，请立即向实验员咨询。</p><p style='font-size:25px; line-height:20px;'>如果您明白了规则：</p><p style='font-size:22px; line-height:20px;'>请按 继续 进入正式实验</p>
    </div>
    <p style='font-size:35px'>符合按<span style=""color:lightgreen""> j 键</span>，不符合按<span style=""color:red""> f 键</span></p>","0","html-button-response","13","127465","0.0-7.0-2.0","5","4","5","3","2","4","3","4","4","3","4","1","-1","0","1","-1","0","1","0","4","4","4","3","4","3","4","3","4","3","6","7","6","6","5","7","7","6","7","4","5","5","4","6","3","5","5","5","4","1","3","3","5","4","5","4","6","4","5","4","3","3","3","2","4","6","3","5","5","4","3","3","5","4","4","3","2","5","3","4","781945721594318849","钟","595","Male","[""坏他"",""好我"",""好他"",""坏我""]","[""弱他"",""强我"",""强他"",""弱我""]","","","","","","","","","","","","","","","","","SRET_EW","prac_instructions","Fri Jan 19 2024 14:58:05 GMT+0800 (中国标准时间)","","","","","","","","","","","","","","","","","","","",""
"610","","f","psychophysics","14","129078","0.0-7.0-3.0-0.0","5","4","5","3","2","4","3","4","4","3","4","1","-1","0","1","-1","0","1","0","4","4","4","3","4","3","4","3","4","3","6","7","6","6","5","7","7","6","7","4","5","5","4","6","3","5","5","5","4","1","3","3","5","4","5","4","6","4","5","4","3","3","3","2","4","6","3","5","5","4","3","3","5","4","4","3","2","5","3","4","781945721594318849","钟","595","Male","[""坏他"",""好我"",""好他"",""坏我""]","[""弱他"",""强我"",""强他"",""弱我""]","","","","","","","","no","","","","","","","","","SRET","EW_formal","","key","f","8.518642105263165","853.3333333333334","529.3333333333334","自己","说谎","Negative","morality","","","","","","","","","","",""
"679","","j","psychophysics","15","130759","0.0-7.0-3.0-0.1","5","4","5","3","2","4","3","4","4","3","4","1","-1","0","1","-1","0","1","0","4","4","4","3","4","3","4","3","4","3","6","7","6","6","5","7","7","6","7","4","5","5","4","6","3","5","5","5","4","1","3","3","5","4","5","4","6","4","5","4","3","3","3","2","4","6","3","5","5","4","3","3","5","4","4","3","2","5","3","4","781945721594318849","钟","595","Male","[""坏他"",""好我"",""好他"",""坏我""]","[""弱他"",""强我"",""强他"",""弱我""]","","","","","","","","yes","","","","","","","","","SRET","EW_formal","","key","j","8.345699999999924","853.3333333333334","529.3333333333334","自己","坚贞","Positive","morality","","","","","","","","","","",""
"794","","f","psychophysics","16","132554","0.0-7.0-3.0-0.2","5","4","5","3","2","4","3","4","4","3","4","1","-1","0","1","-1","0","1","0","4","4","4","3","4","3","4","3","4","3","6","7","6","6","5","7","7","6","7","4","5","5","4","6","3","5","5","5","4","1","3","3","5","4","5","4","6","4","5","4","3","3","3","2","4","6","3","5","5","4","3","3","5","4","4","3","2","5","3","4","781945721594318849","钟","595","Male","[""坏他"",""好我"",""好他"",""坏我""]","[""弱他"",""强我"",""强他"",""弱我""]","","","","","","","","no","","","","","","","","","SRET","EW_formal","","key","f","8.34604672897198","853.3333333333334","529.3333333333334","朋友","迷糊","Negative","ability","","","","","","","","","","",""
"896","","j","psychophysics","17","134452","0.0-7.0-3.0-0.3","5","4","5","3","2","4","3","4","4","3","4","1","-1","0","1","-1","0","1","0","4","4","4","3","4","3","4","3","4","3","6","7","6","6","5","7","7","6","7","4","5","5","4","6","3","5","5","5","4","1","3","3","5","4","5","4","6","4","5","4","3","3","3","2","4","6","3","5","5","4","3","3","5","4","4","3","2","5","3","4","781945721594318849","钟","595","Male","[""坏他"",""好我"",""好他"",""坏我""]","[""弱他"",""强我"",""强他"",""弱我""]","","","","","","","","yes","","","","","","","","","SRET","EW_formal","","key","j","8.360389380530991","853.3333333333334","529.3333333333334","朋友","务实","Positive","ability","","","","","","","","","","",""
"570","","j","psychophysics","18","136024","0.0-7.0-3.0-0.4","5","4","5","3","2","4","3","4","4","3","4","1","-1","0","1","-1","0","1","0","4","4","4","3","4","3","4","3","4","3","6","7","6","6","5","7","7","6","7","4","5","5","4","6","3","5","5","5","4","1","3","3","5","4","5","4","6","4","5","4","3","3","3","2","4","6","3","5","5","4","3","3","5","4","4","3","2","5","3","4","781945721594318849","钟","595","Male","[""坏他"",""好我"",""好他"",""坏我""]","[""弱他"",""强我"",""强他"",""弱我""]","","","","","","","","yes","","","","","","","","","SRET","EW_formal","","key","j","8.35908021390367","853.3333333333334","529.3333333333334","朋友","仁爱","Positive","morality","","","","","","","","","","",""
"526","","f","psychophysics","19","137552","0.0-7.0-3.0-0.5","5","4","5","3","2","4","3","4","4","3","4","1","-1","0","1","-1","0","1","0","4","4","4","3","4","3","4","3","4","3","6","7","6","6","5","7","7","6","7","4","5","5","4","6","3","5","5","5","4","1","3","3","5","4","5","4","6","4","5","4","3","3","3","2","4","6","3","5","5","4","3","3","5","4","4","3","2","5","3","4","781945721594318849","钟","595","Male","[""坏他"",""好我"",""好他"",""坏我""]","[""弱他"",""强我"",""强他"",""弱我""]","","","","","","","","no","","","","","","","","","SRET","EW_formal","","key","f","8.36292857142849","853.3333333333334","529.3333333333334","朋友","无耻","Negative","morality","","","","","","","","","","",""
"785","","f","psychophysics","20","139340","0.0-7.0-3.0-0.6","5","4","5","3","2","4","3","4","4","3","4","1","-1","0","1","-1","0","1","0","4","4","4","3","4","3","4","3","4","3","6","7","6","6","5","7","7","6","7","4","5","5","4","6","3","5","5","5","4","1","3","3","5","4","5","4","6","4","5","4","3","3","3","2","4","6","3","5","5","4","3","3","5","4","4","3","2","5","3","4","781945721594318849","钟","595","Male","[""坏他"",""好我"",""好他"",""坏我""]","[""弱他"",""强我"",""强他"",""弱我""]","","","","","","","","no","","","","","","","","","SRET","EW_formal","","key","f","8.345549295774711","853.3333333333334","529.3333333333334","朋友","新手","Negative","ability","","","","","","","","","","",""
"563","","f","psychophysics","21","140905","0.0-7.0-3.0-0.7","5","4","5","3","2","4","3","4","4","3","4","1","-1","0","1","-1","0","1","0","4","4","4","3","4","3","4","3","4","3","6","7","6","6","5","7","7","6","7","4","5","5","4","6","3","5","5","5","4","1","3","3","5","4","5","4","6","4","5","4","3","3","3","2","4","6","3","5","5","4","3","3","5","4","4","3","2","5","3","4","781945721594318849","钟","595","Male","[""坏他"",""好我"",""好他"",""坏我""]","[""弱他"",""强我"",""强他"",""弱我""]","","","","","","","","no","","","","","","","","","SRET","EW_formal","","key","f","8.367521505376327","853.3333333333334","529.3333333333334","朋友","刻薄","Negative","morality","","","","","","","","","","",""
"685","","f","psychophysics","22","142594","0.0-7.0-3.0-0.8","5","4","5","3","2","4","3","4","4","3","4","1","-1","0","1","-1","0","1","0","4","4","4","3","4","3","4","3","4","3","6","7","6","6","5","7","7","6","7","4","5","5","4","6","3","5","5","5","4","1","3","3","5","4","5","4","6","4","5","4","3","3","3","2","4","6","3","5","5","4","3","3","5","4","4","3","2","5","3","4","781945721594318849","钟","595","Male","[""坏他"",""好我"",""好他"",""坏我""]","[""弱他"",""强我"",""强他"",""弱我""]","","","","","","","","no","","","","","","","","","SRET","EW_formal","","key","f","8.345529702970254","853.3333333333334","529.3333333333334","朋友","迂拙","Negative","ability","","","","","","","","","","",""
"584","","f","psychophysics","23","144180","0.0-7.0-3.0-0.9","5","4","5","3","2","4","3","4","4","3","4","1","-1","0","1","-1","0","1","0","4","4","4","3","4","3","4","3","4","3","6","7","6","6","5","7","7","6","7","4","5","5","4","6","3","5","5","5","4","1","3","3","5","4","5","4","6","4","5","4","3","3","3","2","4","6","3","5","5","4","3","3","5","4","4","3","2","5","3","4","781945721594318849","钟","595","Male","[""坏他"",""好我"",""好他"",""坏我""]","[""弱他"",""强我"",""强他"",""弱我""]","","","","","","","","no","","","","","","","","","SRET","EW_formal","","key","f","8.345756613756604","853.3333333333334","529.3333333333334","自己","拙笨","Negative","ability","","","","","","","","","","",""
"653","","f","psychophysics","24","145834","0.0-7.0-3.0-0.10","5","4","5","3","2","4","3","4","4","3","4","1","-1","0","1","-1","0","1","0","4","4","4","3","4","3","4","3","4","3","6","7","6","6","5","7","7","6","7","4","5","5","4","6","3","5","5","5","4","1","3","3","5","4","5","4","6","4","5","4","3","3","3","2","4","6","3","5","5","4","3","3","5","4","4","3","2","5","3","4","781945721594318849","钟","595","Male","[""坏他"",""好我"",""好他"",""坏我""]","[""弱他"",""强我"",""强他"",""弱我""]","","","","","","","","no","","","","","","","","","SRET","EW_formal","","key","f","8.345573604060958","853.3333333333334","529.3333333333334","朋友","粗心","Negative","ability","","","","","","","","","","",""
"769","","j","psychophysics","25","147605","0.0-7.0-3.0-0.11","5","4","5","3","2","4","3","4","4","3","4","1","-1","0","1","-1","0","1","0","4","4","4","3","4","3","4","3","4","3","6","7","6","6","5","7","7","6","7","4","5","5","4","6","3","5","5","5","4","1","3","3","5","4","5","4","6","4","5","4","3","3","3","2","4","6","3","5","5","4","3","3","5","4","4","3","2","5","3","4","781945721594318849","钟","595","Male","[""坏他"",""好我"",""好他"",""坏我""]","[""弱他"",""强我"",""强他"",""弱我""]","","","","","","","","yes","","","","","","","","","SRET","EW_formal","","key","j","8.345075829383825","853.3333333333334","529.3333333333334","朋友","周到","Positive","ability","","","","","","","","","","",""
"571","","j","psychophysics","26","149178","0.0-7.0-3.0-0.12","5","4","5","3","2","4","3","4","4","3","4","1","-1","0","1","-1","0","1","0","4","4","4","3","4","3","4","3","4","3","6","7","6","6","5","7","7","6","7","4","5","5","4","6","3","5","5","5","4","1","3","3","5","4","5","4","6","4","5","4","3","3","3","2","4","6","3","5","5","4","3","3","5","4","4","3","2","5","3","4","781945721594318849","钟","595","Male","[""坏他"",""好我"",""好他"",""坏我""]","[""弱他"",""强我"",""强他"",""弱我""]","","","","","","","","yes","","","","","","","","","SRET","EW_formal","","key","j","8.346218085106267","853.3333333333334","529.3333333333334","自己","高明","Positive","ability","","","","","","","","","","",""
"695","","j","psychophysics","27","150874","0.0-7.0-3.0-0.13","5","4","5","3","2","4","3","4","4","3","4","1","-1","0","1","-1","0","1","0","4","4","4","3","4","3","4","3","4","3","6","7","6","6","5","7","7","6","7","4","5","5","4","6","3","5","5","5","4","1","3","3","5","4","5","4","6","4","5","4","3","3","3","2","4","6","3","5","5","4","3","3","5","4","4","3","2","5","3","4","781945721594318849","钟","595","Male","[""坏他"",""好我"",""好他"",""坏我""]","[""弱他"",""强我"",""强他"",""弱我""]","","","","","","","","yes","","","","","","","","","SRET","EW_formal","","key","j","8.340742574257506","853.3333333333334","529.3333333333334","自己","高尚","Positive","morality","","","","","","","","","","",""
"408","","j","psychophysics","28","152284","0.0-7.0-3.0-0.14","5","4","5","3","2","4","3","4","4","3","4","1","-1","0","1","-1","0","1","0","4","4","4","3","4","3","4","3","4","3","6","7","6","6","5","7","7","6","7","4","5","5","4","6","3","5","5","5","4","1","3","3","5","4","5","4","6","4","5","4","3","3","3","2","4","6","3","5","5","4","3","3","5","4","4","3","2","5","3","4","781945721594318849","钟","595","Male","[""坏他"",""好我"",""好他"",""坏我""]","[""弱他"",""强我"",""强他"",""弱我""]","","","","","","","","yes","","","","","","","","","SRET","EW_formal","","key","j","8.341035714285681","853.3333333333334","529.3333333333334","自己","守信","Positive","morality","","","","","","","","","","",""
"473","","j","psychophysics","29","153759","0.0-7.0-3.0-0.15","5","4","5","3","2","4","3","4","4","3","4","1","-1","0","1","-1","0","1","0","4","4","4","3","4","3","4","3","4","3","6","7","6","6","5","7","7","6","7","4","5","5","4","6","3","5","5","5","4","1","3","3","5","4","5","4","6","4","5","4","3","3","3","2","4","6","3","5","5","4","3","3","5","4","4","3","2","5","3","4","781945721594318849","钟","595","Male","[""坏他"",""好我"",""好他"",""坏我""]","[""弱他"",""强我"",""强他"",""弱我""]","","","","","","","","yes","","","","","","","","","SRET","EW_formal","","key","j","8.3444431818182","853.3333333333334","529.3333333333334","朋友","敏捷","Positive","ability","","","","","","","","","","",""
"452","","j","psychophysics","30","155212","0.0-7.0-3.0-0.16","5","4","5","3","2","4","3","4","4","3","4","1","-1","0","1","-1","0","1","0","4","4","4","3","4","3","4","3","4","3","6","7","6","6","5","7","7","6","7","4","5","5","4","6","3","5","5","5","4","1","3","3","5","4","5","4","6","4","5","4","3","3","3","2","4","6","3","5","5","4","3","3","5","4","4","3","2","5","3","4","781945721594318849","钟","595","Male","[""坏他"",""好我"",""好他"",""坏我""]","[""弱他"",""强我"",""强他"",""弱我""]","","","","","","","","yes","","","","","","","","","SRET","EW_formal","","key","j","8.345913294797818","853.3333333333334","529.3333333333334","朋友","热心","Positive","morality","","","","","","","","","","",""
"817","","j","psychophysics","31","157031","0.0-7.0-3.0-0.17","5","4","5","3","2","4","3","4","4","3","4","1","-1","0","1","-1","0","1","0","4","4","4","3","4","3","4","3","4","3","6","7","6","6","5","7","7","6","7","4","5","5","4","6","3","5","5","5","4","1","3","3","5","4","5","4","6","4","5","4","3","3","3","2","4","6","3","5","5","4","3","3","5","4","4","3","2","5","3","4","781945721594318849","钟","595","Male","[""坏他"",""好我"",""好他"",""坏我""]","[""弱他"",""强我"",""强他"",""弱我""]","","","","","","","","yes","","","","","","","","","SRET","EW_formal","","key","j","8.340548387096797","853.3333333333334","529.3333333333334","自己","沉着","Positive","ability","","","","","","","","","","",""
"1027","","j","psychophysics","32","159060","0.0-7.0-3.0-0.18","5","4","5","3","2","4","3","4","4","3","4","1","-1","0","1","-1","0","1","0","4","4","4","3","4","3","4","3","4","3","6","7","6","6","5","7","7","6","7","4","5","5","4","6","3","5","5","5","4","1","3","3","5","4","5","4","6","4","5","4","3","3","3","2","4","6","3","5","5","4","3","3","5","4","4","3","2","5","3","4","781945721594318849","钟","595","Male","[""坏他"",""好我"",""好他"",""坏我""]","[""弱他"",""强我"",""强他"",""弱我""]","","","","","","","","yes","","","","","","","","","SRET","EW_formal","","key","j","8.345247933884249","853.3333333333334","529.3333333333334","朋友","利落","Positive","ability","","","","","","","","","","",""
"630","","f","psychophysics","33","160691","0.0-7.0-3.0-0.19","5","4","5","3","2","4","3","4","4","3","4","1","-1","0","1","-1","0","1","0","4","4","4","3","4","3","4","3","4","3","6","7","6","6","5","7","7","6","7","4","5","5","4","6","3","5","5","5","4","1","3","3","5","4","5","4","6","4","5","4","3","3","3","2","4","6","3","5","5","4","3","3","5","4","4","3","2","5","3","4","781945721594318849","钟","595","Male","[""坏他"",""好我"",""好他"",""坏我""]","[""弱他"",""强我"",""强他"",""弱我""]","","","","","","","","no","","","","","","","","","SRET","EW_formal","","key","f","8.345634020618482","853.3333333333334","529.3333333333334","自己","诡诈","Negative","morality","","","","","","","","","","",""
"442","","j","psychophysics","34","162134","0.0-7.0-3.0-0.20","5","4","5","3","2","4","3","4","4","3","4","1","-1","0","1","-1","0","1","0","4","4","4","3","4","3","4","3","4","3","6","7","6","6","5","7","7","6","7","4","5","5","4","6","3","5","5","5","4","1","3","3","5","4","5","4","6","4","5","4","3","3","3","2","4","6","3","5","5","4","3","3","5","4","4","3","2","5","3","4","781945721594318849","钟","595","Male","[""坏他"",""好我"",""好他"",""坏我""]","[""弱他"",""强我"",""强他"",""弱我""]","","","","","","","","yes","","","","","","","","","SRET","EW_formal","","key","j","8.345645348837214","853.3333333333334","529.3333333333334","自己","廉正","Positive","morality","","","","","","","","","","",""
"556","","j","psychophysics","35","163692","0.0-7.0-3.0-0.21","5","4","5","3","2","4","3","4","4","3","4","1","-1","0","1","-1","0","1","0","4","4","4","3","4","3","4","3","4","3","6","7","6","6","5","7","7","6","7","4","5","5","4","6","3","5","5","5","4","1","3","3","5","4","5","4","6","4","5","4","3","3","3","2","4","6","3","5","5","4","3","3","5","4","4","3","2","5","3","4","781945721594318849","钟","595","Male","[""坏他"",""好我"",""好他"",""坏我""]","[""弱他"",""强我"",""强他"",""弱我""]","","","","","","","","yes","","","","","","","","","SRET","EW_formal","","key","j","8.345731182795603","853.3333333333334","529.3333333333334","朋友","坚持","Positive","ability","","","","","","","","","","",""
"555","","f","psychophysics","36","165249","0.0-7.0-3.0-0.22","5","4","5","3","2","4","3","4","4","3","4","1","-1","0","1","-1","0","1","0","4","4","4","3","4","3","4","3","4","3","6","7","6","6","5","7","7","6","7","4","5","5","4","6","3","5","5","5","4","1","3","3","5","4","5","4","6","4","5","4","3","3","3","2","4","6","3","5","5","4","3","3","5","4","4","3","2","5","3","4","781945721594318849","钟","595","Male","[""坏他"",""好我"",""好他"",""坏我""]","[""弱他"",""强我"",""强他"",""弱我""]","","","","","","","","no","","","","","","","","","SRET","EW_formal","","key","f","8.348713513513605","853.3333333333334","529.3333333333334","朋友","愚蠢","Negative","ability","","","","","","","","","","",""
"776","","f","psychophysics","37","167027","0.0-7.0-3.0-0.23","5","4","5","3","2","4","3","4","4","3","4","1","-1","0","1","-1","0","1","0","4","4","4","3","4","3","4","3","4","3","6","7","6","6","5","7","7","6","7","4","5","5","4","6","3","5","5","5","4","1","3","3","5","4","5","4","6","4","5","4","3","3","3","2","4","6","3","5","5","4","3","3","5","4","4","3","2","5","3","4","781945721594318849","钟","595","Male","[""坏他"",""好我"",""好他"",""坏我""]","[""弱他"",""强我"",""强他"",""弱我""]","","","","","","","","no","","","","","","","","","SRET","EW_formal","","key","f","8.34577358490554","853.3333333333334","529.3333333333334","自己","犹豫","Negative","ability","","","","","","","","","","",""
"447","","j","psychophysics","38","168476","0.0-7.0-3.0-0.24","5","4","5","3","2","4","3","4","4","3","4","1","-1","0","1","-1","0","1","0","4","4","4","3","4","3","4","3","4","3","6","7","6","6","5","7","7","6","7","4","5","5","4","6","3","5","5","5","4","1","3","3","5","4","5","4","6","4","5","4","3","3","3","2","4","6","3","5","5","4","3","3","5","4","4","3","2","5","3","4","781945721594318849","钟","595","Male","[""坏他"",""好我"",""好他"",""坏我""]","[""弱他"",""强我"",""强他"",""弱我""]","","","","","","","","yes","","","","","","","","","SRET","EW_formal","","key","j","8.345554913294729","853.3333333333334","529.3333333333334","朋友","忠诚","Positive","morality","","","","","","","","","","",""
"548","","f","psychophysics","39","170026","0.0-7.0-3.0-0.25","5","4","5","3","2","4","3","4","4","3","4","1","-1","0","1","-1","0","1","0","4","4","4","3","4","3","4","3","4","3","6","7","6","6","5","7","7","6","7","4","5","5","4","6","3","5","5","5","4","1","3","3","5","4","5","4","6","4","5","4","3","3","3","2","4","6","3","5","5","4","3","3","5","4","4","3","2","5","3","4","781945721594318849","钟","595","Male","[""坏他"",""好我"",""好他"",""坏我""]","[""弱他"",""强我"",""强他"",""弱我""]","","","","","","","","no","","","","","","","","","SRET","EW_formal","","key","f","8.345162162162062","853.3333333333334","529.3333333333334","朋友","屈才","Negative","ability","","","","","","","","","","",""
"650","","f","psychophysics","40","171677","0.0-7.0-3.0-0.26","5","4","5","3","2","4","3","4","4","3","4","1","-1","0","1","-1","0","1","0","4","4","4","3","4","3","4","3","4","3","6","7","6","6","5","7","7","6","7","4","5","5","4","6","3","5","5","5","4","1","3","3","5","4","5","4","6","4","5","4","3","3","3","2","4","6","3","5","5","4","3","3","5","4","4","3","2","5","3","4","781945721594318849","钟","595","Male","[""坏他"",""好我"",""好他"",""坏我""]","[""弱他"",""强我"",""强他"",""弱我""]","","","","","","","","no","","","","","","","","","SRET","EW_formal","","key","f","8.340664974619164","853.3333333333334","529.3333333333334","自己","守时","Positive","morality","","","","","","","","","","",""
"496","","j","psychophysics","41","173175","0.0-7.0-3.0-0.27","5","4","5","3","2","4","3","4","4","3","4","1","-1","0","1","-1","0","1","0","4","4","4","3","4","3","4","3","4","3","6","7","6","6","5","7","7","6","7","4","5","5","4","6","3","5","5","5","4","1","3","3","5","4","5","4","6","4","5","4","3","3","3","2","4","6","3","5","5","4","3","3","5","4","4","3","2","5","3","4","781945721594318849","钟","595","Male","[""坏他"",""好我"",""好他"",""坏我""]","[""弱他"",""强我"",""强他"",""弱我""]","","","","","","","","yes","","","","","","","","","SRET","EW_formal","","key","j","8.34534269662916","853.3333333333334","529.3333333333334","自己","博学","Positive","ability","","","","","","","","","","",""
"465","","j","psychophysics","42","174643","0.0-7.0-3.0-0.28","5","4","5","3","2","4","3","4","4","3","4","1","-1","0","1","-1","0","1","0","4","4","4","3","4","3","4","3","4","3","6","7","6","6","5","7","7","6","7","4","5","5","4","6","3","5","5","5","4","1","3","3","5","4","5","4","6","4","5","4","3","3","3","2","4","6","3","5","5","4","3","3","5","4","4","3","2","5","3","4","781945721594318849","钟","595","Male","[""坏他"",""好我"",""好他"",""坏我""]","[""弱他"",""强我"",""强他"",""弱我""]","","","","","","","","yes","","","","","","","","","SRET","EW_formal","","key","j","8.345308571428593","853.3333333333334","529.3333333333334","自己","能干","Positive","ability","","","","","","","","","","",""
"550","","j","psychophysics","43","176194","0.0-7.0-3.0-0.29","5","4","5","3","2","4","3","4","4","3","4","1","-1","0","1","-1","0","1","0","4","4","4","3","4","3","4","3","4","3","6","7","6","6","5","7","7","6","7","4","5","5","4","6","3","5","5","5","4","1","3","3","5","4","5","4","6","4","5","4","3","3","3","2","4","6","3","5","5","4","3","3","5","4","4","3","2","5","3","4","781945721594318849","钟","595","Male","[""坏他"",""好我"",""好他"",""坏我""]","[""弱他"",""强我"",""强他"",""弱我""]","","","","","","","","yes","","","","","","","","","SRET","EW_formal","","key","j","8.339118918918885","853.3333333333334","529.3333333333334","朋友","慷慨","Positive","morality","","","","","","","","","","",""
"407","","j","psychophysics","44","177603","0.0-7.0-3.0-0.30","5","4","5","3","2","4","3","4","4","3","4","1","-1","0","1","-1","0","1","0","4","4","4","3","4","3","4","3","4","3","6","7","6","6","5","7","7","6","7","4","5","5","4","6","3","5","5","5","4","1","3","3","5","4","5","4","6","4","5","4","3","3","3","2","4","6","3","5","5","4","3","3","5","4","4","3","2","5","3","4","781945721594318849","钟","595","Male","[""坏他"",""好我"",""好他"",""坏我""]","[""弱他"",""强我"",""强他"",""弱我""]","","","","","","","","yes","","","","","","","","","SRET","EW_formal","","key","j","8.33879761904765","853.3333333333334","529.3333333333334","自己","诚信","Positive","morality","","","","","","","","","","",""
"528","","f","psychophysics","45","179133","0.0-7.0-3.0-0.31","5","4","5","3","2","4","3","4","4","3","4","1","-1","0","1","-1","0","1","0","4","4","4","3","4","3","4","3","4","3","6","7","6","6","5","7","7","6","7","4","5","5","4","6","3","5","5","5","4","1","3","3","5","4","5","4","6","4","5","4","3","3","3","2","4","6","3","5","5","4","3","3","5","4","4","3","2","5","3","4","781945721594318849","钟","595","Male","[""坏他"",""好我"",""好他"",""坏我""]","[""弱他"",""强我"",""强他"",""弱我""]","","","","","","","","no","","","","","","","","","SRET","EW_formal","","key","f","8.340730769230804","853.3333333333334","529.3333333333334","自己","笨蛋","Negative","ability","","","","","","","","","","",""
"472","","f","psychophysics","46","180607","0.0-7.0-3.0-0.32","5","4","5","3","2","4","3","4","4","3","4","1","-1","0","1","-1","0","1","0","4","4","4","3","4","3","4","3","4","3","6","7","6","6","5","7","7","6","7","4","5","5","4","6","3","5","5","5","4","1","3","3","5","4","5","4","6","4","5","4","3","3","3","2","4","6","3","5","5","4","3","3","5","4","4","3","2","5","3","4","781945721594318849","钟","595","Male","[""坏他"",""好我"",""好他"",""坏我""]","[""弱他"",""强我"",""强他"",""弱我""]","","","","","","","","no","","","","","","","","","SRET","EW_formal","","key","f","8.341784090909146","853.3333333333334","529.3333333333334","自己","淫乱","Negative","morality","","","","","","","","","","",""
"485","","f","psychophysics","47","182094","0.0-7.0-3.0-0.33","5","4","5","3","2","4","3","4","4","3","4","1","-1","0","1","-1","0","1","0","4","4","4","3","4","3","4","3","4","3","6","7","6","6","5","7","7","6","7","4","5","5","4","6","3","5","5","5","4","1","3","3","5","4","5","4","6","4","5","4","3","3","3","2","4","6","3","5","5","4","3","3","5","4","4","3","2","5","3","4","781945721594318849","钟","595","Male","[""坏他"",""好我"",""好他"",""坏我""]","[""弱他"",""强我"",""强他"",""弱我""]","","","","","","","","no","","","","","","","","","SRET","EW_formal","","key","f","8.34563276836156","853.3333333333334","529.3333333333334","朋友","黑心","Negative","morality","","","","","","","","","","",""
"453","","f","psychophysics","48","183549","0.0-7.0-3.0-0.34","5","4","5","3","2","4","3","4","4","3","4","1","-1","0","1","-1","0","1","0","4","4","4","3","4","3","4","3","4","3","6","7","6","6","5","7","7","6","7","4","5","5","4","6","3","5","5","5","4","1","3","3","5","4","5","4","6","4","5","4","3","3","3","2","4","6","3","5","5","4","3","3","5","4","4","3","2","5","3","4","781945721594318849","钟","595","Male","[""坏他"",""好我"",""好他"",""坏我""]","[""弱他"",""强我"",""强他"",""弱我""]","","","","","","","","no","","","","","","","","","SRET","EW_formal","","key","f","8.338109826589523","853.3333333333334","529.3333333333334","自己","思辨","Positive","ability","","","","","","","","","","",""
"428","","j","psychophysics","49","184978","0.0-7.0-3.0-0.35","5","4","5","3","2","4","3","4","4","3","4","1","-1","0","1","-1","0","1","0","4","4","4","3","4","3","4","3","4","3","6","7","6","6","5","7","7","6","7","4","5","5","4","6","3","5","5","5","4","1","3","3","5","4","5","4","6","4","5","4","3","3","3","2","4","6","3","5","5","4","3","3","5","4","4","3","2","5","3","4","781945721594318849","钟","595","Male","[""坏他"",""好我"",""好他"",""坏我""]","[""弱他"",""强我"",""强他"",""弱我""]","","","","","","","","yes","","","","","","","","","SRET","EW_formal","","key","j","8.345199999999878","853.3333333333334","529.3333333333334","朋友","努力","Positive","ability","","","","","","","","","","",""
"513","","f","psychophysics","50","186493","0.0-7.0-3.0-0.36","5","4","5","3","2","4","3","4","4","3","4","1","-1","0","1","-1","0","1","0","4","4","4","3","4","3","4","3","4","3","6","7","6","6","5","7","7","6","7","4","5","5","4","6","3","5","5","5","4","1","3","3","5","4","5","4","6","4","5","4","3","3","3","2","4","6","3","5","5","4","3","3","5","4","4","3","2","5","3","4","781945721594318849","钟","595","Male","[""坏他"",""好我"",""好他"",""坏我""]","[""弱他"",""强我"",""强他"",""弱我""]","","","","","","","","no","","","","","","","","","SRET","EW_formal","","key","f","8.345646408839809","853.3333333333334","529.3333333333334","朋友","拖拉","Negative","ability","","","","","","","","","","",""
"510","","f","psychophysics","51","188005","0.0-7.0-3.0-0.37","5","4","5","3","2","4","3","4","4","3","4","1","-1","0","1","-1","0","1","0","4","4","4","3","4","3","4","3","4","3","6","7","6","6","5","7","7","6","7","4","5","5","4","6","3","5","5","5","4","1","3","3","5","4","5","4","6","4","5","4","3","3","3","2","4","6","3","5","5","4","3","3","5","4","4","3","2","5","3","4","781945721594318849","钟","595","Male","[""坏他"",""好我"",""好他"",""坏我""]","[""弱他"",""强我"",""强他"",""弱我""]","","","","","","","","no","","","","","","","","","SRET","EW_formal","","key","f","8.340783333333254","853.3333333333334","529.3333333333334","自己","狡诈","Negative","morality","","","","","","","","","","",""
"402","","j","psychophysics","52","189408","0.0-7.0-3.0-0.38","5","4","5","3","2","4","3","4","4","3","4","1","-1","0","1","-1","0","1","0","4","4","4","3","4","3","4","3","4","3","6","7","6","6","5","7","7","6","7","4","5","5","4","6","3","5","5","5","4","1","3","3","5","4","5","4","6","4","5","4","3","3","3","2","4","6","3","5","5","4","3","3","5","4","4","3","2","5","3","4","781945721594318849","钟","595","Male","[""坏他"",""好我"",""好他"",""坏我""]","[""弱他"",""强我"",""强他"",""弱我""]","","","","","","","","yes","","","","","","","","","SRET","EW_formal","","key","j","8.345574850299462","853.3333333333334","529.3333333333334","自己","变通","Positive","ability","","","","","","","","","","",""
"509","","j","psychophysics","53","190919","0.0-7.0-3.0-0.39","5","4","5","3","2","4","3","4","4","3","4","1","-1","0","1","-1","0","1","0","4","4","4","3","4","3","4","3","4","3","6","7","6","6","5","7","7","6","7","4","5","5","4","6","3","5","5","5","4","1","3","3","5","4","5","4","6","4","5","4","3","3","3","2","4","6","3","5","5","4","3","3","5","4","4","3","2","5","3","4","781945721594318849","钟","595","Male","[""坏他"",""好我"",""好他"",""坏我""]","[""弱他"",""强我"",""强他"",""弱我""]","","","","","","","","yes","","","","","","","","","SRET","EW_formal","","key","j","8.34645555555552","853.3333333333334","529.3333333333334","朋友","义气","Positive","morality","","","","","","","","","","",""
"696","","f","psychophysics","54","192616","0.0-7.0-3.0-0.40","5","4","5","3","2","4","3","4","4","3","4","1","-1","0","1","-1","0","1","0","4","4","4","3","4","3","4","3","4","3","6","7","6","6","5","7","7","6","7","4","5","5","4","6","3","5","5","5","4","1","3","3","5","4","5","4","6","4","5","4","3","3","3","2","4","6","3","5","5","4","3","3","5","4","4","3","2","5","3","4","781945721594318849","钟","595","Male","[""坏他"",""好我"",""好他"",""坏我""]","[""弱他"",""强我"",""强他"",""弱我""]","","","","","","","","no","","","","","","","","","SRET","EW_formal","","key","f","8.345921182266054","853.3333333333334","529.3333333333334","自己","龌龊","Negative","morality","","","","","","","","","","",""
"530","","j","psychophysics","55","194148","0.0-7.0-3.0-0.41","5","4","5","3","2","4","3","4","4","3","4","1","-1","0","1","-1","0","1","0","4","4","4","3","4","3","4","3","4","3","6","7","6","6","5","7","7","6","7","4","5","5","4","6","3","5","5","5","4","1","3","3","5","4","5","4","6","4","5","4","3","3","3","2","4","6","3","5","5","4","3","3","5","4","4","3","2","5","3","4","781945721594318849","钟","595","Male","[""坏他"",""好我"",""好他"",""坏我""]","[""弱他"",""强我"",""强他"",""弱我""]","","","","","","","","yes","","","","","","","","","SRET","EW_formal","","key","j","8.344148351648403","853.3333333333334","529.3333333333334","自己","毅力","Positive","ability","","","","","","","","","","",""
"412","","j","psychophysics","56","195562","0.0-7.0-3.0-0.42","5","4","5","3","2","4","3","4","4","3","4","1","-1","0","1","-1","0","1","0","4","4","4","3","4","3","4","3","4","3","6","7","6","6","5","7","7","6","7","4","5","5","4","6","3","5","5","5","4","1","3","3","5","4","5","4","6","4","5","4","3","3","3","2","4","6","3","5","5","4","3","3","5","4","4","3","2","5","3","4","781945721594318849","钟","595","Male","[""坏他"",""好我"",""好他"",""坏我""]","[""弱他"",""强我"",""强他"",""弱我""]","","","","","","","","yes","","","","","","","","","SRET","EW_formal","","key","j","8.345779761904677","853.3333333333334","529.3333333333334","自己","廉明","Positive","morality","","","","","","","","","","",""
"403","","j","psychophysics","57","196968","0.0-7.0-3.0-0.43","5","4","5","3","2","4","3","4","4","3","4","1","-1","0","1","-1","0","1","0","4","4","4","3","4","3","4","3","4","3","6","7","6","6","5","7","7","6","7","4","5","5","4","6","3","5","5","5","4","1","3","3","5","4","5","4","6","4","5","4","3","3","3","2","4","6","3","5","5","4","3","3","5","4","4","3","2","5","3","4","781945721594318849","钟","595","Male","[""坏他"",""好我"",""好他"",""坏我""]","[""弱他"",""强我"",""强他"",""弱我""]","","","","","","","","yes","","","","","","","","","SRET","EW_formal","","key","j","8.345898809523836","853.3333333333334","529.3333333333334","朋友","势利","Negative","morality","","","","","","","","","","",""
"522","","f","psychophysics","58","198492","0.0-7.0-3.0-0.44","5","4","5","3","2","4","3","4","4","3","4","1","-1","0","1","-1","0","1","0","4","4","4","3","4","3","4","3","4","3","6","7","6","6","5","7","7","6","7","4","5","5","4","6","3","5","5","5","4","1","3","3","5","4","5","4","6","4","5","4","3","3","3","2","4","6","3","5","5","4","3","3","5","4","4","3","2","5","3","4","781945721594318849","钟","595","Male","[""坏他"",""好我"",""好他"",""坏我""]","[""弱他"",""强我"",""强他"",""弱我""]","","","","","","","","no","","","","","","","","","SRET","EW_formal","","key","f","8.345472527472468","853.3333333333334","529.3333333333334","自己","昏庸","Negative","ability","","","","","","","","","","",""
"560","","j","psychophysics","59","200054","0.0-7.0-3.0-0.45","5","4","5","3","2","4","3","4","4","3","4","1","-1","0","1","-1","0","1","0","4","4","4","3","4","3","4","3","4","3","6","7","6","6","5","7","7","6","7","4","5","5","4","6","3","5","5","5","4","1","3","3","5","4","5","4","6","4","5","4","3","3","3","2","4","6","3","5","5","4","3","3","5","4","4","3","2","5","3","4","781945721594318849","钟","595","Male","[""坏他"",""好我"",""好他"",""坏我""]","[""弱他"",""强我"",""强他"",""弱我""]","","","","","","","","yes","","","","","","","","","SRET","EW_formal","","key","j","8.339575268817166","853.3333333333334","529.3333333333334","自己","忠勇","Positive","morality","","","","","","","","","","",""
"507","","f","psychophysics","60","201562","0.0-7.0-3.0-0.46","5","4","5","3","2","4","3","4","4","3","4","1","-1","0","1","-1","0","1","0","4","4","4","3","4","3","4","3","4","3","6","7","6","6","5","7","7","6","7","4","5","5","4","6","3","5","5","5","4","1","3","3","5","4","5","4","6","4","5","4","3","3","3","2","4","6","3","5","5","4","3","3","5","4","4","3","2","5","3","4","781945721594318849","钟","595","Male","[""坏他"",""好我"",""好他"",""坏我""]","[""弱他"",""强我"",""强他"",""弱我""]","","","","","","","","no","","","","","","","","","SRET","EW_formal","","key","f","8.345960893854727","853.3333333333334","529.3333333333334","自己","差生","Negative","ability","","","","","","","","","","",""
"501","","f","psychophysics","61","203064","0.0-7.0-3.0-0.47","5","4","5","3","2","4","3","4","4","3","4","1","-1","0","1","-1","0","1","0","4","4","4","3","4","3","4","3","4","3","6","7","6","6","5","7","7","6","7","4","5","5","4","6","3","5","5","5","4","1","3","3","5","4","5","4","6","4","5","4","3","3","3","2","4","6","3","5","5","4","3","3","5","4","4","3","2","5","3","4","781945721594318849","钟","595","Male","[""坏他"",""好我"",""好他"",""坏我""]","[""弱他"",""强我"",""强他"",""弱我""]","","","","","","","","no","","","","","","","","","SRET","EW_formal","","key","f","8.345815642458009","853.3333333333334","529.3333333333334","朋友","果断","Positive","ability","","","","","","","","","","",""
"596","","f","psychophysics","62","204664","0.0-7.0-3.0-0.48","5","4","5","3","2","4","3","4","4","3","4","1","-1","0","1","-1","0","1","0","4","4","4","3","4","3","4","3","4","3","6","7","6","6","5","7","7","6","7","4","5","5","4","6","3","5","5","5","4","1","3","3","5","4","5","4","6","4","5","4","3","3","3","2","4","6","3","5","5","4","3","3","5","4","4","3","2","5","3","4","781945721594318849","钟","595","Male","[""坏他"",""好我"",""好他"",""坏我""]","[""弱他"",""强我"",""强他"",""弱我""]","","","","","","","","no","","","","","","","","","SRET","EW_formal","","key","f","8.34535602094235","853.3333333333334","529.3333333333334","自己","盲目","Negative","ability","","","","","","","","","","",""
"582","","j","psychophysics","63","206248","0.0-7.0-3.0-0.49","5","4","5","3","2","4","3","4","4","3","4","1","-1","0","1","-1","0","1","0","4","4","4","3","4","3","4","3","4","3","6","7","6","6","5","7","7","6","7","4","5","5","4","6","3","5","5","5","4","1","3","3","5","4","5","4","6","4","5","4","3","3","3","2","4","6","3","5","5","4","3","3","5","4","4","3","2","5","3","4","781945721594318849","钟","595","Male","[""坏他"",""好我"",""好他"",""坏我""]","[""弱他"",""强我"",""强他"",""弱我""]","","","","","","","","yes","","","","","","","","","SRET","EW_formal","","key","j","8.342666666666643","853.3333333333334","529.3333333333334","自己","勤恳","Positive","morality","","","","","","","","","","",""
"716","","j","psychophysics","64","207966","0.0-7.0-3.0-0.50","5","4","5","3","2","4","3","4","4","3","4","1","-1","0","1","-1","0","1","0","4","4","4","3","4","3","4","3","4","3","6","7","6","6","5","7","7","6","7","4","5","5","4","6","3","5","5","5","4","1","3","3","5","4","5","4","6","4","5","4","3","3","3","2","4","6","3","5","5","4","3","3","5","4","4","3","2","5","3","4","781945721594318849","钟","595","Male","[""坏他"",""好我"",""好他"",""坏我""]","[""弱他"",""强我"",""强他"",""弱我""]","","","","","","","","yes","","","","","","","","","SRET","EW_formal","","key","j","8.387093137254922","853.3333333333334","529.3333333333334","朋友","忠义","Positive","morality","","","","","","","","","","",""
"521","","f","psychophysics","65","209488","0.0-7.0-3.0-0.51","5","4","5","3","2","4","3","4","4","3","4","1","-1","0","1","-1","0","1","0","4","4","4","3","4","3","4","3","4","3","6","7","6","6","5","7","7","6","7","4","5","5","4","6","3","5","5","5","4","1","3","3","5","4","5","4","6","4","5","4","3","3","3","2","4","6","3","5","5","4","3","3","5","4","4","3","2","5","3","4","781945721594318849","钟","595","Male","[""坏他"",""好我"",""好他"",""坏我""]","[""弱他"",""强我"",""强他"",""弱我""]","","","","","","","","no","","","","","","","","","SRET","EW_formal","","key","f","8.340872928176818","853.3333333333334","529.3333333333334","自己","不良","Negative","morality","","","","","","","","","","",""
"476","","f","psychophysics","66","210966","0.0-7.0-3.0-0.52","5","4","5","3","2","4","3","4","4","3","4","1","-1","0","1","-1","0","1","0","4","4","4","3","4","3","4","3","4","3","6","7","6","6","5","7","7","6","7","4","5","5","4","6","3","5","5","5","4","1","3","3","5","4","5","4","6","4","5","4","3","3","3","2","4","6","3","5","5","4","3","3","5","4","4","3","2","5","3","4","781945721594318849","钟","595","Male","[""坏他"",""好我"",""好他"",""坏我""]","[""弱他"",""强我"",""强他"",""弱我""]","","","","","","","","no","","","","","","","","","SRET","EW_formal","","key","f","8.350721590909002","853.3333333333334","529.3333333333334","自己","蛇蝎","Negative","morality","","","","","","","","","","",""
"493","","f","psychophysics","67","212461","0.0-7.0-3.0-0.53","5","4","5","3","2","4","3","4","4","3","4","1","-1","0","1","-1","0","1","0","4","4","4","3","4","3","4","3","4","3","6","7","6","6","5","7","7","6","7","4","5","5","4","6","3","5","5","5","4","1","3","3","5","4","5","4","6","4","5","4","3","3","3","2","4","6","3","5","5","4","3","3","5","4","4","3","2","5","3","4","781945721594318849","钟","595","Male","[""坏他"",""好我"",""好他"",""坏我""]","[""弱他"",""强我"",""强他"",""弱我""]","","","","","","","","no","","","","","","","","","SRET","EW_formal","","key","f","8.340410112359514","853.3333333333334","529.3333333333334","朋友","贪腐","Negative","morality","","","","","","","","","","",""
"523","","j","psychophysics","68","213985","0.0-7.0-3.0-0.54","5","4","5","3","2","4","3","4","4","3","4","1","-1","0","1","-1","0","1","0","4","4","4","3","4","3","4","3","4","3","6","7","6","6","5","7","7","6","7","4","5","5","4","6","3","5","5","5","4","1","3","3","5","4","5","4","6","4","5","4","3","3","3","2","4","6","3","5","5","4","3","3","5","4","4","3","2","5","3","4","781945721594318849","钟","595","Male","[""坏他"",""好我"",""好他"",""坏我""]","[""弱他"",""强我"",""强他"",""弱我""]","","","","","","","","yes","","","","","","","","","SRET","EW_formal","","key","j","8.353461538461469","853.3333333333334","529.3333333333334","朋友","专注","Positive","ability","","","","","","","","","","",""
"541","","f","psychophysics","69","215528","0.0-7.0-3.0-0.55","5","4","5","3","2","4","3","4","4","3","4","1","-1","0","1","-1","0","1","0","4","4","4","3","4","3","4","3","4","3","6","7","6","6","5","7","7","6","7","4","5","5","4","6","3","5","5","5","4","1","3","3","5","4","5","4","6","4","5","4","3","3","3","2","4","6","3","5","5","4","3","3","5","4","4","3","2","5","3","4","781945721594318849","钟","595","Male","[""坏他"",""好我"",""好他"",""坏我""]","[""弱他"",""强我"",""强他"",""弱我""]","","","","","","","","no","","","","","","","","","SRET","EW_formal","","key","f","8.363229508196827","853.3333333333334","529.3333333333334","朋友","无为","Negative","ability","","","","","","","","","","",""
"552","","f","psychophysics","70","217082","0.0-7.0-3.0-0.56","5","4","5","3","2","4","3","4","4","3","4","1","-1","0","1","-1","0","1","0","4","4","4","3","4","3","4","3","4","3","6","7","6","6","5","7","7","6","7","4","5","5","4","6","3","5","5","5","4","1","3","3","5","4","5","4","6","4","5","4","3","3","3","2","4","6","3","5","5","4","3","3","5","4","4","3","2","5","3","4","781945721594318849","钟","595","Male","[""坏他"",""好我"",""好他"",""坏我""]","[""弱他"",""强我"",""强他"",""弱我""]","","","","","","","","no","","","","","","","","","SRET","EW_formal","","key","f","8.338886486486425","853.3333333333334","529.3333333333334","朋友","背叛","Negative","morality","","","","","","","","","","",""
"496","","j","psychophysics","71","218579","0.0-7.0-3.0-0.57","5","4","5","3","2","4","3","4","4","3","4","1","-1","0","1","-1","0","1","0","4","4","4","3","4","3","4","3","4","3","6","7","6","6","5","7","7","6","7","4","5","5","4","6","3","5","5","5","4","1","3","3","5","4","5","4","6","4","5","4","3","3","3","2","4","6","3","5","5","4","3","3","5","4","4","3","2","5","3","4","781945721594318849","钟","595","Male","[""坏他"",""好我"",""好他"",""坏我""]","[""弱他"",""强我"",""强他"",""弱我""]","","","","","","","","yes","","","","","","","","","SRET","EW_formal","","key","j","8.346078212290525","853.3333333333334","529.3333333333334","朋友","奉献","Positive","morality","","","","","","","","","","",""
"605","","f","psychophysics","72","220186","0.0-7.0-3.0-0.58","5","4","5","3","2","4","3","4","4","3","4","1","-1","0","1","-1","0","1","0","4","4","4","3","4","3","4","3","4","3","6","7","6","6","5","7","7","6","7","4","5","5","4","6","3","5","5","5","4","1","3","3","5","4","5","4","6","4","5","4","3","3","3","2","4","6","3","5","5","4","3","3","5","4","4","3","2","5","3","4","781945721594318849","钟","595","Male","[""坏他"",""好我"",""好他"",""坏我""]","[""弱他"",""强我"",""强他"",""弱我""]","","","","","","","","no","","","","","","","","","SRET","EW_formal","","key","f","8.34470157068057","853.3333333333334","529.3333333333334","朋友","逞能","Negative","ability","","","","","","","","","","",""
"496","","j","psychophysics","73","221683","0.0-7.0-3.0-0.59","5","4","5","3","2","4","3","4","4","3","4","1","-1","0","1","-1","0","1","0","4","4","4","3","4","3","4","3","4","3","6","7","6","6","5","7","7","6","7","4","5","5","4","6","3","5","5","5","4","1","3","3","5","4","5","4","6","4","5","4","3","3","3","2","4","6","3","5","5","4","3","3","5","4","4","3","2","5","3","4","781945721594318849","钟","595","Male","[""坏他"",""好我"",""好他"",""坏我""]","[""弱他"",""强我"",""强他"",""弱我""]","","","","","","","","yes","","","","","","","","","SRET","EW_formal","","key","j","8.345966480447007","853.3333333333334","529.3333333333334","朋友","懂行","Positive","ability","","","","","","","","","","",""
"527","","j","psychophysics","74","223211","0.0-7.0-3.0-0.60","5","4","5","3","2","4","3","4","4","3","4","1","-1","0","1","-1","0","1","0","4","4","4","3","4","3","4","3","4","3","6","7","6","6","5","7","7","6","7","4","5","5","4","6","3","5","5","5","4","1","3","3","5","4","5","4","6","4","5","4","3","3","3","2","4","6","3","5","5","4","3","3","5","4","4","3","2","5","3","4","781945721594318849","钟","595","Male","[""坏他"",""好我"",""好他"",""坏我""]","[""弱他"",""强我"",""强他"",""弱我""]","","","","","","","","yes","","","","","","","","","SRET","EW_formal","","key","j","8.345390109890134","853.3333333333334","529.3333333333334","自己","稳健","Positive","ability","","","","","","","","","","",""
"508","","j","psychophysics","75","224721","0.0-7.0-3.0-0.61","5","4","5","3","2","4","3","4","4","3","4","1","-1","0","1","-1","0","1","0","4","4","4","3","4","3","4","3","4","3","6","7","6","6","5","7","7","6","7","4","5","5","4","6","3","5","5","5","4","1","3","3","5","4","5","4","6","4","5","4","3","3","3","2","4","6","3","5","5","4","3","3","5","4","4","3","2","5","3","4","781945721594318849","钟","595","Male","[""坏他"",""好我"",""好他"",""坏我""]","[""弱他"",""强我"",""强他"",""弱我""]","","","","","","","","yes","","","","","","","","","SRET","EW_formal","","key","j","8.345161111111196","853.3333333333334","529.3333333333334","自己","守法","Positive","morality","","","","","","","","","","",""
"460","","f","psychophysics","76","226182","0.0-7.0-3.0-0.62","5","4","5","3","2","4","3","4","4","3","4","1","-1","0","1","-1","0","1","0","4","4","4","3","4","3","4","3","4","3","6","7","6","6","5","7","7","6","7","4","5","5","4","6","3","5","5","5","4","1","3","3","5","4","5","4","6","4","5","4","3","3","3","2","4","6","3","5","5","4","3","3","5","4","4","3","2","5","3","4","781945721594318849","钟","595","Male","[""坏他"",""好我"",""好他"",""坏我""]","[""弱他"",""强我"",""强他"",""弱我""]","","","","","","","","no","","","","","","","","","SRET","EW_formal","","key","f","8.345655172413794","853.3333333333334","529.3333333333334","自己","罪恶","Negative","morality","","","","","","","","","","",""
"532","","f","psychophysics","77","227716","0.0-7.0-3.0-0.63","5","4","5","3","2","4","3","4","4","3","4","1","-1","0","1","-1","0","1","0","4","4","4","3","4","3","4","3","4","3","6","7","6","6","5","7","7","6","7","4","5","5","4","6","3","5","5","5","4","1","3","3","5","4","5","4","6","4","5","4","3","3","3","2","4","6","3","5","5","4","3","3","5","4","4","3","2","5","3","4","781945721594318849","钟","595","Male","[""坏他"",""好我"",""好他"",""坏我""]","[""弱他"",""强我"",""强他"",""弱我""]","","","","","","","","no","","","","","","","","","SRET","EW_formal","","key","f","8.342791208791244","853.3333333333334","529.3333333333334","朋友","虚伪","Negative","morality","","","","","","","","","","",""
"554","","f","psychophysics","78","229271","0.0-7.0-3.0-0.64","5","4","5","3","2","4","3","4","4","3","4","1","-1","0","1","-1","0","1","0","4","4","4","3","4","3","4","3","4","3","6","7","6","6","5","7","7","6","7","4","5","5","4","6","3","5","5","5","4","1","3","3","5","4","5","4","6","4","5","4","3","3","3","2","4","6","3","5","5","4","3","3","5","4","4","3","2","5","3","4","781945721594318849","钟","595","Male","[""坏他"",""好我"",""好他"",""坏我""]","[""弱他"",""强我"",""强他"",""弱我""]","","","","","","","","no","","","","","","","","","SRET","EW_formal","","key","f","8.344946236559158","853.3333333333334","529.3333333333334","朋友","无私","Positive","morality","","","","","","","","","","",""
"527","","f","psychophysics","79","230800","0.0-7.0-3.0-0.65","5","4","5","3","2","4","3","4","4","3","4","1","-1","0","1","-1","0","1","0","4","4","4","3","4","3","4","3","4","3","6","7","6","6","5","7","7","6","7","4","5","5","4","6","3","5","5","5","4","1","3","3","5","4","5","4","6","4","5","4","3","3","3","2","4","6","3","5","5","4","3","3","5","4","4","3","2","5","3","4","781945721594318849","钟","595","Male","[""坏他"",""好我"",""好他"",""坏我""]","[""弱他"",""强我"",""强他"",""弱我""]","","","","","","","","no","","","","","","","","","SRET","EW_formal","","key","f","8.339296703296746","853.3333333333334","529.3333333333334","自己","贪污","Negative","morality","","","","","","","","","","",""
"615","","f","psychophysics","80","232417","0.0-7.0-3.0-0.66","5","4","5","3","2","4","3","4","4","3","4","1","-1","0","1","-1","0","1","0","4","4","4","3","4","3","4","3","4","3","6","7","6","6","5","7","7","6","7","4","5","5","4","6","3","5","5","5","4","1","3","3","5","4","5","4","6","4","5","4","3","3","3","2","4","6","3","5","5","4","3","3","5","4","4","3","2","5","3","4","781945721594318849","钟","595","Male","[""坏他"",""好我"",""好他"",""坏我""]","[""弱他"",""强我"",""强他"",""弱我""]","","","","","","","","no","","","","","","","","","SRET","EW_formal","","key","f","8.341056994818768","853.3333333333334","529.3333333333334","朋友","拜金","Negative","morality","","","","","","","","","","",""
"481","","j","psychophysics","81","233899","0.0-7.0-3.0-0.67","5","4","5","3","2","4","3","4","4","3","4","1","-1","0","1","-1","0","1","0","4","4","4","3","4","3","4","3","4","3","6","7","6","6","5","7","7","6","7","4","5","5","4","6","3","5","5","5","4","1","3","3","5","4","5","4","6","4","5","4","3","3","3","2","4","6","3","5","5","4","3","3","5","4","4","3","2","5","3","4","781945721594318849","钟","595","Male","[""坏他"",""好我"",""好他"",""坏我""]","[""弱他"",""强我"",""强他"",""弱我""]","","","","","","","","yes","","","","","","","","","SRET","EW_formal","","key","j","8.34527272727279","853.3333333333334","529.3333333333334","朋友","细心","Positive","ability","","","","","","","","","","",""
"534","","f","psychophysics","82","235435","0.0-7.0-3.0-0.68","5","4","5","3","2","4","3","4","4","3","4","1","-1","0","1","-1","0","1","0","4","4","4","3","4","3","4","3","4","3","6","7","6","6","5","7","7","6","7","4","5","5","4","6","3","5","5","5","4","1","3","3","5","4","5","4","6","4","5","4","3","3","3","2","4","6","3","5","5","4","3","3","5","4","4","3","2","5","3","4","781945721594318849","钟","595","Male","[""坏他"",""好我"",""好他"",""坏我""]","[""弱他"",""强我"",""强他"",""弱我""]","","","","","","","","no","","","","","","","","","SRET","EW_formal","","key","f","8.3461857923498","853.3333333333334","529.3333333333334","自己","毛糙","Negative","ability","","","","","","","","","","",""
"495","","f","psychophysics","83","236933","0.0-7.0-3.0-0.69","5","4","5","3","2","4","3","4","4","3","4","1","-1","0","1","-1","0","1","0","4","4","4","3","4","3","4","3","4","3","6","7","6","6","5","7","7","6","7","4","5","5","4","6","3","5","5","5","4","1","3","3","5","4","5","4","6","4","5","4","3","3","3","2","4","6","3","5","5","4","3","3","5","4","4","3","2","5","3","4","781945721594318849","钟","595","Male","[""坏他"",""好我"",""好他"",""坏我""]","[""弱他"",""强我"",""强他"",""弱我""]","","","","","","","","no","","","","","","","","","SRET","EW_formal","","key","f","8.345597765363094","853.3333333333334","529.3333333333334","自己","恶劣","Negative","morality","","","","","","","","","","",""
"474","","f","psychophysics","84","238408","0.0-7.0-3.0-0.70","5","4","5","3","2","4","3","4","4","3","4","1","-1","0","1","-1","0","1","0","4","4","4","3","4","3","4","3","4","3","6","7","6","6","5","7","7","6","7","4","5","5","4","6","3","5","5","5","4","1","3","3","5","4","5","4","6","4","5","4","3","3","3","2","4","6","3","5","5","4","3","3","5","4","4","3","2","5","3","4","781945721594318849","钟","595","Male","[""坏他"",""好我"",""好他"",""坏我""]","[""弱他"",""强我"",""强他"",""弱我""]","","","","","","","","no","","","","","","","","","SRET","EW_formal","","key","f","8.3454886363637","853.3333333333334","529.3333333333334","朋友","混账","Negative","morality","","","","","","","","","","",""
"358","","j","psychophysics","85","239768","0.0-7.0-3.0-0.71","5","4","5","3","2","4","3","4","4","3","4","1","-1","0","1","-1","0","1","0","4","4","4","3","4","3","4","3","4","3","6","7","6","6","5","7","7","6","7","4","5","5","4","6","3","5","5","5","4","1","3","3","5","4","5","4","6","4","5","4","3","3","3","2","4","6","3","5","5","4","3","3","5","4","4","3","2","5","3","4","781945721594318849","钟","595","Male","[""坏他"",""好我"",""好他"",""坏我""]","[""弱他"",""强我"",""强他"",""弱我""]","","","","","","","","yes","","","","","","","","","SRET","EW_formal","","key","j","8.345351851851943","853.3333333333334","529.3333333333334","自己","文明","Positive","morality","","","","","","","","","","",""
"524","","j","psychophysics","86","241295","0.0-7.0-3.0-0.72","5","4","5","3","2","4","3","4","4","3","4","1","-1","0","1","-1","0","1","0","4","4","4","3","4","3","4","3","4","3","6","7","6","6","5","7","7","6","7","4","5","5","4","6","3","5","5","5","4","1","3","3","5","4","5","4","6","4","5","4","3","3","3","2","4","6","3","5","5","4","3","3","5","4","4","3","2","5","3","4","781945721594318849","钟","595","Male","[""坏他"",""好我"",""好他"",""坏我""]","[""弱他"",""强我"",""强他"",""弱我""]","","","","","","","","yes","","","","","","","","","SRET","EW_formal","","key","j","8.34292265193364","853.3333333333334","529.3333333333334","自己","骁勇","Positive","ability","","","","","","","","","","",""
"430","","j","psychophysics","87","242728","0.0-7.0-3.0-0.73","5","4","5","3","2","4","3","4","4","3","4","1","-1","0","1","-1","0","1","0","4","4","4","3","4","3","4","3","4","3","6","7","6","6","5","7","7","6","7","4","5","5","4","6","3","5","5","5","4","1","3","3","5","4","5","4","6","4","5","4","3","3","3","2","4","6","3","5","5","4","3","3","5","4","4","3","2","5","3","4","781945721594318849","钟","595","Male","[""坏他"",""好我"",""好他"",""坏我""]","[""弱他"",""强我"",""强他"",""弱我""]","","","","","","","","yes","","","","","","","","","SRET","EW_formal","","key","j","8.34510526315776","853.3333333333334","529.3333333333334","自己","有力","Positive","ability","","","","","","","","","","",""
"430","","j","psychophysics","88","244159","0.0-7.0-3.0-0.74","5","4","5","3","2","4","3","4","4","3","4","1","-1","0","1","-1","0","1","0","4","4","4","3","4","3","4","3","4","3","6","7","6","6","5","7","7","6","7","4","5","5","4","6","3","5","5","5","4","1","3","3","5","4","5","4","6","4","5","4","3","3","3","2","4","6","3","5","5","4","3","3","5","4","4","3","2","5","3","4","781945721594318849","钟","595","Male","[""坏他"",""好我"",""好他"",""坏我""]","[""弱他"",""强我"",""强他"",""弱我""]","","","","","","","","yes","","","","","","","","","SRET","EW_formal","","key","j","8.34649707602333","853.3333333333334","529.3333333333334","朋友","自私","Negative","morality","","","","","","","","","","",""
"617","","f","psychophysics","89","245778","0.0-7.0-3.0-0.75","5","4","5","3","2","4","3","4","4","3","4","1","-1","0","1","-1","0","1","0","4","4","4","3","4","3","4","3","4","3","6","7","6","6","5","7","7","6","7","4","5","5","4","6","3","5","5","5","4","1","3","3","5","4","5","4","6","4","5","4","3","3","3","2","4","6","3","5","5","4","3","3","5","4","4","3","2","5","3","4","781945721594318849","钟","595","Male","[""坏他"",""好我"",""好他"",""坏我""]","[""弱他"",""强我"",""强他"",""弱我""]","","","","","","","","no","","","","","","","","","SRET","EW_formal","","key","f","8.34080310880826","853.3333333333334","529.3333333333334","自己","小人","Negative","morality","","","","","","","","","","",""
"568","","f","psychophysics","90","247348","0.0-7.0-3.0-0.76","5","4","5","3","2","4","3","4","4","3","4","1","-1","0","1","-1","0","1","0","4","4","4","3","4","3","4","3","4","3","6","7","6","6","5","7","7","6","7","4","5","5","4","6","3","5","5","5","4","1","3","3","5","4","5","4","6","4","5","4","3","3","3","2","4","6","3","5","5","4","3","3","5","4","4","3","2","5","3","4","781945721594318849","钟","595","Male","[""坏他"",""好我"",""好他"",""坏我""]","[""弱他"",""强我"",""强他"",""弱我""]","","","","","","","","no","","","","","","","","","SRET","EW_formal","","key","f","8.338352941176456","853.3333333333334","529.3333333333334","朋友","草率","Negative","ability","","","","","","","","","","",""
"508","","j","psychophysics","91","248857","0.0-7.0-3.0-0.77","5","4","5","3","2","4","3","4","4","3","4","1","-1","0","1","-1","0","1","0","4","4","4","3","4","3","4","3","4","3","6","7","6","6","5","7","7","6","7","4","5","5","4","6","3","5","5","5","4","1","3","3","5","4","5","4","6","4","5","4","3","3","3","2","4","6","3","5","5","4","3","3","5","4","4","3","2","5","3","4","781945721594318849","钟","595","Male","[""坏他"",""好我"",""好他"",""坏我""]","[""弱他"",""强我"",""强他"",""弱我""]","","","","","","","","yes","","","","","","","","","SRET","EW_formal","","key","j","8.34503888888899","853.3333333333334","529.3333333333334","朋友","孝顺","Positive","morality","","","","","","","","","","",""
"524","","j","psychophysics","92","250382","0.0-7.0-3.0-0.78","5","4","5","3","2","4","3","4","4","3","4","1","-1","0","1","-1","0","1","0","4","4","4","3","4","3","4","3","4","3","6","7","6","6","5","7","7","6","7","4","5","5","4","6","3","5","5","5","4","1","3","3","5","4","5","4","6","4","5","4","3","3","3","2","4","6","3","5","5","4","3","3","5","4","4","3","2","5","3","4","781945721594318849","钟","595","Male","[""坏他"",""好我"",""好他"",""坏我""]","[""弱他"",""强我"",""强他"",""弱我""]","","","","","","","","yes","","","","","","","","","SRET","EW_formal","","key","j","8.340027624309302","853.3333333333334","529.3333333333334","朋友","智慧","Positive","ability","","","","","","","","","","",""
"578","","j","psychophysics","93","251962","0.0-7.0-3.0-0.79","5","4","5","3","2","4","3","4","4","3","4","1","-1","0","1","-1","0","1","0","4","4","4","3","4","3","4","3","4","3","6","7","6","6","5","7","7","6","7","4","5","5","4","6","3","5","5","5","4","1","3","3","5","4","5","4","6","4","5","4","3","3","3","2","4","6","3","5","5","4","3","3","5","4","4","3","2","5","3","4","781945721594318849","钟","595","Male","[""坏他"",""好我"",""好他"",""坏我""]","[""弱他"",""强我"",""强他"",""弱我""]","","","","","","","","yes","","","","","","","","","SRET","EW_formal","","key","j","8.346201058201062","853.3333333333334","529.3333333333334","朋友","慈悲","Positive","morality","","","","","","","","","","",""
"529","","f","psychophysics","94","253493","0.0-7.0-3.0-0.80","5","4","5","3","2","4","3","4","4","3","4","1","-1","0","1","-1","0","1","0","4","4","4","3","4","3","4","3","4","3","6","7","6","6","5","7","7","6","7","4","5","5","4","6","3","5","5","5","4","1","3","3","5","4","5","4","6","4","5","4","3","3","3","2","4","6","3","5","5","4","3","3","5","4","4","3","2","5","3","4","781945721594318849","钟","595","Male","[""坏他"",""好我"",""好他"",""坏我""]","[""弱他"",""强我"",""强他"",""弱我""]","","","","","","","","no","","","","","","","","","SRET","EW_formal","","key","f","8.345510989010998","853.3333333333334","529.3333333333334","自己","浅薄","Negative","ability","","","","","","","","","","",""
"526","","f","psychophysics","95","255022","0.0-7.0-3.0-0.81","5","4","5","3","2","4","3","4","4","3","4","1","-1","0","1","-1","0","1","0","4","4","4","3","4","3","4","3","4","3","6","7","6","6","5","7","7","6","7","4","5","5","4","6","3","5","5","5","4","1","3","3","5","4","5","4","6","4","5","4","3","3","3","2","4","6","3","5","5","4","3","3","5","4","4","3","2","5","3","4","781945721594318849","钟","595","Male","[""坏他"",""好我"",""好他"",""坏我""]","[""弱他"",""强我"",""强他"",""弱我""]","","","","","","","","no","","","","","","","","","SRET","EW_formal","","key","f","8.34574725274713","853.3333333333334","529.3333333333334","自己","马虎","Negative","ability","","","","","","","","","","",""
"471","","f","psychophysics","96","256494","0.0-7.0-3.0-0.82","5","4","5","3","2","4","3","4","4","3","4","1","-1","0","1","-1","0","1","0","4","4","4","3","4","3","4","3","4","3","6","7","6","6","5","7","7","6","7","4","5","5","4","6","3","5","5","5","4","1","3","3","5","4","5","4","6","4","5","4","3","3","3","2","4","6","3","5","5","4","3","3","5","4","4","3","2","5","3","4","781945721594318849","钟","595","Male","[""坏他"",""好我"",""好他"",""坏我""]","[""弱他"",""强我"",""强他"",""弱我""]","","","","","","","","no","","","","","","","","","SRET","EW_formal","","key","f","8.3461079545455","853.3333333333334","529.3333333333334","朋友","愚钝","Negative","ability","","","","","","","","","","",""
"600","","j","psychophysics","97","258096","0.0-7.0-3.0-0.83","5","4","5","3","2","4","3","4","4","3","4","1","-1","0","1","-1","0","1","0","4","4","4","3","4","3","4","3","4","3","6","7","6","6","5","7","7","6","7","4","5","5","4","6","3","5","5","5","4","1","3","3","5","4","5","4","6","4","5","4","3","3","3","2","4","6","3","5","5","4","3","3","5","4","4","3","2","5","3","4","781945721594318849","钟","595","Male","[""坏他"",""好我"",""好他"",""坏我""]","[""弱他"",""强我"",""强他"",""弱我""]","","","","","","","","yes","","","","","","","","","SRET","EW_formal","","key","j","8.345565445026162","853.3333333333334","529.3333333333334","自己","无能","Negative","ability","","","","","","","","","","",""
"497","","f","psychophysics","98","259595","0.0-7.0-3.0-0.84","5","4","5","3","2","4","3","4","4","3","4","1","-1","0","1","-1","0","1","0","4","4","4","3","4","3","4","3","4","3","6","7","6","6","5","7","7","6","7","4","5","5","4","6","3","5","5","5","4","1","3","3","5","4","5","4","6","4","5","4","3","3","3","2","4","6","3","5","5","4","3","3","5","4","4","3","2","5","3","4","781945721594318849","钟","595","Male","[""坏他"",""好我"",""好他"",""坏我""]","[""弱他"",""强我"",""强他"",""弱我""]","","","","","","","","no","","","","","","","","","SRET","EW_formal","","key","f","8.345022471910218","853.3333333333334","529.3333333333334","朋友","低俗","Negative","morality","","","","","","","","","","",""
"690","","f","psychophysics","99","261288","0.0-7.0-3.0-0.85","5","4","5","3","2","4","3","4","4","3","4","1","-1","0","1","-1","0","1","0","4","4","4","3","4","3","4","3","4","3","6","7","6","6","5","7","7","6","7","4","5","5","4","6","3","5","5","5","4","1","3","3","5","4","5","4","6","4","5","4","3","3","3","2","4","6","3","5","5","4","3","3","5","4","4","3","2","5","3","4","781945721594318849","钟","595","Male","[""坏他"",""好我"",""好他"",""坏我""]","[""弱他"",""强我"",""强他"",""弱我""]","","","","","","","","no","","","","","","","","","SRET","EW_formal","","key","f","8.345490099009707","853.3333333333334","529.3333333333334","自己","缓慢","Negative","ability","","","","","","","","","","",""
"501","","f","psychophysics","100","262791","0.0-7.0-3.0-0.86","5","4","5","3","2","4","3","4","4","3","4","1","-1","0","1","-1","0","1","0","4","4","4","3","4","3","4","3","4","3","6","7","6","6","5","7","7","6","7","4","5","5","4","6","3","5","5","5","4","1","3","3","5","4","5","4","6","4","5","4","3","3","3","2","4","6","3","5","5","4","3","3","5","4","4","3","2","5","3","4","781945721594318849","钟","595","Male","[""坏他"",""好我"",""好他"",""坏我""]","[""弱他"",""强我"",""强他"",""弱我""]","","","","","","","","no","","","","","","","","","SRET","EW_formal","","key","f","8.343050279329706","853.3333333333334","529.3333333333334","朋友","素养","Positive","morality","","","","","","","","","","",""
"731","","j","psychophysics","101","264523","0.0-7.0-3.0-0.87","5","4","5","3","2","4","3","4","4","3","4","1","-1","0","1","-1","0","1","0","4","4","4","3","4","3","4","3","4","3","6","7","6","6","5","7","7","6","7","4","5","5","4","6","3","5","5","5","4","1","3","3","5","4","5","4","6","4","5","4","3","3","3","2","4","6","3","5","5","4","3","3","5","4","4","3","2","5","3","4","781945721594318849","钟","595","Male","[""坏他"",""好我"",""好他"",""坏我""]","[""弱他"",""强我"",""强他"",""弱我""]","","","","","","","","yes","","","","","","","","","SRET","EW_formal","","key","j","8.343178743961355","853.3333333333334","529.3333333333334","自己","主见","Positive","ability","","","","","","","","","","",""
"13614","
    <p><div style='color:white;font-size:35px; line-height:20px;'>计算任务</div></p><br>
    <p><div style='color:red;font-size:25px; line-height:20px;'>接下来，您将看到一些四则运算题，<b>请从键盘选择 0-9 进行反应。</b></div></p>
    <p><div style='color:red;font-size:25px; line-height:20px;'>请尽可能快地进行计算，计算的速度和正确率将影响报酬的发放。</div></p>
    <p><div class='footer' style='color:white;font-size:25px; line-height:20px;'>如果对本实验还有不清楚之处，请立即向实验员咨询。</p><p style='color:white;font-size:25px; line-height:20px;'>如果您明白了规则：</p><p style='color:white;font-size:22px; line-height:20px;'>请按 继续 进入练习</p>
    </div>
    ","0","html-button-response","102","278138","0.0-7.0-4.0","5","4","5","3","2","4","3","4","4","3","4","1","-1","0","1","-1","0","1","0","4","4","4","3","4","3","4","3","4","3","6","7","6","6","5","7","7","6","7","4","5","5","4","6","3","5","5","5","4","1","3","3","5","4","5","4","6","4","5","4","3","3","3","2","4","6","3","5","5","4","3","3","5","4","4","3","2","5","3","4","781945721594318849","钟","595","Male","[""坏他"",""好我"",""好他"",""坏我""]","[""弱他"",""强我"",""强他"",""弱我""]","","","","","","","","","","","","","","","","","SRET_math","math_instructions","Fri Jan 19 2024 14:58:05 GMT+0800 (中国标准时间)","","","","","","","","","","","","","","","","","","","",""
"1794","","3","psychophysics","103","279951","0.0-7.0-5.0-0.0","5","4","5","3","2","4","3","4","4","3","4","1","-1","0","1","-1","0","1","0","4","4","4","3","4","3","4","3","4","3","6","7","6","6","5","7","7","6","7","4","5","5","4","6","3","5","5","5","4","1","3","3","5","4","5","4","6","4","5","4","3","3","3","2","4","6","3","5","5","4","3","3","5","4","4","3","2","5","3","4","781945721594318849","钟","595","Male","[""坏他"",""好我"",""好他"",""坏我""]","[""弱他"",""强我"",""强他"",""弱我""]","","","","","","","","3","","","","","","","","","SRET","SRET_math_calculate","","key","3","8.475345794392465","853.3333333333334","529.3333333333334","","","","","3+0= ?","3","1","","","","","","","",""
"1689","","5","psychophysics","104","281644","0.0-7.0-5.0-0.1","5","4","5","3","2","4","3","4","4","3","4","1","-1","0","1","-1","0","1","0","4","4","4","3","4","3","4","3","4","3","6","7","6","6","5","7","7","6","7","4","5","5","4","6","3","5","5","5","4","1","3","3","5","4","5","4","6","4","5","4","3","3","3","2","4","6","3","5","5","4","3","3","5","4","4","3","2","5","3","4","781945721594318849","钟","595","Male","[""坏他"",""好我"",""好他"",""坏我""]","[""弱他"",""强我"",""强他"",""弱我""]","","","","","","","","5","","","","","","","","","SRET","SRET_math_calculate","","key","5","8.361886138613981","853.3333333333334","529.3333333333334","","","","","3+2= ?","5","1","","","","","","","",""
"1971","","4","psychophysics","105","283618","0.0-7.0-5.0-0.2","5","4","5","3","2","4","3","4","4","3","4","1","-1","0","1","-1","0","1","0","4","4","4","3","4","3","4","3","4","3","6","7","6","6","5","7","7","6","7","4","5","5","4","6","3","5","5","5","4","1","3","3","5","4","5","4","6","4","5","4","3","3","3","2","4","6","3","5","5","4","3","3","5","4","4","3","2","5","3","4","781945721594318849","钟","595","Male","[""坏他"",""好我"",""好他"",""坏我""]","[""弱他"",""强我"",""强他"",""弱我""]","","","","","","","","4","","","","","","","","","SRET","SRET_math_calculate","","key","4","8.337468085106353","853.3333333333334","529.3333333333334","","","","","9-5= ?","4","1","","","","","","","",""
"2094","","2","psychophysics","106","285715","0.0-7.0-5.0-0.3","5","4","5","3","2","4","3","4","4","3","4","1","-1","0","1","-1","0","1","0","4","4","4","3","4","3","4","3","4","3","6","7","6","6","5","7","7","6","7","4","5","5","4","6","3","5","5","5","4","1","3","3","5","4","5","4","6","4","5","4","3","3","3","2","4","6","3","5","5","4","3","3","5","4","4","3","2","5","3","4","781945721594318849","钟","595","Male","[""坏他"",""好我"",""好他"",""坏我""]","[""弱他"",""强我"",""强他"",""弱我""]","","","","","","","","2","","","","","","","","","SRET","SRET_math_calculate","","key","2","8.367388000000036","853.3333333333334","529.3333333333334","","","","","8/4= ?","2","1","","","","","","","",""
"1915","","0","psychophysics","107","287632","0.0-7.0-5.0-0.4","5","4","5","3","2","4","3","4","4","3","4","1","-1","0","1","-1","0","1","0","4","4","4","3","4","3","4","3","4","3","6","7","6","6","5","7","7","6","7","4","5","5","4","6","3","5","5","5","4","1","3","3","5","4","5","4","6","4","5","4","3","3","3","2","4","6","3","5","5","4","3","3","5","4","4","3","2","5","3","4","781945721594318849","钟","595","Male","[""坏他"",""好我"",""好他"",""坏我""]","[""弱他"",""强我"",""强他"",""弱我""]","","","","","","","","0","","","","","","","","","SRET","SRET_math_calculate","","key","0","8.377281938326167","853.3333333333334","529.3333333333334","","","","","22-22= ?","0","1","","","","","","","",""
"1791","","5","psychophysics","108","289445","0.0-7.0-5.0-0.5","5","4","5","3","2","4","3","4","4","3","4","1","-1","0","1","-1","0","1","0","4","4","4","3","4","3","4","3","4","3","6","7","6","6","5","7","7","6","7","4","5","5","4","6","3","5","5","5","4","1","3","3","5","4","5","4","6","4","5","4","3","3","3","2","4","6","3","5","5","4","3","3","5","4","4","3","2","5","3","4","781945721594318849","钟","595","Male","[""坏他"",""好我"",""好他"",""坏我""]","[""弱他"",""强我"",""强他"",""弱我""]","","","","","","","","5","","","","","","","","","SRET","SRET_math_calculate","","key","5","8.41855813953484","853.3333333333334","529.3333333333334","","","","","16-11= ?","5","1","","","","","","","",""
"1764","","9","psychophysics","109","291227","0.0-7.0-5.0-0.6","5","4","5","3","2","4","3","4","4","3","4","1","-1","0","1","-1","0","1","0","4","4","4","3","4","3","4","3","4","3","6","7","6","6","5","7","7","6","7","4","5","5","4","6","3","5","5","5","4","1","3","3","5","4","5","4","6","4","5","4","3","3","3","2","4","6","3","5","5","4","3","3","5","4","4","3","2","5","3","4","781945721594318849","钟","595","Male","[""坏他"",""好我"",""好他"",""坏我""]","[""弱他"",""强我"",""强他"",""弱我""]","","","","","","","","9","","","","","","","","","SRET","SRET_math_calculate","","key","9","8.357202830188468","853.3333333333334","529.3333333333334","","","","","5+4= ?","9","1","","","","","","","",""
"2516","","9","psychophysics","110","293746","0.0-7.0-5.0-0.7","5","4","5","3","2","4","3","4","4","3","4","1","-1","0","1","-1","0","1","0","4","4","4","3","4","3","4","3","4","3","6","7","6","6","5","7","7","6","7","4","5","5","4","6","3","5","5","5","4","1","3","3","5","4","5","4","6","4","5","4","3","3","3","2","4","6","3","5","5","4","3","3","5","4","4","3","2","5","3","4","781945721594318849","钟","595","Male","[""坏他"",""好我"",""好他"",""坏我""]","[""弱他"",""强我"",""强他"",""弱我""]","","","","","","","","9","","","","","","","","","SRET","SRET_math_calculate","","key","9","8.35385333333339","853.3333333333334","529.3333333333334","","","","","7+2= ?","9","1","","","","","","","",""
"1854","","6","psychophysics","111","295619","0.0-7.0-5.0-0.8","5","4","5","3","2","4","3","4","4","3","4","1","-1","0","1","-1","0","1","0","4","4","4","3","4","3","4","3","4","3","6","7","6","6","5","7","7","6","7","4","5","5","4","6","3","5","5","5","4","1","3","3","5","4","5","4","6","4","5","4","3","3","3","2","4","6","3","5","5","4","3","3","5","4","4","3","2","5","3","4","781945721594318849","钟","595","Male","[""坏他"",""好我"",""好他"",""坏我""]","[""弱他"",""强我"",""强他"",""弱我""]","","","","","","","","6","","","","","","","","","SRET","SRET_math_calculate","","key","6","8.383623318385695","853.3333333333334","529.3333333333334","","","","","9-3= ?","6","1","","","","","","","",""
"2543","","7","psychophysics","112","298164","0.0-7.0-5.0-0.9","5","4","5","3","2","4","3","4","4","3","4","1","-1","0","1","-1","0","1","0","4","4","4","3","4","3","4","3","4","3","6","7","6","6","5","7","7","6","7","4","5","5","4","6","3","5","5","5","4","1","3","3","5","4","5","4","6","4","5","4","3","3","3","2","4","6","3","5","5","4","3","3","5","4","4","3","2","5","3","4","781945721594318849","钟","595","Male","[""坏他"",""好我"",""好他"",""坏我""]","[""弱他"",""强我"",""强他"",""弱我""]","","","","","","","","7","","","","","","","","","SRET","SRET_math_calculate","","key","7","8.356207920792022","853.3333333333334","529.3333333333334","","","","","49/7 = ?","7","1","","","","","","","",""
"2071","","2","psychophysics","113","300238","0.0-7.0-5.0-0.10","5","4","5","3","2","4","3","4","4","3","4","1","-1","0","1","-1","0","1","0","4","4","4","3","4","3","4","3","4","3","6","7","6","6","5","7","7","6","7","4","5","5","4","6","3","5","5","5","4","1","3","3","5","4","5","4","6","4","5","4","3","3","3","2","4","6","3","5","5","4","3","3","5","4","4","3","2","5","3","4","781945721594318849","钟","595","Male","[""坏他"",""好我"",""好他"",""坏我""]","[""弱他"",""强我"",""强他"",""弱我""]","","","","","","","","2","","","","","","","","","SRET","SRET_math_calculate","","key","2","8.35041935483863","853.3333333333334","529.3333333333334","","","","","19-17= ?","2","1","","","","","","","",""
"1998","","0","psychophysics","114","302238","0.0-7.0-5.0-0.11","5","4","5","3","2","4","3","4","4","3","4","1","-1","0","1","-1","0","1","0","4","4","4","3","4","3","4","3","4","3","6","7","6","6","5","7","7","6","7","4","5","5","4","6","3","5","5","5","4","1","3","3","5","4","5","4","6","4","5","4","3","3","3","2","4","6","3","5","5","4","3","3","5","4","4","3","2","5","3","4","781945721594318849","钟","595","Male","[""坏他"",""好我"",""好他"",""坏我""]","[""弱他"",""强我"",""强他"",""弱我""]","","","","","","","","0","","","","","","","","","SRET","SRET_math_calculate","","key","0","8.342264705882242","853.3333333333334","529.3333333333334","","","","","6*0= ?","0","1","","","","","","","",""
"2117","","2","psychophysics","115","304359","0.0-7.0-5.0-0.12","5","4","5","3","2","4","3","4","4","3","4","1","-1","0","1","-1","0","1","0","4","4","4","3","4","3","4","3","4","3","6","7","6","6","5","7","7","6","7","4","5","5","4","6","3","5","5","5","4","1","3","3","5","4","5","4","6","4","5","4","3","3","3","2","4","6","3","5","5","4","3","3","5","4","4","3","2","5","3","4","781945721594318849","钟","595","Male","[""坏他"",""好我"",""好他"",""坏我""]","[""弱他"",""强我"",""强他"",""弱我""]","","","","","","","","2","","","","","","","","","SRET","SRET_math_calculate","","key","2","8.349581027668053","853.3333333333334","529.3333333333334","","","","","90/45= ?","2","1","","","","","","","",""
"2011","","5","psychophysics","116","306373","0.0-7.0-5.0-0.13","5","4","5","3","2","4","3","4","4","3","4","1","-1","0","1","-1","0","1","0","4","4","4","3","4","3","4","3","4","3","6","7","6","6","5","7","7","6","7","4","5","5","4","6","3","5","5","5","4","1","3","3","5","4","5","4","6","4","5","4","3","3","3","2","4","6","3","5","5","4","3","3","5","4","4","3","2","5","3","4","781945721594318849","钟","595","Male","[""坏他"",""好我"",""好他"",""坏我""]","[""弱他"",""强我"",""强他"",""弱我""]","","","","","","","","5","","","","","","","","","SRET","SRET_math_calculate","","key","5","8.41164016736419","853.3333333333334","529.3333333333334","","","","","5/1= ?","5","1","","","","","","","",""
"1857","","0","psychophysics","117","308233","0.0-7.0-5.0-0.14","5","4","5","3","2","4","3","4","4","3","4","1","-1","0","1","-1","0","1","0","4","4","4","3","4","3","4","3","4","3","6","7","6","6","5","7","7","6","7","4","5","5","4","6","3","5","5","5","4","1","3","3","5","4","5","4","6","4","5","4","3","3","3","2","4","6","3","5","5","4","3","3","5","4","4","3","2","5","3","4","781945721594318849","钟","595","Male","[""坏他"",""好我"",""好他"",""坏我""]","[""弱他"",""强我"",""强他"",""弱我""]","","","","","","","","0","","","","","","","","","SRET","SRET_math_calculate","","key","0","8.341000000000152","853.3333333333334","529.3333333333334","","","","","12-12= ?","0","1","","","","","","","",""
"2494","","4","psychophysics","118","310747","0.0-7.0-5.0-0.15","5","4","5","3","2","4","3","4","4","3","4","1","-1","0","1","-1","0","1","0","4","4","4","3","4","3","4","3","4","3","6","7","6","6","5","7","7","6","7","4","5","5","4","6","3","5","5","5","4","1","3","3","5","4","5","4","6","4","5","4","3","3","3","2","4","6","3","5","5","4","3","3","5","4","4","3","2","5","3","4","781945721594318849","钟","595","Male","[""坏他"",""好我"",""好他"",""坏我""]","[""弱他"",""强我"",""强他"",""弱我""]","","","","","","","","4","","","","","","","","","SRET","SRET_math_calculate","","key","4","8.395916387959918","853.3333333333334","529.3333333333334","","","","","13-9= ?","4","1","","","","","","","",""
"2041","","5","psychophysics","119","312804","0.0-7.0-5.0-0.16","5","4","5","3","2","4","3","4","4","3","4","1","-1","0","1","-1","0","1","0","4","4","4","3","4","3","4","3","4","3","6","7","6","6","5","7","7","6","7","4","5","5","4","6","3","5","5","5","4","1","3","3","5","4","5","4","6","4","5","4","3","3","3","2","4","6","3","5","5","4","3","3","5","4","4","3","2","5","3","4","781945721594318849","钟","595","Male","[""坏他"",""好我"",""好他"",""坏我""]","[""弱他"",""强我"",""强他"",""弱我""]","","","","","","","","5","","","","","","","","","SRET","SRET_math_calculate","","key","5","8.391397540983563","853.3333333333334","529.3333333333334","","","","","8-3= ? ","5","1","","","","","","","",""
"2334","","3","psychophysics","120","315147","0.0-7.0-5.0-0.17","5","4","5","3","2","4","3","4","4","3","4","1","-1","0","1","-1","0","1","0","4","4","4","3","4","3","4","3","4","3","6","7","6","6","5","7","7","6","7","4","5","5","4","6","3","5","5","5","4","1","3","3","5","4","5","4","6","4","5","4","3","3","3","2","4","6","3","5","5","4","3","3","5","4","4","3","2","5","3","4","781945721594318849","钟","595","Male","[""坏他"",""好我"",""好他"",""坏我""]","[""弱他"",""强我"",""强他"",""弱我""]","","","","","","","","3","","","","","","","","","SRET","SRET_math_calculate","","key","3","8.349121863799175","853.3333333333334","529.3333333333334","","","","","6/2= ?","3","1","","","","","","","",""
"3028","","6","psychophysics","121","318190","0.0-7.0-5.0-0.18","5","4","5","3","2","4","3","4","4","3","4","1","-1","0","1","-1","0","1","0","4","4","4","3","4","3","4","3","4","3","6","7","6","6","5","7","7","6","7","4","5","5","4","6","3","5","5","5","4","1","3","3","5","4","5","4","6","4","5","4","3","3","3","2","4","6","3","5","5","4","3","3","5","4","4","3","2","5","3","4","781945721594318849","钟","595","Male","[""坏他"",""好我"",""好他"",""坏我""]","[""弱他"",""强我"",""强他"",""弱我""]","","","","","","","","6","","","","","","","","","SRET","SRET_math_calculate","","key","6","8.391618784530396","853.3333333333334","529.3333333333334","","","","","3*2= ?","6","1","","","","","","","",""
"2439","","7","psychophysics","122","320646","0.0-7.0-5.0-0.19","5","4","5","3","2","4","3","4","4","3","4","1","-1","0","1","-1","0","1","0","4","4","4","3","4","3","4","3","4","3","6","7","6","6","5","7","7","6","7","4","5","5","4","6","3","5","5","5","4","1","3","3","5","4","5","4","6","4","5","4","3","3","3","2","4","6","3","5","5","4","3","3","5","4","4","3","2","5","3","4","781945721594318849","钟","595","Male","[""坏他"",""好我"",""好他"",""坏我""]","[""弱他"",""强我"",""强他"",""弱我""]","","","","","","","","7","","","","","","","","","SRET","SRET_math_calculate","","key","7","8.35551194539262","853.3333333333334","529.3333333333334","","","","","3+4= ?","7","1","","","","","","","",""
"1821","","6","psychophysics","123","322470","0.0-7.0-5.0-0.20","5","4","5","3","2","4","3","4","4","3","4","1","-1","0","1","-1","0","1","0","4","4","4","3","4","3","4","3","4","3","6","7","6","6","5","7","7","6","7","4","5","5","4","6","3","5","5","5","4","1","3","3","5","4","5","4","6","4","5","4","3","3","3","2","4","6","3","5","5","4","3","3","5","4","4","3","2","5","3","4","781945721594318849","钟","595","Male","[""坏他"",""好我"",""好他"",""坏我""]","[""弱他"",""强我"",""强他"",""弱我""]","","","","","","","","6","","","","","","","","","SRET","SRET_math_calculate","","key","6","8.341050691244114","853.3333333333334","529.3333333333334","","","","","1+6= ?","7","0","","","","","","","",""
"2167","","8","psychophysics","124","324658","0.0-7.0-5.0-0.21","5","4","5","3","2","4","3","4","4","3","4","1","-1","0","1","-1","0","1","0","4","4","4","3","4","3","4","3","4","3","6","7","6","6","5","7","7","6","7","4","5","5","4","6","3","5","5","5","4","1","3","3","5","4","5","4","6","4","5","4","3","3","3","2","4","6","3","5","5","4","3","3","5","4","4","3","2","5","3","4","781945721594318849","钟","595","Male","[""坏他"",""好我"",""好他"",""坏我""]","[""弱他"",""强我"",""强他"",""弱我""]","","","","","","","","8","","","","","","","","","SRET","SRET_math_calculate","","key","8","8.382703846153946","853.3333333333334","529.3333333333334","","","","","2*4= ?","8","1","","","","","","","",""
"1899","","5","psychophysics","125","326575","0.0-7.0-5.0-0.22","5","4","5","3","2","4","3","4","4","3","4","1","-1","0","1","-1","0","1","0","4","4","4","3","4","3","4","3","4","3","6","7","6","6","5","7","7","6","7","4","5","5","4","6","3","5","5","5","4","1","3","3","5","4","5","4","6","4","5","4","3","3","3","2","4","6","3","5","5","4","3","3","5","4","4","3","2","5","3","4","781945721594318849","钟","595","Male","[""坏他"",""好我"",""好他"",""坏我""]","[""弱他"",""强我"",""强他"",""弱我""]","","","","","","","","5","","","","","","","","","SRET","SRET_math_calculate","","key","5","8.377934210526291","853.3333333333334","529.3333333333334","","","","","2+3= ?","5","1","","","","","","","",""
"1920","","3","psychophysics","126","328509","0.0-7.0-5.0-0.23","5","4","5","3","2","4","3","4","4","3","4","1","-1","0","1","-1","0","1","0","4","4","4","3","4","3","4","3","4","3","6","7","6","6","5","7","7","6","7","4","5","5","4","6","3","5","5","5","4","1","3","3","5","4","5","4","6","4","5","4","3","3","3","2","4","6","3","5","5","4","3","3","5","4","4","3","2","5","3","4","781945721594318849","钟","595","Male","[""坏他"",""好我"",""好他"",""坏我""]","[""弱他"",""强我"",""强他"",""弱我""]","","","","","","","","3","","","","","","","","","SRET","SRET_math_calculate","","key","3","8.382060869565263","853.3333333333334","529.3333333333334","","","","","8-5= ?","3","1","","","","","","","",""
"2045","","5","psychophysics","127","330556","0.0-7.0-5.0-0.24","5","4","5","3","2","4","3","4","4","3","4","1","-1","0","1","-1","0","1","0","4","4","4","3","4","3","4","3","4","3","6","7","6","6","5","7","7","6","7","4","5","5","4","6","3","5","5","5","4","1","3","3","5","4","5","4","6","4","5","4","3","3","3","2","4","6","3","5","5","4","3","3","5","4","4","3","2","5","3","4","781945721594318849","钟","595","Male","[""坏他"",""好我"",""好他"",""坏我""]","[""弱他"",""强我"",""强他"",""弱我""]","","","","","","","","5","","","","","","","","","SRET","SRET_math_calculate","","key","5","8.345885245901433","853.3333333333334","529.3333333333334","","","","","4+1= ?","5","1","","","","","","","",""
"1837","","0","psychophysics","128","332395","0.0-7.0-5.0-0.25","5","4","5","3","2","4","3","4","4","3","4","1","-1","0","1","-1","0","1","0","4","4","4","3","4","3","4","3","4","3","6","7","6","6","5","7","7","6","7","4","5","5","4","6","3","5","5","5","4","1","3","3","5","4","5","4","6","4","5","4","3","3","3","2","4","6","3","5","5","4","3","3","5","4","4","3","2","5","3","4","781945721594318849","钟","595","Male","[""坏他"",""好我"",""好他"",""坏我""]","[""弱他"",""强我"",""强他"",""弱我""]","","","","","","","","0","","","","","","","","","SRET","SRET_math_calculate","","key","0","8.344822727272614","853.3333333333334","529.3333333333334","","","","","32-32= ?","0","1","","","","","","","",""
"1843","","0","psychophysics","129","334240","0.0-7.0-5.0-0.26","5","4","5","3","2","4","3","4","4","3","4","1","-1","0","1","-1","0","1","0","4","4","4","3","4","3","4","3","4","3","6","7","6","6","5","7","7","6","7","4","5","5","4","6","3","5","5","5","4","1","3","3","5","4","5","4","6","4","5","4","3","3","3","2","4","6","3","5","5","4","3","3","5","4","4","3","2","5","3","4","781945721594318849","钟","595","Male","[""坏他"",""好我"",""好他"",""坏我""]","[""弱他"",""强我"",""强他"",""弱我""]","","","","","","","","0","","","","","","","","","SRET","SRET_math_calculate","","key","0","8.345609090909289","853.3333333333334","529.3333333333334","","","","","9-8= ?","1","0","","","","","","","",""
"97","","1","psychophysics","130","334340","0.0-7.0-5.0-0.27","5","4","5","3","2","4","3","4","4","3","4","1","-1","0","1","-1","0","1","0","4","4","4","3","4","3","4","3","4","3","6","7","6","6","5","7","7","6","7","4","5","5","4","6","3","5","5","5","4","1","3","3","5","4","5","4","6","4","5","4","3","3","3","2","4","6","3","5","5","4","3","3","5","4","4","3","2","5","3","4","781945721594318849","钟","595","Male","[""坏他"",""好我"",""好他"",""坏我""]","[""弱他"",""强我"",""强他"",""弱我""]","","","","","","","","1","","","","","","","","","SRET","SRET_math_calculate","","key","1","8.24663636364064","853.3333333333334","529.3333333333334","","","","","4+4= ?","8","0","","","","","","","",""
"1897","","8","psychophysics","131","336247","0.0-7.0-5.0-0.28","5","4","5","3","2","4","3","4","4","3","4","1","-1","0","1","-1","0","1","0","4","4","4","3","4","3","4","3","4","3","6","7","6","6","5","7","7","6","7","4","5","5","4","6","3","5","5","5","4","1","3","3","5","4","5","4","6","4","5","4","3","3","3","2","4","6","3","5","5","4","3","3","5","4","4","3","2","5","3","4","781945721594318849","钟","595","Male","[""坏他"",""好我"",""好他"",""坏我""]","[""弱他"",""强我"",""强他"",""弱我""]","","","","","","","","8","","","","","","","","","SRET","SRET_math_calculate","","key","8","8.342726872246692","853.3333333333334","529.3333333333334","","","","","3+5= ?","8","1","","","","","","","",""
"2105","","6","psychophysics","132","338366","0.0-7.0-5.0-0.29","5","4","5","3","2","4","3","4","4","3","4","1","-1","0","1","-1","0","1","0","4","4","4","3","4","3","4","3","4","3","6","7","6","6","5","7","7","6","7","4","5","5","4","6","3","5","5","5","4","1","3","3","5","4","5","4","6","4","5","4","3","3","3","2","4","6","3","5","5","4","3","3","5","4","4","3","2","5","3","4","781945721594318849","钟","595","Male","[""坏他"",""好我"",""好他"",""坏我""]","[""弱他"",""强我"",""强他"",""弱我""]","","","","","","","","6","","","","","","","","","SRET","SRET_math_calculate","","key","6","8.34114624505928","853.3333333333334","529.3333333333334","","","","","8+1= ?","9","0","","","","","","","",""
"1999","","1","psychophysics","133","340367","0.0-7.0-5.0-0.30","5","4","5","3","2","4","3","4","4","3","4","1","-1","0","1","-1","0","1","0","4","4","4","3","4","3","4","3","4","3","6","7","6","6","5","7","7","6","7","4","5","5","4","6","3","5","5","5","4","1","3","3","5","4","5","4","6","4","5","4","3","3","3","2","4","6","3","5","5","4","3","3","5","4","4","3","2","5","3","4","781945721594318849","钟","595","Male","[""坏他"",""好我"",""好他"",""坏我""]","[""弱他"",""强我"",""强他"",""弱我""]","","","","","","","","1","","","","","","","","","SRET","SRET_math_calculate","","key","1","8.340585774058674","853.3333333333334","529.3333333333334","","","","","4*1= ?","4","0","","","","","","","",""
"1833","","5","psychophysics","134","342202","0.0-7.0-5.0-0.31","5","4","5","3","2","4","3","4","4","3","4","1","-1","0","1","-1","0","1","0","4","4","4","3","4","3","4","3","4","3","6","7","6","6","5","7","7","6","7","4","5","5","4","6","3","5","5","5","4","1","3","3","5","4","5","4","6","4","5","4","3","3","3","2","4","6","3","5","5","4","3","3","5","4","4","3","2","5","3","4","781945721594318849","钟","595","Male","[""坏他"",""好我"",""好他"",""坏我""]","[""弱他"",""强我"",""强他"",""弱我""]","","","","","","","","5","","","","","","","","","SRET","SRET_math_calculate","","key","5","8.342187214611931","853.3333333333334","529.3333333333334","","","","","8*1= ?","8","0","","","","","","","",""
"2105","","0","psychophysics","135","344322","0.0-7.0-5.0-0.32","5","4","5","3","2","4","3","4","4","3","4","1","-1","0","1","-1","0","1","0","4","4","4","3","4","3","4","3","4","3","6","7","6","6","5","7","7","6","7","4","5","5","4","6","3","5","5","5","4","1","3","3","5","4","5","4","6","4","5","4","3","3","3","2","4","6","3","5","5","4","3","3","5","4","4","3","2","5","3","4","781945721594318849","钟","595","Male","[""坏他"",""好我"",""好他"",""坏我""]","[""弱他"",""强我"",""强他"",""弱我""]","","","","","","","","0","","","","","","","","","SRET","SRET_math_calculate","","key","0","8.340956521739313","853.3333333333334","529.3333333333334","","","","","18/9= ?","2","0","","","","","","","",""
"3140","","6","psychophysics","136","347465","0.0-7.0-5.0-0.33","5","4","5","3","2","4","3","4","4","3","4","1","-1","0","1","-1","0","1","0","4","4","4","3","4","3","4","3","4","3","6","7","6","6","5","7","7","6","7","4","5","5","4","6","3","5","5","5","4","1","3","3","5","4","5","4","6","4","5","4","3","3","3","2","4","6","3","5","5","4","3","3","5","4","4","3","2","5","3","4","781945721594318849","钟","595","Male","[""坏他"",""好我"",""好他"",""坏我""]","[""弱他"",""强我"",""强他"",""弱我""]","","","","","","","","6","","","","","","","","","SRET","SRET_math_calculate","","key","6","8.343949333333255","853.3333333333334","529.3333333333334","","","","","8-2= ?","6","1","","","","","","","",""
"1769","","2","psychophysics","137","349254","0.0-7.0-5.0-0.34","5","4","5","3","2","4","3","4","4","3","4","1","-1","0","1","-1","0","1","0","4","4","4","3","4","3","4","3","4","3","6","7","6","6","5","7","7","6","7","4","5","5","4","6","3","5","5","5","4","1","3","3","5","4","5","4","6","4","5","4","3","3","3","2","4","6","3","5","5","4","3","3","5","4","4","3","2","5","3","4","781945721594318849","钟","595","Male","[""坏他"",""好我"",""好他"",""坏我""]","[""弱他"",""强我"",""强他"",""弱我""]","","","","","","","","2","","","","","","","","","SRET","SRET_math_calculate","","key","2","8.41681603773608","853.3333333333334","529.3333333333334","","","","","1+1= ?","2","1","","","","","","","",""
