"rt","stimulus","response","trial_type","trial_index","time_elapsed","internal_node_id","swb_1","swb_2","swb_3","swb_4","swb_5","LOT_1","LOT_2","LOT_3","LOT_4","LOT_5","LOT_6","IPC_1","IPC_2","IPC_3","IPC_4","IPC_5","IPC_6","IPC_7","IPC_8","MorIden_1","MorIden_2","MorIden_3","MorIden_4","MorIden_5","MorIden_6","MorIden_7","MorIden_8","MorIden_9","MorIden_10","moralSeImag_1","moralSeImag_2","moralSeImag_3","moralSeImag_4","moralSeImag_5","moralSeImag_6","moralSeImag_7","moralSeImag_8","moralSeImag_9","sde_1","sde_2","sde_3","sde_4","sde_5","sde_6","sde_7","sde_8","sde_9","sde_10","trap2","sde_11","sde_12","sde_13","sde_14","sde_15","sde_16","sde_17","sde_18","sde_19","sde_20","IM_1","IM_2","IM_3","IM_4","IM_5","IM_6","IM_7","IM_8","IM_9","IM_10","IM_11","IM_12","IM_13","IM_14","IM_15","IM_16","IM_17","IM_18","IM_19","IM_20","subj_idx","friend_name","ParticipantID","Sex","Word","Word2","value","success","timeout","failed_images","failed_audio","failed_video","user_agent","responses","item_order","radio_event_ids","radio_event_times","key_event_times","mouse_event_times","straightlining","zigzagging","honeypot","view_history","response_type","key_press","avg_frame_time","center_x","center_y","correct_response","correct","identity","Image","word","condition","task_id","screen_id","time_stamp","person","valence","domain","math","status","duration","question_order","trap2_item"
"12696","
   <p><div style='color:white; font-size: 25px'>您好，欢迎参加本次实验。</div></p>
   <p><div style='color:white; font-size: 25px'>为充分保障您的权利，请确保您已经知晓并同意《参与实验同意书》以及《数据公开知情同意书》。</div></p>
   <p><div style='color:white; font-size: 25px'>如果您未见过上述内容，请咨询实验员。</div></p>
   <p style='color:white; font-size: 25px'>如果您选择继续实验，则表示您已经清楚两份知情同意书的内容并同意。</p>
   <p><div style = ""color: pink;font-size:30px;"">请确保您记得day0的实验编号，您将在本次实验输入该编号，若您忘记，请咨询实验员后作答。</div></p>
   <p><div style = ""color:lightblue;font-size:25px;"">请您尽可能认真地作答，我们将依据您在各问卷和按键任务中的作答质量发放报酬。</div></p>
   <p> <div style = ""color: green""><按空格键至下页></div> </p>
   "," ","html-keyboard-response","0","12698","0.0-0.0","1","1","2","2","1","4","2","2","2","3","4","1","1","-2","1","-3","0","1","1","4","2","5","4","3","3","2","3","2","4","4","4","3","5","2","2","3","4","4","2","4","2","1","4","3","3","2","2","1","1","2","2","3","2","2","5","2","6","3","3","2","5","2","3","2","5","5","5","7","6","5","7","6","1","2","3","3","7","2","5","739241210526568449","张","666","Female","[""坏她"",""好我"",""坏我"",""好她""]","[""弱她"",""强我"",""弱我"",""强她""]","","","","","","","","","","","","","","","","","","","","","","","","","","","","","","","","","","","","","","",""
"","","","call-function","1","12699","0.0-1.0-0.0","1","1","2","2","1","4","2","2","2","3","4","1","1","-2","1","-3","0","1","1","4","2","5","4","3","3","2","3","2","4","4","4","3","5","2","2","3","4","4","2","4","2","1","4","3","3","2","2","1","1","2","2","3","2","2","5","2","6","3","3","2","5","2","3","2","5","5","5","7","6","5","7","6","1","2","3","3","7","2","5","739241210526568449","张","666","Female","[""坏她"",""好我"",""坏我"",""好她""]","[""弱她"",""强我"",""弱我"",""强她""]","","","","","","","","","","","","","","","","","","","","","","","","","","","","","","","","","","","","","","",""
"9724","","[{""name"":""Sex"",""value"":""1""},{""name"":""friend_name"",""value"":""张""},{""name"":""ParticipantID"",""value"":""666""}]","survey-html-form","2","22423","0.0-1.0-1.0","1","1","2","2","1","4","2","2","2","3","4","1","1","-2","1","-3","0","1","1","4","2","5","4","3","3","2","3","2","4","4","4","3","5","2","2","3","4","4","2","4","2","1","4","3","3","2","2","1","1","2","2","3","2","2","5","2","6","3","3","2","5","2","3","2","5","5","5","7","6","5","7","6","1","2","3","3","7","2","5","739241210526568449","张","666","Female","[""坏她"",""好我"",""坏我"",""好她""]","[""弱她"",""强我"",""弱我"",""强她""]","","","","","","","","","","","","","","","","","","","","","","","","","","","","","","","","","","","","","","",""
"","","","preload","3","22516","0.0-2.0","1","1","2","2","1","4","2","2","2","3","4","1","1","-2","1","-3","0","1","1","4","2","5","4","3","3","2","3","2","4","4","4","3","5","2","2","3","4","4","2","4","2","1","4","3","3","2","2","1","1","2","2","3","2","2","5","2","6","3","3","2","5","2","3","2","5","5","5","7","6","5","7","6","1","2","3","3","7","2","5","739241210526568449","张","666","Female","[""坏她"",""好我"",""坏我"",""好她""]","[""弱她"",""强我"",""弱我"",""强她""]","","true","false","[]","[]","[]","","","","","","","","","","","","","","","","","","","","","","","","","","","","","","","","",""
"","","","fullscreen","4","23663","0.0-3.0","1","1","2","2","1","4","2","2","2","3","4","1","1","-2","1","-3","0","1","1","4","2","5","4","3","3","2","3","2","4","4","4","3","5","2","2","3","4","4","2","4","2","1","4","3","3","2","2","1","1","2","2","3","2","2","5","2","6","3","3","2","5","2","3","2","5","5","5","7","6","5","7","6","1","2","3","3","7","2","5","739241210526568449","张","666","Female","[""坏她"",""好我"",""坏我"",""好她""]","[""弱她"",""强我"",""弱我"",""强她""]","","true","","","","","{}","","","","","","","","","","","","","","","","","","","","","","","","","","","","","","","",""
"13293.199999809265","","{""Q01"":""1"",""Q02"":""1"",""Q03"":""2"",""Q04"":""2"",""Q05"":""1""}","survey-template","5","36959","0.0-4.0","1","1","2","2","1","4","2","2","2","3","4","1","1","-2","1","-3","0","1","1","4","2","5","4","3","3","2","3","2","4","4","4","3","5","2","2","3","4","4","2","4","2","1","4","3","3","2","2","1","1","2","2","3","2","2","5","2","6","3","3","2","5","2","3","2","5","5","5","7","6","5","7","6","1","2","3","3","7","2","5","739241210526568449","张","666","Female","[""坏她"",""好我"",""坏我"",""好她""]","[""弱她"",""强我"",""弱我"",""强她""]","","","","","","","","{""Q01"":""1"",""Q02"":""1"",""Q03"":""2"",""Q04"":""2"",""Q05"":""1""}","[0,1,2,3,4]","[""Q01"",""Q02"",""Q03"",""Q04"",""Q05""]","[3158.8999996185303,4094.699999809265,7281.800000190735,9433.60000038147,12676.800000190735]","[]","[3158.8999996185303,4094.699999809265,7281.800000190735,9433.60000038147,11300.699999809265,12676.800000190735,13292.39999961853]","0.6","0.5","0","","","","","","","","","","","","","","","","","","","","","","",""
"45296","","{""Q01"":""4"",""Q02"":""2"",""Q03"":""2"",""Q04"":""2"",""Q05"":""3"",""Q06"":""4""}","survey-template","6","82260","0.0-5.0","1","1","2","2","1","4","2","2","2","3","4","1","1","-2","1","-3","0","1","1","4","2","5","4","3","3","2","3","2","4","4","4","3","5","2","2","3","4","4","2","4","2","1","4","3","3","2","2","1","1","2","2","3","2","2","5","2","6","3","3","2","5","2","3","2","5","5","5","7","6","5","7","6","1","2","3","3","7","2","5","739241210526568449","张","666","Female","[""坏她"",""好我"",""坏我"",""好她""]","[""弱她"",""强我"",""弱我"",""强她""]","","","","","","","","{""Q01"":""4"",""Q02"":""2"",""Q03"":""2"",""Q04"":""2"",""Q05"":""3"",""Q06"":""4""}","[0,1,2,3,4,5]","[""Q01"",""Q02"",""Q03"",""Q05"",""Q04"",""Q06""]","[19785.60000038147,22837.699999809265,26406.89999961853,32089.39999961853,32721,44771.60000038147]","[]","[19785.60000038147,21301.39999961853,22837.699999809265,26031,26406.89999961853,32089.39999961853,32721,44771.60000038147,45295.5]","0.6666666666666666","0.4","0","","","","","","","","","","","","","","","","","","","","","","",""
"18434.10000038147","","{""Q01"":""1"",""Q02"":""1"",""Q03"":""-2"",""Q04"":""1"",""Q05"":""-3"",""Q06"":""0"",""Q07"":""1"",""Q08"":""1""}","survey-template","7","100698","0.0-6.0","1","1","2","2","1","4","2","2","2","3","4","1","1","-2","1","-3","0","1","1","4","2","5","4","3","3","2","3","2","4","4","4","3","5","2","2","3","4","4","2","4","2","1","4","3","3","2","2","1","1","2","2","3","2","2","5","2","6","3","3","2","5","2","3","2","5","5","5","7","6","5","7","6","1","2","3","3","7","2","5","739241210526568449","张","666","Female","[""坏她"",""好我"",""坏我"",""好她""]","[""弱她"",""强我"",""弱我"",""强她""]","","","","","","","","{""Q01"":""1"",""Q02"":""1"",""Q03"":""-2"",""Q04"":""1"",""Q05"":""-3"",""Q06"":""0"",""Q07"":""1"",""Q08"":""1""}","[0,1,2,3,4,5,6,7]","[""Q01"",""Q02"",""Q03"",""Q04"",""Q05"",""Q06"",""Q07"",""Q08""]","[1885.3000001907349,2373.300000190735,5153.5,6589.300000190735,9627.5,13234.5,15727,16827.60000038147]","[]","[1885.3000001907349,2373.300000190735,5153.5,6589.300000190735,9627.5,13234.5,15727,16827.60000038147,17301.39999961853,18069.10000038147,18433.300000190735]","0.625","0.14285714285714285","0","","","","","","","","","","","","","","","","","","","","","","",""
"1520","","","instructions","8","102222","0.0-7.0","1","1","2","2","1","4","2","2","2","3","4","1","1","-2","1","-3","0","1","1","4","2","5","4","3","3","2","3","2","4","4","4","3","5","2","2","3","4","4","2","4","2","1","4","3","3","2","2","1","1","2","2","3","2","2","5","2","6","3","3","2","5","2","3","2","5","5","5","7","6","5","7","6","1","2","3","3","7","2","5","739241210526568449","张","666","Female","[""坏她"",""好我"",""坏我"",""好她""]","[""弱她"",""强我"",""弱我"",""强她""]","","","","","","","","","","","","","","","","","[{""page_index"":0,""viewing_time"":1520}]","","","","","","","","","","","","","","","","","","","","","",""
"251628","","","instructions","9","353852","0.0-8.0-1.0-0.0","1","1","2","2","1","4","2","2","2","3","4","1","1","-2","1","-3","0","1","1","4","2","5","4","3","3","2","3","2","4","4","4","3","5","2","2","3","4","4","2","4","2","1","4","3","3","2","2","1","1","2","2","3","2","2","5","2","6","3","3","2","5","2","3","2","5","5","5","7","6","5","7","6","1","2","3","3","7","2","5","739241210526568449","张","666","Female","[""坏她"",""好我"",""坏我"",""好她""]","[""弱她"",""强我"",""弱我"",""强她""]","","","","","","","","","","","","","","","","","[{""page_index"":0,""viewing_time"":8311},{""page_index"":1,""viewing_time"":227862},{""page_index"":2,""viewing_time"":7817},{""page_index"":3,""viewing_time"":7638}]","","","","","","","","","","","","","","","","","","","","","",""
"717","","f","psychophysics","10","355572","0.0-8.0-1.0-1.0-0.0-0.0","1","1","2","2","1","4","2","2","2","3","4","1","1","-2","1","-3","0","1","1","4","2","5","4","3","3","2","3","2","4","4","4","3","5","2","2","3","4","4","2","4","2","1","4","3","3","2","2","1","1","2","2","3","2","2","5","2","6","3","3","2","5","2","3","2","5","5","5","7","6","5","7","6","1","2","3","3","7","2","5","739241210526568449","张","666","Female","[""坏她"",""好我"",""坏我"",""好她""]","[""弱她"",""强我"",""弱我"",""强她""]","","","","","","","","match","","","","","","","","","","key","f","16.853524752475302","768","428","j","false","nonmatch","img/hexagon.png","强她","弱我","prac_ALT2_ability","practice_ability","","","","","","","","",""
"null","<span style='color:red; font-size: 70px;'>错误! </span>","null","html-keyboard-response","11","356073","0.0-8.0-1.0-1.0-0.0-1.0","1","1","2","2","1","4","2","2","2","3","4","1","1","-2","1","-3","0","1","1","4","2","5","4","3","3","2","3","2","4","4","4","3","5","2","2","3","4","4","2","4","2","1","4","3","3","2","2","1","1","2","2","3","2","2","5","2","6","3","3","2","5","2","3","2","5","5","5","7","6","5","7","6","1","2","3","3","7","2","5","739241210526568449","张","666","Female","[""坏她"",""好我"",""坏我"",""好她""]","[""弱她"",""强我"",""弱我"",""强她""]","","","","","","","","","","","","","","","","","","","","","","","","","","","","","","feedback_test","","","","","","","","",""
"989","","f","psychophysics","12","358064","0.0-8.0-1.0-1.0-0.0-0.1","1","1","2","2","1","4","2","2","2","3","4","1","1","-2","1","-3","0","1","1","4","2","5","4","3","3","2","3","2","4","4","4","3","5","2","2","3","4","4","2","4","2","1","4","3","3","2","2","1","1","2","2","3","2","2","5","2","6","3","3","2","5","2","3","2","5","5","5","7","6","5","7","6","1","2","3","3","7","2","5","739241210526568449","张","666","Female","[""坏她"",""好我"",""坏我"",""好她""]","[""弱她"",""强我"",""弱我"",""强她""]","","","","","","","","match","","","","","","","","","","key","f","16.685881355932274","768","428","f","true","match","img/hexagon.png","弱我","弱我","prac_ALT2_ability","practice_ability","","","","","","","","",""
"null","<span style='color:GreenYellow; font-size: 70px;'>正确! </span>","null","html-keyboard-response","13","358566","0.0-8.0-1.0-1.0-0.0-1.1","1","1","2","2","1","4","2","2","2","3","4","1","1","-2","1","-3","0","1","1","4","2","5","4","3","3","2","3","2","4","4","4","3","5","2","2","3","4","4","2","4","2","1","4","3","3","2","2","1","1","2","2","3","2","2","5","2","6","3","3","2","5","2","3","2","5","5","5","7","6","5","7","6","1","2","3","3","7","2","5","739241210526568449","张","666","Female","[""坏她"",""好我"",""坏我"",""好她""]","[""弱她"",""强我"",""弱我"",""强她""]","","","","","","","","","","","","","","","","","","","","","","","","","","","","","","feedback_test","","","","","","","","",""
"null","","null","psychophysics","14","360769","0.0-8.0-1.0-1.0-0.0-0.2","1","1","2","2","1","4","2","2","2","3","4","1","1","-2","1","-3","0","1","1","4","2","5","4","3","3","2","3","2","4","4","4","3","5","2","2","3","4","4","2","4","2","1","4","3","3","2","2","1","1","2","2","3","2","2","5","2","6","3","3","2","5","2","3","2","5","5","5","7","6","5","7","6","1","2","3","3","7","2","5","739241210526568449","张","666","Female","[""坏她"",""好我"",""坏我"",""好她""]","[""弱她"",""强我"",""弱我"",""强她""]","","","","","","","","null","","","","","","","","","","key","null","16.68530000000028","768","428","j","false","nonmatch","img/circle.png","强她","弱她","prac_ALT2_ability","practice_ability","","","","","","","","",""
"null","<span class='add_' style='color:yellow; font-size: 70px;'> 太慢! </span>","null","html-keyboard-response","15","361270","0.0-8.0-1.0-1.0-0.0-1.2","1","1","2","2","1","4","2","2","2","3","4","1","1","-2","1","-3","0","1","1","4","2","5","4","3","3","2","3","2","4","4","4","3","5","2","2","3","4","4","2","4","2","1","4","3","3","2","2","1","1","2","2","3","2","2","5","2","6","3","3","2","5","2","3","2","5","5","5","7","6","5","7","6","1","2","3","3","7","2","5","739241210526568449","张","666","Female","[""坏她"",""好我"",""坏我"",""好她""]","[""弱她"",""强我"",""弱我"",""强她""]","","","","","","","","","","","","","","","","","","","","","","","","","","","","","","feedback_test","","","","","","","","",""
"1034","","j","psychophysics","16","363306","0.0-8.0-1.0-1.0-0.0-0.3","1","1","2","2","1","4","2","2","2","3","4","1","1","-2","1","-3","0","1","1","4","2","5","4","3","3","2","3","2","4","4","4","3","5","2","2","3","4","4","2","4","2","1","4","3","3","2","2","1","1","2","2","3","2","2","5","2","6","3","3","2","5","2","3","2","5","5","5","7","6","5","7","6","1","2","3","3","7","2","5","739241210526568449","张","666","Female","[""坏她"",""好我"",""坏我"",""好她""]","[""弱她"",""强我"",""弱我"",""强她""]","","","","","","","","nonmatch","","","","","","","","","","key","j","16.68544628099136","768","428","f","false","match","img/trapezoid.png","强她","强她","prac_ALT2_ability","practice_ability","","","","","","","","",""
"null","<span style='color:red; font-size: 70px;'>错误! </span>","null","html-keyboard-response","17","363808","0.0-8.0-1.0-1.0-0.0-1.3","1","1","2","2","1","4","2","2","2","3","4","1","1","-2","1","-3","0","1","1","4","2","5","4","3","3","2","3","2","4","4","4","3","5","2","2","3","4","4","2","4","2","1","4","3","3","2","2","1","1","2","2","3","2","2","5","2","6","3","3","2","5","2","3","2","5","5","5","7","6","5","7","6","1","2","3","3","7","2","5","739241210526568449","张","666","Female","[""坏她"",""好我"",""坏我"",""好她""]","[""弱她"",""强我"",""弱我"",""强她""]","","","","","","","","","","","","","","","","","","","","","","","","","","","","","","feedback_test","","","","","","","","",""
"741","","f","psychophysics","18","365550","0.0-8.0-1.0-1.0-0.0-0.4","1","1","2","2","1","4","2","2","2","3","4","1","1","-2","1","-3","0","1","1","4","2","5","4","3","3","2","3","2","4","4","4","3","5","2","2","3","4","4","2","4","2","1","4","3","3","2","2","1","1","2","2","3","2","2","5","2","6","3","3","2","5","2","3","2","5","5","5","7","6","5","7","6","1","2","3","3","7","2","5","739241210526568449","张","666","Female","[""坏她"",""好我"",""坏我"",""好她""]","[""弱她"",""强我"",""弱我"",""强她""]","","","","","","","","match","","","","","","","","","","key","f","16.686174757281336","768","428","f","true","match","img/trapezoid.png","强她","强她","prac_ALT2_ability","practice_ability","","","","","","","","",""
"null","<span style='color:GreenYellow; font-size: 70px;'>正确! </span>","null","html-keyboard-response","19","366051","0.0-8.0-1.0-1.0-0.0-1.4","1","1","2","2","1","4","2","2","2","3","4","1","1","-2","1","-3","0","1","1","4","2","5","4","3","3","2","3","2","4","4","4","3","5","2","2","3","4","4","2","4","2","1","4","3","3","2","2","1","1","2","2","3","2","2","5","2","6","3","3","2","5","2","3","2","5","5","5","7","6","5","7","6","1","2","3","3","7","2","5","739241210526568449","张","666","Female","[""坏她"",""好我"",""坏我"",""好她""]","[""弱她"",""强我"",""弱我"",""强她""]","","","","","","","","","","","","","","","","","","","","","","","","","","","","","","feedback_test","","","","","","","","",""
"786","","f","psychophysics","20","367838","0.0-8.0-1.0-1.0-0.0-0.5","1","1","2","2","1","4","2","2","2","3","4","1","1","-2","1","-3","0","1","1","4","2","5","4","3","3","2","3","2","4","4","4","3","5","2","2","3","4","4","2","4","2","1","4","3","3","2","2","1","1","2","2","3","2","2","5","2","6","3","3","2","5","2","3","2","5","5","5","7","6","5","7","6","1","2","3","3","7","2","5","739241210526568449","张","666","Female","[""坏她"",""好我"",""坏我"",""好她""]","[""弱她"",""强我"",""弱我"",""强她""]","","","","","","","","match","","","","","","","","","","key","f","16.686311320754267","768","428","f","true","match","img/circle.png","弱她","弱她","prac_ALT2_ability","practice_ability","","","","","","","","",""
"null","<span style='color:GreenYellow; font-size: 70px;'>正确! </span>","null","html-keyboard-response","21","368339","0.0-8.0-1.0-1.0-0.0-1.5","1","1","2","2","1","4","2","2","2","3","4","1","1","-2","1","-3","0","1","1","4","2","5","4","3","3","2","3","2","4","4","4","3","5","2","2","3","4","4","2","4","2","1","4","3","3","2","2","1","1","2","2","3","2","2","5","2","6","3","3","2","5","2","3","2","5","5","5","7","6","5","7","6","1","2","3","3","7","2","5","739241210526568449","张","666","Female","[""坏她"",""好我"",""坏我"",""好她""]","[""弱她"",""强我"",""弱我"",""强她""]","","","","","","","","","","","","","","","","","","","","","","","","","","","","","","feedback_test","","","","","","","","",""
"1187","","j","psychophysics","22","370528","0.0-8.0-1.0-1.0-0.0-0.6","1","1","2","2","1","4","2","2","2","3","4","1","1","-2","1","-3","0","1","1","4","2","5","4","3","3","2","3","2","4","4","4","3","5","2","2","3","4","4","2","4","2","1","4","3","3","2","2","1","1","2","2","3","2","2","5","2","6","3","3","2","5","2","3","2","5","5","5","7","6","5","7","6","1","2","3","3","7","2","5","739241210526568449","张","666","Female","[""坏她"",""好我"",""坏我"",""好她""]","[""弱她"",""强我"",""弱我"",""强她""]","","","","","","","","nonmatch","","","","","","","","","","key","j","16.685861538461175","768","428","j","true","nonmatch","img/hexagon.png","强我","弱我","prac_ALT2_ability","practice_ability","","","","","","","","",""
"null","<span style='color:GreenYellow; font-size: 70px;'>正确! </span>","null","html-keyboard-response","23","371029","0.0-8.0-1.0-1.0-0.0-1.6","1","1","2","2","1","4","2","2","2","3","4","1","1","-2","1","-3","0","1","1","4","2","5","4","3","3","2","3","2","4","4","4","3","5","2","2","3","4","4","2","4","2","1","4","3","3","2","2","1","1","2","2","3","2","2","5","2","6","3","3","2","5","2","3","2","5","5","5","7","6","5","7","6","1","2","3","3","7","2","5","739241210526568449","张","666","Female","[""坏她"",""好我"",""坏我"",""好她""]","[""弱她"",""强我"",""弱我"",""强她""]","","","","","","","","","","","","","","","","","","","","","","","","","","","","","","feedback_test","","","","","","","","",""
"660","","f","psychophysics","24","372691","0.0-8.0-1.0-1.0-0.0-0.7","1","1","2","2","1","4","2","2","2","3","4","1","1","-2","1","-3","0","1","1","4","2","5","4","3","3","2","3","2","4","4","4","3","5","2","2","3","4","4","2","4","2","1","4","3","3","2","2","1","1","2","2","3","2","2","5","2","6","3","3","2","5","2","3","2","5","5","5","7","6","5","7","6","1","2","3","3","7","2","5","739241210526568449","张","666","Female","[""坏她"",""好我"",""坏我"",""好她""]","[""弱她"",""强我"",""弱我"",""强她""]","","","","","","","","match","","","","","","","","","","key","f","16.68466326530562","768","428","f","true","match","img/square.png","强我","强我","prac_ALT2_ability","practice_ability","","","","","","","","",""
"null","<span style='color:GreenYellow; font-size: 70px;'>正确! </span>","null","html-keyboard-response","25","373192","0.0-8.0-1.0-1.0-0.0-1.7","1","1","2","2","1","4","2","2","2","3","4","1","1","-2","1","-3","0","1","1","4","2","5","4","3","3","2","3","2","4","4","4","3","5","2","2","3","4","4","2","4","2","1","4","3","3","2","2","1","1","2","2","3","2","2","5","2","6","3","3","2","5","2","3","2","5","5","5","7","6","5","7","6","1","2","3","3","7","2","5","739241210526568449","张","666","Female","[""坏她"",""好我"",""坏我"",""好她""]","[""弱她"",""强我"",""弱我"",""强她""]","","","","","","","","","","","","","","","","","","","","","","","","","","","","","","feedback_test","","","","","","","","",""
"798","","j","psychophysics","26","374992","0.0-8.0-1.0-1.0-0.0-0.8","1","1","2","2","1","4","2","2","2","3","4","1","1","-2","1","-3","0","1","1","4","2","5","4","3","3","2","3","2","4","4","4","3","5","2","2","3","4","4","2","4","2","1","4","3","3","2","2","1","1","2","2","3","2","2","5","2","6","3","3","2","5","2","3","2","5","5","5","7","6","5","7","6","1","2","3","3","7","2","5","739241210526568449","张","666","Female","[""坏她"",""好我"",""坏我"",""好她""]","[""弱她"",""强我"",""弱我"",""强她""]","","","","","","","","nonmatch","","","","","","","","","","key","j","16.685869158878834","768","428","j","true","nonmatch","img/circle.png","强我","弱她","prac_ALT2_ability","practice_ability","","","","","","","","",""
"null","<span style='color:GreenYellow; font-size: 70px;'>正确! </span>","null","html-keyboard-response","27","375493","0.0-8.0-1.0-1.0-0.0-1.8","1","1","2","2","1","4","2","2","2","3","4","1","1","-2","1","-3","0","1","1","4","2","5","4","3","3","2","3","2","4","4","4","3","5","2","2","3","4","4","2","4","2","1","4","3","3","2","2","1","1","2","2","3","2","2","5","2","6","3","3","2","5","2","3","2","5","5","5","7","6","5","7","6","1","2","3","3","7","2","5","739241210526568449","张","666","Female","[""坏她"",""好我"",""坏我"",""好她""]","[""弱她"",""强我"",""弱我"",""强她""]","","","","","","","","","","","","","","","","","","","","","","","","","","","","","","feedback_test","","","","","","","","",""
"935","","j","psychophysics","28","377430","0.0-8.0-1.0-1.0-0.0-0.9","1","1","2","2","1","4","2","2","2","3","4","1","1","-2","1","-3","0","1","1","4","2","5","4","3","3","2","3","2","4","4","4","3","5","2","2","3","4","4","2","4","2","1","4","3","3","2","2","1","1","2","2","3","2","2","5","2","6","3","3","2","5","2","3","2","5","5","5","7","6","5","7","6","1","2","3","3","7","2","5","739241210526568449","张","666","Female","[""坏她"",""好我"",""坏我"",""好她""]","[""弱她"",""强我"",""弱我"",""强她""]","","","","","","","","nonmatch","","","","","","","","","","key","j","16.684895652173715","768","428","j","true","nonmatch","img/trapezoid.png","弱我","强她","prac_ALT2_ability","practice_ability","","","","","","","","",""
"null","<span style='color:GreenYellow; font-size: 70px;'>正确! </span>","null","html-keyboard-response","29","377931","0.0-8.0-1.0-1.0-0.0-1.9","1","1","2","2","1","4","2","2","2","3","4","1","1","-2","1","-3","0","1","1","4","2","5","4","3","3","2","3","2","4","4","4","3","5","2","2","3","4","4","2","4","2","1","4","3","3","2","2","1","1","2","2","3","2","2","5","2","6","3","3","2","5","2","3","2","5","5","5","7","6","5","7","6","1","2","3","3","7","2","5","739241210526568449","张","666","Female","[""坏她"",""好我"",""坏我"",""好她""]","[""弱她"",""强我"",""弱我"",""强她""]","","","","","","","","","","","","","","","","","","","","","","","","","","","","","","feedback_test","","","","","","","","",""
"852","","j","psychophysics","30","379785","0.0-8.0-1.0-1.0-0.0-0.10","1","1","2","2","1","4","2","2","2","3","4","1","1","-2","1","-3","0","1","1","4","2","5","4","3","3","2","3","2","4","4","4","3","5","2","2","3","4","4","2","4","2","1","4","3","3","2","2","1","1","2","2","3","2","2","5","2","6","3","3","2","5","2","3","2","5","5","5","7","6","5","7","6","1","2","3","3","7","2","5","739241210526568449","张","666","Female","[""坏她"",""好我"",""坏我"",""好她""]","[""弱她"",""强我"",""弱我"",""强她""]","","","","","","","","nonmatch","","","","","","","","","","key","j","16.68587272727269","768","428","f","false","match","img/hexagon.png","弱我","弱我","prac_ALT2_ability","practice_ability","","","","","","","","",""
"null","<span style='color:red; font-size: 70px;'>错误! </span>","null","html-keyboard-response","31","380293","0.0-8.0-1.0-1.0-0.0-1.10","1","1","2","2","1","4","2","2","2","3","4","1","1","-2","1","-3","0","1","1","4","2","5","4","3","3","2","3","2","4","4","4","3","5","2","2","3","4","4","2","4","2","1","4","3","3","2","2","1","1","2","2","3","2","2","5","2","6","3","3","2","5","2","3","2","5","5","5","7","6","5","7","6","1","2","3","3","7","2","5","739241210526568449","张","666","Female","[""坏她"",""好我"",""坏我"",""好她""]","[""弱她"",""强我"",""弱我"",""强她""]","","","","","","","","","","","","","","","","","","","","","","","","","","","","","","feedback_test","","","","","","","","",""
"862","","f","psychophysics","32","382157","0.0-8.0-1.0-1.0-0.0-0.11","1","1","2","2","1","4","2","2","2","3","4","1","1","-2","1","-3","0","1","1","4","2","5","4","3","3","2","3","2","4","4","4","3","5","2","2","3","4","4","2","4","2","1","4","3","3","2","2","1","1","2","2","3","2","2","5","2","6","3","3","2","5","2","3","2","5","5","5","7","6","5","7","6","1","2","3","3","7","2","5","739241210526568449","张","666","Female","[""坏她"",""好我"",""坏我"",""好她""]","[""弱她"",""强我"",""弱我"",""强她""]","","","","","","","","match","","","","","","","","","","key","f","16.683363636364017","768","428","f","true","match","img/hexagon.png","弱我","弱我","prac_ALT2_ability","practice_ability","","","","","","","","",""
"null","<span style='color:GreenYellow; font-size: 70px;'>正确! </span>","null","html-keyboard-response","33","382659","0.0-8.0-1.0-1.0-0.0-1.11","1","1","2","2","1","4","2","2","2","3","4","1","1","-2","1","-3","0","1","1","4","2","5","4","3","3","2","3","2","4","4","4","3","5","2","2","3","4","4","2","4","2","1","4","3","3","2","2","1","1","2","2","3","2","2","5","2","6","3","3","2","5","2","3","2","5","5","5","7","6","5","7","6","1","2","3","3","7","2","5","739241210526568449","张","666","Female","[""坏她"",""好我"",""坏我"",""好她""]","[""弱她"",""强我"",""弱我"",""强她""]","","","","","","","","","","","","","","","","","","","","","","","","","","","","","","feedback_test","","","","","","","","",""
"611","","f","psychophysics","34","384271","0.0-8.0-1.0-1.0-0.0-0.12","1","1","2","2","1","4","2","2","2","3","4","1","1","-2","1","-3","0","1","1","4","2","5","4","3","3","2","3","2","4","4","4","3","5","2","2","3","4","4","2","4","2","1","4","3","3","2","2","1","1","2","2","3","2","2","5","2","6","3","3","2","5","2","3","2","5","5","5","7","6","5","7","6","1","2","3","3","7","2","5","739241210526568449","张","666","Female","[""坏她"",""好我"",""坏我"",""好她""]","[""弱她"",""强我"",""弱我"",""强她""]","","","","","","","","match","","","","","","","","","","key","f","16.685863157894804","768","428","f","true","match","img/circle.png","弱她","弱她","prac_ALT2_ability","practice_ability","","","","","","","","",""
"null","<span style='color:GreenYellow; font-size: 70px;'>正确! </span>","null","html-keyboard-response","35","384773","0.0-8.0-1.0-1.0-0.0-1.12","1","1","2","2","1","4","2","2","2","3","4","1","1","-2","1","-3","0","1","1","4","2","5","4","3","3","2","3","2","4","4","4","3","5","2","2","3","4","4","2","4","2","1","4","3","3","2","2","1","1","2","2","3","2","2","5","2","6","3","3","2","5","2","3","2","5","5","5","7","6","5","7","6","1","2","3","3","7","2","5","739241210526568449","张","666","Female","[""坏她"",""好我"",""坏我"",""好她""]","[""弱她"",""强我"",""弱我"",""强她""]","","","","","","","","","","","","","","","","","","","","","","","","","","","","","","feedback_test","","","","","","","","",""
"769","","f","psychophysics","36","386543","0.0-8.0-1.0-1.0-0.0-0.13","1","1","2","2","1","4","2","2","2","3","4","1","1","-2","1","-3","0","1","1","4","2","5","4","3","3","2","3","2","4","4","4","3","5","2","2","3","4","4","2","4","2","1","4","3","3","2","2","1","1","2","2","3","2","2","5","2","6","3","3","2","5","2","3","2","5","5","5","7","6","5","7","6","1","2","3","3","7","2","5","739241210526568449","张","666","Female","[""坏她"",""好我"",""坏我"",""好她""]","[""弱她"",""强我"",""弱我"",""强她""]","","","","","","","","match","","","","","","","","","","key","f","16.686485714285766","768","428","f","true","match","img/square.png","强我","强我","prac_ALT2_ability","practice_ability","","","","","","","","",""
"null","<span style='color:GreenYellow; font-size: 70px;'>正确! </span>","null","html-keyboard-response","37","387044","0.0-8.0-1.0-1.0-0.0-1.13","1","1","2","2","1","4","2","2","2","3","4","1","1","-2","1","-3","0","1","1","4","2","5","4","3","3","2","3","2","4","4","4","3","5","2","2","3","4","4","2","4","2","1","4","3","3","2","2","1","1","2","2","3","2","2","5","2","6","3","3","2","5","2","3","2","5","5","5","7","6","5","7","6","1","2","3","3","7","2","5","739241210526568449","张","666","Female","[""坏她"",""好我"",""坏我"",""好她""]","[""弱她"",""强我"",""弱我"",""强她""]","","","","","","","","","","","","","","","","","","","","","","","","","","","","","","feedback_test","","","","","","","","",""
"833","","j","psychophysics","38","388880","0.0-8.0-1.0-1.0-0.0-0.14","1","1","2","2","1","4","2","2","2","3","4","1","1","-2","1","-3","0","1","1","4","2","5","4","3","3","2","3","2","4","4","4","3","5","2","2","3","4","4","2","4","2","1","4","3","3","2","2","1","1","2","2","3","2","2","5","2","6","3","3","2","5","2","3","2","5","5","5","7","6","5","7","6","1","2","3","3","7","2","5","739241210526568449","张","666","Female","[""坏她"",""好我"",""坏我"",""好她""]","[""弱她"",""强我"",""弱我"",""强她""]","","","","","","","","nonmatch","","","","","","","","","","key","j","16.68481651376164","768","428","j","true","nonmatch","img/square.png","弱我","强我","prac_ALT2_ability","practice_ability","","","","","","","","",""
"null","<span style='color:GreenYellow; font-size: 70px;'>正确! </span>","null","html-keyboard-response","39","389381","0.0-8.0-1.0-1.0-0.0-1.14","1","1","2","2","1","4","2","2","2","3","4","1","1","-2","1","-3","0","1","1","4","2","5","4","3","3","2","3","2","4","4","4","3","5","2","2","3","4","4","2","4","2","1","4","3","3","2","2","1","1","2","2","3","2","2","5","2","6","3","3","2","5","2","3","2","5","5","5","7","6","5","7","6","1","2","3","3","7","2","5","739241210526568449","张","666","Female","[""坏她"",""好我"",""坏我"",""好她""]","[""弱她"",""强我"",""弱我"",""强她""]","","","","","","","","","","","","","","","","","","","","","","","","","","","","","","feedback_test","","","","","","","","",""
"904","","f","psychophysics","40","391287","0.0-8.0-1.0-1.0-0.0-0.15","1","1","2","2","1","4","2","2","2","3","4","1","1","-2","1","-3","0","1","1","4","2","5","4","3","3","2","3","2","4","4","4","3","5","2","2","3","4","4","2","4","2","1","4","3","3","2","2","1","1","2","2","3","2","2","5","2","6","3","3","2","5","2","3","2","5","5","5","7","6","5","7","6","1","2","3","3","7","2","5","739241210526568449","张","666","Female","[""坏她"",""好我"",""坏我"",""好她""]","[""弱她"",""强我"",""弱我"",""强她""]","","","","","","","","match","","","","","","","","","","key","f","16.68521929824553","768","428","j","false","nonmatch","img/square.png","强她","强我","prac_ALT2_ability","practice_ability","","","","","","","","",""
"null","<span style='color:red; font-size: 70px;'>错误! </span>","null","html-keyboard-response","41","391788","0.0-8.0-1.0-1.0-0.0-1.15","1","1","2","2","1","4","2","2","2","3","4","1","1","-2","1","-3","0","1","1","4","2","5","4","3","3","2","3","2","4","4","4","3","5","2","2","3","4","4","2","4","2","1","4","3","3","2","2","1","1","2","2","3","2","2","5","2","6","3","3","2","5","2","3","2","5","5","5","7","6","5","7","6","1","2","3","3","7","2","5","739241210526568449","张","666","Female","[""坏她"",""好我"",""坏我"",""好她""]","[""弱她"",""强我"",""弱我"",""强她""]","","","","","","","","","","","","","","","","","","","","","","","","","","","","","","feedback_test","","","","","","","","",""
"null","","null","psychophysics","42","393991","0.0-8.0-1.0-1.0-0.0-0.16","1","1","2","2","1","4","2","2","2","3","4","1","1","-2","1","-3","0","1","1","4","2","5","4","3","3","2","3","2","4","4","4","3","5","2","2","3","4","4","2","4","2","1","4","3","3","2","2","1","1","2","2","3","2","2","5","2","6","3","3","2","5","2","3","2","5","5","5","7","6","5","7","6","1","2","3","3","7","2","5","739241210526568449","张","666","Female","[""坏她"",""好我"",""坏我"",""好她""]","[""弱她"",""强我"",""弱我"",""强她""]","","","","","","","","null","","","","","","","","","","key","null","16.6853511450383","768","428","j","false","nonmatch","img/circle.png","弱我","弱她","prac_ALT2_ability","practice_ability","","","","","","","","",""
"null","<span class='add_' style='color:yellow; font-size: 70px;'> 太慢! </span>","null","html-keyboard-response","43","394493","0.0-8.0-1.0-1.0-0.0-1.16","1","1","2","2","1","4","2","2","2","3","4","1","1","-2","1","-3","0","1","1","4","2","5","4","3","3","2","3","2","4","4","4","3","5","2","2","3","4","4","2","4","2","1","4","3","3","2","2","1","1","2","2","3","2","2","5","2","6","3","3","2","5","2","3","2","5","5","5","7","6","5","7","6","1","2","3","3","7","2","5","739241210526568449","张","666","Female","[""坏她"",""好我"",""坏我"",""好她""]","[""弱她"",""强我"",""弱我"",""强她""]","","","","","","","","","","","","","","","","","","","","","","","","","","","","","","feedback_test","","","","","","","","",""
"795","","f","psychophysics","44","396290","0.0-8.0-1.0-1.0-0.0-0.17","1","1","2","2","1","4","2","2","2","3","4","1","1","-2","1","-3","0","1","1","4","2","5","4","3","3","2","3","2","4","4","4","3","5","2","2","3","4","4","2","4","2","1","4","3","3","2","2","1","1","2","2","3","2","2","5","2","6","3","3","2","5","2","3","2","5","5","5","7","6","5","7","6","1","2","3","3","7","2","5","739241210526568449","张","666","Female","[""坏她"",""好我"",""坏我"",""好她""]","[""弱她"",""强我"",""弱我"",""强她""]","","","","","","","","match","","","","","","","","","","key","f","16.68222641509426","768","428","j","false","nonmatch","img/square.png","弱她","强我","prac_ALT2_ability","practice_ability","","","","","","","","",""
"null","<span style='color:red; font-size: 70px;'>错误! </span>","null","html-keyboard-response","45","396791","0.0-8.0-1.0-1.0-0.0-1.17","1","1","2","2","1","4","2","2","2","3","4","1","1","-2","1","-3","0","1","1","4","2","5","4","3","3","2","3","2","4","4","4","3","5","2","2","3","4","4","2","4","2","1","4","3","3","2","2","1","1","2","2","3","2","2","5","2","6","3","3","2","5","2","3","2","5","5","5","7","6","5","7","6","1","2","3","3","7","2","5","739241210526568449","张","666","Female","[""坏她"",""好我"",""坏我"",""好她""]","[""弱她"",""强我"",""弱我"",""强她""]","","","","","","","","","","","","","","","","","","","","","","","","","","","","","","feedback_test","","","","","","","","",""
"944","","j","psychophysics","46","398736","0.0-8.0-1.0-1.0-0.0-0.18","1","1","2","2","1","4","2","2","2","3","4","1","1","-2","1","-3","0","1","1","4","2","5","4","3","3","2","3","2","4","4","4","3","5","2","2","3","4","4","2","4","2","1","4","3","3","2","2","1","1","2","2","3","2","2","5","2","6","3","3","2","5","2","3","2","5","5","5","7","6","5","7","6","1","2","3","3","7","2","5","739241210526568449","张","666","Female","[""坏她"",""好我"",""坏我"",""好她""]","[""弱她"",""强我"",""弱我"",""强她""]","","","","","","","","nonmatch","","","","","","","","","","key","j","16.687252173912913","768","428","j","true","nonmatch","img/hexagon.png","弱她","弱我","prac_ALT2_ability","practice_ability","","","","","","","","",""
"null","<span style='color:GreenYellow; font-size: 70px;'>正确! </span>","null","html-keyboard-response","47","399237","0.0-8.0-1.0-1.0-0.0-1.18","1","1","2","2","1","4","2","2","2","3","4","1","1","-2","1","-3","0","1","1","4","2","5","4","3","3","2","3","2","4","4","4","3","5","2","2","3","4","4","2","4","2","1","4","3","3","2","2","1","1","2","2","3","2","2","5","2","6","3","3","2","5","2","3","2","5","5","5","7","6","5","7","6","1","2","3","3","7","2","5","739241210526568449","张","666","Female","[""坏她"",""好我"",""坏我"",""好她""]","[""弱她"",""强我"",""弱我"",""强她""]","","","","","","","","","","","","","","","","","","","","","","","","","","","","","","feedback_test","","","","","","","","",""
"667","","f","psychophysics","48","400906","0.0-8.0-1.0-1.0-0.0-0.19","1","1","2","2","1","4","2","2","2","3","4","1","1","-2","1","-3","0","1","1","4","2","5","4","3","3","2","3","2","4","4","4","3","5","2","2","3","4","4","2","4","2","1","4","3","3","2","2","1","1","2","2","3","2","2","5","2","6","3","3","2","5","2","3","2","5","5","5","7","6","5","7","6","1","2","3","3","7","2","5","739241210526568449","张","666","Female","[""坏她"",""好我"",""坏我"",""好她""]","[""弱她"",""强我"",""弱我"",""强她""]","","","","","","","","match","","","","","","","","","","key","f","16.687121212121447","768","428","f","true","match","img/square.png","强我","强我","prac_ALT2_ability","practice_ability","","","","","","","","",""
"null","<span style='color:GreenYellow; font-size: 70px;'>正确! </span>","null","html-keyboard-response","49","401407","0.0-8.0-1.0-1.0-0.0-1.19","1","1","2","2","1","4","2","2","2","3","4","1","1","-2","1","-3","0","1","1","4","2","5","4","3","3","2","3","2","4","4","4","3","5","2","2","3","4","4","2","4","2","1","4","3","3","2","2","1","1","2","2","3","2","2","5","2","6","3","3","2","5","2","3","2","5","5","5","7","6","5","7","6","1","2","3","3","7","2","5","739241210526568449","张","666","Female","[""坏她"",""好我"",""坏我"",""好她""]","[""弱她"",""强我"",""弱我"",""强她""]","","","","","","","","","","","","","","","","","","","","","","","","","","","","","","feedback_test","","","","","","","","",""
"856","","f","psychophysics","50","403271","0.0-8.0-1.0-1.0-0.0-0.20","1","1","2","2","1","4","2","2","2","3","4","1","1","-2","1","-3","0","1","1","4","2","5","4","3","3","2","3","2","4","4","4","3","5","2","2","3","4","4","2","4","2","1","4","3","3","2","2","1","1","2","2","3","2","2","5","2","6","3","3","2","5","2","3","2","5","5","5","7","6","5","7","6","1","2","3","3","7","2","5","739241210526568449","张","666","Female","[""坏她"",""好我"",""坏我"",""好她""]","[""弱她"",""强我"",""弱我"",""强她""]","","","","","","","","match","","","","","","","","","","key","f","16.68556756756755","768","428","f","true","match","img/circle.png","弱她","弱她","prac_ALT2_ability","practice_ability","","","","","","","","",""
"null","<span style='color:GreenYellow; font-size: 70px;'>正确! </span>","null","html-keyboard-response","51","403771","0.0-8.0-1.0-1.0-0.0-1.20","1","1","2","2","1","4","2","2","2","3","4","1","1","-2","1","-3","0","1","1","4","2","5","4","3","3","2","3","2","4","4","4","3","5","2","2","3","4","4","2","4","2","1","4","3","3","2","2","1","1","2","2","3","2","2","5","2","6","3","3","2","5","2","3","2","5","5","5","7","6","5","7","6","1","2","3","3","7","2","5","739241210526568449","张","666","Female","[""坏她"",""好我"",""坏我"",""好她""]","[""弱她"",""强我"",""弱我"",""强她""]","","","","","","","","","","","","","","","","","","","","","","","","","","","","","","feedback_test","","","","","","","","",""
"843","","f","psychophysics","52","405616","0.0-8.0-1.0-1.0-0.0-0.21","1","1","2","2","1","4","2","2","2","3","4","1","1","-2","1","-3","0","1","1","4","2","5","4","3","3","2","3","2","4","4","4","3","5","2","2","3","4","4","2","4","2","1","4","3","3","2","2","1","1","2","2","3","2","2","5","2","6","3","3","2","5","2","3","2","5","5","5","7","6","5","7","6","1","2","3","3","7","2","5","739241210526568449","张","666","Female","[""坏她"",""好我"",""坏我"",""好她""]","[""弱她"",""强我"",""弱我"",""强她""]","","","","","","","","match","","","","","","","","","","key","f","16.684596330275088","768","428","j","false","nonmatch","img/trapezoid.png","弱她","强她","prac_ALT2_ability","practice_ability","","","","","","","","",""
"null","<span style='color:red; font-size: 70px;'>错误! </span>","null","html-keyboard-response","53","406117","0.0-8.0-1.0-1.0-0.0-1.21","1","1","2","2","1","4","2","2","2","3","4","1","1","-2","1","-3","0","1","1","4","2","5","4","3","3","2","3","2","4","4","4","3","5","2","2","3","4","4","2","4","2","1","4","3","3","2","2","1","1","2","2","3","2","2","5","2","6","3","3","2","5","2","3","2","5","5","5","7","6","5","7","6","1","2","3","3","7","2","5","739241210526568449","张","666","Female","[""坏她"",""好我"",""坏我"",""好她""]","[""弱她"",""强我"",""弱我"",""强她""]","","","","","","","","","","","","","","","","","","","","","","","","","","","","","","feedback_test","","","","","","","","",""
"947","","j","psychophysics","54","408066","0.0-8.0-1.0-1.0-0.0-0.22","1","1","2","2","1","4","2","2","2","3","4","1","1","-2","1","-3","0","1","1","4","2","5","4","3","3","2","3","2","4","4","4","3","5","2","2","3","4","4","2","4","2","1","4","3","3","2","2","1","1","2","2","3","2","2","5","2","6","3","3","2","5","2","3","2","5","5","5","7","6","5","7","6","1","2","3","3","7","2","5","739241210526568449","张","666","Female","[""坏她"",""好我"",""坏我"",""好她""]","[""弱她"",""强我"",""弱我"",""强她""]","","","","","","","","nonmatch","","","","","","","","","","key","j","16.636478260869627","768","428","j","true","nonmatch","img/trapezoid.png","强我","强她","prac_ALT2_ability","practice_ability","","","","","","","","",""
"null","<span style='color:GreenYellow; font-size: 70px;'>正确! </span>","null","html-keyboard-response","55","408567","0.0-8.0-1.0-1.0-0.0-1.22","1","1","2","2","1","4","2","2","2","3","4","1","1","-2","1","-3","0","1","1","4","2","5","4","3","3","2","3","2","4","4","4","3","5","2","2","3","4","4","2","4","2","1","4","3","3","2","2","1","1","2","2","3","2","2","5","2","6","3","3","2","5","2","3","2","5","5","5","7","6","5","7","6","1","2","3","3","7","2","5","739241210526568449","张","666","Female","[""坏她"",""好我"",""坏我"",""好她""]","[""弱她"",""强我"",""弱我"",""强她""]","","","","","","","","","","","","","","","","","","","","","","","","","","","","","","feedback_test","","","","","","","","",""
"817","","f","psychophysics","56","410386","0.0-8.0-1.0-1.0-0.0-0.23","1","1","2","2","1","4","2","2","2","3","4","1","1","-2","1","-3","0","1","1","4","2","5","4","3","3","2","3","2","4","4","4","3","5","2","2","3","4","4","2","4","2","1","4","3","3","2","2","1","1","2","2","3","2","2","5","2","6","3","3","2","5","2","3","2","5","5","5","7","6","5","7","6","1","2","3","3","7","2","5","739241210526568449","张","666","Female","[""坏她"",""好我"",""坏我"",""好她""]","[""弱她"",""强我"",""弱我"",""强她""]","","","","","","","","match","","","","","","","","","","key","f","16.686157407407773","768","428","f","true","match","img/trapezoid.png","强她","强她","prac_ALT2_ability","practice_ability","","","","","","","","",""
"null","<span style='color:GreenYellow; font-size: 70px;'>正确! </span>","null","html-keyboard-response","57","410886","0.0-8.0-1.0-1.0-0.0-1.23","1","1","2","2","1","4","2","2","2","3","4","1","1","-2","1","-3","0","1","1","4","2","5","4","3","3","2","3","2","4","4","4","3","5","2","2","3","4","4","2","4","2","1","4","3","3","2","2","1","1","2","2","3","2","2","5","2","6","3","3","2","5","2","3","2","5","5","5","7","6","5","7","6","1","2","3","3","7","2","5","739241210526568449","张","666","Female","[""坏她"",""好我"",""坏我"",""好她""]","[""弱她"",""强我"",""弱我"",""强她""]","","","","","","","","","","","","","","","","","","","","","","","","","","","","","","feedback_test","","","","","","","","",""
"944","","j","psychophysics","58","412833","0.0-8.0-1.0-1.0-0.0-0.24","1","1","2","2","1","4","2","2","2","3","4","1","1","-2","1","-3","0","1","1","4","2","5","4","3","3","2","3","2","4","4","4","3","5","2","2","3","4","4","2","4","2","1","4","3","3","2","2","1","1","2","2","3","2","2","5","2","6","3","3","2","5","2","3","2","5","5","5","7","6","5","7","6","1","2","3","3","7","2","5","739241210526568449","张","666","Female","[""坏她"",""好我"",""坏我"",""好她""]","[""弱她"",""强我"",""弱我"",""强她""]","","","","","","","","nonmatch","","","","","","","","","","key","j","16.68598275862088","768","428","j","true","nonmatch","img/circle.png","强她","弱她","prac_ALT2_ability","practice_ability","","","","","","","","",""
"null","<span style='color:GreenYellow; font-size: 70px;'>正确! </span>","null","html-keyboard-response","59","413334","0.0-8.0-1.0-1.0-0.0-1.24","1","1","2","2","1","4","2","2","2","3","4","1","1","-2","1","-3","0","1","1","4","2","5","4","3","3","2","3","2","4","4","4","3","5","2","2","3","4","4","2","4","2","1","4","3","3","2","2","1","1","2","2","3","2","2","5","2","6","3","3","2","5","2","3","2","5","5","5","7","6","5","7","6","1","2","3","3","7","2","5","739241210526568449","张","666","Female","[""坏她"",""好我"",""坏我"",""好她""]","[""弱她"",""强我"",""弱我"",""强她""]","","","","","","","","","","","","","","","","","","","","","","","","","","","","","","feedback_test","","","","","","","","",""
"722","","f","psychophysics","60","415057","0.0-8.0-1.0-1.0-0.0-0.25","1","1","2","2","1","4","2","2","2","3","4","1","1","-2","1","-3","0","1","1","4","2","5","4","3","3","2","3","2","4","4","4","3","5","2","2","3","4","4","2","4","2","1","4","3","3","2","2","1","1","2","2","3","2","2","5","2","6","3","3","2","5","2","3","2","5","5","5","7","6","5","7","6","1","2","3","3","7","2","5","739241210526568449","张","666","Female","[""坏她"",""好我"",""坏我"",""好她""]","[""弱她"",""强我"",""弱我"",""强她""]","","","","","","","","match","","","","","","","","","","key","f","16.684833333333362","768","428","j","false","nonmatch","img/square.png","弱她","强我","prac_ALT2_ability","practice_ability","","","","","","","","",""
"null","<span style='color:red; font-size: 70px;'>错误! </span>","null","html-keyboard-response","61","415558","0.0-8.0-1.0-1.0-0.0-1.25","1","1","2","2","1","4","2","2","2","3","4","1","1","-2","1","-3","0","1","1","4","2","5","4","3","3","2","3","2","4","4","4","3","5","2","2","3","4","4","2","4","2","1","4","3","3","2","2","1","1","2","2","3","2","2","5","2","6","3","3","2","5","2","3","2","5","5","5","7","6","5","7","6","1","2","3","3","7","2","5","739241210526568449","张","666","Female","[""坏她"",""好我"",""坏我"",""好她""]","[""弱她"",""强我"",""弱我"",""强她""]","","","","","","","","","","","","","","","","","","","","","","","","","","","","","","feedback_test","","","","","","","","",""
"845","","f","psychophysics","62","417405","0.0-8.0-1.0-1.0-0.0-0.26","1","1","2","2","1","4","2","2","2","3","4","1","1","-2","1","-3","0","1","1","4","2","5","4","3","3","2","3","2","4","4","4","3","5","2","2","3","4","4","2","4","2","1","4","3","3","2","2","1","1","2","2","3","2","2","5","2","6","3","3","2","5","2","3","2","5","5","5","7","6","5","7","6","1","2","3","3","7","2","5","739241210526568449","张","666","Female","[""坏她"",""好我"",""坏我"",""好她""]","[""弱她"",""强我"",""弱我"",""强她""]","","","","","","","","match","","","","","","","","","","key","f","16.684781818181825","768","428","f","true","match","img/circle.png","弱她","弱她","prac_ALT2_ability","practice_ability","","","","","","","","",""
"null","<span style='color:GreenYellow; font-size: 70px;'>正确! </span>","null","html-keyboard-response","63","417905","0.0-8.0-1.0-1.0-0.0-1.26","1","1","2","2","1","4","2","2","2","3","4","1","1","-2","1","-3","0","1","1","4","2","5","4","3","3","2","3","2","4","4","4","3","5","2","2","3","4","4","2","4","2","1","4","3","3","2","2","1","1","2","2","3","2","2","5","2","6","3","3","2","5","2","3","2","5","5","5","7","6","5","7","6","1","2","3","3","7","2","5","739241210526568449","张","666","Female","[""坏她"",""好我"",""坏我"",""好她""]","[""弱她"",""强我"",""弱我"",""强她""]","","","","","","","","","","","","","","","","","","","","","","","","","","","","","","feedback_test","","","","","","","","",""
"673","","f","psychophysics","64","419580","0.0-8.0-1.0-1.0-0.0-0.27","1","1","2","2","1","4","2","2","2","3","4","1","1","-2","1","-3","0","1","1","4","2","5","4","3","3","2","3","2","4","4","4","3","5","2","2","3","4","4","2","4","2","1","4","3","3","2","2","1","1","2","2","3","2","2","5","2","6","3","3","2","5","2","3","2","5","5","5","7","6","5","7","6","1","2","3","3","7","2","5","739241210526568449","张","666","Female","[""坏她"",""好我"",""坏我"",""好她""]","[""弱她"",""强我"",""弱我"",""强她""]","","","","","","","","match","","","","","","","","","","key","f","16.68563636363604","768","428","f","true","match","img/square.png","强我","强我","prac_ALT2_ability","practice_ability","","","","","","","","",""
"null","<span style='color:GreenYellow; font-size: 70px;'>正确! </span>","null","html-keyboard-response","65","420081","0.0-8.0-1.0-1.0-0.0-1.27","1","1","2","2","1","4","2","2","2","3","4","1","1","-2","1","-3","0","1","1","4","2","5","4","3","3","2","3","2","4","4","4","3","5","2","2","3","4","4","2","4","2","1","4","3","3","2","2","1","1","2","2","3","2","2","5","2","6","3","3","2","5","2","3","2","5","5","5","7","6","5","7","6","1","2","3","3","7","2","5","739241210526568449","张","666","Female","[""坏她"",""好我"",""坏我"",""好她""]","[""弱她"",""强我"",""弱我"",""强她""]","","","","","","","","","","","","","","","","","","","","","","","","","","","","","","feedback_test","","","","","","","","",""
"775","","j","psychophysics","66","421858","0.0-8.0-1.0-1.0-0.0-0.28","1","1","2","2","1","4","2","2","2","3","4","1","1","-2","1","-3","0","1","1","4","2","5","4","3","3","2","3","2","4","4","4","3","5","2","2","3","4","4","2","4","2","1","4","3","3","2","2","1","1","2","2","3","2","2","5","2","6","3","3","2","5","2","3","2","5","5","5","7","6","5","7","6","1","2","3","3","7","2","5","739241210526568449","张","666","Female","[""坏她"",""好我"",""坏我"",""好她""]","[""弱她"",""强我"",""弱我"",""强她""]","","","","","","","","nonmatch","","","","","","","","","","key","j","16.687933962263894","768","428","j","true","nonmatch","img/trapezoid.png","弱我","强她","prac_ALT2_ability","practice_ability","","","","","","","","",""
"null","<span style='color:GreenYellow; font-size: 70px;'>正确! </span>","null","html-keyboard-response","67","422359","0.0-8.0-1.0-1.0-0.0-1.28","1","1","2","2","1","4","2","2","2","3","4","1","1","-2","1","-3","0","1","1","4","2","5","4","3","3","2","3","2","4","4","4","3","5","2","2","3","4","4","2","4","2","1","4","3","3","2","2","1","1","2","2","3","2","2","5","2","6","3","3","2","5","2","3","2","5","5","5","7","6","5","7","6","1","2","3","3","7","2","5","739241210526568449","张","666","Female","[""坏她"",""好我"",""坏我"",""好她""]","[""弱她"",""强我"",""弱我"",""强她""]","","","","","","","","","","","","","","","","","","","","","","","","","","","","","","feedback_test","","","","","","","","",""
"860","","j","psychophysics","68","424220","0.0-8.0-1.0-1.0-0.0-0.29","1","1","2","2","1","4","2","2","2","3","4","1","1","-2","1","-3","0","1","1","4","2","5","4","3","3","2","3","2","4","4","4","3","5","2","2","3","4","4","2","4","2","1","4","3","3","2","2","1","1","2","2","3","2","2","5","2","6","3","3","2","5","2","3","2","5","5","5","7","6","5","7","6","1","2","3","3","7","2","5","739241210526568449","张","666","Female","[""坏她"",""好我"",""坏我"",""好她""]","[""弱她"",""强我"",""弱我"",""强她""]","","","","","","","","nonmatch","","","","","","","","","","key","j","16.682718181818597","768","428","f","false","match","img/hexagon.png","弱我","弱我","prac_ALT2_ability","practice_ability","","","","","","","","",""
"null","<span style='color:red; font-size: 70px;'>错误! </span>","null","html-keyboard-response","69","424722","0.0-8.0-1.0-1.0-0.0-1.29","1","1","2","2","1","4","2","2","2","3","4","1","1","-2","1","-3","0","1","1","4","2","5","4","3","3","2","3","2","4","4","4","3","5","2","2","3","4","4","2","4","2","1","4","3","3","2","2","1","1","2","2","3","2","2","5","2","6","3","3","2","5","2","3","2","5","5","5","7","6","5","7","6","1","2","3","3","7","2","5","739241210526568449","张","666","Female","[""坏她"",""好我"",""坏我"",""好她""]","[""弱她"",""强我"",""弱我"",""强她""]","","","","","","","","","","","","","","","","","","","","","","","","","","","","","","feedback_test","","","","","","","","",""
"989","","j","psychophysics","70","426712","0.0-8.0-1.0-1.0-0.0-0.30","1","1","2","2","1","4","2","2","2","3","4","1","1","-2","1","-3","0","1","1","4","2","5","4","3","3","2","3","2","4","4","4","3","5","2","2","3","4","4","2","4","2","1","4","3","3","2","2","1","1","2","2","3","2","2","5","2","6","3","3","2","5","2","3","2","5","5","5","7","6","5","7","6","1","2","3","3","7","2","5","739241210526568449","张","666","Female","[""坏她"",""好我"",""坏我"",""好她""]","[""弱她"",""强我"",""弱我"",""强她""]","","","","","","","","nonmatch","","","","","","","","","","key","j","16.68508474576293","768","428","j","true","nonmatch","img/square.png","弱我","强我","prac_ALT2_ability","practice_ability","","","","","","","","",""
"null","<span style='color:GreenYellow; font-size: 70px;'>正确! </span>","null","html-keyboard-response","71","427212","0.0-8.0-1.0-1.0-0.0-1.30","1","1","2","2","1","4","2","2","2","3","4","1","1","-2","1","-3","0","1","1","4","2","5","4","3","3","2","3","2","4","4","4","3","5","2","2","3","4","4","2","4","2","1","4","3","3","2","2","1","1","2","2","3","2","2","5","2","6","3","3","2","5","2","3","2","5","5","5","7","6","5","7","6","1","2","3","3","7","2","5","739241210526568449","张","666","Female","[""坏她"",""好我"",""坏我"",""好她""]","[""弱她"",""强我"",""弱我"",""强她""]","","","","","","","","","","","","","","","","","","","","","","","","","","","","","","feedback_test","","","","","","","","",""
"612","","f","psychophysics","72","428827","0.0-8.0-1.0-1.0-0.0-0.31","1","1","2","2","1","4","2","2","2","3","4","1","1","-2","1","-3","0","1","1","4","2","5","4","3","3","2","3","2","4","4","4","3","5","2","2","3","4","4","2","4","2","1","4","3","3","2","2","1","1","2","2","3","2","2","5","2","6","3","3","2","5","2","3","2","5","5","5","7","6","5","7","6","1","2","3","3","7","2","5","739241210526568449","张","666","Female","[""坏她"",""好我"",""坏我"",""好她""]","[""弱她"",""强我"",""弱我"",""强她""]","","","","","","","","match","","","","","","","","","","key","f","16.684652631579112","768","428","f","true","match","img/hexagon.png","弱我","弱我","prac_ALT2_ability","practice_ability","","","","","","","","",""
"null","<span style='color:GreenYellow; font-size: 70px;'>正确! </span>","null","html-keyboard-response","73","429328","0.0-8.0-1.0-1.0-0.0-1.31","1","1","2","2","1","4","2","2","2","3","4","1","1","-2","1","-3","0","1","1","4","2","5","4","3","3","2","3","2","4","4","4","3","5","2","2","3","4","4","2","4","2","1","4","3","3","2","2","1","1","2","2","3","2","2","5","2","6","3","3","2","5","2","3","2","5","5","5","7","6","5","7","6","1","2","3","3","7","2","5","739241210526568449","张","666","Female","[""坏她"",""好我"",""坏我"",""好她""]","[""弱她"",""强我"",""弱我"",""强她""]","","","","","","","","","","","","","","","","","","","","","","","","","","","","","","feedback_test","","","","","","","","",""
"660","","f","psychophysics","74","430990","0.0-8.0-1.0-1.0-0.0-0.32","1","1","2","2","1","4","2","2","2","3","4","1","1","-2","1","-3","0","1","1","4","2","5","4","3","3","2","3","2","4","4","4","3","5","2","2","3","4","4","2","4","2","1","4","3","3","2","2","1","1","2","2","3","2","2","5","2","6","3","3","2","5","2","3","2","5","5","5","7","6","5","7","6","1","2","3","3","7","2","5","739241210526568449","张","666","Female","[""坏她"",""好我"",""坏我"",""好她""]","[""弱她"",""强我"",""弱我"",""强她""]","","","","","","","","match","","","","","","","","","","key","f","16.68530612244872","768","428","f","true","match","img/hexagon.png","弱我","弱我","prac_ALT2_ability","practice_ability","","","","","","","","",""
"null","<span style='color:GreenYellow; font-size: 70px;'>正确! </span>","null","html-keyboard-response","75","431491","0.0-8.0-1.0-1.0-0.0-1.32","1","1","2","2","1","4","2","2","2","3","4","1","1","-2","1","-3","0","1","1","4","2","5","4","3","3","2","3","2","4","4","4","3","5","2","2","3","4","4","2","4","2","1","4","3","3","2","2","1","1","2","2","3","2","2","5","2","6","3","3","2","5","2","3","2","5","5","5","7","6","5","7","6","1","2","3","3","7","2","5","739241210526568449","张","666","Female","[""坏她"",""好我"",""坏我"",""好她""]","[""弱她"",""强我"",""弱我"",""强她""]","","","","","","","","","","","","","","","","","","","","","","","","","","","","","","feedback_test","","","","","","","","",""
"747","","j","psychophysics","76","433240","0.0-8.0-1.0-1.0-0.0-0.33","1","1","2","2","1","4","2","2","2","3","4","1","1","-2","1","-3","0","1","1","4","2","5","4","3","3","2","3","2","4","4","4","3","5","2","2","3","4","4","2","4","2","1","4","3","3","2","2","1","1","2","2","3","2","2","5","2","6","3","3","2","5","2","3","2","5","5","5","7","6","5","7","6","1","2","3","3","7","2","5","739241210526568449","张","666","Female","[""坏她"",""好我"",""坏我"",""好她""]","[""弱她"",""强我"",""弱我"",""强她""]","","","","","","","","nonmatch","","","","","","","","","","key","j","16.686163461538783","768","428","j","true","nonmatch","img/hexagon.png","强她","弱我","prac_ALT2_ability","practice_ability","","","","","","","","",""
"null","<span style='color:GreenYellow; font-size: 70px;'>正确! </span>","null","html-keyboard-response","77","433741","0.0-8.0-1.0-1.0-0.0-1.33","1","1","2","2","1","4","2","2","2","3","4","1","1","-2","1","-3","0","1","1","4","2","5","4","3","3","2","3","2","4","4","4","3","5","2","2","3","4","4","2","4","2","1","4","3","3","2","2","1","1","2","2","3","2","2","5","2","6","3","3","2","5","2","3","2","5","5","5","7","6","5","7","6","1","2","3","3","7","2","5","739241210526568449","张","666","Female","[""坏她"",""好我"",""坏我"",""好她""]","[""弱她"",""强我"",""弱我"",""强她""]","","","","","","","","","","","","","","","","","","","","","","","","","","","","","","feedback_test","","","","","","","","",""
"846","","f","psychophysics","78","435588","0.0-8.0-1.0-1.0-0.0-0.34","1","1","2","2","1","4","2","2","2","3","4","1","1","-2","1","-3","0","1","1","4","2","5","4","3","3","2","3","2","4","4","4","3","5","2","2","3","4","4","2","4","2","1","4","3","3","2","2","1","1","2","2","3","2","2","5","2","6","3","3","2","5","2","3","2","5","5","5","7","6","5","7","6","1","2","3","3","7","2","5","739241210526568449","张","666","Female","[""坏她"",""好我"",""坏我"",""好她""]","[""弱她"",""强我"",""弱我"",""强她""]","","","","","","","","match","","","","","","","","","","key","f","16.68589090909121","768","428","f","true","match","img/square.png","强我","强我","prac_ALT2_ability","practice_ability","","","","","","","","",""
"null","<span style='color:GreenYellow; font-size: 70px;'>正确! </span>","null","html-keyboard-response","79","436089","0.0-8.0-1.0-1.0-0.0-1.34","1","1","2","2","1","4","2","2","2","3","4","1","1","-2","1","-3","0","1","1","4","2","5","4","3","3","2","3","2","4","4","4","3","5","2","2","3","4","4","2","4","2","1","4","3","3","2","2","1","1","2","2","3","2","2","5","2","6","3","3","2","5","2","3","2","5","5","5","7","6","5","7","6","1","2","3","3","7","2","5","739241210526568449","张","666","Female","[""坏她"",""好我"",""坏我"",""好她""]","[""弱她"",""强我"",""弱我"",""强她""]","","","","","","","","","","","","","","","","","","","","","","","","","","","","","","feedback_test","","","","","","","","",""
"891","","j","psychophysics","80","437983","0.0-8.0-1.0-1.0-0.0-0.35","1","1","2","2","1","4","2","2","2","3","4","1","1","-2","1","-3","0","1","1","4","2","5","4","3","3","2","3","2","4","4","4","3","5","2","2","3","4","4","2","4","2","1","4","3","3","2","2","1","1","2","2","3","2","2","5","2","6","3","3","2","5","2","3","2","5","5","5","7","6","5","7","6","1","2","3","3","7","2","5","739241210526568449","张","666","Female","[""坏她"",""好我"",""坏我"",""好她""]","[""弱她"",""强我"",""弱我"",""强她""]","","","","","","","","nonmatch","","","","","","","","","","key","j","16.68549107142826","768","428","j","true","nonmatch","img/square.png","强她","强我","prac_ALT2_ability","practice_ability","","","","","","","","",""
"null","<span style='color:GreenYellow; font-size: 70px;'>正确! </span>","null","html-keyboard-response","81","438484","0.0-8.0-1.0-1.0-0.0-1.35","1","1","2","2","1","4","2","2","2","3","4","1","1","-2","1","-3","0","1","1","4","2","5","4","3","3","2","3","2","4","4","4","3","5","2","2","3","4","4","2","4","2","1","4","3","3","2","2","1","1","2","2","3","2","2","5","2","6","3","3","2","5","2","3","2","5","5","5","7","6","5","7","6","1","2","3","3","7","2","5","739241210526568449","张","666","Female","[""坏她"",""好我"",""坏我"",""好她""]","[""弱她"",""强我"",""弱我"",""强她""]","","","","","","","","","","","","","","","","","","","","","","","","","","","","","","feedback_test","","","","","","","","",""
"706","","f","psychophysics","82","440191","0.0-8.0-1.0-1.0-0.0-0.36","1","1","2","2","1","4","2","2","2","3","4","1","1","-2","1","-3","0","1","1","4","2","5","4","3","3","2","3","2","4","4","4","3","5","2","2","3","4","4","2","4","2","1","4","3","3","2","2","1","1","2","2","3","2","2","5","2","6","3","3","2","5","2","3","2","5","5","5","7","6","5","7","6","1","2","3","3","7","2","5","739241210526568449","张","666","Female","[""坏她"",""好我"",""坏我"",""好她""]","[""弱她"",""强我"",""弱我"",""强她""]","","","","","","","","match","","","","","","","","","","key","f","16.685656862745436","768","428","f","true","match","img/circle.png","弱她","弱她","prac_ALT2_ability","practice_ability","","","","","","","","",""
"null","<span style='color:GreenYellow; font-size: 70px;'>正确! </span>","null","html-keyboard-response","83","440693","0.0-8.0-1.0-1.0-0.0-1.36","1","1","2","2","1","4","2","2","2","3","4","1","1","-2","1","-3","0","1","1","4","2","5","4","3","3","2","3","2","4","4","4","3","5","2","2","3","4","4","2","4","2","1","4","3","3","2","2","1","1","2","2","3","2","2","5","2","6","3","3","2","5","2","3","2","5","5","5","7","6","5","7","6","1","2","3","3","7","2","5","739241210526568449","张","666","Female","[""坏她"",""好我"",""坏我"",""好她""]","[""弱她"",""强我"",""弱我"",""强她""]","","","","","","","","","","","","","","","","","","","","","","","","","","","","","","feedback_test","","","","","","","","",""
"829","","j","psychophysics","84","442522","0.0-8.0-1.0-1.0-0.0-0.37","1","1","2","2","1","4","2","2","2","3","4","1","1","-2","1","-3","0","1","1","4","2","5","4","3","3","2","3","2","4","4","4","3","5","2","2","3","4","4","2","4","2","1","4","3","3","2","2","1","1","2","2","3","2","2","5","2","6","3","3","2","5","2","3","2","5","5","5","7","6","5","7","6","1","2","3","3","7","2","5","739241210526568449","张","666","Female","[""坏她"",""好我"",""坏我"",""好她""]","[""弱她"",""强我"",""弱我"",""强她""]","","","","","","","","nonmatch","","","","","","","","","","key","j","16.684731481480952","768","428","j","true","nonmatch","img/trapezoid.png","弱她","强她","prac_ALT2_ability","practice_ability","","","","","","","","",""
"null","<span style='color:GreenYellow; font-size: 70px;'>正确! </span>","null","html-keyboard-response","85","443024","0.0-8.0-1.0-1.0-0.0-1.37","1","1","2","2","1","4","2","2","2","3","4","1","1","-2","1","-3","0","1","1","4","2","5","4","3","3","2","3","2","4","4","4","3","5","2","2","3","4","4","2","4","2","1","4","3","3","2","2","1","1","2","2","3","2","2","5","2","6","3","3","2","5","2","3","2","5","5","5","7","6","5","7","6","1","2","3","3","7","2","5","739241210526568449","张","666","Female","[""坏她"",""好我"",""坏我"",""好她""]","[""弱她"",""强我"",""弱我"",""强她""]","","","","","","","","","","","","","","","","","","","","","","","","","","","","","","feedback_test","","","","","","","","",""
"723","","f","psychophysics","86","444747","0.0-8.0-1.0-1.0-0.0-0.38","1","1","2","2","1","4","2","2","2","3","4","1","1","-2","1","-3","0","1","1","4","2","5","4","3","3","2","3","2","4","4","4","3","5","2","2","3","4","4","2","4","2","1","4","3","3","2","2","1","1","2","2","3","2","2","5","2","6","3","3","2","5","2","3","2","5","5","5","7","6","5","7","6","1","2","3","3","7","2","5","739241210526568449","张","666","Female","[""坏她"",""好我"",""坏我"",""好她""]","[""弱她"",""强我"",""弱我"",""强她""]","","","","","","","","match","","","","","","","","","","key","f","16.578941176470263","768","428","f","true","match","img/square.png","强我","强我","prac_ALT2_ability","practice_ability","","","","","","","","",""
"null","<span style='color:GreenYellow; font-size: 70px;'>正确! </span>","null","html-keyboard-response","87","445249","0.0-8.0-1.0-1.0-0.0-1.38","1","1","2","2","1","4","2","2","2","3","4","1","1","-2","1","-3","0","1","1","4","2","5","4","3","3","2","3","2","4","4","4","3","5","2","2","3","4","4","2","4","2","1","4","3","3","2","2","1","1","2","2","3","2","2","5","2","6","3","3","2","5","2","3","2","5","5","5","7","6","5","7","6","1","2","3","3","7","2","5","739241210526568449","张","666","Female","[""坏她"",""好我"",""坏我"",""好她""]","[""弱她"",""强我"",""弱我"",""强她""]","","","","","","","","","","","","","","","","","","","","","","","","","","","","","","feedback_test","","","","","","","","",""
"641","","f","psychophysics","88","446892","0.0-8.0-1.0-1.0-0.0-0.39","1","1","2","2","1","4","2","2","2","3","4","1","1","-2","1","-3","0","1","1","4","2","5","4","3","3","2","3","2","4","4","4","3","5","2","2","3","4","4","2","4","2","1","4","3","3","2","2","1","1","2","2","3","2","2","5","2","6","3","3","2","5","2","3","2","5","5","5","7","6","5","7","6","1","2","3","3","7","2","5","739241210526568449","张","666","Female","[""坏她"",""好我"",""坏我"",""好她""]","[""弱她"",""强我"",""弱我"",""强她""]","","","","","","","","match","","","","","","","","","","key","f","16.683701030928017","768","428","f","true","match","img/trapezoid.png","强她","强她","prac_ALT2_ability","practice_ability","","","","","","","","",""
"null","<span style='color:GreenYellow; font-size: 70px;'>正确! </span>","null","html-keyboard-response","89","447393","0.0-8.0-1.0-1.0-0.0-1.39","1","1","2","2","1","4","2","2","2","3","4","1","1","-2","1","-3","0","1","1","4","2","5","4","3","3","2","3","2","4","4","4","3","5","2","2","3","4","4","2","4","2","1","4","3","3","2","2","1","1","2","2","3","2","2","5","2","6","3","3","2","5","2","3","2","5","5","5","7","6","5","7","6","1","2","3","3","7","2","5","739241210526568449","张","666","Female","[""坏她"",""好我"",""坏我"",""好她""]","[""弱她"",""强我"",""弱我"",""强她""]","","","","","","","","","","","","","","","","","","","","","","","","","","","","","","feedback_test","","","","","","","","",""
"786","","j","psychophysics","90","449180","0.0-8.0-1.0-1.0-0.0-0.40","1","1","2","2","1","4","2","2","2","3","4","1","1","-2","1","-3","0","1","1","4","2","5","4","3","3","2","3","2","4","4","4","3","5","2","2","3","4","4","2","4","2","1","4","3","3","2","2","1","1","2","2","3","2","2","5","2","6","3","3","2","5","2","3","2","5","5","5","7","6","5","7","6","1","2","3","3","7","2","5","739241210526568449","张","666","Female","[""坏她"",""好我"",""坏我"",""好她""]","[""弱她"",""强我"",""弱我"",""强她""]","","","","","","","","nonmatch","","","","","","","","","","key","j","16.686264150943455","768","428","f","false","match","img/trapezoid.png","强她","强她","prac_ALT2_ability","practice_ability","","","","","","","","",""
"null","<span style='color:red; font-size: 70px;'>错误! </span>","null","html-keyboard-response","91","449681","0.0-8.0-1.0-1.0-0.0-1.40","1","1","2","2","1","4","2","2","2","3","4","1","1","-2","1","-3","0","1","1","4","2","5","4","3","3","2","3","2","4","4","4","3","5","2","2","3","4","4","2","4","2","1","4","3","3","2","2","1","1","2","2","3","2","2","5","2","6","3","3","2","5","2","3","2","5","5","5","7","6","5","7","6","1","2","3","3","7","2","5","739241210526568449","张","666","Female","[""坏她"",""好我"",""坏我"",""好她""]","[""弱她"",""强我"",""弱我"",""强她""]","","","","","","","","","","","","","","","","","","","","","","","","","","","","","","feedback_test","","","","","","","","",""
"856","","j","psychophysics","92","451538","0.0-8.0-1.0-1.0-0.0-0.41","1","1","2","2","1","4","2","2","2","3","4","1","1","-2","1","-3","0","1","1","4","2","5","4","3","3","2","3","2","4","4","4","3","5","2","2","3","4","4","2","4","2","1","4","3","3","2","2","1","1","2","2","3","2","2","5","2","6","3","3","2","5","2","3","2","5","5","5","7","6","5","7","6","1","2","3","3","7","2","5","739241210526568449","张","666","Female","[""坏她"",""好我"",""坏我"",""好她""]","[""弱她"",""强我"",""弱我"",""强她""]","","","","","","","","nonmatch","","","","","","","","","","key","j","16.68537837837829","768","428","j","true","nonmatch","img/circle.png","强我","弱她","prac_ALT2_ability","practice_ability","","","","","","","","",""
"null","<span style='color:GreenYellow; font-size: 70px;'>正确! </span>","null","html-keyboard-response","93","452039","0.0-8.0-1.0-1.0-0.0-1.41","1","1","2","2","1","4","2","2","2","3","4","1","1","-2","1","-3","0","1","1","4","2","5","4","3","3","2","3","2","4","4","4","3","5","2","2","3","4","4","2","4","2","1","4","3","3","2","2","1","1","2","2","3","2","2","5","2","6","3","3","2","5","2","3","2","5","5","5","7","6","5","7","6","1","2","3","3","7","2","5","739241210526568449","张","666","Female","[""坏她"",""好我"",""坏我"",""好她""]","[""弱她"",""强我"",""弱我"",""强她""]","","","","","","","","","","","","","","","","","","","","","","","","","","","","","","feedback_test","","","","","","","","",""
"942","","j","psychophysics","94","453983","0.0-8.0-1.0-1.0-0.0-0.42","1","1","2","2","1","4","2","2","2","3","4","1","1","-2","1","-3","0","1","1","4","2","5","4","3","3","2","3","2","4","4","4","3","5","2","2","3","4","4","2","4","2","1","4","3","3","2","2","1","1","2","2","3","2","2","5","2","6","3","3","2","5","2","3","2","5","5","5","7","6","5","7","6","1","2","3","3","7","2","5","739241210526568449","张","666","Female","[""坏她"",""好我"",""坏我"",""好她""]","[""弱她"",""强我"",""弱我"",""强她""]","","","","","","","","nonmatch","","","","","","","","","","key","j","16.685034782609033","768","428","j","true","nonmatch","img/trapezoid.png","强我","强她","prac_ALT2_ability","practice_ability","","","","","","","","",""
"null","<span style='color:GreenYellow; font-size: 70px;'>正确! </span>","null","html-keyboard-response","95","454484","0.0-8.0-1.0-1.0-0.0-1.42","1","1","2","2","1","4","2","2","2","3","4","1","1","-2","1","-3","0","1","1","4","2","5","4","3","3","2","3","2","4","4","4","3","5","2","2","3","4","4","2","4","2","1","4","3","3","2","2","1","1","2","2","3","2","2","5","2","6","3","3","2","5","2","3","2","5","5","5","7","6","5","7","6","1","2","3","3","7","2","5","739241210526568449","张","666","Female","[""坏她"",""好我"",""坏我"",""好她""]","[""弱她"",""强我"",""弱我"",""强她""]","","","","","","","","","","","","","","","","","","","","","","","","","","","","","","feedback_test","","","","","","","","",""
"1021","","f","psychophysics","96","456506","0.0-8.0-1.0-1.0-0.0-0.43","1","1","2","2","1","4","2","2","2","3","4","1","1","-2","1","-3","0","1","1","4","2","5","4","3","3","2","3","2","4","4","4","3","5","2","2","3","4","4","2","4","2","1","4","3","3","2","2","1","1","2","2","3","2","2","5","2","6","3","3","2","5","2","3","2","5","5","5","7","6","5","7","6","1","2","3","3","7","2","5","739241210526568449","张","666","Female","[""坏她"",""好我"",""坏我"",""好她""]","[""弱她"",""强我"",""弱我"",""强她""]","","","","","","","","match","","","","","","","","","","key","f","16.685566666666514","768","428","j","false","nonmatch","img/hexagon.png","弱她","弱我","prac_ALT2_ability","practice_ability","","","","","","","","",""
"null","<span style='color:red; font-size: 70px;'>错误! </span>","null","html-keyboard-response","97","457008","0.0-8.0-1.0-1.0-0.0-1.43","1","1","2","2","1","4","2","2","2","3","4","1","1","-2","1","-3","0","1","1","4","2","5","4","3","3","2","3","2","4","4","4","3","5","2","2","3","4","4","2","4","2","1","4","3","3","2","2","1","1","2","2","3","2","2","5","2","6","3","3","2","5","2","3","2","5","5","5","7","6","5","7","6","1","2","3","3","7","2","5","739241210526568449","张","666","Female","[""坏她"",""好我"",""坏我"",""好她""]","[""弱她"",""强我"",""弱我"",""强她""]","","","","","","","","","","","","","","","","","","","","","","","","","","","","","","feedback_test","","","","","","","","",""
"856","","f","psychophysics","98","458865","0.0-8.0-1.0-1.0-0.0-0.44","1","1","2","2","1","4","2","2","2","3","4","1","1","-2","1","-3","0","1","1","4","2","5","4","3","3","2","3","2","4","4","4","3","5","2","2","3","4","4","2","4","2","1","4","3","3","2","2","1","1","2","2","3","2","2","5","2","6","3","3","2","5","2","3","2","5","5","5","7","6","5","7","6","1","2","3","3","7","2","5","739241210526568449","张","666","Female","[""坏她"",""好我"",""坏我"",""好她""]","[""弱她"",""强我"",""弱我"",""强她""]","","","","","","","","match","","","","","","","","","","key","f","16.685172727272782","768","428","j","false","nonmatch","img/hexagon.png","强我","弱我","prac_ALT2_ability","practice_ability","","","","","","","","",""
"null","<span style='color:red; font-size: 70px;'>错误! </span>","null","html-keyboard-response","99","459366","0.0-8.0-1.0-1.0-0.0-1.44","1","1","2","2","1","4","2","2","2","3","4","1","1","-2","1","-3","0","1","1","4","2","5","4","3","3","2","3","2","4","4","4","3","5","2","2","3","4","4","2","4","2","1","4","3","3","2","2","1","1","2","2","3","2","2","5","2","6","3","3","2","5","2","3","2","5","5","5","7","6","5","7","6","1","2","3","3","7","2","5","739241210526568449","张","666","Female","[""坏她"",""好我"",""坏我"",""好她""]","[""弱她"",""强我"",""弱我"",""强她""]","","","","","","","","","","","","","","","","","","","","","","","","","","","","","","feedback_test","","","","","","","","",""
"855","","f","psychophysics","100","461223","0.0-8.0-1.0-1.0-0.0-0.45","1","1","2","2","1","4","2","2","2","3","4","1","1","-2","1","-3","0","1","1","4","2","5","4","3","3","2","3","2","4","4","4","3","5","2","2","3","4","4","2","4","2","1","4","3","3","2","2","1","1","2","2","3","2","2","5","2","6","3","3","2","5","2","3","2","5","5","5","7","6","5","7","6","1","2","3","3","7","2","5","739241210526568449","张","666","Female","[""坏她"",""好我"",""坏我"",""好她""]","[""弱她"",""强我"",""弱我"",""强她""]","","","","","","","","match","","","","","","","","","","key","f","16.685499999999724","768","428","j","false","nonmatch","img/circle.png","弱我","弱她","prac_ALT2_ability","practice_ability","","","","","","","","",""
"null","<span style='color:red; font-size: 70px;'>错误! </span>","null","html-keyboard-response","101","461724","0.0-8.0-1.0-1.0-0.0-1.45","1","1","2","2","1","4","2","2","2","3","4","1","1","-2","1","-3","0","1","1","4","2","5","4","3","3","2","3","2","4","4","4","3","5","2","2","3","4","4","2","4","2","1","4","3","3","2","2","1","1","2","2","3","2","2","5","2","6","3","3","2","5","2","3","2","5","5","5","7","6","5","7","6","1","2","3","3","7","2","5","739241210526568449","张","666","Female","[""坏她"",""好我"",""坏我"",""好她""]","[""弱她"",""强我"",""弱我"",""强她""]","","","","","","","","","","","","","","","","","","","","","","","","","","","","","","feedback_test","","","","","","","","",""
"638","","f","psychophysics","102","463364","0.0-8.0-1.0-1.0-0.0-0.46","1","1","2","2","1","4","2","2","2","3","4","1","1","-2","1","-3","0","1","1","4","2","5","4","3","3","2","3","2","4","4","4","3","5","2","2","3","4","4","2","4","2","1","4","3","3","2","2","1","1","2","2","3","2","2","5","2","6","3","3","2","5","2","3","2","5","5","5","7","6","5","7","6","1","2","3","3","7","2","5","739241210526568449","张","666","Female","[""坏她"",""好我"",""坏我"",""好她""]","[""弱她"",""强我"",""弱我"",""强她""]","","","","","","","","match","","","","","","","","","","key","f","16.685206185567274","768","428","f","true","match","img/trapezoid.png","强她","强她","prac_ALT2_ability","practice_ability","","","","","","","","",""
"null","<span style='color:GreenYellow; font-size: 70px;'>正确! </span>","null","html-keyboard-response","103","463865","0.0-8.0-1.0-1.0-0.0-1.46","1","1","2","2","1","4","2","2","2","3","4","1","1","-2","1","-3","0","1","1","4","2","5","4","3","3","2","3","2","4","4","4","3","5","2","2","3","4","4","2","4","2","1","4","3","3","2","2","1","1","2","2","3","2","2","5","2","6","3","3","2","5","2","3","2","5","5","5","7","6","5","7","6","1","2","3","3","7","2","5","739241210526568449","张","666","Female","[""坏她"",""好我"",""坏我"",""好她""]","[""弱她"",""强我"",""弱我"",""强她""]","","","","","","","","","","","","","","","","","","","","","","","","","","","","","","feedback_test","","","","","","","","",""
"790","","f","psychophysics","104","465656","0.0-8.0-1.0-1.0-0.0-0.47","1","1","2","2","1","4","2","2","2","3","4","1","1","-2","1","-3","0","1","1","4","2","5","4","3","3","2","3","2","4","4","4","3","5","2","2","3","4","4","2","4","2","1","4","3","3","2","2","1","1","2","2","3","2","2","5","2","6","3","3","2","5","2","3","2","5","5","5","7","6","5","7","6","1","2","3","3","7","2","5","739241210526568449","张","666","Female","[""坏她"",""好我"",""坏我"",""好她""]","[""弱她"",""强我"",""弱我"",""强她""]","","","","","","","","match","","","","","","","","","","key","f","16.685367924528073","768","428","f","true","match","img/circle.png","弱她","弱她","prac_ALT2_ability","practice_ability","","","","","","","","",""
"null","<span style='color:GreenYellow; font-size: 70px;'>正确! </span>","null","html-keyboard-response","105","466157","0.0-8.0-1.0-1.0-0.0-1.47","1","1","2","2","1","4","2","2","2","3","4","1","1","-2","1","-3","0","1","1","4","2","5","4","3","3","2","3","2","4","4","4","3","5","2","2","3","4","4","2","4","2","1","4","3","3","2","2","1","1","2","2","3","2","2","5","2","6","3","3","2","5","2","3","2","5","5","5","7","6","5","7","6","1","2","3","3","7","2","5","739241210526568449","张","666","Female","[""坏她"",""好我"",""坏我"",""好她""]","[""弱她"",""强我"",""弱我"",""强她""]","","","","","","","","","","","","","","","","","","","","","","","","","","","","","","feedback_test","","","","","","","","",""
"47631","<style>.context{color:white; font-size: 35px; line-height:40px}</style>                          <div><p class='context'>您正确回答了71% 的试次。</p><p class='context'>您的平均反应时为809毫秒。</p><p class='context'>恭喜您完成练习。按空格键进入正式实验。</p><p class='footer' style='color:white;font-size: 35px; line-height:40px;'>请在进入正式实验实验之前将您的<span style='color: lightgreen;'>食指</span>放在电脑键盘的相应键位上进行按键。</p>"," ","html-keyboard-response","106","513791","0.0-8.0-1.0-2.0","1","1","2","2","1","4","2","2","2","3","4","1","1","-2","1","-3","0","1","1","4","2","5","4","3","3","2","3","2","4","4","4","3","5","2","2","3","4","4","2","4","2","1","4","3","3","2","2","1","1","2","2","3","2","2","5","2","6","3","3","2","5","2","3","2","5","5","5","7","6","5","7","6","1","2","3","3","7","2","5","739241210526568449","张","666","Female","[""坏她"",""好我"",""坏我"",""好她""]","[""弱她"",""强我"",""弱我"",""强她""]","","","","","","","","","","","","","","","","","","","","","","","","","","","","","","","","","","","","","","",""
"2392","
  <p style='color: white; font-size: 22px'>请您将手指放在按键上，准备进入正式的匹配任务。</p>
  <p> <div style = ""color: green""><按空格键进入下一阶段的匹配任务></div></p>
  "," ","html-keyboard-response","107","516186","0.0-8.0-1.0-3.0","1","1","2","2","1","4","2","2","2","3","4","1","1","-2","1","-3","0","1","1","4","2","5","4","3","3","2","3","2","4","4","4","3","5","2","2","3","4","4","2","4","2","1","4","3","3","2","2","1","1","2","2","3","2","2","5","2","6","3","3","2","5","2","3","2","5","5","5","7","6","5","7","6","1","2","3","3","7","2","5","739241210526568449","张","666","Female","[""坏她"",""好我"",""坏我"",""好她""]","[""弱她"",""强我"",""弱我"",""强她""]","","","","","","","","","","","","","","","","","","","","","","","","","","","","","","","","","","","","","","",""
"720","","j","psychophysics","108","517908","0.0-8.0-1.0-4.0-0.0-0.0","1","1","2","2","1","4","2","2","2","3","4","1","1","-2","1","-3","0","1","1","4","2","5","4","3","3","2","3","2","4","4","4","3","5","2","2","3","4","4","2","4","2","1","4","3","3","2","2","1","1","2","2","3","2","2","5","2","6","3","3","2","5","2","3","2","5","5","5","7","6","5","7","6","1","2","3","3","7","2","5","739241210526568449","张","666","Female","[""坏她"",""好我"",""坏我"",""好她""]","[""弱她"",""强我"",""弱我"",""强她""]","","","","","","","","nonmatch","","","","","","","","","","key","j","16.68506862745077","768","428","j","true","nonmatch","img/circle.png","强她","弱她","ALT2","ability","","","","","","","","",""
"null","<span style='color:GreenYellow; font-size: 70px;'>正确! </span>","null","html-keyboard-response","109","518409","0.0-8.0-1.0-4.0-0.0-1.0","1","1","2","2","1","4","2","2","2","3","4","1","1","-2","1","-3","0","1","1","4","2","5","4","3","3","2","3","2","4","4","4","3","5","2","2","3","4","4","2","4","2","1","4","3","3","2","2","1","1","2","2","3","2","2","5","2","6","3","3","2","5","2","3","2","5","5","5","7","6","5","7","6","1","2","3","3","7","2","5","739241210526568449","张","666","Female","[""坏她"",""好我"",""坏我"",""好她""]","[""弱她"",""强我"",""弱我"",""强她""]","","","","","","","","","","","","","","","","","","","","","","","","","","","","","","feedback_test","","","","","","","","",""
"691","","j","psychophysics","110","520102","0.0-8.0-1.0-4.0-0.0-0.1","1","1","2","2","1","4","2","2","2","3","4","1","1","-2","1","-3","0","1","1","4","2","5","4","3","3","2","3","2","4","4","4","3","5","2","2","3","4","4","2","4","2","1","4","3","3","2","2","1","1","2","2","3","2","2","5","2","6","3","3","2","5","2","3","2","5","5","5","7","6","5","7","6","1","2","3","3","7","2","5","739241210526568449","张","666","Female","[""坏她"",""好我"",""坏我"",""好她""]","[""弱她"",""强我"",""弱我"",""强她""]","","","","","","","","nonmatch","","","","","","","","","","key","j","16.68540000000037","768","428","j","true","nonmatch","img/trapezoid.png","强我","强她","ALT2","ability","","","","","","","","",""
"null","<span style='color:GreenYellow; font-size: 70px;'>正确! </span>","null","html-keyboard-response","111","520604","0.0-8.0-1.0-4.0-0.0-1.1","1","1","2","2","1","4","2","2","2","3","4","1","1","-2","1","-3","0","1","1","4","2","5","4","3","3","2","3","2","4","4","4","3","5","2","2","3","4","4","2","4","2","1","4","3","3","2","2","1","1","2","2","3","2","2","5","2","6","3","3","2","5","2","3","2","5","5","5","7","6","5","7","6","1","2","3","3","7","2","5","739241210526568449","张","666","Female","[""坏她"",""好我"",""坏我"",""好她""]","[""弱她"",""强我"",""弱我"",""强她""]","","","","","","","","","","","","","","","","","","","","","","","","","","","","","","feedback_test","","","","","","","","",""
"869","","j","psychophysics","112","522474","0.0-8.0-1.0-4.0-0.0-0.2","1","1","2","2","1","4","2","2","2","3","4","1","1","-2","1","-3","0","1","1","4","2","5","4","3","3","2","3","2","4","4","4","3","5","2","2","3","4","4","2","4","2","1","4","3","3","2","2","1","1","2","2","3","2","2","5","2","6","3","3","2","5","2","3","2","5","5","5","7","6","5","7","6","1","2","3","3","7","2","5","739241210526568449","张","666","Female","[""坏她"",""好我"",""坏我"",""好她""]","[""弱她"",""强我"",""弱我"",""强她""]","","","","","","","","nonmatch","","","","","","","","","","key","j","16.685243243243555","768","428","j","true","nonmatch","img/circle.png","弱我","弱她","ALT2","ability","","","","","","","","",""
"null","<span style='color:GreenYellow; font-size: 70px;'>正确! </span>","null","html-keyboard-response","113","522975","0.0-8.0-1.0-4.0-0.0-1.2","1","1","2","2","1","4","2","2","2","3","4","1","1","-2","1","-3","0","1","1","4","2","5","4","3","3","2","3","2","4","4","4","3","5","2","2","3","4","4","2","4","2","1","4","3","3","2","2","1","1","2","2","3","2","2","5","2","6","3","3","2","5","2","3","2","5","5","5","7","6","5","7","6","1","2","3","3","7","2","5","739241210526568449","张","666","Female","[""坏她"",""好我"",""坏我"",""好她""]","[""弱她"",""强我"",""弱我"",""强她""]","","","","","","","","","","","","","","","","","","","","","","","","","","","","","","feedback_test","","","","","","","","",""
"831","","f","psychophysics","114","524807","0.0-8.0-1.0-4.0-0.0-0.3","1","1","2","2","1","4","2","2","2","3","4","1","1","-2","1","-3","0","1","1","4","2","5","4","3","3","2","3","2","4","4","4","3","5","2","2","3","4","4","2","4","2","1","4","3","3","2","2","1","1","2","2","3","2","2","5","2","6","3","3","2","5","2","3","2","5","5","5","7","6","5","7","6","1","2","3","3","7","2","5","739241210526568449","张","666","Female","[""坏她"",""好我"",""坏我"",""好她""]","[""弱她"",""强我"",""弱我"",""强她""]","","","","","","","","match","","","","","","","","","","key","f","16.68521100917453","768","428","f","true","match","img/hexagon.png","弱我","弱我","ALT2","ability","","","","","","","","",""
"null","<span style='color:GreenYellow; font-size: 70px;'>正确! </span>","null","html-keyboard-response","115","525308","0.0-8.0-1.0-4.0-0.0-1.3","1","1","2","2","1","4","2","2","2","3","4","1","1","-2","1","-3","0","1","1","4","2","5","4","3","3","2","3","2","4","4","4","3","5","2","2","3","4","4","2","4","2","1","4","3","3","2","2","1","1","2","2","3","2","2","5","2","6","3","3","2","5","2","3","2","5","5","5","7","6","5","7","6","1","2","3","3","7","2","5","739241210526568449","张","666","Female","[""坏她"",""好我"",""坏我"",""好她""]","[""弱她"",""强我"",""弱我"",""强她""]","","","","","","","","","","","","","","","","","","","","","","","","","","","","","","feedback_test","","","","","","","","",""
"874","","j","psychophysics","116","527184","0.0-8.0-1.0-4.0-0.0-0.4","1","1","2","2","1","4","2","2","2","3","4","1","1","-2","1","-3","0","1","1","4","2","5","4","3","3","2","3","2","4","4","4","3","5","2","2","3","4","4","2","4","2","1","4","3","3","2","2","1","1","2","2","3","2","2","5","2","6","3","3","2","5","2","3","2","5","5","5","7","6","5","7","6","1","2","3","3","7","2","5","739241210526568449","张","666","Female","[""坏她"",""好我"",""坏我"",""好她""]","[""弱她"",""强我"",""弱我"",""强她""]","","","","","","","","nonmatch","","","","","","","","","","key","j","16.685558558559162","768","428","f","false","match","img/hexagon.png","弱我","弱我","ALT2","ability","","","","","","","","",""
"null","<span style='color:red; font-size: 70px;'>错误! </span>","null","html-keyboard-response","117","527685","0.0-8.0-1.0-4.0-0.0-1.4","1","1","2","2","1","4","2","2","2","3","4","1","1","-2","1","-3","0","1","1","4","2","5","4","3","3","2","3","2","4","4","4","3","5","2","2","3","4","4","2","4","2","1","4","3","3","2","2","1","1","2","2","3","2","2","5","2","6","3","3","2","5","2","3","2","5","5","5","7","6","5","7","6","1","2","3","3","7","2","5","739241210526568449","张","666","Female","[""坏她"",""好我"",""坏我"",""好她""]","[""弱她"",""强我"",""弱我"",""强她""]","","","","","","","","","","","","","","","","","","","","","","","","","","","","","","feedback_test","","","","","","","","",""
"828","","f","psychophysics","118","529514","0.0-8.0-1.0-4.0-0.0-0.5","1","1","2","2","1","4","2","2","2","3","4","1","1","-2","1","-3","0","1","1","4","2","5","4","3","3","2","3","2","4","4","4","3","5","2","2","3","4","4","2","4","2","1","4","3","3","2","2","1","1","2","2","3","2","2","5","2","6","3","3","2","5","2","3","2","5","5","5","7","6","5","7","6","1","2","3","3","7","2","5","739241210526568449","张","666","Female","[""坏她"",""好我"",""坏我"",""好她""]","[""弱她"",""强我"",""弱我"",""强她""]","","","","","","","","match","","","","","","","","","","key","f","16.6840462962961","768","428","f","true","match","img/circle.png","弱她","弱她","ALT2","ability","","","","","","","","",""
"null","<span style='color:GreenYellow; font-size: 70px;'>正确! </span>","null","html-keyboard-response","119","530015","0.0-8.0-1.0-4.0-0.0-1.5","1","1","2","2","1","4","2","2","2","3","4","1","1","-2","1","-3","0","1","1","4","2","5","4","3","3","2","3","2","4","4","4","3","5","2","2","3","4","4","2","4","2","1","4","3","3","2","2","1","1","2","2","3","2","2","5","2","6","3","3","2","5","2","3","2","5","5","5","7","6","5","7","6","1","2","3","3","7","2","5","739241210526568449","张","666","Female","[""坏她"",""好我"",""坏我"",""好她""]","[""弱她"",""强我"",""弱我"",""强她""]","","","","","","","","","","","","","","","","","","","","","","","","","","","","","","feedback_test","","","","","","","","",""
"725","","j","psychophysics","120","531741","0.0-8.0-1.0-4.0-0.0-0.6","1","1","2","2","1","4","2","2","2","3","4","1","1","-2","1","-3","0","1","1","4","2","5","4","3","3","2","3","2","4","4","4","3","5","2","2","3","4","4","2","4","2","1","4","3","3","2","2","1","1","2","2","3","2","2","5","2","6","3","3","2","5","2","3","2","5","5","5","7","6","5","7","6","1","2","3","3","7","2","5","739241210526568449","张","666","Female","[""坏她"",""好我"",""坏我"",""好她""]","[""弱她"",""强我"",""弱我"",""强她""]","","","","","","","","nonmatch","","","","","","","","","","key","j","16.68610679611645","768","428","j","true","nonmatch","img/circle.png","强我","弱她","ALT2","ability","","","","","","","","",""
"null","<span style='color:GreenYellow; font-size: 70px;'>正确! </span>","null","html-keyboard-response","121","532242","0.0-8.0-1.0-4.0-0.0-1.6","1","1","2","2","1","4","2","2","2","3","4","1","1","-2","1","-3","0","1","1","4","2","5","4","3","3","2","3","2","4","4","4","3","5","2","2","3","4","4","2","4","2","1","4","3","3","2","2","1","1","2","2","3","2","2","5","2","6","3","3","2","5","2","3","2","5","5","5","7","6","5","7","6","1","2","3","3","7","2","5","739241210526568449","张","666","Female","[""坏她"",""好我"",""坏我"",""好她""]","[""弱她"",""强我"",""弱我"",""强她""]","","","","","","","","","","","","","","","","","","","","","","","","","","","","","","feedback_test","","","","","","","","",""
"828","","j","psychophysics","122","534071","0.0-8.0-1.0-4.0-0.0-0.7","1","1","2","2","1","4","2","2","2","3","4","1","1","-2","1","-3","0","1","1","4","2","5","4","3","3","2","3","2","4","4","4","3","5","2","2","3","4","4","2","4","2","1","4","3","3","2","2","1","1","2","2","3","2","2","5","2","6","3","3","2","5","2","3","2","5","5","5","7","6","5","7","6","1","2","3","3","7","2","5","739241210526568449","张","666","Female","[""坏她"",""好我"",""坏我"",""好她""]","[""弱她"",""强我"",""弱我"",""强她""]","","","","","","","","nonmatch","","","","","","","","","","key","j","16.687157407407305","768","428","j","true","nonmatch","img/hexagon.png","强她","弱我","ALT2","ability","","","","","","","","",""
"null","<span style='color:GreenYellow; font-size: 70px;'>正确! </span>","null","html-keyboard-response","123","534573","0.0-8.0-1.0-4.0-0.0-1.7","1","1","2","2","1","4","2","2","2","3","4","1","1","-2","1","-3","0","1","1","4","2","5","4","3","3","2","3","2","4","4","4","3","5","2","2","3","4","4","2","4","2","1","4","3","3","2","2","1","1","2","2","3","2","2","5","2","6","3","3","2","5","2","3","2","5","5","5","7","6","5","7","6","1","2","3","3","7","2","5","739241210526568449","张","666","Female","[""坏她"",""好我"",""坏我"",""好她""]","[""弱她"",""强我"",""弱我"",""强她""]","","","","","","","","","","","","","","","","","","","","","","","","","","","","","","feedback_test","","","","","","","","",""
"1025","","f","psychophysics","124","536599","0.0-8.0-1.0-4.0-0.0-0.8","1","1","2","2","1","4","2","2","2","3","4","1","1","-2","1","-3","0","1","1","4","2","5","4","3","3","2","3","2","4","4","4","3","5","2","2","3","4","4","2","4","2","1","4","3","3","2","2","1","1","2","2","3","2","2","5","2","6","3","3","2","5","2","3","2","5","5","5","7","6","5","7","6","1","2","3","3","7","2","5","739241210526568449","张","666","Female","[""坏她"",""好我"",""坏我"",""好她""]","[""弱她"",""强我"",""弱我"",""强她""]","","","","","","","","match","","","","","","","","","","key","f","16.68501652892552","768","428","j","false","nonmatch","img/trapezoid.png","弱她","强她","ALT2","ability","","","","","","","","",""
"null","<span style='color:red; font-size: 70px;'>错误! </span>","null","html-keyboard-response","125","537100","0.0-8.0-1.0-4.0-0.0-1.8","1","1","2","2","1","4","2","2","2","3","4","1","1","-2","1","-3","0","1","1","4","2","5","4","3","3","2","3","2","4","4","4","3","5","2","2","3","4","4","2","4","2","1","4","3","3","2","2","1","1","2","2","3","2","2","5","2","6","3","3","2","5","2","3","2","5","5","5","7","6","5","7","6","1","2","3","3","7","2","5","739241210526568449","张","666","Female","[""坏她"",""好我"",""坏我"",""好她""]","[""弱她"",""强我"",""弱我"",""强她""]","","","","","","","","","","","","","","","","","","","","","","","","","","","","","","feedback_test","","","","","","","","",""
"866","","j","psychophysics","126","538968","0.0-8.0-1.0-4.0-0.0-0.9","1","1","2","2","1","4","2","2","2","3","4","1","1","-2","1","-3","0","1","1","4","2","5","4","3","3","2","3","2","4","4","4","3","5","2","2","3","4","4","2","4","2","1","4","3","3","2","2","1","1","2","2","3","2","2","5","2","6","3","3","2","5","2","3","2","5","5","5","7","6","5","7","6","1","2","3","3","7","2","5","739241210526568449","张","666","Female","[""坏她"",""好我"",""坏我"",""好她""]","[""弱她"",""强我"",""弱我"",""强她""]","","","","","","","","nonmatch","","","","","","","","","","key","j","16.684900900900683","768","428","f","false","match","img/trapezoid.png","强她","强她","ALT2","ability","","","","","","","","",""
"null","<span style='color:red; font-size: 70px;'>错误! </span>","null","html-keyboard-response","127","539470","0.0-8.0-1.0-4.0-0.0-1.9","1","1","2","2","1","4","2","2","2","3","4","1","1","-2","1","-3","0","1","1","4","2","5","4","3","3","2","3","2","4","4","4","3","5","2","2","3","4","4","2","4","2","1","4","3","3","2","2","1","1","2","2","3","2","2","5","2","6","3","3","2","5","2","3","2","5","5","5","7","6","5","7","6","1","2","3","3","7","2","5","739241210526568449","张","666","Female","[""坏她"",""好我"",""坏我"",""好她""]","[""弱她"",""强我"",""弱我"",""强她""]","","","","","","","","","","","","","","","","","","","","","","","","","","","","","","feedback_test","","","","","","","","",""
"1052","","j","psychophysics","128","541524","0.0-8.0-1.0-4.0-0.0-0.10","1","1","2","2","1","4","2","2","2","3","4","1","1","-2","1","-3","0","1","1","4","2","5","4","3","3","2","3","2","4","4","4","3","5","2","2","3","4","4","2","4","2","1","4","3","3","2","2","1","1","2","2","3","2","2","5","2","6","3","3","2","5","2","3","2","5","5","5","7","6","5","7","6","1","2","3","3","7","2","5","739241210526568449","张","666","Female","[""坏她"",""好我"",""坏我"",""好她""]","[""弱她"",""强我"",""弱我"",""强她""]","","","","","","","","nonmatch","","","","","","","","","","key","j","16.68453278688458","768","428","j","true","nonmatch","img/trapezoid.png","弱我","强她","ALT2","ability","","","","","","","","",""
"null","<span style='color:GreenYellow; font-size: 70px;'>正确! </span>","null","html-keyboard-response","129","542025","0.0-8.0-1.0-4.0-0.0-1.10","1","1","2","2","1","4","2","2","2","3","4","1","1","-2","1","-3","0","1","1","4","2","5","4","3","3","2","3","2","4","4","4","3","5","2","2","3","4","4","2","4","2","1","4","3","3","2","2","1","1","2","2","3","2","2","5","2","6","3","3","2","5","2","3","2","5","5","5","7","6","5","7","6","1","2","3","3","7","2","5","739241210526568449","张","666","Female","[""坏她"",""好我"",""坏我"",""好她""]","[""弱她"",""强我"",""弱我"",""强她""]","","","","","","","","","","","","","","","","","","","","","","","","","","","","","","feedback_test","","","","","","","","",""
"918","","f","psychophysics","130","543944","0.0-8.0-1.0-4.0-0.0-0.11","1","1","2","2","1","4","2","2","2","3","4","1","1","-2","1","-3","0","1","1","4","2","5","4","3","3","2","3","2","4","4","4","3","5","2","2","3","4","4","2","4","2","1","4","3","3","2","2","1","1","2","2","3","2","2","5","2","6","3","3","2","5","2","3","2","5","5","5","7","6","5","7","6","1","2","3","3","7","2","5","739241210526568449","张","666","Female","[""坏她"",""好我"",""坏我"",""好她""]","[""弱她"",""强我"",""弱我"",""强她""]","","","","","","","","match","","","","","","","","","","key","f","16.6848333333333","768","428","j","false","nonmatch","img/hexagon.png","强我","弱我","ALT2","ability","","","","","","","","",""
"null","<span style='color:red; font-size: 70px;'>错误! </span>","null","html-keyboard-response","131","544445","0.0-8.0-1.0-4.0-0.0-1.11","1","1","2","2","1","4","2","2","2","3","4","1","1","-2","1","-3","0","1","1","4","2","5","4","3","3","2","3","2","4","4","4","3","5","2","2","3","4","4","2","4","2","1","4","3","3","2","2","1","1","2","2","3","2","2","5","2","6","3","3","2","5","2","3","2","5","5","5","7","6","5","7","6","1","2","3","3","7","2","5","739241210526568449","张","666","Female","[""坏她"",""好我"",""坏我"",""好她""]","[""弱她"",""强我"",""弱我"",""强她""]","","","","","","","","","","","","","","","","","","","","","","","","","","","","","","feedback_test","","","","","","","","",""
"690","","f","psychophysics","132","546136","0.0-8.0-1.0-4.0-0.0-0.12","1","1","2","2","1","4","2","2","2","3","4","1","1","-2","1","-3","0","1","1","4","2","5","4","3","3","2","3","2","4","4","4","3","5","2","2","3","4","4","2","4","2","1","4","3","3","2","2","1","1","2","2","3","2","2","5","2","6","3","3","2","5","2","3","2","5","5","5","7","6","5","7","6","1","2","3","3","7","2","5","739241210526568449","张","666","Female","[""坏她"",""好我"",""坏我"",""好她""]","[""弱她"",""强我"",""弱我"",""强她""]","","","","","","","","match","","","","","","","","","","key","f","16.68529000000097","768","428","f","true","match","img/square.png","强我","强我","ALT2","ability","","","","","","","","",""
"null","<span style='color:GreenYellow; font-size: 70px;'>正确! </span>","null","html-keyboard-response","133","546637","0.0-8.0-1.0-4.0-0.0-1.12","1","1","2","2","1","4","2","2","2","3","4","1","1","-2","1","-3","0","1","1","4","2","5","4","3","3","2","3","2","4","4","4","3","5","2","2","3","4","4","2","4","2","1","4","3","3","2","2","1","1","2","2","3","2","2","5","2","6","3","3","2","5","2","3","2","5","5","5","7","6","5","7","6","1","2","3","3","7","2","5","739241210526568449","张","666","Female","[""坏她"",""好我"",""坏我"",""好她""]","[""弱她"",""强我"",""弱我"",""强她""]","","","","","","","","","","","","","","","","","","","","","","","","","","","","","","feedback_test","","","","","","","","",""
"920","","j","psychophysics","134","548558","0.0-8.0-1.0-4.0-0.0-0.13","1","1","2","2","1","4","2","2","2","3","4","1","1","-2","1","-3","0","1","1","4","2","5","4","3","3","2","3","2","4","4","4","3","5","2","2","3","4","4","2","4","2","1","4","3","3","2","2","1","1","2","2","3","2","2","5","2","6","3","3","2","5","2","3","2","5","5","5","7","6","5","7","6","1","2","3","3","7","2","5","739241210526568449","张","666","Female","[""坏她"",""好我"",""坏我"",""好她""]","[""弱她"",""强我"",""弱我"",""强她""]","","","","","","","","nonmatch","","","","","","","","","","key","j","16.684877192982466","768","428","j","true","nonmatch","img/square.png","弱我","强我","ALT2","ability","","","","","","","","",""
"null","<span style='color:GreenYellow; font-size: 70px;'>正确! </span>","null","html-keyboard-response","135","549060","0.0-8.0-1.0-4.0-0.0-1.13","1","1","2","2","1","4","2","2","2","3","4","1","1","-2","1","-3","0","1","1","4","2","5","4","3","3","2","3","2","4","4","4","3","5","2","2","3","4","4","2","4","2","1","4","3","3","2","2","1","1","2","2","3","2","2","5","2","6","3","3","2","5","2","3","2","5","5","5","7","6","5","7","6","1","2","3","3","7","2","5","739241210526568449","张","666","Female","[""坏她"",""好我"",""坏我"",""好她""]","[""弱她"",""强我"",""弱我"",""强她""]","","","","","","","","","","","","","","","","","","","","","","","","","","","","","","feedback_test","","","","","","","","",""
"975","","f","psychophysics","136","551036","0.0-8.0-1.0-4.0-0.0-0.14","1","1","2","2","1","4","2","2","2","3","4","1","1","-2","1","-3","0","1","1","4","2","5","4","3","3","2","3","2","4","4","4","3","5","2","2","3","4","4","2","4","2","1","4","3","3","2","2","1","1","2","2","3","2","2","5","2","6","3","3","2","5","2","3","2","5","5","5","7","6","5","7","6","1","2","3","3","7","2","5","739241210526568449","张","666","Female","[""坏她"",""好我"",""坏我"",""好她""]","[""弱她"",""强我"",""弱我"",""强她""]","","","","","","","","match","","","","","","","","","","key","f","16.68582051282084","768","428","f","true","match","img/hexagon.png","弱我","弱我","ALT2","ability","","","","","","","","",""
"null","<span style='color:GreenYellow; font-size: 70px;'>正确! </span>","null","html-keyboard-response","137","551544","0.0-8.0-1.0-4.0-0.0-1.14","1","1","2","2","1","4","2","2","2","3","4","1","1","-2","1","-3","0","1","1","4","2","5","4","3","3","2","3","2","4","4","4","3","5","2","2","3","4","4","2","4","2","1","4","3","3","2","2","1","1","2","2","3","2","2","5","2","6","3","3","2","5","2","3","2","5","5","5","7","6","5","7","6","1","2","3","3","7","2","5","739241210526568449","张","666","Female","[""坏她"",""好我"",""坏我"",""好她""]","[""弱她"",""强我"",""弱我"",""强她""]","","","","","","","","","","","","","","","","","","","","","","","","","","","","","","feedback_test","","","","","","","","",""
