"rt","stimulus","response","trial_type","trial_index","time_elapsed","internal_node_id","swb_1","swb_2","swb_3","swb_4","swb_5","LOT_1","LOT_2","LOT_3","LOT_4","LOT_5","LOT_6","IPC_1","IPC_2","IPC_3","IPC_4","IPC_5","IPC_6","IPC_7","IPC_8","MorIden_1","MorIden_2","MorIden_3","MorIden_4","MorIden_5","MorIden_6","MorIden_7","MorIden_8","MorIden_9","MorIden_10","moralSeImag_1","moralSeImag_2","moralSeImag_3","moralSeImag_4","moralSeImag_5","moralSeImag_6","moralSeImag_7","moralSeImag_8","moralSeImag_9","sde_1","sde_2","sde_3","sde_4","sde_5","sde_6","sde_7","sde_8","sde_9","sde_10","trap2","sde_11","sde_12","sde_13","sde_14","sde_15","sde_16","sde_17","sde_18","sde_19","sde_20","IM_1","IM_2","IM_3","IM_4","IM_5","IM_6","IM_7","IM_8","IM_9","IM_10","IM_11","IM_12","IM_13","IM_14","IM_15","IM_16","IM_17","IM_18","IM_19","IM_20","subj_idx","friend_name","ParticipantID","Sex","Word","Word2","value","success","timeout","failed_images","failed_audio","failed_video","user_agent","responses","item_order","radio_event_ids","radio_event_times","key_event_times","mouse_event_times","straightlining","zigzagging","honeypot","view_history","response_type","key_press","avg_frame_time","center_x","center_y","correct_response","correct","identity","Image","word","condition","task_id","screen_id","time_stamp","person","valence","domain","math","status","duration","question_order","trap2_item"
"21485","
   <p><div style='color:white; font-size: 25px'>您好，欢迎参加本次实验。</div></p>
   <p><div style='color:white; font-size: 25px'>为充分保障您的权利，请确保您已经知晓并同意《参与实验同意书》以及《数据公开知情同意书》。</div></p>
   <p><div style='color:white; font-size: 25px'>如果您未见过上述内容，请咨询实验员。</div></p>
   <p style='color:white; font-size: 25px'>如果您选择继续实验，则表示您已经清楚两份知情同意书的内容并同意。</p>
   <p><div style = ""color: pink;font-size:30px;"">请确保您记得day0的实验编号，您将在本次实验输入该编号，若您忘记，请咨询实验员后作答。</div></p>
   <p><div style = ""color:lightblue;font-size:25px;"">请您尽可能认真地作答，我们将依据您在各问卷和按键任务中的作答质量发放报酬。</div></p>
   <p> <div style = ""color: green""><按空格键至下页></div> </p>
   "," ","html-keyboard-response","0","21489","0.0-0.0","4","5","6","3","1","5","3","3","5","5","5","0","-1","-2","1","-2","1","1","2","5","4","5","5","3","2","4","4","4","3","5","8","7","5","7","4","8","3","6","4","6","7","5","5","4","2","7","3","3","1","4","2","4","3","1","4","3","4","7","5","1","5","1","1","1","6","6","4","7","7","7","3","7","1","1","5","1","1","1","4","784086466967113730","管","388","Female","[""好我"",""坏她"",""坏我"",""好她""]","[""强我"",""弱她"",""弱我"",""强她""]","","","","","","","","","","","","","","","","","","","","","","","","","","","","","","","","","","","","","","",""
"","","","call-function","1","21491","0.0-1.0-0.0","4","5","6","3","1","5","3","3","5","5","5","0","-1","-2","1","-2","1","1","2","5","4","5","5","3","2","4","4","4","3","5","8","7","5","7","4","8","3","6","4","6","7","5","5","4","2","7","3","3","1","4","2","4","3","1","4","3","4","7","5","1","5","1","1","1","6","6","4","7","7","7","3","7","1","1","5","1","1","1","4","784086466967113730","管","388","Female","[""好我"",""坏她"",""坏我"",""好她""]","[""强我"",""弱她"",""弱我"",""强她""]","","","","","","","","","","","","","","","","","","","","","","","","","","","","","","","","","","","","","","",""
"11189","","[{""name"":""Sex"",""value"":""1""},{""name"":""friend_name"",""value"":""管""},{""name"":""ParticipantID"",""value"":""388""}]","survey-html-form","2","32675","0.0-1.0-1.0","4","5","6","3","1","5","3","3","5","5","5","0","-1","-2","1","-2","1","1","2","5","4","5","5","3","2","4","4","4","3","5","8","7","5","7","4","8","3","6","4","6","7","5","5","4","2","7","3","3","1","4","2","4","3","1","4","3","4","7","5","1","5","1","1","1","6","6","4","7","7","7","3","7","1","1","5","1","1","1","4","784086466967113730","管","388","Female","[""好我"",""坏她"",""坏我"",""好她""]","[""强我"",""弱她"",""弱我"",""强她""]","","","","","","","","","","","","","","","","","","","","","","","","","","","","","","","","","","","","","","",""
"","","","preload","3","33067","0.0-2.0","4","5","6","3","1","5","3","3","5","5","5","0","-1","-2","1","-2","1","1","2","5","4","5","5","3","2","4","4","4","3","5","8","7","5","7","4","8","3","6","4","6","7","5","5","4","2","7","3","3","1","4","2","4","3","1","4","3","4","7","5","1","5","1","1","1","6","6","4","7","7","7","3","7","1","1","5","1","1","1","4","784086466967113730","管","388","Female","[""好我"",""坏她"",""坏我"",""好她""]","[""强我"",""弱她"",""弱我"",""强她""]","","true","false","[]","[]","[]","","","","","","","","","","","","","","","","","","","","","","","","","","","","","","","","",""
"","","","fullscreen","4","65126","0.0-3.0","4","5","6","3","1","5","3","3","5","5","5","0","-1","-2","1","-2","1","1","2","5","4","5","5","3","2","4","4","4","3","5","8","7","5","7","4","8","3","6","4","6","7","5","5","4","2","7","3","3","1","4","2","4","3","1","4","3","4","7","5","1","5","1","1","1","6","6","4","7","7","7","3","7","1","1","5","1","1","1","4","784086466967113730","管","388","Female","[""好我"",""坏她"",""坏我"",""好她""]","[""强我"",""弱她"",""弱我"",""强她""]","","true","","","","","{}","","","","","","","","","","","","","","","","","","","","","","","","","","","","","","","",""
"18681.100000000093","","{""Q01"":""4"",""Q02"":""5"",""Q03"":""6"",""Q04"":""3"",""Q05"":""1""}","survey-template","5","83811","0.0-4.0","4","5","6","3","1","5","3","3","5","5","5","0","-1","-2","1","-2","1","1","2","5","4","5","5","3","2","4","4","4","3","5","8","7","5","7","4","8","3","6","4","6","7","5","5","4","2","7","3","3","1","4","2","4","3","1","4","3","4","7","5","1","5","1","1","1","6","6","4","7","7","7","3","7","1","1","5","1","1","1","4","784086466967113730","管","388","Female","[""好我"",""坏她"",""坏我"",""好她""]","[""强我"",""弱她"",""弱我"",""强她""]","","","","","","","","{""Q01"":""4"",""Q02"":""5"",""Q03"":""6"",""Q04"":""3"",""Q05"":""1""}","[0,1,2,3,4]","[""Q01"",""Q02"",""Q03"",""Q04"",""Q05""]","[10456.900000000023,12087.900000000023,13376.300000000047,15599.900000000023,17808.20000000007]","[]","[10456.900000000023,12087.900000000023,13376.300000000047,15599.900000000023,17808.20000000007,18680.20000000007]","0.2","0.5","0","","","","","","","","","","","","","","","","","","","","","","",""
"21716.899999999907","","{""Q01"":""5"",""Q02"":""3"",""Q03"":""3"",""Q04"":""5"",""Q05"":""5"",""Q06"":""5""}","survey-template","6","105536","0.0-5.0","4","5","6","3","1","5","3","3","5","5","5","0","-1","-2","1","-2","1","1","2","5","4","5","5","3","2","4","4","4","3","5","8","7","5","7","4","8","3","6","4","6","7","5","5","4","2","7","3","3","1","4","2","4","3","1","4","3","4","7","5","1","5","1","1","1","6","6","4","7","7","7","3","7","1","1","5","1","1","1","4","784086466967113730","管","388","Female","[""好我"",""坏她"",""坏我"",""好她""]","[""强我"",""弱她"",""弱我"",""强她""]","","","","","","","","{""Q01"":""5"",""Q02"":""3"",""Q03"":""3"",""Q04"":""5"",""Q05"":""5"",""Q06"":""5""}","[0,1,2,3,4,5]","[""Q01"",""Q01"",""Q02"",""Q03"",""Q04"",""Q06"",""Q05""]","[2988.399999999907,4100.099999999977,6596.599999999977,7620.199999999953,12388.699999999953,15772.29999999993,20516.199999999953]","[]","[2988.399999999907,4100.099999999977,6596.599999999977,7620.199999999953,12388.699999999953,13260.199999999953,15772.29999999993,16572.699999999953,20516.199999999953,21716]","0.3333333333333333","0.2","0","","","","","","","","","","","","","","","","","","","","","","",""
"31637.199999999953","","{""Q01"":""0"",""Q02"":""-1"",""Q03"":""-2"",""Q04"":""1"",""Q05"":""-2"",""Q06"":""1"",""Q07"":""1"",""Q08"":""2""}","survey-template","7","137177","0.0-6.0","4","5","6","3","1","5","3","3","5","5","5","0","-1","-2","1","-2","1","1","2","5","4","5","5","3","2","4","4","4","3","5","8","7","5","7","4","8","3","6","4","6","7","5","5","4","2","7","3","3","1","4","2","4","3","1","4","3","4","7","5","1","5","1","1","1","6","6","4","7","7","7","3","7","1","1","5","1","1","1","4","784086466967113730","管","388","Female","[""好我"",""坏她"",""坏我"",""好她""]","[""强我"",""弱她"",""弱我"",""强她""]","","","","","","","","{""Q01"":""0"",""Q02"":""-1"",""Q03"":""-2"",""Q04"":""1"",""Q05"":""-2"",""Q06"":""1"",""Q07"":""1"",""Q08"":""2""}","[0,1,2,3,4,5,6,7]","[""Q01"",""Q02"",""Q03"",""Q05"",""Q06"",""Q07"",""Q08"",""Q07"",""Q04""]","[3651.5999999999767,8859.599999999977,10987.699999999953,15579.599999999977,17531.29999999993,20331.699999999953,22043.79999999993,23140,30715.699999999953]","[]","[3651.5999999999767,8859.599999999977,10987.699999999953,13971.400000000023,15579.599999999977,17531.29999999993,20331.699999999953,22043.79999999993,23140,24203.5,30308,30715.699999999953,31635.79999999993]","0.375","0.42857142857142855","0","","","","","","","","","","","","","","","","","","","","","","",""
"39212","","","instructions","8","176391","0.0-7.0","4","5","6","3","1","5","3","3","5","5","5","0","-1","-2","1","-2","1","1","2","5","4","5","5","3","2","4","4","4","3","5","8","7","5","7","4","8","3","6","4","6","7","5","5","4","2","7","3","3","1","4","2","4","3","1","4","3","4","7","5","1","5","1","1","1","6","6","4","7","7","7","3","7","1","1","5","1","1","1","4","784086466967113730","管","388","Female","[""好我"",""坏她"",""坏我"",""好她""]","[""强我"",""弱她"",""弱我"",""强她""]","","","","","","","","","","","","","","","","","[{""page_index"":0,""viewing_time"":39211}]","","","","","","","","","","","","","","","","","","","","","",""
"103142","","","instructions","9","279535","0.0-8.0-0.0-0.0","4","5","6","3","1","5","3","3","5","5","5","0","-1","-2","1","-2","1","1","2","5","4","5","5","3","2","4","4","4","3","5","8","7","5","7","4","8","3","6","4","6","7","5","5","4","2","7","3","3","1","4","2","4","3","1","4","3","4","7","5","1","5","1","1","1","6","6","4","7","7","7","3","7","1","1","5","1","1","1","4","784086466967113730","管","388","Female","[""好我"",""坏她"",""坏我"",""好她""]","[""强我"",""弱她"",""弱我"",""强她""]","","","","","","","","","","","","","","","","","[{""page_index"":0,""viewing_time"":20470},{""page_index"":1,""viewing_time"":76480},{""page_index"":2,""viewing_time"":4671},{""page_index"":3,""viewing_time"":1520}]","","","","","","","","","","","","","","","","","","","","","",""
"619","","f","psychophysics","10","281162","0.0-8.0-0.0-1.0-0.0-0.0","4","5","6","3","1","5","3","3","5","5","5","0","-1","-2","1","-2","1","1","2","5","4","5","5","3","2","4","4","4","3","5","8","7","5","7","4","8","3","6","4","6","7","5","5","4","2","7","3","3","1","4","2","4","3","1","4","3","4","7","5","1","5","1","1","1","6","6","4","7","7","7","3","7","1","1","5","1","1","1","4","784086466967113730","管","388","Female","[""好我"",""坏她"",""坏我"",""好她""]","[""强我"",""弱她"",""弱我"",""强她""]","","","","","","","","match","","","","","","","","","","key","f","16.650000000000244","774.8571180181065","431.99998615168766","f","true","match","img/triangle.png","好我","好我","prac_ALT2_moral","practice_moral","","","","","","","","",""
"null","<span style='color:GreenYellow; font-size: 70px;'>正确! </span>","null","html-keyboard-response","11","281671","0.0-8.0-0.0-1.0-0.0-1.0","4","5","6","3","1","5","3","3","5","5","5","0","-1","-2","1","-2","1","1","2","5","4","5","5","3","2","4","4","4","3","5","8","7","5","7","4","8","3","6","4","6","7","5","5","4","2","7","3","3","1","4","2","4","3","1","4","3","4","7","5","1","5","1","1","1","6","6","4","7","7","7","3","7","1","1","5","1","1","1","4","784086466967113730","管","388","Female","[""好我"",""坏她"",""坏我"",""好她""]","[""强我"",""弱她"",""弱我"",""强她""]","","","","","","","","","","","","","","","","","","","","","","","","","","","","","","feedback_test","","","","","","","","",""
"923","","j","psychophysics","12","283604","0.0-8.0-0.0-1.0-0.0-0.1","4","5","6","3","1","5","3","3","5","5","5","0","-1","-2","1","-2","1","1","2","5","4","5","5","3","2","4","4","4","3","5","8","7","5","7","4","8","3","6","4","6","7","5","5","4","2","7","3","3","1","4","2","4","3","1","4","3","4","7","5","1","5","1","1","1","6","6","4","7","7","7","3","7","1","1","5","1","1","1","4","784086466967113730","管","388","Female","[""好我"",""坏她"",""坏我"",""好她""]","[""强我"",""弱她"",""弱我"",""强她""]","","","","","","","","nonmatch","","","","","","","","","","key","j","16.65391304347836","774.8571180181065","431.99998615168766","j","true","nonmatch","img/circle.png","坏她","好她","prac_ALT2_moral","practice_moral","","","","","","","","",""
"null","<span style='color:GreenYellow; font-size: 70px;'>正确! </span>","null","html-keyboard-response","13","284111","0.0-8.0-0.0-1.0-0.0-1.1","4","5","6","3","1","5","3","3","5","5","5","0","-1","-2","1","-2","1","1","2","5","4","5","5","3","2","4","4","4","3","5","8","7","5","7","4","8","3","6","4","6","7","5","5","4","2","7","3","3","1","4","2","4","3","1","4","3","4","7","5","1","5","1","1","1","6","6","4","7","7","7","3","7","1","1","5","1","1","1","4","784086466967113730","管","388","Female","[""好我"",""坏她"",""坏我"",""好她""]","[""强我"",""弱她"",""弱我"",""强她""]","","","","","","","","","","","","","","","","","","","","","","","","","","","","","","feedback_test","","","","","","","","",""
"717","","j","psychophysics","14","285830","0.0-8.0-0.0-1.0-0.0-0.2","4","5","6","3","1","5","3","3","5","5","5","0","-1","-2","1","-2","1","1","2","5","4","5","5","3","2","4","4","4","3","5","8","7","5","7","4","8","3","6","4","6","7","5","5","4","2","7","3","3","1","4","2","4","3","1","4","3","4","7","5","1","5","1","1","1","6","6","4","7","7","7","3","7","1","1","5","1","1","1","4","784086466967113730","管","388","Female","[""好我"",""坏她"",""坏我"",""好她""]","[""强我"",""弱她"",""弱我"",""强她""]","","","","","","","","nonmatch","","","","","","","","","","key","j","16.647572815534094","774.8571180181065","431.99998615168766","j","true","nonmatch","img/triangle.png","坏我","好我","prac_ALT2_moral","practice_moral","","","","","","","","",""
"null","<span style='color:GreenYellow; font-size: 70px;'>正确! </span>","null","html-keyboard-response","15","286338","0.0-8.0-0.0-1.0-0.0-1.2","4","5","6","3","1","5","3","3","5","5","5","0","-1","-2","1","-2","1","1","2","5","4","5","5","3","2","4","4","4","3","5","8","7","5","7","4","8","3","6","4","6","7","5","5","4","2","7","3","3","1","4","2","4","3","1","4","3","4","7","5","1","5","1","1","1","6","6","4","7","7","7","3","7","1","1","5","1","1","1","4","784086466967113730","管","388","Female","[""好我"",""坏她"",""坏我"",""好她""]","[""强我"",""弱她"",""弱我"",""强她""]","","","","","","","","","","","","","","","","","","","","","","","","","","","","","","feedback_test","","","","","","","","",""
"727","","j","psychophysics","16","288069","0.0-8.0-0.0-1.0-0.0-0.3","4","5","6","3","1","5","3","3","5","5","5","0","-1","-2","1","-2","1","1","2","5","4","5","5","3","2","4","4","4","3","5","8","7","5","7","4","8","3","6","4","6","7","5","5","4","2","7","3","3","1","4","2","4","3","1","4","3","4","7","5","1","5","1","1","1","6","6","4","7","7","7","3","7","1","1","5","1","1","1","4","784086466967113730","管","388","Female","[""好我"",""坏她"",""坏我"",""好她""]","[""强我"",""弱她"",""弱我"",""强她""]","","","","","","","","nonmatch","","","","","","","","","","key","j","16.654368932039063","774.8571180181065","431.99998615168766","j","true","nonmatch","img/triangle.png","好她","好我","prac_ALT2_moral","practice_moral","","","","","","","","",""
"null","<span style='color:GreenYellow; font-size: 70px;'>正确! </span>","null","html-keyboard-response","17","288576","0.0-8.0-0.0-1.0-0.0-1.3","4","5","6","3","1","5","3","3","5","5","5","0","-1","-2","1","-2","1","1","2","5","4","5","5","3","2","4","4","4","3","5","8","7","5","7","4","8","3","6","4","6","7","5","5","4","2","7","3","3","1","4","2","4","3","1","4","3","4","7","5","1","5","1","1","1","6","6","4","7","7","7","3","7","1","1","5","1","1","1","4","784086466967113730","管","388","Female","[""好我"",""坏她"",""坏我"",""好她""]","[""强我"",""弱她"",""弱我"",""强她""]","","","","","","","","","","","","","","","","","","","","","","","","","","","","","","feedback_test","","","","","","","","",""
"794","","f","psychophysics","18","290380","0.0-8.0-0.0-1.0-0.0-0.4","4","5","6","3","1","5","3","3","5","5","5","0","-1","-2","1","-2","1","1","2","5","4","5","5","3","2","4","4","4","3","5","8","7","5","7","4","8","3","6","4","6","7","5","5","4","2","7","3","3","1","4","2","4","3","1","4","3","4","7","5","1","5","1","1","1","6","6","4","7","7","7","3","7","1","1","5","1","1","1","4","784086466967113730","管","388","Female","[""好我"",""坏她"",""坏我"",""好她""]","[""强我"",""弱她"",""弱我"",""强她""]","","","","","","","","match","","","","","","","","","","key","f","16.65514018691567","774.8571180181065","431.99998615168766","j","false","nonmatch","img/hexagon.png","好她","坏她","prac_ALT2_moral","practice_moral","","","","","","","","",""
"null","<span style='color:red; font-size: 70px;'>错误! </span>","null","html-keyboard-response","19","290890","0.0-8.0-0.0-1.0-0.0-1.4","4","5","6","3","1","5","3","3","5","5","5","0","-1","-2","1","-2","1","1","2","5","4","5","5","3","2","4","4","4","3","5","8","7","5","7","4","8","3","6","4","6","7","5","5","4","2","7","3","3","1","4","2","4","3","1","4","3","4","7","5","1","5","1","1","1","6","6","4","7","7","7","3","7","1","1","5","1","1","1","4","784086466967113730","管","388","Female","[""好我"",""坏她"",""坏我"",""好她""]","[""强我"",""弱她"",""弱我"",""强她""]","","","","","","","","","","","","","","","","","","","","","","","","","","","","","","feedback_test","","","","","","","","",""
"779","","j","psychophysics","20","292671","0.0-8.0-0.0-1.0-0.0-0.5","4","5","6","3","1","5","3","3","5","5","5","0","-1","-2","1","-2","1","1","2","5","4","5","5","3","2","4","4","4","3","5","8","7","5","7","4","8","3","6","4","6","7","5","5","4","2","7","3","3","1","4","2","4","3","1","4","3","4","7","5","1","5","1","1","1","6","6","4","7","7","7","3","7","1","1","5","1","1","1","4","784086466967113730","管","388","Female","[""好我"",""坏她"",""坏我"",""好她""]","[""强我"",""弱她"",""弱我"",""强她""]","","","","","","","","nonmatch","","","","","","","","","","key","j","16.595238095238095","774.8571180181065","431.99998615168766","j","true","nonmatch","img/hexagon.png","好我","坏她","prac_ALT2_moral","practice_moral","","","","","","","","",""
"null","<span style='color:GreenYellow; font-size: 70px;'>正确! </span>","null","html-keyboard-response","21","293173","0.0-8.0-0.0-1.0-0.0-1.5","4","5","6","3","1","5","3","3","5","5","5","0","-1","-2","1","-2","1","1","2","5","4","5","5","3","2","4","4","4","3","5","8","7","5","7","4","8","3","6","4","6","7","5","5","4","2","7","3","3","1","4","2","4","3","1","4","3","4","7","5","1","5","1","1","1","6","6","4","7","7","7","3","7","1","1","5","1","1","1","4","784086466967113730","管","388","Female","[""好我"",""坏她"",""坏我"",""好她""]","[""强我"",""弱她"",""弱我"",""强她""]","","","","","","","","","","","","","","","","","","","","","","","","","","","","","","feedback_test","","","","","","","","",""
"775","","f","psychophysics","22","294950","0.0-8.0-0.0-1.0-0.0-0.6","4","5","6","3","1","5","3","3","5","5","5","0","-1","-2","1","-2","1","1","2","5","4","5","5","3","2","4","4","4","3","5","8","7","5","7","4","8","3","6","4","6","7","5","5","4","2","7","3","3","1","4","2","4","3","1","4","3","4","7","5","1","5","1","1","1","6","6","4","7","7","7","3","7","1","1","5","1","1","1","4","784086466967113730","管","388","Female","[""好我"",""坏她"",""坏我"",""好她""]","[""强我"",""弱她"",""弱我"",""强她""]","","","","","","","","match","","","","","","","","","","key","f","16.652380952380952","774.8571180181065","431.99998615168766","f","true","match","img/hexagon.png","坏她","坏她","prac_ALT2_moral","practice_moral","","","","","","","","",""
"null","<span style='color:GreenYellow; font-size: 70px;'>正确! </span>","null","html-keyboard-response","23","295460","0.0-8.0-0.0-1.0-0.0-1.6","4","5","6","3","1","5","3","3","5","5","5","0","-1","-2","1","-2","1","1","2","5","4","5","5","3","2","4","4","4","3","5","8","7","5","7","4","8","3","6","4","6","7","5","5","4","2","7","3","3","1","4","2","4","3","1","4","3","4","7","5","1","5","1","1","1","6","6","4","7","7","7","3","7","1","1","5","1","1","1","4","784086466967113730","管","388","Female","[""好我"",""坏她"",""坏我"",""好她""]","[""强我"",""弱她"",""弱我"",""强她""]","","","","","","","","","","","","","","","","","","","","","","","","","","","","","","feedback_test","","","","","","","","",""
"838","","j","psychophysics","24","297300","0.0-8.0-0.0-1.0-0.0-0.7","4","5","6","3","1","5","3","3","5","5","5","0","-1","-2","1","-2","1","1","2","5","4","5","5","3","2","4","4","4","3","5","8","7","5","7","4","8","3","6","4","6","7","5","5","4","2","7","3","3","1","4","2","4","3","1","4","3","4","7","5","1","5","1","1","1","6","6","4","7","7","7","3","7","1","1","5","1","1","1","4","784086466967113730","管","388","Female","[""好我"",""坏她"",""坏我"",""好她""]","[""强我"",""弱她"",""弱我"",""强她""]","","","","","","","","nonmatch","","","","","","","","","","key","j","16.653211009173884","774.8571180181065","431.99998615168766","j","true","nonmatch","img/circle.png","坏我","好她","prac_ALT2_moral","practice_moral","","","","","","","","",""
"null","<span style='color:GreenYellow; font-size: 70px;'>正确! </span>","null","html-keyboard-response","25","297813","0.0-8.0-0.0-1.0-0.0-1.7","4","5","6","3","1","5","3","3","5","5","5","0","-1","-2","1","-2","1","1","2","5","4","5","5","3","2","4","4","4","3","5","8","7","5","7","4","8","3","6","4","6","7","5","5","4","2","7","3","3","1","4","2","4","3","1","4","3","4","7","5","1","5","1","1","1","6","6","4","7","7","7","3","7","1","1","5","1","1","1","4","784086466967113730","管","388","Female","[""好我"",""坏她"",""坏我"",""好她""]","[""强我"",""弱她"",""弱我"",""强她""]","","","","","","","","","","","","","","","","","","","","","","","","","","","","","","feedback_test","","","","","","","","",""
"725","","j","psychophysics","26","299544","0.0-8.0-0.0-1.0-0.0-0.8","4","5","6","3","1","5","3","3","5","5","5","0","-1","-2","1","-2","1","1","2","5","4","5","5","3","2","4","4","4","3","5","8","7","5","7","4","8","3","6","4","6","7","5","5","4","2","7","3","3","1","4","2","4","3","1","4","3","4","7","5","1","5","1","1","1","6","6","4","7","7","7","3","7","1","1","5","1","1","1","4","784086466967113730","管","388","Female","[""好我"",""坏她"",""坏我"",""好她""]","[""强我"",""弱她"",""弱我"",""强她""]","","","","","","","","nonmatch","","","","","","","","","","key","j","16.654368932039063","774.8571180181065","431.99998615168766","j","true","nonmatch","img/triangle.png","坏她","好我","prac_ALT2_moral","practice_moral","","","","","","","","",""
"null","<span style='color:GreenYellow; font-size: 70px;'>正确! </span>","null","html-keyboard-response","27","300051","0.0-8.0-0.0-1.0-0.0-1.8","4","5","6","3","1","5","3","3","5","5","5","0","-1","-2","1","-2","1","1","2","5","4","5","5","3","2","4","4","4","3","5","8","7","5","7","4","8","3","6","4","6","7","5","5","4","2","7","3","3","1","4","2","4","3","1","4","3","4","7","5","1","5","1","1","1","6","6","4","7","7","7","3","7","1","1","5","1","1","1","4","784086466967113730","管","388","Female","[""好我"",""坏她"",""坏我"",""好她""]","[""强我"",""弱她"",""弱我"",""强她""]","","","","","","","","","","","","","","","","","","","","","","","","","","","","","","feedback_test","","","","","","","","",""
"1022","","j","psychophysics","28","302080","0.0-8.0-0.0-1.0-0.0-0.9","4","5","6","3","1","5","3","3","5","5","5","0","-1","-2","1","-2","1","1","2","5","4","5","5","3","2","4","4","4","3","5","8","7","5","7","4","8","3","6","4","6","7","5","5","4","2","7","3","3","1","4","2","4","3","1","4","3","4","7","5","1","5","1","1","1","6","6","4","7","7","7","3","7","1","1","5","1","1","1","4","784086466967113730","管","388","Female","[""好我"",""坏她"",""坏我"",""好她""]","[""强我"",""弱她"",""弱我"",""强她""]","","","","","","","","nonmatch","","","","","","","","","","key","j","16.654166666666665","774.8571180181065","431.99998615168766","f","false","match","img/hexagon.png","坏她","坏她","prac_ALT2_moral","practice_moral","","","","","","","","",""
"null","<span style='color:red; font-size: 70px;'>错误! </span>","null","html-keyboard-response","29","302589","0.0-8.0-0.0-1.0-0.0-1.9","4","5","6","3","1","5","3","3","5","5","5","0","-1","-2","1","-2","1","1","2","5","4","5","5","3","2","4","4","4","3","5","8","7","5","7","4","8","3","6","4","6","7","5","5","4","2","7","3","3","1","4","2","4","3","1","4","3","4","7","5","1","5","1","1","1","6","6","4","7","7","7","3","7","1","1","5","1","1","1","4","784086466967113730","管","388","Female","[""好我"",""坏她"",""坏我"",""好她""]","[""强我"",""弱她"",""弱我"",""强她""]","","","","","","","","","","","","","","","","","","","","","","","","","","","","","","feedback_test","","","","","","","","",""
"874","","j","psychophysics","30","304472","0.0-8.0-0.0-1.0-0.0-0.10","4","5","6","3","1","5","3","3","5","5","5","0","-1","-2","1","-2","1","1","2","5","4","5","5","3","2","4","4","4","3","5","8","7","5","7","4","8","3","6","4","6","7","5","5","4","2","7","3","3","1","4","2","4","3","1","4","3","4","7","5","1","5","1","1","1","6","6","4","7","7","7","3","7","1","1","5","1","1","1","4","784086466967113730","管","388","Female","[""好我"",""坏她"",""坏我"",""好她""]","[""强我"",""弱她"",""弱我"",""强她""]","","","","","","","","nonmatch","","","","","","","","","","key","j","16.65446428571418","774.8571180181065","431.99998615168766","j","true","nonmatch","img/circle.png","好我","好她","prac_ALT2_moral","practice_moral","","","","","","","","",""
"null","<span style='color:GreenYellow; font-size: 70px;'>正确! </span>","null","html-keyboard-response","31","304974","0.0-8.0-0.0-1.0-0.0-1.10","4","5","6","3","1","5","3","3","5","5","5","0","-1","-2","1","-2","1","1","2","5","4","5","5","3","2","4","4","4","3","5","8","7","5","7","4","8","3","6","4","6","7","5","5","4","2","7","3","3","1","4","2","4","3","1","4","3","4","7","5","1","5","1","1","1","6","6","4","7","7","7","3","7","1","1","5","1","1","1","4","784086466967113730","管","388","Female","[""好我"",""坏她"",""坏我"",""好她""]","[""强我"",""弱她"",""弱我"",""强她""]","","","","","","","","","","","","","","","","","","","","","","","","","","","","","","feedback_test","","","","","","","","",""
"951","","j","psychophysics","32","306931","0.0-8.0-0.0-1.0-0.0-0.11","4","5","6","3","1","5","3","3","5","5","5","0","-1","-2","1","-2","1","1","2","5","4","5","5","3","2","4","4","4","3","5","8","7","5","7","4","8","3","6","4","6","7","5","5","4","2","7","3","3","1","4","2","4","3","1","4","3","4","7","5","1","5","1","1","1","6","6","4","7","7","7","3","7","1","1","5","1","1","1","4","784086466967113730","管","388","Female","[""好我"",""坏她"",""坏我"",""好她""]","[""强我"",""弱她"",""弱我"",""强她""]","","","","","","","","nonmatch","","","","","","","","","","key","j","16.656410256410158","774.8571180181065","431.99998615168766","j","true","nonmatch","img/trapezoid.png","坏她","坏我","prac_ALT2_moral","practice_moral","","","","","","","","",""
"null","<span style='color:GreenYellow; font-size: 70px;'>正确! </span>","null","html-keyboard-response","33","307437","0.0-8.0-0.0-1.0-0.0-1.11","4","5","6","3","1","5","3","3","5","5","5","0","-1","-2","1","-2","1","1","2","5","4","5","5","3","2","4","4","4","3","5","8","7","5","7","4","8","3","6","4","6","7","5","5","4","2","7","3","3","1","4","2","4","3","1","4","3","4","7","5","1","5","1","1","1","6","6","4","7","7","7","3","7","1","1","5","1","1","1","4","784086466967113730","管","388","Female","[""好我"",""坏她"",""坏我"",""好她""]","[""强我"",""弱她"",""弱我"",""强她""]","","","","","","","","","","","","","","","","","","","","","","","","","","","","","","feedback_test","","","","","","","","",""
"574","","f","psychophysics","34","309018","0.0-8.0-0.0-1.0-0.0-0.12","4","5","6","3","1","5","3","3","5","5","5","0","-1","-2","1","-2","1","1","2","5","4","5","5","3","2","4","4","4","3","5","8","7","5","7","4","8","3","6","4","6","7","5","5","4","2","7","3","3","1","4","2","4","3","1","4","3","4","7","5","1","5","1","1","1","6","6","4","7","7","7","3","7","1","1","5","1","1","1","4","784086466967113730","管","388","Female","[""好我"",""坏她"",""坏我"",""好她""]","[""强我"",""弱她"",""弱我"",""强她""]","","","","","","","","match","","","","","","","","","","key","f","16.652127659574962","774.8571180181065","431.99998615168766","f","true","match","img/triangle.png","好我","好我","prac_ALT2_moral","practice_moral","","","","","","","","",""
"null","<span style='color:GreenYellow; font-size: 70px;'>正确! </span>","null","html-keyboard-response","35","309526","0.0-8.0-0.0-1.0-0.0-1.12","4","5","6","3","1","5","3","3","5","5","5","0","-1","-2","1","-2","1","1","2","5","4","5","5","3","2","4","4","4","3","5","8","7","5","7","4","8","3","6","4","6","7","5","5","4","2","7","3","3","1","4","2","4","3","1","4","3","4","7","5","1","5","1","1","1","6","6","4","7","7","7","3","7","1","1","5","1","1","1","4","784086466967113730","管","388","Female","[""好我"",""坏她"",""坏我"",""好她""]","[""强我"",""弱她"",""弱我"",""强她""]","","","","","","","","","","","","","","","","","","","","","","","","","","","","","","feedback_test","","","","","","","","",""
"986","","j","psychophysics","36","311513","0.0-8.0-0.0-1.0-0.0-0.13","4","5","6","3","1","5","3","3","5","5","5","0","-1","-2","1","-2","1","1","2","5","4","5","5","3","2","4","4","4","3","5","8","7","5","7","4","8","3","6","4","6","7","5","5","4","2","7","3","3","1","4","2","4","3","1","4","3","4","7","5","1","5","1","1","1","6","6","4","7","7","7","3","7","1","1","5","1","1","1","4","784086466967113730","管","388","Female","[""好我"",""坏她"",""坏我"",""好她""]","[""强我"",""弱她"",""弱我"",""强她""]","","","","","","","","nonmatch","","","","","","","","","","key","j","16.654237288135693","774.8571180181065","431.99998615168766","f","false","match","img/circle.png","好她","好她","prac_ALT2_moral","practice_moral","","","","","","","","",""
"null","<span style='color:red; font-size: 70px;'>错误! </span>","null","html-keyboard-response","37","312021","0.0-8.0-0.0-1.0-0.0-1.13","4","5","6","3","1","5","3","3","5","5","5","0","-1","-2","1","-2","1","1","2","5","4","5","5","3","2","4","4","4","3","5","8","7","5","7","4","8","3","6","4","6","7","5","5","4","2","7","3","3","1","4","2","4","3","1","4","3","4","7","5","1","5","1","1","1","6","6","4","7","7","7","3","7","1","1","5","1","1","1","4","784086466967113730","管","388","Female","[""好我"",""坏她"",""坏我"",""好她""]","[""强我"",""弱她"",""弱我"",""强她""]","","","","","","","","","","","","","","","","","","","","","","","","","","","","","","feedback_test","","","","","","","","",""
"1067","","j","psychophysics","38","314092","0.0-8.0-0.0-1.0-0.0-0.14","4","5","6","3","1","5","3","3","5","5","5","0","-1","-2","1","-2","1","1","2","5","4","5","5","3","2","4","4","4","3","5","8","7","5","7","4","8","3","6","4","6","7","5","5","4","2","7","3","3","1","4","2","4","3","1","4","3","4","7","5","1","5","1","1","1","6","6","4","7","7","7","3","7","1","1","5","1","1","1","4","784086466967113730","管","388","Female","[""好我"",""坏她"",""坏我"",""好她""]","[""强我"",""弱她"",""弱我"",""强她""]","","","","","","","","nonmatch","","","","","","","","","","key","j","16.650806451612997","774.8571180181065","431.99998615168766","j","true","nonmatch","img/trapezoid.png","好我","坏我","prac_ALT2_moral","practice_moral","","","","","","","","",""
"null","<span style='color:GreenYellow; font-size: 70px;'>正确! </span>","null","html-keyboard-response","39","314593","0.0-8.0-0.0-1.0-0.0-1.14","4","5","6","3","1","5","3","3","5","5","5","0","-1","-2","1","-2","1","1","2","5","4","5","5","3","2","4","4","4","3","5","8","7","5","7","4","8","3","6","4","6","7","5","5","4","2","7","3","3","1","4","2","4","3","1","4","3","4","7","5","1","5","1","1","1","6","6","4","7","7","7","3","7","1","1","5","1","1","1","4","784086466967113730","管","388","Female","[""好我"",""坏她"",""坏我"",""好她""]","[""强我"",""弱她"",""弱我"",""强她""]","","","","","","","","","","","","","","","","","","","","","","","","","","","","","","feedback_test","","","","","","","","",""
"879","","j","psychophysics","40","316481","0.0-8.0-0.0-1.0-0.0-0.15","4","5","6","3","1","5","3","3","5","5","5","0","-1","-2","1","-2","1","1","2","5","4","5","5","3","2","4","4","4","3","5","8","7","5","7","4","8","3","6","4","6","7","5","5","4","2","7","3","3","1","4","2","4","3","1","4","3","4","7","5","1","5","1","1","1","6","6","4","7","7","7","3","7","1","1","5","1","1","1","4","784086466967113730","管","388","Female","[""好我"",""坏她"",""坏我"",""好她""]","[""强我"",""弱她"",""弱我"",""强她""]","","","","","","","","nonmatch","","","","","","","","","","key","j","16.65535714285735","774.8571180181065","431.99998615168766","j","true","nonmatch","img/hexagon.png","坏我","坏她","prac_ALT2_moral","practice_moral","","","","","","","","",""
"null","<span style='color:GreenYellow; font-size: 70px;'>正确! </span>","null","html-keyboard-response","41","316986","0.0-8.0-0.0-1.0-0.0-1.15","4","5","6","3","1","5","3","3","5","5","5","0","-1","-2","1","-2","1","1","2","5","4","5","5","3","2","4","4","4","3","5","8","7","5","7","4","8","3","6","4","6","7","5","5","4","2","7","3","3","1","4","2","4","3","1","4","3","4","7","5","1","5","1","1","1","6","6","4","7","7","7","3","7","1","1","5","1","1","1","4","784086466967113730","管","388","Female","[""好我"",""坏她"",""坏我"",""好她""]","[""强我"",""弱她"",""弱我"",""强她""]","","","","","","","","","","","","","","","","","","","","","","","","","","","","","","feedback_test","","","","","","","","",""
"930","","f","psychophysics","42","318918","0.0-8.0-0.0-1.0-0.0-0.16","4","5","6","3","1","5","3","3","5","5","5","0","-1","-2","1","-2","1","1","2","5","4","5","5","3","2","4","4","4","3","5","8","7","5","7","4","8","3","6","4","6","7","5","5","4","2","7","3","3","1","4","2","4","3","1","4","3","4","7","5","1","5","1","1","1","6","6","4","7","7","7","3","7","1","1","5","1","1","1","4","784086466967113730","管","388","Female","[""好我"",""坏她"",""坏我"",""好她""]","[""强我"",""弱她"",""弱我"",""强她""]","","","","","","","","match","","","","","","","","","","key","f","16.652631578947574","774.8571180181065","431.99998615168766","f","true","match","img/circle.png","好她","好她","prac_ALT2_moral","practice_moral","","","","","","","","",""
"null","<span style='color:GreenYellow; font-size: 70px;'>正确! </span>","null","html-keyboard-response","43","319426","0.0-8.0-0.0-1.0-0.0-1.16","4","5","6","3","1","5","3","3","5","5","5","0","-1","-2","1","-2","1","1","2","5","4","5","5","3","2","4","4","4","3","5","8","7","5","7","4","8","3","6","4","6","7","5","5","4","2","7","3","3","1","4","2","4","3","1","4","3","4","7","5","1","5","1","1","1","6","6","4","7","7","7","3","7","1","1","5","1","1","1","4","784086466967113730","管","388","Female","[""好我"",""坏她"",""坏我"",""好她""]","[""强我"",""弱她"",""弱我"",""强她""]","","","","","","","","","","","","","","","","","","","","","","","","","","","","","","feedback_test","","","","","","","","",""
"586","","f","psychophysics","44","321019","0.0-8.0-0.0-1.0-0.0-0.17","4","5","6","3","1","5","3","3","5","5","5","0","-1","-2","1","-2","1","1","2","5","4","5","5","3","2","4","4","4","3","5","8","7","5","7","4","8","3","6","4","6","7","5","5","4","2","7","3","3","1","4","2","4","3","1","4","3","4","7","5","1","5","1","1","1","6","6","4","7","7","7","3","7","1","1","5","1","1","1","4","784086466967113730","管","388","Female","[""好我"",""坏她"",""坏我"",""好她""]","[""强我"",""弱她"",""弱我"",""强她""]","","","","","","","","match","","","","","","","","","","key","f","16.652631578947368","774.8571180181065","431.99998615168766","f","true","match","img/triangle.png","好我","好我","prac_ALT2_moral","practice_moral","","","","","","","","",""
"null","<span style='color:GreenYellow; font-size: 70px;'>正确! </span>","null","html-keyboard-response","45","321526","0.0-8.0-0.0-1.0-0.0-1.17","4","5","6","3","1","5","3","3","5","5","5","0","-1","-2","1","-2","1","1","2","5","4","5","5","3","2","4","4","4","3","5","8","7","5","7","4","8","3","6","4","6","7","5","5","4","2","7","3","3","1","4","2","4","3","1","4","3","4","7","5","1","5","1","1","1","6","6","4","7","7","7","3","7","1","1","5","1","1","1","4","784086466967113730","管","388","Female","[""好我"",""坏她"",""坏我"",""好她""]","[""强我"",""弱她"",""弱我"",""强她""]","","","","","","","","","","","","","","","","","","","","","","","","","","","","","","feedback_test","","","","","","","","",""
"856","","j","psychophysics","46","323385","0.0-8.0-0.0-1.0-0.0-0.18","4","5","6","3","1","5","3","3","5","5","5","0","-1","-2","1","-2","1","1","2","5","4","5","5","3","2","4","4","4","3","5","8","7","5","7","4","8","3","6","4","6","7","5","5","4","2","7","3","3","1","4","2","4","3","1","4","3","4","7","5","1","5","1","1","1","6","6","4","7","7","7","3","7","1","1","5","1","1","1","4","784086466967113730","管","388","Female","[""好我"",""坏她"",""坏我"",""好她""]","[""强我"",""弱她"",""弱我"",""强她""]","","","","","","","","nonmatch","","","","","","","","","","key","j","16.64954954954934","774.8571180181065","431.99998615168766","f","false","match","img/trapezoid.png","坏我","坏我","prac_ALT2_moral","practice_moral","","","","","","","","",""
"null","<span style='color:red; font-size: 70px;'>错误! </span>","null","html-keyboard-response","47","323888","0.0-8.0-0.0-1.0-0.0-1.18","4","5","6","3","1","5","3","3","5","5","5","0","-1","-2","1","-2","1","1","2","5","4","5","5","3","2","4","4","4","3","5","8","7","5","7","4","8","3","6","4","6","7","5","5","4","2","7","3","3","1","4","2","4","3","1","4","3","4","7","5","1","5","1","1","1","6","6","4","7","7","7","3","7","1","1","5","1","1","1","4","784086466967113730","管","388","Female","[""好我"",""坏她"",""坏我"",""好她""]","[""强我"",""弱她"",""弱我"",""强她""]","","","","","","","","","","","","","","","","","","","","","","","","","","","","","","feedback_test","","","","","","","","",""
"1134","","f","psychophysics","48","326031","0.0-8.0-0.0-1.0-0.0-0.19","4","5","6","3","1","5","3","3","5","5","5","0","-1","-2","1","-2","1","1","2","5","4","5","5","3","2","4","4","4","3","5","8","7","5","7","4","8","3","6","4","6","7","5","5","4","2","7","3","3","1","4","2","4","3","1","4","3","4","7","5","1","5","1","1","1","6","6","4","7","7","7","3","7","1","1","5","1","1","1","4","784086466967113730","管","388","Female","[""好我"",""坏她"",""坏我"",""好她""]","[""强我"",""弱她"",""弱我"",""强她""]","","","","","","","","match","","","","","","","","","","key","f","16.65390625000009","774.8571180181065","431.99998615168766","f","true","match","img/circle.png","好她","好她","prac_ALT2_moral","practice_moral","","","","","","","","",""
"null","<span style='color:GreenYellow; font-size: 70px;'>正确! </span>","null","html-keyboard-response","49","326541","0.0-8.0-0.0-1.0-0.0-1.19","4","5","6","3","1","5","3","3","5","5","5","0","-1","-2","1","-2","1","1","2","5","4","5","5","3","2","4","4","4","3","5","8","7","5","7","4","8","3","6","4","6","7","5","5","4","2","7","3","3","1","4","2","4","3","1","4","3","4","7","5","1","5","1","1","1","6","6","4","7","7","7","3","7","1","1","5","1","1","1","4","784086466967113730","管","388","Female","[""好我"",""坏她"",""坏我"",""好她""]","[""强我"",""弱她"",""弱我"",""强她""]","","","","","","","","","","","","","","","","","","","","","","","","","","","","","","feedback_test","","","","","","","","",""
"null","","null","psychophysics","50","328745","0.0-8.0-0.0-1.0-0.0-0.20","4","5","6","3","1","5","3","3","5","5","5","0","-1","-2","1","-2","1","1","2","5","4","5","5","3","2","4","4","4","3","5","8","7","5","7","4","8","3","6","4","6","7","5","5","4","2","7","3","3","1","4","2","4","3","1","4","3","4","7","5","1","5","1","1","1","6","6","4","7","7","7","3","7","1","1","5","1","1","1","4","784086466967113730","管","388","Female","[""好我"",""坏她"",""坏我"",""好她""]","[""强我"",""弱她"",""弱我"",""强她""]","","","","","","","","null","","","","","","","","","","key","null","16.65267175572519","774.8571180181065","431.99998615168766","f","false","match","img/hexagon.png","坏她","坏她","prac_ALT2_moral","practice_moral","","","","","","","","",""
"null","<span class='add_' style='color:yellow; font-size: 70px;'> 太慢! </span>","null","html-keyboard-response","51","329253","0.0-8.0-0.0-1.0-0.0-1.20","4","5","6","3","1","5","3","3","5","5","5","0","-1","-2","1","-2","1","1","2","5","4","5","5","3","2","4","4","4","3","5","8","7","5","7","4","8","3","6","4","6","7","5","5","4","2","7","3","3","1","4","2","4","3","1","4","3","4","7","5","1","5","1","1","1","6","6","4","7","7","7","3","7","1","1","5","1","1","1","4","784086466967113730","管","388","Female","[""好我"",""坏她"",""坏我"",""好她""]","[""强我"",""弱她"",""弱我"",""强她""]","","","","","","","","","","","","","","","","","","","","","","","","","","","","","","feedback_test","","","","","","","","",""
"935","","j","psychophysics","52","331194","0.0-8.0-0.0-1.0-0.0-0.21","4","5","6","3","1","5","3","3","5","5","5","0","-1","-2","1","-2","1","1","2","5","4","5","5","3","2","4","4","4","3","5","8","7","5","7","4","8","3","6","4","6","7","5","5","4","2","7","3","3","1","4","2","4","3","1","4","3","4","7","5","1","5","1","1","1","6","6","4","7","7","7","3","7","1","1","5","1","1","1","4","784086466967113730","管","388","Female","[""好我"",""坏她"",""坏我"",""好她""]","[""强我"",""弱她"",""弱我"",""强她""]","","","","","","","","nonmatch","","","","","","","","","","key","j","16.65344827586197","774.8571180181065","431.99998615168766","f","false","match","img/trapezoid.png","坏我","坏我","prac_ALT2_moral","practice_moral","","","","","","","","",""
"null","<span style='color:red; font-size: 70px;'>错误! </span>","null","html-keyboard-response","53","331706","0.0-8.0-0.0-1.0-0.0-1.21","4","5","6","3","1","5","3","3","5","5","5","0","-1","-2","1","-2","1","1","2","5","4","5","5","3","2","4","4","4","3","5","8","7","5","7","4","8","3","6","4","6","7","5","5","4","2","7","3","3","1","4","2","4","3","1","4","3","4","7","5","1","5","1","1","1","6","6","4","7","7","7","3","7","1","1","5","1","1","1","4","784086466967113730","管","388","Female","[""好我"",""坏她"",""坏我"",""好她""]","[""强我"",""弱她"",""弱我"",""强她""]","","","","","","","","","","","","","","","","","","","","","","","","","","","","","","feedback_test","","","","","","","","",""
"null","","null","psychophysics","54","333908","0.0-8.0-0.0-1.0-0.0-0.22","4","5","6","3","1","5","3","3","5","5","5","0","-1","-2","1","-2","1","1","2","5","4","5","5","3","2","4","4","4","3","5","8","7","5","7","4","8","3","6","4","6","7","5","5","4","2","7","3","3","1","4","2","4","3","1","4","3","4","7","5","1","5","1","1","1","6","6","4","7","7","7","3","7","1","1","5","1","1","1","4","784086466967113730","管","388","Female","[""好我"",""坏她"",""坏我"",""好她""]","[""强我"",""弱她"",""弱我"",""强她""]","","","","","","","","null","","","","","","","","","","key","null","16.649999999999913","774.8571180181065","431.99998615168766","j","false","nonmatch","img/trapezoid.png","好她","坏我","prac_ALT2_moral","practice_moral","","","","","","","","",""
"null","<span class='add_' style='color:yellow; font-size: 70px;'> 太慢! </span>","null","html-keyboard-response","55","334416","0.0-8.0-0.0-1.0-0.0-1.22","4","5","6","3","1","5","3","3","5","5","5","0","-1","-2","1","-2","1","1","2","5","4","5","5","3","2","4","4","4","3","5","8","7","5","7","4","8","3","6","4","6","7","5","5","4","2","7","3","3","1","4","2","4","3","1","4","3","4","7","5","1","5","1","1","1","6","6","4","7","7","7","3","7","1","1","5","1","1","1","4","784086466967113730","管","388","Female","[""好我"",""坏她"",""坏我"",""好她""]","[""强我"",""弱她"",""弱我"",""强她""]","","","","","","","","","","","","","","","","","","","","","","","","","","","","","","feedback_test","","","","","","","","",""
"782","","f","psychophysics","56","336201","0.0-8.0-0.0-1.0-0.0-0.23","4","5","6","3","1","5","3","3","5","5","5","0","-1","-2","1","-2","1","1","2","5","4","5","5","3","2","4","4","4","3","5","8","7","5","7","4","8","3","6","4","6","7","5","5","4","2","7","3","3","1","4","2","4","3","1","4","3","4","7","5","1","5","1","1","1","6","6","4","7","7","7","3","7","1","1","5","1","1","1","4","784086466967113730","管","388","Female","[""好我"",""坏她"",""坏我"",""好她""]","[""强我"",""弱她"",""弱我"",""强她""]","","","","","","","","match","","","","","","","","","","key","f","16.65566037735849","774.8571180181065","431.99998615168766","f","true","match","img/trapezoid.png","坏我","坏我","prac_ALT2_moral","practice_moral","","","","","","","","",""
"null","<span style='color:GreenYellow; font-size: 70px;'>正确! </span>","null","html-keyboard-response","57","336705","0.0-8.0-0.0-1.0-0.0-1.23","4","5","6","3","1","5","3","3","5","5","5","0","-1","-2","1","-2","1","1","2","5","4","5","5","3","2","4","4","4","3","5","8","7","5","7","4","8","3","6","4","6","7","5","5","4","2","7","3","3","1","4","2","4","3","1","4","3","4","7","5","1","5","1","1","1","6","6","4","7","7","7","3","7","1","1","5","1","1","1","4","784086466967113730","管","388","Female","[""好我"",""坏她"",""坏我"",""好她""]","[""强我"",""弱她"",""弱我"",""强她""]","","","","","","","","","","","","","","","","","","","","","","","","","","","","","","feedback_test","","","","","","","","",""
"null","","null","psychophysics","58","338916","0.0-8.0-0.0-1.0-0.0-0.24","4","5","6","3","1","5","3","3","5","5","5","0","-1","-2","1","-2","1","1","2","5","4","5","5","3","2","4","4","4","3","5","8","7","5","7","4","8","3","6","4","6","7","5","5","4","2","7","3","3","1","4","2","4","3","1","4","3","4","7","5","1","5","1","1","1","6","6","4","7","7","7","3","7","1","1","5","1","1","1","4","784086466967113730","管","388","Female","[""好我"",""坏她"",""坏我"",""好她""]","[""强我"",""弱她"",""弱我"",""强她""]","","","","","","","","null","","","","","","","","","","key","null","16.655725190839874","774.8571180181065","431.99998615168766","f","false","match","img/hexagon.png","坏她","坏她","prac_ALT2_moral","practice_moral","","","","","","","","",""
"null","<span class='add_' style='color:yellow; font-size: 70px;'> 太慢! </span>","null","html-keyboard-response","59","339421","0.0-8.0-0.0-1.0-0.0-1.24","4","5","6","3","1","5","3","3","5","5","5","0","-1","-2","1","-2","1","1","2","5","4","5","5","3","2","4","4","4","3","5","8","7","5","7","4","8","3","6","4","6","7","5","5","4","2","7","3","3","1","4","2","4","3","1","4","3","4","7","5","1","5","1","1","1","6","6","4","7","7","7","3","7","1","1","5","1","1","1","4","784086466967113730","管","388","Female","[""好我"",""坏她"",""坏我"",""好她""]","[""强我"",""弱她"",""弱我"",""强她""]","","","","","","","","","","","","","","","","","","","","","","","","","","","","","","feedback_test","","","","","","","","",""
"742","","f","psychophysics","60","341166","0.0-8.0-0.0-1.0-0.0-0.25","4","5","6","3","1","5","3","3","5","5","5","0","-1","-2","1","-2","1","1","2","5","4","5","5","3","2","4","4","4","3","5","8","7","5","7","4","8","3","6","4","6","7","5","5","4","2","7","3","3","1","4","2","4","3","1","4","3","4","7","5","1","5","1","1","1","6","6","4","7","7","7","3","7","1","1","5","1","1","1","4","784086466967113730","管","388","Female","[""好我"",""坏她"",""坏我"",""好她""]","[""强我"",""弱她"",""弱我"",""强她""]","","","","","","","","match","","","","","","","","","","key","f","16.65480769230803","774.8571180181065","431.99998615168766","j","false","nonmatch","img/triangle.png","坏我","好我","prac_ALT2_moral","practice_moral","","","","","","","","",""
"null","<span style='color:red; font-size: 70px;'>错误! </span>","null","html-keyboard-response","61","341668","0.0-8.0-0.0-1.0-0.0-1.25","4","5","6","3","1","5","3","3","5","5","5","0","-1","-2","1","-2","1","1","2","5","4","5","5","3","2","4","4","4","3","5","8","7","5","7","4","8","3","6","4","6","7","5","5","4","2","7","3","3","1","4","2","4","3","1","4","3","4","7","5","1","5","1","1","1","6","6","4","7","7","7","3","7","1","1","5","1","1","1","4","784086466967113730","管","388","Female","[""好我"",""坏她"",""坏我"",""好她""]","[""强我"",""弱她"",""弱我"",""强她""]","","","","","","","","","","","","","","","","","","","","","","","","","","","","","","feedback_test","","","","","","","","",""
"635","","f","psychophysics","62","343306","0.0-8.0-0.0-1.0-0.0-0.26","4","5","6","3","1","5","3","3","5","5","5","0","-1","-2","1","-2","1","1","2","5","4","5","5","3","2","4","4","4","3","5","8","7","5","7","4","8","3","6","4","6","7","5","5","4","2","7","3","3","1","4","2","4","3","1","4","3","4","7","5","1","5","1","1","1","6","6","4","7","7","7","3","7","1","1","5","1","1","1","4","784086466967113730","管","388","Female","[""好我"",""坏她"",""坏我"",""好她""]","[""强我"",""弱她"",""弱我"",""强她""]","","","","","","","","match","","","","","","","","","","key","f","16.650515463917287","774.8571180181065","431.99998615168766","f","true","match","img/triangle.png","好我","好我","prac_ALT2_moral","practice_moral","","","","","","","","",""
"null","<span style='color:GreenYellow; font-size: 70px;'>正确! </span>","null","html-keyboard-response","63","343822","0.0-8.0-0.0-1.0-0.0-1.26","4","5","6","3","1","5","3","3","5","5","5","0","-1","-2","1","-2","1","1","2","5","4","5","5","3","2","4","4","4","3","5","8","7","5","7","4","8","3","6","4","6","7","5","5","4","2","7","3","3","1","4","2","4","3","1","4","3","4","7","5","1","5","1","1","1","6","6","4","7","7","7","3","7","1","1","5","1","1","1","4","784086466967113730","管","388","Female","[""好我"",""坏她"",""坏我"",""好她""]","[""强我"",""弱她"",""弱我"",""强她""]","","","","","","","","","","","","","","","","","","","","","","","","","","","","","","feedback_test","","","","","","","","",""
"785","","j","psychophysics","64","345613","0.0-8.0-0.0-1.0-0.0-0.27","4","5","6","3","1","5","3","3","5","5","5","0","-1","-2","1","-2","1","1","2","5","4","5","5","3","2","4","4","4","3","5","8","7","5","7","4","8","3","6","4","6","7","5","5","4","2","7","3","3","1","4","2","4","3","1","4","3","4","7","5","1","5","1","1","1","6","6","4","7","7","7","3","7","1","1","5","1","1","1","4","784086466967113730","管","388","Female","[""好我"",""坏她"",""坏我"",""好她""]","[""强我"",""弱她"",""弱我"",""强她""]","","","","","","","","nonmatch","","","","","","","","","","key","j","16.65607476635525","774.8571180181065","431.99998615168766","j","true","nonmatch","img/hexagon.png","好她","坏她","prac_ALT2_moral","practice_moral","","","","","","","","",""
"null","<span style='color:GreenYellow; font-size: 70px;'>正确! </span>","null","html-keyboard-response","65","346127","0.0-8.0-0.0-1.0-0.0-1.27","4","5","6","3","1","5","3","3","5","5","5","0","-1","-2","1","-2","1","1","2","5","4","5","5","3","2","4","4","4","3","5","8","7","5","7","4","8","3","6","4","6","7","5","5","4","2","7","3","3","1","4","2","4","3","1","4","3","4","7","5","1","5","1","1","1","6","6","4","7","7","7","3","7","1","1","5","1","1","1","4","784086466967113730","管","388","Female","[""好我"",""坏她"",""坏我"",""好她""]","[""强我"",""弱她"",""弱我"",""强她""]","","","","","","","","","","","","","","","","","","","","","","","","","","","","","","feedback_test","","","","","","","","",""
"762","","j","psychophysics","66","347897","0.0-8.0-0.0-1.0-0.0-0.28","4","5","6","3","1","5","3","3","5","5","5","0","-1","-2","1","-2","1","1","2","5","4","5","5","3","2","4","4","4","3","5","8","7","5","7","4","8","3","6","4","6","7","5","5","4","2","7","3","3","1","4","2","4","3","1","4","3","4","7","5","1","5","1","1","1","6","6","4","7","7","7","3","7","1","1","5","1","1","1","4","784086466967113730","管","388","Female","[""好我"",""坏她"",""坏我"",""好她""]","[""强我"",""弱她"",""弱我"",""强她""]","","","","","","","","nonmatch","","","","","","","","","","key","j","16.653333333333666","774.8571180181065","431.99998615168766","j","true","nonmatch","img/trapezoid.png","坏她","坏我","prac_ALT2_moral","practice_moral","","","","","","","","",""
"null","<span style='color:GreenYellow; font-size: 70px;'>正确! </span>","null","html-keyboard-response","67","348404","0.0-8.0-0.0-1.0-0.0-1.28","4","5","6","3","1","5","3","3","5","5","5","0","-1","-2","1","-2","1","1","2","5","4","5","5","3","2","4","4","4","3","5","8","7","5","7","4","8","3","6","4","6","7","5","5","4","2","7","3","3","1","4","2","4","3","1","4","3","4","7","5","1","5","1","1","1","6","6","4","7","7","7","3","7","1","1","5","1","1","1","4","784086466967113730","管","388","Female","[""好我"",""坏她"",""坏我"",""好她""]","[""强我"",""弱她"",""弱我"",""强她""]","","","","","","","","","","","","","","","","","","","","","","","","","","","","","","feedback_test","","","","","","","","",""
"752","","f","psychophysics","68","350159","0.0-8.0-0.0-1.0-0.0-0.29","4","5","6","3","1","5","3","3","5","5","5","0","-1","-2","1","-2","1","1","2","5","4","5","5","3","2","4","4","4","3","5","8","7","5","7","4","8","3","6","4","6","7","5","5","4","2","7","3","3","1","4","2","4","3","1","4","3","4","7","5","1","5","1","1","1","6","6","4","7","7","7","3","7","1","1","5","1","1","1","4","784086466967113730","管","388","Female","[""好我"",""坏她"",""坏我"",""好她""]","[""强我"",""弱她"",""弱我"",""强她""]","","","","","","","","match","","","","","","","","","","key","f","16.64952380952392","774.8571180181065","431.99998615168766","j","false","nonmatch","img/hexagon.png","坏我","坏她","prac_ALT2_moral","practice_moral","","","","","","","","",""
"null","<span style='color:red; font-size: 70px;'>错误! </span>","null","html-keyboard-response","69","350674","0.0-8.0-0.0-1.0-0.0-1.29","4","5","6","3","1","5","3","3","5","5","5","0","-1","-2","1","-2","1","1","2","5","4","5","5","3","2","4","4","4","3","5","8","7","5","7","4","8","3","6","4","6","7","5","5","4","2","7","3","3","1","4","2","4","3","1","4","3","4","7","5","1","5","1","1","1","6","6","4","7","7","7","3","7","1","1","5","1","1","1","4","784086466967113730","管","388","Female","[""好我"",""坏她"",""坏我"",""好她""]","[""强我"",""弱她"",""弱我"",""强她""]","","","","","","","","","","","","","","","","","","","","","","","","","","","","","","feedback_test","","","","","","","","",""
"1064","","j","psychophysics","70","352741","0.0-8.0-0.0-1.0-0.0-0.30","4","5","6","3","1","5","3","3","5","5","5","0","-1","-2","1","-2","1","1","2","5","4","5","5","3","2","4","4","4","3","5","8","7","5","7","4","8","3","6","4","6","7","5","5","4","2","7","3","3","1","4","2","4","3","1","4","3","4","7","5","1","5","1","1","1","6","6","4","7","7","7","3","7","1","1","5","1","1","1","4","784086466967113730","管","388","Female","[""好我"",""坏她"",""坏我"",""好她""]","[""强我"",""弱她"",""弱我"",""强她""]","","","","","","","","nonmatch","","","","","","","","","","key","j","16.6520325203253","774.8571180181065","431.99998615168766","f","false","match","img/trapezoid.png","坏我","坏我","prac_ALT2_moral","practice_moral","","","","","","","","",""
"null","<span style='color:red; font-size: 70px;'>错误! </span>","null","html-keyboard-response","71","353243","0.0-8.0-0.0-1.0-0.0-1.30","4","5","6","3","1","5","3","3","5","5","5","0","-1","-2","1","-2","1","1","2","5","4","5","5","3","2","4","4","4","3","5","8","7","5","7","4","8","3","6","4","6","7","5","5","4","2","7","3","3","1","4","2","4","3","1","4","3","4","7","5","1","5","1","1","1","6","6","4","7","7","7","3","7","1","1","5","1","1","1","4","784086466967113730","管","388","Female","[""好我"",""坏她"",""坏我"",""好她""]","[""强我"",""弱她"",""弱我"",""强她""]","","","","","","","","","","","","","","","","","","","","","","","","","","","","","","feedback_test","","","","","","","","",""
"759","","j","psychophysics","72","355012","0.0-8.0-0.0-1.0-0.0-0.31","4","5","6","3","1","5","3","3","5","5","5","0","-1","-2","1","-2","1","1","2","5","4","5","5","3","2","4","4","4","3","5","8","7","5","7","4","8","3","6","4","6","7","5","5","4","2","7","3","3","1","4","2","4","3","1","4","3","4","7","5","1","5","1","1","1","6","6","4","7","7","7","3","7","1","1","5","1","1","1","4","784086466967113730","管","388","Female","[""好我"",""坏她"",""坏我"",""好她""]","[""强我"",""弱她"",""弱我"",""强她""]","","","","","","","","nonmatch","","","","","","","","","","key","j","16.654285714285827","774.8571180181065","431.99998615168766","j","true","nonmatch","img/trapezoid.png","好我","坏我","prac_ALT2_moral","practice_moral","","","","","","","","",""
"null","<span style='color:GreenYellow; font-size: 70px;'>正确! </span>","null","html-keyboard-response","73","355521","0.0-8.0-0.0-1.0-0.0-1.31","4","5","6","3","1","5","3","3","5","5","5","0","-1","-2","1","-2","1","1","2","5","4","5","5","3","2","4","4","4","3","5","8","7","5","7","4","8","3","6","4","6","7","5","5","4","2","7","3","3","1","4","2","4","3","1","4","3","4","7","5","1","5","1","1","1","6","6","4","7","7","7","3","7","1","1","5","1","1","1","4","784086466967113730","管","388","Female","[""好我"",""坏她"",""坏我"",""好她""]","[""强我"",""弱她"",""弱我"",""强她""]","","","","","","","","","","","","","","","","","","","","","","","","","","","","","","feedback_test","","","","","","","","",""
"866","","j","psychophysics","74","357392","0.0-8.0-0.0-1.0-0.0-0.32","4","5","6","3","1","5","3","3","5","5","5","0","-1","-2","1","-2","1","1","2","5","4","5","5","3","2","4","4","4","3","5","8","7","5","7","4","8","3","6","4","6","7","5","5","4","2","7","3","3","1","4","2","4","3","1","4","3","4","7","5","1","5","1","1","1","6","6","4","7","7","7","3","7","1","1","5","1","1","1","4","784086466967113730","管","388","Female","[""好我"",""坏她"",""坏我"",""好她""]","[""强我"",""弱她"",""弱我"",""强她""]","","","","","","","","nonmatch","","","","","","","","","","key","j","16.652252252251937","774.8571180181065","431.99998615168766","j","true","nonmatch","img/circle.png","坏她","好她","prac_ALT2_moral","practice_moral","","","","","","","","",""
"null","<span style='color:GreenYellow; font-size: 70px;'>正确! </span>","null","html-keyboard-response","75","357905","0.0-8.0-0.0-1.0-0.0-1.32","4","5","6","3","1","5","3","3","5","5","5","0","-1","-2","1","-2","1","1","2","5","4","5","5","3","2","4","4","4","3","5","8","7","5","7","4","8","3","6","4","6","7","5","5","4","2","7","3","3","1","4","2","4","3","1","4","3","4","7","5","1","5","1","1","1","6","6","4","7","7","7","3","7","1","1","5","1","1","1","4","784086466967113730","管","388","Female","[""好我"",""坏她"",""坏我"",""好她""]","[""强我"",""弱她"",""弱我"",""强她""]","","","","","","","","","","","","","","","","","","","","","","","","","","","","","","feedback_test","","","","","","","","",""
"858","","f","psychophysics","76","359767","0.0-8.0-0.0-1.0-0.0-0.33","4","5","6","3","1","5","3","3","5","5","5","0","-1","-2","1","-2","1","1","2","5","4","5","5","3","2","4","4","4","3","5","8","7","5","7","4","8","3","6","4","6","7","5","5","4","2","7","3","3","1","4","2","4","3","1","4","3","4","7","5","1","5","1","1","1","6","6","4","7","7","7","3","7","1","1","5","1","1","1","4","784086466967113730","管","388","Female","[""好我"",""坏她"",""坏我"",""好她""]","[""强我"",""弱她"",""弱我"",""强她""]","","","","","","","","match","","","","","","","","","","key","f","16.652252252252463","774.8571180181065","431.99998615168766","f","true","match","img/circle.png","好她","好她","prac_ALT2_moral","practice_moral","","","","","","","","",""
"null","<span style='color:GreenYellow; font-size: 70px;'>正确! </span>","null","html-keyboard-response","77","360277","0.0-8.0-0.0-1.0-0.0-1.33","4","5","6","3","1","5","3","3","5","5","5","0","-1","-2","1","-2","1","1","2","5","4","5","5","3","2","4","4","4","3","5","8","7","5","7","4","8","3","6","4","6","7","5","5","4","2","7","3","3","1","4","2","4","3","1","4","3","4","7","5","1","5","1","1","1","6","6","4","7","7","7","3","7","1","1","5","1","1","1","4","784086466967113730","管","388","Female","[""好我"",""坏她"",""坏我"",""好她""]","[""强我"",""弱她"",""弱我"",""强她""]","","","","","","","","","","","","","","","","","","","","","","","","","","","","","","feedback_test","","","","","","","","",""
"968","","f","psychophysics","78","362248","0.0-8.0-0.0-1.0-0.0-0.34","4","5","6","3","1","5","3","3","5","5","5","0","-1","-2","1","-2","1","1","2","5","4","5","5","3","2","4","4","4","3","5","8","7","5","7","4","8","3","6","4","6","7","5","5","4","2","7","3","3","1","4","2","4","3","1","4","3","4","7","5","1","5","1","1","1","6","6","4","7","7","7","3","7","1","1","5","1","1","1","4","784086466967113730","管","388","Female","[""好我"",""坏她"",""坏我"",""好她""]","[""强我"",""弱她"",""弱我"",""强她""]","","","","","","","","match","","","","","","","","","","key","f","16.650000000000098","774.8571180181065","431.99998615168766","f","true","match","img/hexagon.png","坏她","坏她","prac_ALT2_moral","practice_moral","","","","","","","","",""
"null","<span style='color:GreenYellow; font-size: 70px;'>正确! </span>","null","html-keyboard-response","79","362756","0.0-8.0-0.0-1.0-0.0-1.34","4","5","6","3","1","5","3","3","5","5","5","0","-1","-2","1","-2","1","1","2","5","4","5","5","3","2","4","4","4","3","5","8","7","5","7","4","8","3","6","4","6","7","5","5","4","2","7","3","3","1","4","2","4","3","1","4","3","4","7","5","1","5","1","1","1","6","6","4","7","7","7","3","7","1","1","5","1","1","1","4","784086466967113730","管","388","Female","[""好我"",""坏她"",""坏我"",""好她""]","[""强我"",""弱她"",""弱我"",""强她""]","","","","","","","","","","","","","","","","","","","","","","","","","","","","","","feedback_test","","","","","","","","",""
"654","","j","psychophysics","80","364414","0.0-8.0-0.0-1.0-0.0-0.35","4","5","6","3","1","5","3","3","5","5","5","0","-1","-2","1","-2","1","1","2","5","4","5","5","3","2","4","4","4","3","5","8","7","5","7","4","8","3","6","4","6","7","5","5","4","2","7","3","3","1","4","2","4","3","1","4","3","4","7","5","1","5","1","1","1","6","6","4","7","7","7","3","7","1","1","5","1","1","1","4","784086466967113730","管","388","Female","[""好我"",""坏她"",""坏我"",""好她""]","[""强我"",""弱她"",""弱我"",""强她""]","","","","","","","","nonmatch","","","","","","","","","","key","j","16.652525252525017","774.8571180181065","431.99998615168766","j","true","nonmatch","img/hexagon.png","好我","坏她","prac_ALT2_moral","practice_moral","","","","","","","","",""
"null","<span style='color:GreenYellow; font-size: 70px;'>正确! </span>","null","html-keyboard-response","81","364921","0.0-8.0-0.0-1.0-0.0-1.35","4","5","6","3","1","5","3","3","5","5","5","0","-1","-2","1","-2","1","1","2","5","4","5","5","3","2","4","4","4","3","5","8","7","5","7","4","8","3","6","4","6","7","5","5","4","2","7","3","3","1","4","2","4","3","1","4","3","4","7","5","1","5","1","1","1","6","6","4","7","7","7","3","7","1","1","5","1","1","1","4","784086466967113730","管","388","Female","[""好我"",""坏她"",""坏我"",""好她""]","[""强我"",""弱她"",""弱我"",""强她""]","","","","","","","","","","","","","","","","","","","","","","","","","","","","","","feedback_test","","","","","","","","",""
"632","","f","psychophysics","82","366556","0.0-8.0-0.0-1.0-0.0-0.36","4","5","6","3","1","5","3","3","5","5","5","0","-1","-2","1","-2","1","1","2","5","4","5","5","3","2","4","4","4","3","5","8","7","5","7","4","8","3","6","4","6","7","5","5","4","2","7","3","3","1","4","2","4","3","1","4","3","4","7","5","1","5","1","1","1","6","6","4","7","7","7","3","7","1","1","5","1","1","1","4","784086466967113730","管","388","Female","[""好我"",""坏她"",""坏我"",""好她""]","[""强我"",""弱她"",""弱我"",""强她""]","","","","","","","","match","","","","","","","","","","key","f","16.652577319587508","774.8571180181065","431.99998615168766","f","true","match","img/triangle.png","好我","好我","prac_ALT2_moral","practice_moral","","","","","","","","",""
"null","<span style='color:GreenYellow; font-size: 70px;'>正确! </span>","null","html-keyboard-response","83","367075","0.0-8.0-0.0-1.0-0.0-1.36","4","5","6","3","1","5","3","3","5","5","5","0","-1","-2","1","-2","1","1","2","5","4","5","5","3","2","4","4","4","3","5","8","7","5","7","4","8","3","6","4","6","7","5","5","4","2","7","3","3","1","4","2","4","3","1","4","3","4","7","5","1","5","1","1","1","6","6","4","7","7","7","3","7","1","1","5","1","1","1","4","784086466967113730","管","388","Female","[""好我"",""坏她"",""坏我"",""好她""]","[""强我"",""弱她"",""弱我"",""强她""]","","","","","","","","","","","","","","","","","","","","","","","","","","","","","","feedback_test","","","","","","","","",""
"841","","f","psychophysics","84","368925","0.0-8.0-0.0-1.0-0.0-0.37","4","5","6","3","1","5","3","3","5","5","5","0","-1","-2","1","-2","1","1","2","5","4","5","5","3","2","4","4","4","3","5","8","7","5","7","4","8","3","6","4","6","7","5","5","4","2","7","3","3","1","4","2","4","3","1","4","3","4","7","5","1","5","1","1","1","6","6","4","7","7","7","3","7","1","1","5","1","1","1","4","784086466967113730","管","388","Female","[""好我"",""坏她"",""坏我"",""好她""]","[""强我"",""弱她"",""弱我"",""强她""]","","","","","","","","match","","","","","","","","","","key","f","16.5918181818185","774.8571180181065","431.99998615168766","f","true","match","img/circle.png","好她","好她","prac_ALT2_moral","practice_moral","","","","","","","","",""
"null","<span style='color:GreenYellow; font-size: 70px;'>正确! </span>","null","html-keyboard-response","85","369437","0.0-8.0-0.0-1.0-0.0-1.37","4","5","6","3","1","5","3","3","5","5","5","0","-1","-2","1","-2","1","1","2","5","4","5","5","3","2","4","4","4","3","5","8","7","5","7","4","8","3","6","4","6","7","5","5","4","2","7","3","3","1","4","2","4","3","1","4","3","4","7","5","1","5","1","1","1","6","6","4","7","7","7","3","7","1","1","5","1","1","1","4","784086466967113730","管","388","Female","[""好我"",""坏她"",""坏我"",""好她""]","[""强我"",""弱她"",""弱我"",""强她""]","","","","","","","","","","","","","","","","","","","","","","","","","","","","","","feedback_test","","","","","","","","",""
"961","","j","psychophysics","86","371401","0.0-8.0-0.0-1.0-0.0-0.38","4","5","6","3","1","5","3","3","5","5","5","0","-1","-2","1","-2","1","1","2","5","4","5","5","3","2","4","4","4","3","5","8","7","5","7","4","8","3","6","4","6","7","5","5","4","2","7","3","3","1","4","2","4","3","1","4","3","4","7","5","1","5","1","1","1","6","6","4","7","7","7","3","7","1","1","5","1","1","1","4","784086466967113730","管","388","Female","[""好我"",""坏她"",""坏我"",""好她""]","[""强我"",""弱她"",""弱我"",""强她""]","","","","","","","","nonmatch","","","","","","","","","","key","j","16.653846153846153","774.8571180181065","431.99998615168766","j","true","nonmatch","img/circle.png","坏我","好她","prac_ALT2_moral","practice_moral","","","","","","","","",""
"null","<span style='color:GreenYellow; font-size: 70px;'>正确! </span>","null","html-keyboard-response","87","371904","0.0-8.0-0.0-1.0-0.0-1.38","4","5","6","3","1","5","3","3","5","5","5","0","-1","-2","1","-2","1","1","2","5","4","5","5","3","2","4","4","4","3","5","8","7","5","7","4","8","3","6","4","6","7","5","5","4","2","7","3","3","1","4","2","4","3","1","4","3","4","7","5","1","5","1","1","1","6","6","4","7","7","7","3","7","1","1","5","1","1","1","4","784086466967113730","管","388","Female","[""好我"",""坏她"",""坏我"",""好她""]","[""强我"",""弱她"",""弱我"",""强她""]","","","","","","","","","","","","","","","","","","","","","","","","","","","","","","feedback_test","","","","","","","","",""
"914","","j","psychophysics","88","373827","0.0-8.0-0.0-1.0-0.0-0.39","4","5","6","3","1","5","3","3","5","5","5","0","-1","-2","1","-2","1","1","2","5","4","5","5","3","2","4","4","4","3","5","8","7","5","7","4","8","3","6","4","6","7","5","5","4","2","7","3","3","1","4","2","4","3","1","4","3","4","7","5","1","5","1","1","1","6","6","4","7","7","7","3","7","1","1","5","1","1","1","4","784086466967113730","管","388","Female","[""好我"",""坏她"",""坏我"",""好她""]","[""强我"",""弱她"",""弱我"",""强她""]","","","","","","","","nonmatch","","","","","","","","","","key","j","16.59385964912291","774.8571180181065","431.99998615168766","j","true","nonmatch","img/triangle.png","坏她","好我","prac_ALT2_moral","practice_moral","","","","","","","","",""
"null","<span style='color:GreenYellow; font-size: 70px;'>正确! </span>","null","html-keyboard-response","89","374332","0.0-8.0-0.0-1.0-0.0-1.39","4","5","6","3","1","5","3","3","5","5","5","0","-1","-2","1","-2","1","1","2","5","4","5","5","3","2","4","4","4","3","5","8","7","5","7","4","8","3","6","4","6","7","5","5","4","2","7","3","3","1","4","2","4","3","1","4","3","4","7","5","1","5","1","1","1","6","6","4","7","7","7","3","7","1","1","5","1","1","1","4","784086466967113730","管","388","Female","[""好我"",""坏她"",""坏我"",""好她""]","[""强我"",""弱她"",""弱我"",""强她""]","","","","","","","","","","","","","","","","","","","","","","","","","","","","","","feedback_test","","","","","","","","",""
"707","","f","psychophysics","90","376043","0.0-8.0-0.0-1.0-0.0-0.40","4","5","6","3","1","5","3","3","5","5","5","0","-1","-2","1","-2","1","1","2","5","4","5","5","3","2","4","4","4","3","5","8","7","5","7","4","8","3","6","4","6","7","5","5","4","2","7","3","3","1","4","2","4","3","1","4","3","4","7","5","1","5","1","1","1","6","6","4","7","7","7","3","7","1","1","5","1","1","1","4","784086466967113730","管","388","Female","[""好我"",""坏她"",""坏我"",""好她""]","[""强我"",""弱她"",""弱我"",""强她""]","","","","","","","","match","","","","","","","","","","key","f","16.653921568627567","774.8571180181065","431.99998615168766","f","true","match","img/circle.png","好她","好她","prac_ALT2_moral","practice_moral","","","","","","","","",""
"null","<span style='color:GreenYellow; font-size: 70px;'>正确! </span>","null","html-keyboard-response","91","376547","0.0-8.0-0.0-1.0-0.0-1.40","4","5","6","3","1","5","3","3","5","5","5","0","-1","-2","1","-2","1","1","2","5","4","5","5","3","2","4","4","4","3","5","8","7","5","7","4","8","3","6","4","6","7","5","5","4","2","7","3","3","1","4","2","4","3","1","4","3","4","7","5","1","5","1","1","1","6","6","4","7","7","7","3","7","1","1","5","1","1","1","4","784086466967113730","管","388","Female","[""好我"",""坏她"",""坏我"",""好她""]","[""强我"",""弱她"",""弱我"",""强她""]","","","","","","","","","","","","","","","","","","","","","","","","","","","","","","feedback_test","","","","","","","","",""
"974","","j","psychophysics","92","378525","0.0-8.0-0.0-1.0-0.0-0.41","4","5","6","3","1","5","3","3","5","5","5","0","-1","-2","1","-2","1","1","2","5","4","5","5","3","2","4","4","4","3","5","8","7","5","7","4","8","3","6","4","6","7","5","5","4","2","7","3","3","1","4","2","4","3","1","4","3","4","7","5","1","5","1","1","1","6","6","4","7","7","7","3","7","1","1","5","1","1","1","4","784086466967113730","管","388","Female","[""好我"",""坏她"",""坏我"",""好她""]","[""强我"",""弱她"",""弱我"",""强她""]","","","","","","","","nonmatch","","","","","","","","","","key","j","16.652542372881356","774.8571180181065","431.99998615168766","j","true","nonmatch","img/circle.png","好我","好她","prac_ALT2_moral","practice_moral","","","","","","","","",""
"null","<span style='color:GreenYellow; font-size: 70px;'>正确! </span>","null","html-keyboard-response","93","379029","0.0-8.0-0.0-1.0-0.0-1.41","4","5","6","3","1","5","3","3","5","5","5","0","-1","-2","1","-2","1","1","2","5","4","5","5","3","2","4","4","4","3","5","8","7","5","7","4","8","3","6","4","6","7","5","5","4","2","7","3","3","1","4","2","4","3","1","4","3","4","7","5","1","5","1","1","1","6","6","4","7","7","7","3","7","1","1","5","1","1","1","4","784086466967113730","管","388","Female","[""好我"",""坏她"",""坏我"",""好她""]","[""强我"",""弱她"",""弱我"",""强她""]","","","","","","","","","","","","","","","","","","","","","","","","","","","","","","feedback_test","","","","","","","","",""
"null","","null","psychophysics","94","381233","0.0-8.0-0.0-1.0-0.0-0.42","4","5","6","3","1","5","3","3","5","5","5","0","-1","-2","1","-2","1","1","2","5","4","5","5","3","2","4","4","4","3","5","8","7","5","7","4","8","3","6","4","6","7","5","5","4","2","7","3","3","1","4","2","4","3","1","4","3","4","7","5","1","5","1","1","1","6","6","4","7","7","7","3","7","1","1","5","1","1","1","4","784086466967113730","管","388","Female","[""好我"",""坏她"",""坏我"",""好她""]","[""强我"",""弱她"",""弱我"",""强她""]","","","","","","","","null","","","","","","","","","","key","null","16.65606060606043","774.8571180181065","431.99998615168766","j","false","nonmatch","img/trapezoid.png","好她","坏我","prac_ALT2_moral","practice_moral","","","","","","","","",""
"null","<span class='add_' style='color:yellow; font-size: 70px;'> 太慢! </span>","null","html-keyboard-response","95","381739","0.0-8.0-0.0-1.0-0.0-1.42","4","5","6","3","1","5","3","3","5","5","5","0","-1","-2","1","-2","1","1","2","5","4","5","5","3","2","4","4","4","3","5","8","7","5","7","4","8","3","6","4","6","7","5","5","4","2","7","3","3","1","4","2","4","3","1","4","3","4","7","5","1","5","1","1","1","6","6","4","7","7","7","3","7","1","1","5","1","1","1","4","784086466967113730","管","388","Female","[""好我"",""坏她"",""坏我"",""好她""]","[""强我"",""弱她"",""弱我"",""强她""]","","","","","","","","","","","","","","","","","","","","","","","","","","","","","","feedback_test","","","","","","","","",""
"803","","f","psychophysics","96","383545","0.0-8.0-0.0-1.0-0.0-0.43","4","5","6","3","1","5","3","3","5","5","5","0","-1","-2","1","-2","1","1","2","5","4","5","5","3","2","4","4","4","3","5","8","7","5","7","4","8","3","6","4","6","7","5","5","4","2","7","3","3","1","4","2","4","3","1","4","3","4","7","5","1","5","1","1","1","6","6","4","7","7","7","3","7","1","1","5","1","1","1","4","784086466967113730","管","388","Female","[""好我"",""坏她"",""坏我"",""好她""]","[""强我"",""弱她"",""弱我"",""强她""]","","","","","","","","match","","","","","","","","","","key","f","16.650467289719952","774.8571180181065","431.99998615168766","f","true","match","img/hexagon.png","坏她","坏她","prac_ALT2_moral","practice_moral","","","","","","","","",""
"null","<span style='color:GreenYellow; font-size: 70px;'>正确! </span>","null","html-keyboard-response","97","384052","0.0-8.0-0.0-1.0-0.0-1.43","4","5","6","3","1","5","3","3","5","5","5","0","-1","-2","1","-2","1","1","2","5","4","5","5","3","2","4","4","4","3","5","8","7","5","7","4","8","3","6","4","6","7","5","5","4","2","7","3","3","1","4","2","4","3","1","4","3","4","7","5","1","5","1","1","1","6","6","4","7","7","7","3","7","1","1","5","1","1","1","4","784086466967113730","管","388","Female","[""好我"",""坏她"",""坏我"",""好她""]","[""强我"",""弱她"",""弱我"",""强她""]","","","","","","","","","","","","","","","","","","","","","","","","","","","","","","feedback_test","","","","","","","","",""
"939","","j","psychophysics","98","385994","0.0-8.0-0.0-1.0-0.0-0.44","4","5","6","3","1","5","3","3","5","5","5","0","-1","-2","1","-2","1","1","2","5","4","5","5","3","2","4","4","4","3","5","8","7","5","7","4","8","3","6","4","6","7","5","5","4","2","7","3","3","1","4","2","4","3","1","4","3","4","7","5","1","5","1","1","1","6","6","4","7","7","7","3","7","1","1","5","1","1","1","4","784086466967113730","管","388","Female","[""好我"",""坏她"",""坏我"",""好她""]","[""强我"",""弱她"",""弱我"",""强她""]","","","","","","","","nonmatch","","","","","","","","","","key","j","16.65391304347836","774.8571180181065","431.99998615168766","f","false","match","img/trapezoid.png","坏我","坏我","prac_ALT2_moral","practice_moral","","","","","","","","",""
"null","<span style='color:red; font-size: 70px;'>错误! </span>","null","html-keyboard-response","99","386497","0.0-8.0-0.0-1.0-0.0-1.44","4","5","6","3","1","5","3","3","5","5","5","0","-1","-2","1","-2","1","1","2","5","4","5","5","3","2","4","4","4","3","5","8","7","5","7","4","8","3","6","4","6","7","5","5","4","2","7","3","3","1","4","2","4","3","1","4","3","4","7","5","1","5","1","1","1","6","6","4","7","7","7","3","7","1","1","5","1","1","1","4","784086466967113730","管","388","Female","[""好我"",""坏她"",""坏我"",""好她""]","[""强我"",""弱她"",""弱我"",""强她""]","","","","","","","","","","","","","","","","","","","","","","","","","","","","","","feedback_test","","","","","","","","",""
"781","","j","psychophysics","100","388288","0.0-8.0-0.0-1.0-0.0-0.45","4","5","6","3","1","5","3","3","5","5","5","0","-1","-2","1","-2","1","1","2","5","4","5","5","3","2","4","4","4","3","5","8","7","5","7","4","8","3","6","4","6","7","5","5","4","2","7","3","3","1","4","2","4","3","1","4","3","4","7","5","1","5","1","1","1","6","6","4","7","7","7","3","7","1","1","5","1","1","1","4","784086466967113730","管","388","Female","[""好我"",""坏她"",""坏我"",""好她""]","[""强我"",""弱她"",""弱我"",""强她""]","","","","","","","","nonmatch","","","","","","","","","","key","j","16.65566037735849","774.8571180181065","431.99998615168766","j","true","nonmatch","img/triangle.png","好她","好我","prac_ALT2_moral","practice_moral","","","","","","","","",""
"null","<span style='color:GreenYellow; font-size: 70px;'>正确! </span>","null","html-keyboard-response","101","388791","0.0-8.0-0.0-1.0-0.0-1.45","4","5","6","3","1","5","3","3","5","5","5","0","-1","-2","1","-2","1","1","2","5","4","5","5","3","2","4","4","4","3","5","8","7","5","7","4","8","3","6","4","6","7","5","5","4","2","7","3","3","1","4","2","4","3","1","4","3","4","7","5","1","5","1","1","1","6","6","4","7","7","7","3","7","1","1","5","1","1","1","4","784086466967113730","管","388","Female","[""好我"",""坏她"",""坏我"",""好她""]","[""强我"",""弱她"",""弱我"",""强她""]","","","","","","","","","","","","","","","","","","","","","","","","","","","","","","feedback_test","","","","","","","","",""
"569","","f","psychophysics","102","390362","0.0-8.0-0.0-1.0-0.0-0.46","4","5","6","3","1","5","3","3","5","5","5","0","-1","-2","1","-2","1","1","2","5","4","5","5","3","2","4","4","4","3","5","8","7","5","7","4","8","3","6","4","6","7","5","5","4","2","7","3","3","1","4","2","4","3","1","4","3","4","7","5","1","5","1","1","1","6","6","4","7","7","7","3","7","1","1","5","1","1","1","4","784086466967113730","管","388","Female","[""好我"",""坏她"",""坏我"",""好她""]","[""强我"",""弱她"",""弱我"",""强她""]","","","","","","","","match","","","","","","","","","","key","f","16.65376344086009","774.8571180181065","431.99998615168766","f","true","match","img/triangle.png","好我","好我","prac_ALT2_moral","practice_moral","","","","","","","","",""
"null","<span style='color:GreenYellow; font-size: 70px;'>正确! </span>","null","html-keyboard-response","103","390866","0.0-8.0-0.0-1.0-0.0-1.46","4","5","6","3","1","5","3","3","5","5","5","0","-1","-2","1","-2","1","1","2","5","4","5","5","3","2","4","4","4","3","5","8","7","5","7","4","8","3","6","4","6","7","5","5","4","2","7","3","3","1","4","2","4","3","1","4","3","4","7","5","1","5","1","1","1","6","6","4","7","7","7","3","7","1","1","5","1","1","1","4","784086466967113730","管","388","Female","[""好我"",""坏她"",""坏我"",""好她""]","[""强我"",""弱她"",""弱我"",""强她""]","","","","","","","","","","","","","","","","","","","","","","","","","","","","","","feedback_test","","","","","","","","",""
"785","","j","psychophysics","104","392655","0.0-8.0-0.0-1.0-0.0-0.47","4","5","6","3","1","5","3","3","5","5","5","0","-1","-2","1","-2","1","1","2","5","4","5","5","3","2","4","4","4","3","5","8","7","5","7","4","8","3","6","4","6","7","5","5","4","2","7","3","3","1","4","2","4","3","1","4","3","4","7","5","1","5","1","1","1","6","6","4","7","7","7","3","7","1","1","5","1","1","1","4","784086466967113730","管","388","Female","[""好我"",""坏她"",""坏我"",""好她""]","[""强我"",""弱她"",""弱我"",""强她""]","","","","","","","","nonmatch","","","","","","","","","","key","j","16.65566037735849","774.8571180181065","431.99998615168766","f","false","match","img/trapezoid.png","坏我","坏我","prac_ALT2_moral","practice_moral","","","","","","","","",""
"null","<span style='color:red; font-size: 70px;'>错误! </span>","null","html-keyboard-response","105","393165","0.0-8.0-0.0-1.0-0.0-1.47","4","5","6","3","1","5","3","3","5","5","5","0","-1","-2","1","-2","1","1","2","5","4","5","5","3","2","4","4","4","3","5","8","7","5","7","4","8","3","6","4","6","7","5","5","4","2","7","3","3","1","4","2","4","3","1","4","3","4","7","5","1","5","1","1","1","6","6","4","7","7","7","3","7","1","1","5","1","1","1","4","784086466967113730","管","388","Female","[""好我"",""坏她"",""坏我"",""好她""]","[""强我"",""弱她"",""弱我"",""强她""]","","","","","","","","","","","","","","","","","","","","","","","","","","","","","","feedback_test","","","","","","","","",""
"8267","<style>.context{color:white; font-size: 35px; line-height:40px}</style>                            <div><p class='context'>您正确回答了71% 的试次。</p><p class='context'>您的平均反应时为804毫秒。</p><p class='context'>恭喜您完成练习。按空格键进入正式实验。</p><p class='footer' style='font-size: 35px; line-height:40px;'>请在进入正式实验实验之前将您的<span style='color: lightgreen;'>食指</span>放在电脑键盘的相应键位上进行按键。</p>"," ","html-keyboard-response","106","401436","0.0-8.0-0.0-2.0","4","5","6","3","1","5","3","3","5","5","5","0","-1","-2","1","-2","1","1","2","5","4","5","5","3","2","4","4","4","3","5","8","7","5","7","4","8","3","6","4","6","7","5","5","4","2","7","3","3","1","4","2","4","3","1","4","3","4","7","5","1","5","1","1","1","6","6","4","7","7","7","3","7","1","1","5","1","1","1","4","784086466967113730","管","388","Female","[""好我"",""坏她"",""坏我"",""好她""]","[""强我"",""弱她"",""弱我"",""强她""]","","","","","","","","","","","","","","","","","","","","","","","","","","","","","","","","","","","","","","",""
"2889","
    <p style='color: white; font-size: 22px'>请您将手指放在按键上，准备进入正式的匹配任务。</p>
    <p> <div style = ""color: green""><按空格键进入下一阶段的匹配任务></div></p>
    "," ","html-keyboard-response","107","404330","0.0-8.0-0.0-3.0","4","5","6","3","1","5","3","3","5","5","5","0","-1","-2","1","-2","1","1","2","5","4","5","5","3","2","4","4","4","3","5","8","7","5","7","4","8","3","6","4","6","7","5","5","4","2","7","3","3","1","4","2","4","3","1","4","3","4","7","5","1","5","1","1","1","6","6","4","7","7","7","3","7","1","1","5","1","1","1","4","784086466967113730","管","388","Female","[""好我"",""坏她"",""坏我"",""好她""]","[""强我"",""弱她"",""弱我"",""强她""]","","","","","","","","","","","","","","","","","","","","","","","","","","","","","","","","","","","","","","",""
"653","","f","psychophysics","108","405985","0.0-8.0-0.0-4.0-0.0-0.0","4","5","6","3","1","5","3","3","5","5","5","0","-1","-2","1","-2","1","1","2","5","4","5","5","3","2","4","4","4","3","5","8","7","5","7","4","8","3","6","4","6","7","5","5","4","2","7","3","3","1","4","2","4","3","1","4","3","4","7","5","1","5","1","1","1","6","6","4","7","7","7","3","7","1","1","5","1","1","1","4","784086466967113730","管","388","Female","[""好我"",""坏她"",""坏我"",""好她""]","[""强我"",""弱她"",""弱我"",""强她""]","","","","","","","","match","","","","","","","","","","key","f","16.653061224489797","774.8571180181065","431.99998615168766","f","true","match","img/circle.png","好她","好她","ALT2","moral","","","","","","","","",""
"null","<span style='color:GreenYellow; font-size: 70px;'>正确! </span>","null","html-keyboard-response","109","406490","0.0-8.0-0.0-4.0-0.0-1.0","4","5","6","3","1","5","3","3","5","5","5","0","-1","-2","1","-2","1","1","2","5","4","5","5","3","2","4","4","4","3","5","8","7","5","7","4","8","3","6","4","6","7","5","5","4","2","7","3","3","1","4","2","4","3","1","4","3","4","7","5","1","5","1","1","1","6","6","4","7","7","7","3","7","1","1","5","1","1","1","4","784086466967113730","管","388","Female","[""好我"",""坏她"",""坏我"",""好她""]","[""强我"",""弱她"",""弱我"",""强她""]","","","","","","","","","","","","","","","","","","","","","","","","","","","","","","feedback_test","","","","","","","","",""
"675","","j","psychophysics","110","408170","0.0-8.0-0.0-4.0-0.0-0.1","4","5","6","3","1","5","3","3","5","5","5","0","-1","-2","1","-2","1","1","2","5","4","5","5","3","2","4","4","4","3","5","8","7","5","7","4","8","3","6","4","6","7","5","5","4","2","7","3","3","1","4","2","4","3","1","4","3","4","7","5","1","5","1","1","1","6","6","4","7","7","7","3","7","1","1","5","1","1","1","4","784086466967113730","管","388","Female","[""好我"",""坏她"",""坏我"",""好她""]","[""强我"",""弱她"",""弱我"",""强她""]","","","","","","","","nonmatch","","","","","","","","","","key","j","16.655","774.8571180181065","431.99998615168766","j","true","nonmatch","img/circle.png","坏她","好她","ALT2","moral","","","","","","","","",""
"null","<span style='color:GreenYellow; font-size: 70px;'>正确! </span>","null","html-keyboard-response","111","408686","0.0-8.0-0.0-4.0-0.0-1.1","4","5","6","3","1","5","3","3","5","5","5","0","-1","-2","1","-2","1","1","2","5","4","5","5","3","2","4","4","4","3","5","8","7","5","7","4","8","3","6","4","6","7","5","5","4","2","7","3","3","1","4","2","4","3","1","4","3","4","7","5","1","5","1","1","1","6","6","4","7","7","7","3","7","1","1","5","1","1","1","4","784086466967113730","管","388","Female","[""好我"",""坏她"",""坏我"",""好她""]","[""强我"",""弱她"",""弱我"",""强她""]","","","","","","","","","","","","","","","","","","","","","","","","","","","","","","feedback_test","","","","","","","","",""
"null","","null","psychophysics","112","410894","0.0-8.0-0.0-4.0-0.0-0.2","4","5","6","3","1","5","3","3","5","5","5","0","-1","-2","1","-2","1","1","2","5","4","5","5","3","2","4","4","4","3","5","8","7","5","7","4","8","3","6","4","6","7","5","5","4","2","7","3","3","1","4","2","4","3","1","4","3","4","7","5","1","5","1","1","1","6","6","4","7","7","7","3","7","1","1","5","1","1","1","4","784086466967113730","管","388","Female","[""好我"",""坏她"",""坏我"",""好她""]","[""强我"",""弱她"",""弱我"",""强她""]","","","","","","","","null","","","","","","","","","","key","null","16.653435114504084","774.8571180181065","431.99998615168766","j","false","nonmatch","img/hexagon.png","好她","坏她","ALT2","moral","","","","","","","","",""
"null","<span class='add_' style='color:yellow; font-size: 70px;'> 太慢! </span>","null","html-keyboard-response","113","411396","0.0-8.0-0.0-4.0-0.0-1.2","4","5","6","3","1","5","3","3","5","5","5","0","-1","-2","1","-2","1","1","2","5","4","5","5","3","2","4","4","4","3","5","8","7","5","7","4","8","3","6","4","6","7","5","5","4","2","7","3","3","1","4","2","4","3","1","4","3","4","7","5","1","5","1","1","1","6","6","4","7","7","7","3","7","1","1","5","1","1","1","4","784086466967113730","管","388","Female","[""好我"",""坏她"",""坏我"",""好她""]","[""强我"",""弱她"",""弱我"",""强她""]","","","","","","","","","","","","","","","","","","","","","","","","","","","","","","feedback_test","","","","","","","","",""
"693","","f","psychophysics","114","413092","0.0-8.0-0.0-4.0-0.0-0.3","4","5","6","3","1","5","3","3","5","5","5","0","-1","-2","1","-2","1","1","2","5","4","5","5","3","2","4","4","4","3","5","8","7","5","7","4","8","3","6","4","6","7","5","5","4","2","7","3","3","1","4","2","4","3","1","4","3","4","7","5","1","5","1","1","1","6","6","4","7","7","7","3","7","1","1","5","1","1","1","4","784086466967113730","管","388","Female","[""好我"",""坏她"",""坏我"",""好她""]","[""强我"",""弱她"",""弱我"",""强她""]","","","","","","","","match","","","","","","","","","","key","f","16.653465346534652","774.8571180181065","431.99998615168766","f","true","match","img/hexagon.png","坏她","坏她","ALT2","moral","","","","","","","","",""
"null","<span style='color:GreenYellow; font-size: 70px;'>正确! </span>","null","html-keyboard-response","115","413600","0.0-8.0-0.0-4.0-0.0-1.3","4","5","6","3","1","5","3","3","5","5","5","0","-1","-2","1","-2","1","1","2","5","4","5","5","3","2","4","4","4","3","5","8","7","5","7","4","8","3","6","4","6","7","5","5","4","2","7","3","3","1","4","2","4","3","1","4","3","4","7","5","1","5","1","1","1","6","6","4","7","7","7","3","7","1","1","5","1","1","1","4","784086466967113730","管","388","Female","[""好我"",""坏她"",""坏我"",""好她""]","[""强我"",""弱她"",""弱我"",""强她""]","","","","","","","","","","","","","","","","","","","","","","","","","","","","","","feedback_test","","","","","","","","",""
"732","","f","psychophysics","116","415335","0.0-8.0-0.0-4.0-0.0-0.4","4","5","6","3","1","5","3","3","5","5","5","0","-1","-2","1","-2","1","1","2","5","4","5","5","3","2","4","4","4","3","5","8","7","5","7","4","8","3","6","4","6","7","5","5","4","2","7","3","3","1","4","2","4","3","1","4","3","4","7","5","1","5","1","1","1","6","6","4","7","7","7","3","7","1","1","5","1","1","1","4","784086466967113730","管","388","Female","[""好我"",""坏她"",""坏我"",""好她""]","[""强我"",""弱她"",""弱我"",""强她""]","","","","","","","","match","","","","","","","","","","key","f","16.653398058252314","774.8571180181065","431.99998615168766","f","true","match","img/hexagon.png","坏她","坏她","ALT2","moral","","","","","","","","",""
"null","<span style='color:GreenYellow; font-size: 70px;'>正确! </span>","null","html-keyboard-response","117","415843","0.0-8.0-0.0-4.0-0.0-1.4","4","5","6","3","1","5","3","3","5","5","5","0","-1","-2","1","-2","1","1","2","5","4","5","5","3","2","4","4","4","3","5","8","7","5","7","4","8","3","6","4","6","7","5","5","4","2","7","3","3","1","4","2","4","3","1","4","3","4","7","5","1","5","1","1","1","6","6","4","7","7","7","3","7","1","1","5","1","1","1","4","784086466967113730","管","388","Female","[""好我"",""坏她"",""坏我"",""好她""]","[""强我"",""弱她"",""弱我"",""强她""]","","","","","","","","","","","","","","","","","","","","","","","","","","","","","","feedback_test","","","","","","","","",""
"562","","f","psychophysics","118","417408","0.0-8.0-0.0-4.0-0.0-0.5","4","5","6","3","1","5","3","3","5","5","5","0","-1","-2","1","-2","1","1","2","5","4","5","5","3","2","4","4","4","3","5","8","7","5","7","4","8","3","6","4","6","7","5","5","4","2","7","3","3","1","4","2","4","3","1","4","3","4","7","5","1","5","1","1","1","6","6","4","7","7","7","3","7","1","1","5","1","1","1","4","784086466967113730","管","388","Female","[""好我"",""坏她"",""坏我"",""好她""]","[""强我"",""弱她"",""弱我"",""强她""]","","","","","","","","match","","","","","","","","","","key","f","16.654838709677044","774.8571180181065","431.99998615168766","f","true","match","img/hexagon.png","坏她","坏她","ALT2","moral","","","","","","","","",""
"null","<span style='color:GreenYellow; font-size: 70px;'>正确! </span>","null","html-keyboard-response","119","417913","0.0-8.0-0.0-4.0-0.0-1.5","4","5","6","3","1","5","3","3","5","5","5","0","-1","-2","1","-2","1","1","2","5","4","5","5","3","2","4","4","4","3","5","8","7","5","7","4","8","3","6","4","6","7","5","5","4","2","7","3","3","1","4","2","4","3","1","4","3","4","7","5","1","5","1","1","1","6","6","4","7","7","7","3","7","1","1","5","1","1","1","4","784086466967113730","管","388","Female","[""好我"",""坏她"",""坏我"",""好她""]","[""强我"",""弱她"",""弱我"",""强她""]","","","","","","","","","","","","","","","","","","","","","","","","","","","","","","feedback_test","","","","","","","","",""
"612","","f","psychophysics","120","419531","0.0-8.0-0.0-4.0-0.0-0.6","4","5","6","3","1","5","3","3","5","5","5","0","-1","-2","1","-2","1","1","2","5","4","5","5","3","2","4","4","4","3","5","8","7","5","7","4","8","3","6","4","6","7","5","5","4","2","7","3","3","1","4","2","4","3","1","4","3","4","7","5","1","5","1","1","1","6","6","4","7","7","7","3","7","1","1","5","1","1","1","4","784086466967113730","管","388","Female","[""好我"",""坏她"",""坏我"",""好她""]","[""强我"",""弱她"",""弱我"",""强她""]","","","","","","","","match","","","","","","","","","","key","f","16.651041666666668","774.8571180181065","431.99998615168766","f","true","match","img/triangle.png","好我","好我","ALT2","moral","","","","","","","","",""
"null","<span style='color:GreenYellow; font-size: 70px;'>正确! </span>","null","html-keyboard-response","121","420048","0.0-8.0-0.0-4.0-0.0-1.6","4","5","6","3","1","5","3","3","5","5","5","0","-1","-2","1","-2","1","1","2","5","4","5","5","3","2","4","4","4","3","5","8","7","5","7","4","8","3","6","4","6","7","5","5","4","2","7","3","3","1","4","2","4","3","1","4","3","4","7","5","1","5","1","1","1","6","6","4","7","7","7","3","7","1","1","5","1","1","1","4","784086466967113730","管","388","Female","[""好我"",""坏她"",""坏我"",""好她""]","[""强我"",""弱她"",""弱我"",""强她""]","","","","","","","","","","","","","","","","","","","","","","","","","","","","","","feedback_test","","","","","","","","",""
"654","","f","psychophysics","122","421704","0.0-8.0-0.0-4.0-0.0-0.7","4","5","6","3","1","5","3","3","5","5","5","0","-1","-2","1","-2","1","1","2","5","4","5","5","3","2","4","4","4","3","5","8","7","5","7","4","8","3","6","4","6","7","5","5","4","2","7","3","3","1","4","2","4","3","1","4","3","4","7","5","1","5","1","1","1","6","6","4","7","7","7","3","7","1","1","5","1","1","1","4","784086466967113730","管","388","Female","[""好我"",""坏她"",""坏我"",""好她""]","[""强我"",""弱她"",""弱我"",""强她""]","","","","","","","","match","","","","","","","","","","key","f","16.649494949494834","774.8571180181065","431.99998615168766","f","true","match","img/circle.png","好她","好她","ALT2","moral","","","","","","","","",""
"null","<span style='color:GreenYellow; font-size: 70px;'>正确! </span>","null","html-keyboard-response","123","422208","0.0-8.0-0.0-4.0-0.0-1.7","4","5","6","3","1","5","3","3","5","5","5","0","-1","-2","1","-2","1","1","2","5","4","5","5","3","2","4","4","4","3","5","8","7","5","7","4","8","3","6","4","6","7","5","5","4","2","7","3","3","1","4","2","4","3","1","4","3","4","7","5","1","5","1","1","1","6","6","4","7","7","7","3","7","1","1","5","1","1","1","4","784086466967113730","管","388","Female","[""好我"",""坏她"",""坏我"",""好她""]","[""强我"",""弱她"",""弱我"",""强她""]","","","","","","","","","","","","","","","","","","","","","","","","","","","","","","feedback_test","","","","","","","","",""
"691","","j","psychophysics","124","423907","0.0-8.0-0.0-4.0-0.0-0.8","4","5","6","3","1","5","3","3","5","5","5","0","-1","-2","1","-2","1","1","2","5","4","5","5","3","2","4","4","4","3","5","8","7","5","7","4","8","3","6","4","6","7","5","5","4","2","7","3","3","1","4","2","4","3","1","4","3","4","7","5","1","5","1","1","1","6","6","4","7","7","7","3","7","1","1","5","1","1","1","4","784086466967113730","管","388","Female","[""好我"",""坏她"",""坏我"",""好她""]","[""强我"",""弱她"",""弱我"",""强她""]","","","","","","","","nonmatch","","","","","","","","","","key","j","16.656435643564816","774.8571180181065","431.99998615168766","j","true","nonmatch","img/triangle.png","好她","好我","ALT2","moral","","","","","","","","",""
"null","<span style='color:GreenYellow; font-size: 70px;'>正确! </span>","null","html-keyboard-response","125","424419","0.0-8.0-0.0-4.0-0.0-1.8","4","5","6","3","1","5","3","3","5","5","5","0","-1","-2","1","-2","1","1","2","5","4","5","5","3","2","4","4","4","3","5","8","7","5","7","4","8","3","6","4","6","7","5","5","4","2","7","3","3","1","4","2","4","3","1","4","3","4","7","5","1","5","1","1","1","6","6","4","7","7","7","3","7","1","1","5","1","1","1","4","784086466967113730","管","388","Female","[""好我"",""坏她"",""坏我"",""好她""]","[""强我"",""弱她"",""弱我"",""强她""]","","","","","","","","","","","","","","","","","","","","","","","","","","","","","","feedback_test","","","","","","","","",""
"631","","f","psychophysics","126","426059","0.0-8.0-0.0-4.0-0.0-0.9","4","5","6","3","1","5","3","3","5","5","5","0","-1","-2","1","-2","1","1","2","5","4","5","5","3","2","4","4","4","3","5","8","7","5","7","4","8","3","6","4","6","7","5","5","4","2","7","3","3","1","4","2","4","3","1","4","3","4","7","5","1","5","1","1","1","6","6","4","7","7","7","3","7","1","1","5","1","1","1","4","784086466967113730","管","388","Female","[""好我"",""坏她"",""坏我"",""好她""]","[""强我"",""弱她"",""弱我"",""强她""]","","","","","","","","match","","","","","","","","","","key","f","16.651546391752696","774.8571180181065","431.99998615168766","f","true","match","img/circle.png","好她","好她","ALT2","moral","","","","","","","","",""
"null","<span style='color:GreenYellow; font-size: 70px;'>正确! </span>","null","html-keyboard-response","127","426564","0.0-8.0-0.0-4.0-0.0-1.9","4","5","6","3","1","5","3","3","5","5","5","0","-1","-2","1","-2","1","1","2","5","4","5","5","3","2","4","4","4","3","5","8","7","5","7","4","8","3","6","4","6","7","5","5","4","2","7","3","3","1","4","2","4","3","1","4","3","4","7","5","1","5","1","1","1","6","6","4","7","7","7","3","7","1","1","5","1","1","1","4","784086466967113730","管","388","Female","[""好我"",""坏她"",""坏我"",""好她""]","[""强我"",""弱她"",""弱我"",""强她""]","","","","","","","","","","","","","","","","","","","","","","","","","","","","","","feedback_test","","","","","","","","",""
"772","","j","psychophysics","128","428339","0.0-8.0-0.0-4.0-0.0-0.10","4","5","6","3","1","5","3","3","5","5","5","0","-1","-2","1","-2","1","1","2","5","4","5","5","3","2","4","4","4","3","5","8","7","5","7","4","8","3","6","4","6","7","5","5","4","2","7","3","3","1","4","2","4","3","1","4","3","4","7","5","1","5","1","1","1","6","6","4","7","7","7","3","7","1","1","5","1","1","1","4","784086466967113730","管","388","Female","[""好我"",""坏她"",""坏我"",""好她""]","[""强我"",""弱她"",""弱我"",""强她""]","","","","","","","","nonmatch","","","","","","","","","","key","j","16.654285714285272","774.8571180181065","431.99998615168766","j","true","nonmatch","img/trapezoid.png","坏她","坏我","ALT2","moral","","","","","","","","",""
"null","<span style='color:GreenYellow; font-size: 70px;'>正确! </span>","null","html-keyboard-response","129","428840","0.0-8.0-0.0-4.0-0.0-1.10","4","5","6","3","1","5","3","3","5","5","5","0","-1","-2","1","-2","1","1","2","5","4","5","5","3","2","4","4","4","3","5","8","7","5","7","4","8","3","6","4","6","7","5","5","4","2","7","3","3","1","4","2","4","3","1","4","3","4","7","5","1","5","1","1","1","6","6","4","7","7","7","3","7","1","1","5","1","1","1","4","784086466967113730","管","388","Female","[""好我"",""坏她"",""坏我"",""好她""]","[""强我"",""弱她"",""弱我"",""强她""]","","","","","","","","","","","","","","","","","","","","","","","","","","","","","","feedback_test","","","","","","","","",""
"901","","j","psychophysics","130","430744","0.0-8.0-0.0-4.0-0.0-0.11","4","5","6","3","1","5","3","3","5","5","5","0","-1","-2","1","-2","1","1","2","5","4","5","5","3","2","4","4","4","3","5","8","7","5","7","4","8","3","6","4","6","7","5","5","4","2","7","3","3","1","4","2","4","3","1","4","3","4","7","5","1","5","1","1","1","6","6","4","7","7","7","3","7","1","1","5","1","1","1","4","784086466967113730","管","388","Female","[""好我"",""坏她"",""坏我"",""好她""]","[""强我"",""弱她"",""弱我"",""强她""]","","","","","","","","nonmatch","","","","","","","","","","key","j","16.654385964912077","774.8571180181065","431.99998615168766","f","false","match","img/trapezoid.png","坏我","坏我","ALT2","moral","","","","","","","","",""
"null","<span style='color:red; font-size: 70px;'>错误! </span>","null","html-keyboard-response","131","431253","0.0-8.0-0.0-4.0-0.0-1.11","4","5","6","3","1","5","3","3","5","5","5","0","-1","-2","1","-2","1","1","2","5","4","5","5","3","2","4","4","4","3","5","8","7","5","7","4","8","3","6","4","6","7","5","5","4","2","7","3","3","1","4","2","4","3","1","4","3","4","7","5","1","5","1","1","1","6","6","4","7","7","7","3","7","1","1","5","1","1","1","4","784086466967113730","管","388","Female","[""好我"",""坏她"",""坏我"",""好她""]","[""强我"",""弱她"",""弱我"",""强她""]","","","","","","","","","","","","","","","","","","","","","","","","","","","","","","feedback_test","","","","","","","","",""
"685","","j","psychophysics","132","432943","0.0-8.0-0.0-4.0-0.0-0.12","4","5","6","3","1","5","3","3","5","5","5","0","-1","-2","1","-2","1","1","2","5","4","5","5","3","2","4","4","4","3","5","8","7","5","7","4","8","3","6","4","6","7","5","5","4","2","7","3","3","1","4","2","4","3","1","4","3","4","7","5","1","5","1","1","1","6","6","4","7","7","7","3","7","1","1","5","1","1","1","4","784086466967113730","管","388","Female","[""好我"",""坏她"",""坏我"",""好她""]","[""强我"",""弱她"",""弱我"",""强她""]","","","","","","","","nonmatch","","","","","","","","","","key","j","16.65643564356424","774.8571180181065","431.99998615168766","j","true","nonmatch","img/trapezoid.png","好她","坏我","ALT2","moral","","","","","","","","",""
"null","<span style='color:GreenYellow; font-size: 70px;'>正确! </span>","null","html-keyboard-response","133","433450","0.0-8.0-0.0-4.0-0.0-1.12","4","5","6","3","1","5","3","3","5","5","5","0","-1","-2","1","-2","1","1","2","5","4","5","5","3","2","4","4","4","3","5","8","7","5","7","4","8","3","6","4","6","7","5","5","4","2","7","3","3","1","4","2","4","3","1","4","3","4","7","5","1","5","1","1","1","6","6","4","7","7","7","3","7","1","1","5","1","1","1","4","784086466967113730","管","388","Female","[""好我"",""坏她"",""坏我"",""好她""]","[""强我"",""弱她"",""弱我"",""强她""]","","","","","","","","","","","","","","","","","","","","","","","","","","","","","","feedback_test","","","","","","","","",""
"677","","j","psychophysics","134","435133","0.0-8.0-0.0-4.0-0.0-0.13","4","5","6","3","1","5","3","3","5","5","5","0","-1","-2","1","-2","1","1","2","5","4","5","5","3","2","4","4","4","3","5","8","7","5","7","4","8","3","6","4","6","7","5","5","4","2","7","3","3","1","4","2","4","3","1","4","3","4","7","5","1","5","1","1","1","6","6","4","7","7","7","3","7","1","1","5","1","1","1","4","784086466967113730","管","388","Female","[""好我"",""坏她"",""坏我"",""好她""]","[""强我"",""弱她"",""弱我"",""强她""]","","","","","","","","nonmatch","","","","","","","","","","key","j","16.654000000000234","774.8571180181065","431.99998615168766","j","true","nonmatch","img/triangle.png","坏她","好我","ALT2","moral","","","","","","","","",""
