"rt","stimulus","response","trial_type","trial_index","time_elapsed","internal_node_id","swb_1","swb_2","swb_3","swb_4","swb_5","LOT_1","LOT_2","LOT_3","LOT_4","LOT_5","LOT_6","IPC_1","IPC_2","IPC_3","IPC_4","IPC_5","IPC_6","IPC_7","IPC_8","MorIden_1","MorIden_2","MorIden_3","MorIden_4","MorIden_5","MorIden_6","MorIden_7","MorIden_8","MorIden_9","MorIden_10","moralSeImag_1","moralSeImag_2","moralSeImag_3","moralSeImag_4","moralSeImag_5","moralSeImag_6","moralSeImag_7","moralSeImag_8","moralSeImag_9","sde_1","sde_2","sde_3","sde_4","sde_5","sde_6","sde_7","sde_8","sde_9","sde_10","trap2","sde_11","sde_12","sde_13","sde_14","sde_15","sde_16","sde_17","sde_18","sde_19","sde_20","IM_1","IM_2","IM_3","IM_4","IM_5","IM_6","IM_7","IM_8","IM_9","IM_10","IM_11","IM_12","IM_13","IM_14","IM_15","IM_16","IM_17","IM_18","IM_19","IM_20","subj_idx","friend_name","ParticipantID","Sex","Word","Word2","value","success","timeout","failed_images","failed_audio","failed_video","user_agent","responses","item_order","radio_event_ids","radio_event_times","key_event_times","mouse_event_times","straightlining","zigzagging","honeypot","task_id","screen_id","time_stamp","response_type","key_press","avg_frame_time","center_x","center_y","person","word","valence","domain","math","correct_response","correct","status","view_history","identity","duration","Image","condition","question_order","trap2_item"
"16320","
   <p><div style='color:white; font-size: 25px'>您好，欢迎参加本次实验。</div></p>
   <p><div style='color:white; font-size: 25px'>为充分保障您的权利，请确保您已经知晓并同意《参与实验同意书》以及《数据公开知情同意书》。</div></p>
   <p><div style='color:white; font-size: 25px'>如果您未见过上述内容，请咨询实验员。</div></p>
   <p style='color:white; font-size: 25px'>如果您选择继续实验，则表示您已经清楚两份知情同意书的内容并同意。</p>
   <p><div style = ""color: pink;font-size:30px;"">请确保您记得day0的实验编号，您将在本次实验输入该编号，若您忘记，请咨询实验员后作答。</div></p>
   <p><div style = ""color:lightblue;font-size:25px;"">请您尽可能认真地作答，我们将依据您在各问卷和按键任务中的作答质量发放报酬。</div></p>
   <p> <div style = ""color: green""><按空格键至下页></div> </p>
   "," ","html-keyboard-response","0","16322","0.0-0.0","6","5","5","4","4","4","3","4","4","4","4","1","1","-1","0","-1","1","0","0","4","4","5","4","4","3","3","4","4","3","5","5","5","5","4","4","6","5","5","5","3","6","5","3","4","5","2","5","3","1","2","3","6","3","4","5","5","4","5","4","3","4","2","3","4","5","5","6","5","6","5","3","6","2","3","5","5","1","3","6","775465718602010626","刘","419","Male","[""坏我"",""坏他"",""好他"",""好我""]","[""弱我"",""弱他"",""强他"",""强我""]","","","","","","","","","","","","","","","","","","","","","","","","","","","","","","","","","","","","","","",""
"","","","call-function","1","16324","0.0-1.0-0.0","6","5","5","4","4","4","3","4","4","4","4","1","1","-1","0","-1","1","0","0","4","4","5","4","4","3","3","4","4","3","5","5","5","5","4","4","6","5","5","5","3","6","5","3","4","5","2","5","3","1","2","3","6","3","4","5","5","4","5","4","3","4","2","3","4","5","5","6","5","6","5","3","6","2","3","5","5","1","3","6","775465718602010626","刘","419","Male","[""坏我"",""坏他"",""好他"",""好我""]","[""弱我"",""弱他"",""强他"",""强我""]","","","","","","","","","","","","","","","","","","","","","","","","","","","","","","","","","","","","","","",""
"74785","","[{""name"":""Sex"",""value"":""0""},{""name"":""friend_name"",""value"":""刘""},{""name"":""ParticipantID"",""value"":""419""}]","survey-html-form","2","91110","0.0-1.0-1.0","6","5","5","4","4","4","3","4","4","4","4","1","1","-1","0","-1","1","0","0","4","4","5","4","4","3","3","4","4","3","5","5","5","5","4","4","6","5","5","5","3","6","5","3","4","5","2","5","3","1","2","3","6","3","4","5","5","4","5","4","3","4","2","3","4","5","5","6","5","6","5","3","6","2","3","5","5","1","3","6","775465718602010626","刘","419","Male","[""坏我"",""坏他"",""好他"",""好我""]","[""弱我"",""弱他"",""强他"",""强我""]","","","","","","","","","","","","","","","","","","","","","","","","","","","","","","","","","","","","","","",""
"","","","preload","3","91504","0.0-2.0","6","5","5","4","4","4","3","4","4","4","4","1","1","-1","0","-1","1","0","0","4","4","5","4","4","3","3","4","4","3","5","5","5","5","4","4","6","5","5","5","3","6","5","3","4","5","2","5","3","1","2","3","6","3","4","5","5","4","5","4","3","4","2","3","4","5","5","6","5","6","5","3","6","2","3","5","5","1","3","6","775465718602010626","刘","419","Male","[""坏我"",""坏他"",""好他"",""好我""]","[""弱我"",""弱他"",""强他"",""强我""]","","true","false","[]","[]","[]","","","","","","","","","","","","","","","","","","","","","","","","","","","","","","","","",""
"","","","fullscreen","4","136753","0.0-3.0","6","5","5","4","4","4","3","4","4","4","4","1","1","-1","0","-1","1","0","0","4","4","5","4","4","3","3","4","4","3","5","5","5","5","4","4","6","5","5","5","3","6","5","3","4","5","2","5","3","1","2","3","6","3","4","5","5","4","5","4","3","4","2","3","4","5","5","6","5","6","5","3","6","2","3","5","5","1","3","6","775465718602010626","刘","419","Male","[""坏我"",""坏他"",""好他"",""好我""]","[""弱我"",""弱他"",""强他"",""强我""]","","true","","","","","{}","","","","","","","","","","","","","","","","","","","","","","","","","","","","","","","",""
"33332.299999952316","","{""Q01"":""6"",""Q02"":""5"",""Q03"":""5"",""Q04"":""4"",""Q05"":""4""}","survey-template","5","170089","0.0-4.0","6","5","5","4","4","4","3","4","4","4","4","1","1","-1","0","-1","1","0","0","4","4","5","4","4","3","3","4","4","3","5","5","5","5","4","4","6","5","5","5","3","6","5","3","4","5","2","5","3","1","2","3","6","3","4","5","5","4","5","4","3","4","2","3","4","5","5","6","5","6","5","3","6","2","3","5","5","1","3","6","775465718602010626","刘","419","Male","[""坏我"",""坏他"",""好他"",""好我""]","[""弱我"",""弱他"",""强他"",""强我""]","","","","","","","","{""Q01"":""6"",""Q02"":""5"",""Q03"":""5"",""Q04"":""4"",""Q05"":""4""}","[0,1,2,3,4]","[""Q01"",""Q02"",""Q01"",""Q03"",""Q03"",""Q03"",""Q04"",""Q05""]","[10472.5,19156,19993.299999952316,22372.899999976158,25196.299999952316,26394.200000047684,27251.100000023842,31264.200000047684]","[]","[3031.2999999523163,9678.5,10472.5,19156,19993.299999952316,22372.899999976158,25196.299999952316,26394.200000047684,27251.100000023842,30667.399999976158,31264.200000047684,33331.200000047684]","0.4","0.5","0","","","","","","","","","","","","","","","","","","","","","","",""
"33310.60000002384","","{""Q01"":""4"",""Q02"":""3"",""Q03"":""4"",""Q04"":""4"",""Q05"":""4"",""Q06"":""4""}","survey-template","6","203403","0.0-5.0","6","5","5","4","4","4","3","4","4","4","4","1","1","-1","0","-1","1","0","0","4","4","5","4","4","3","3","4","4","3","5","5","5","5","4","4","6","5","5","5","3","6","5","3","4","5","2","5","3","1","2","3","6","3","4","5","5","4","5","4","3","4","2","3","4","5","5","6","5","6","5","3","6","2","3","5","5","1","3","6","775465718602010626","刘","419","Male","[""坏我"",""坏他"",""好他"",""好我""]","[""弱我"",""弱他"",""强他"",""强我""]","","","","","","","","{""Q01"":""4"",""Q02"":""3"",""Q03"":""4"",""Q04"":""4"",""Q05"":""4"",""Q06"":""4""}","[0,1,2,3,4,5]","[""Q01"",""Q02"",""Q03"",""Q04"",""Q05"",""Q06""]","[12185,17929.700000047684,18709.299999952316,22540.899999976158,25692.700000047684,30370.200000047684]","[]","[12185,17459.399999976158,17929.700000047684,18709.299999952316,22540.899999976158,25692.700000047684,30370.200000047684,33310]","0.5","0.4","0","","","","","","","","","","","","","","","","","","","","","","",""
"41381.40000009537","","{""Q01"":""1"",""Q02"":""1"",""Q03"":""-1"",""Q04"":""0"",""Q05"":""-1"",""Q06"":""1"",""Q07"":""0"",""Q08"":""0""}","survey-template","7","244787","0.0-6.0","6","5","5","4","4","4","3","4","4","4","4","1","1","-1","0","-1","1","0","0","4","4","5","4","4","3","3","4","4","3","5","5","5","5","4","4","6","5","5","5","3","6","5","3","4","5","2","5","3","1","2","3","6","3","4","5","5","4","5","4","3","4","2","3","4","5","5","6","5","6","5","3","6","2","3","5","5","1","3","6","775465718602010626","刘","419","Male","[""坏我"",""坏他"",""好他"",""好我""]","[""弱我"",""弱他"",""强他"",""强我""]","","","","","","","","{""Q01"":""1"",""Q02"":""1"",""Q03"":""-1"",""Q04"":""0"",""Q05"":""-1"",""Q06"":""1"",""Q07"":""0"",""Q08"":""0""}","[0,1,2,3,4,5,6,7]","[""Q01"",""Q02"",""Q03"",""Q04"",""Q05"",""Q06"",""Q08"",""Q07""]","[3397,7911,10911.700000047684,16216.600000023842,20058.900000095367,22304.400000095367,26005,27128.100000023842]","[]","[3397,7911,10911.700000047684,16216.600000023842,20058.900000095367,22304.400000095367,24668,26005,27128.100000023842,41380.10000002384]","0.375","0.42857142857142855","0","","","","","","","","","","","","","","","","","","","","","","",""
"66600","
    <p><div style='color:white;font-size:35px; line-height:20px;'>词汇评估任务</div></p><br>
    <p><div style='color:white;font-size:25px; line-height:20px;'>请再次回忆该亲密的朋友，你们至少2年前就认识了，并且最近2年经常见面。</div></p>
    <p><div style='color:white;font-size:25px; line-height:20px;'>在本实验中，您将会看到一些形容词。</div></p>
    <p><div style='color:yellow;font-size:25px; line-height:20px;'>您的任务是判断这些形容词是否符合对您自己或您的朋友的描述。</div></p><p style='font-size:35px'>符合按<span style=""color:lightgreen""> j 键</span>，不符合按<span style=""color:red""> f 键</span></p>","0","html-button-response","8","311390","0.0-7.0-0.0","6","5","5","4","4","4","3","4","4","4","4","1","1","-1","0","-1","1","0","0","4","4","5","4","4","3","3","4","4","3","5","5","5","5","4","4","6","5","5","5","3","6","5","3","4","5","2","5","3","1","2","3","6","3","4","5","5","4","5","4","3","4","2","3","4","5","5","6","5","6","5","3","6","2","3","5","5","1","3","6","775465718602010626","刘","419","Male","[""坏我"",""坏他"",""好他"",""好我""]","[""弱我"",""弱他"",""强他"",""强我""]","","","","","","","","","","","","","","","","","SRET_EW","EW_instructions","Sat Jan 20 2024 20:25:22 GMT+0800 (中国标准时间)","","","","","","","","","","","","","","","","","","","",""
"1592","","f","psychophysics","9","314000","0.0-7.0-1.0-0.0","6","5","5","4","4","4","3","4","4","4","4","1","1","-1","0","-1","1","0","0","4","4","5","4","4","3","3","4","4","3","5","5","5","5","4","4","6","5","5","5","3","6","5","3","4","5","2","5","3","1","2","3","6","3","4","5","5","4","5","4","3","4","2","3","4","5","5","6","5","6","5","3","6","2","3","5","5","1","3","6","775465718602010626","刘","419","Male","[""坏我"",""坏他"",""好他"",""好我""]","[""弱我"",""弱他"",""强他"",""强我""]","","","","","","","","no","","","","","","","","","SRET_EW","EW_practice","","key","f","11.379039301309993","853.3333333333334","529.3333333333334","朋友","徇私","Negative","morality","","","","","","","","","","",""
"602","","j","psychophysics","10","315620","0.0-7.0-1.0-0.1","6","5","5","4","4","4","3","4","4","4","4","1","1","-1","0","-1","1","0","0","4","4","5","4","4","3","3","4","4","3","5","5","5","5","4","4","6","5","5","5","3","6","5","3","4","5","2","5","3","1","2","3","6","3","4","5","5","4","5","4","3","4","2","3","4","5","5","6","5","6","5","3","6","2","3","5","5","1","3","6","775465718602010626","刘","419","Male","[""坏我"",""坏他"",""好他"",""好我""]","[""弱我"",""弱他"",""强他"",""强我""]","","","","","","","","yes","","","","","","","","","SRET_EW","EW_practice","","key","j","11.2724475524477","853.3333333333334","529.3333333333334","朋友","忠实","Positive","morality","","","","","","","","","","",""
"1131","","j","psychophysics","11","317752","0.0-7.0-1.0-0.2","6","5","5","4","4","4","3","4","4","4","4","1","1","-1","0","-1","1","0","0","4","4","5","4","4","3","3","4","4","3","5","5","5","5","4","4","6","5","5","5","3","6","5","3","4","5","2","5","3","1","2","3","6","3","4","5","5","4","5","4","3","4","2","3","4","5","5","6","5","6","5","3","6","2","3","5","5","1","3","6","775465718602010626","刘","419","Male","[""坏我"",""坏他"",""好他"",""好我""]","[""弱我"",""弱他"",""强他"",""强我""]","","","","","","","","yes","","","","","","","","","SRET_EW","EW_practice","","key","j","11.195052631578935","853.3333333333334","529.3333333333334","自己","严谨","Positive","ability","","","","","","","","","","",""
"1237","","j","psychophysics","12","319991","0.0-7.0-1.0-0.3","6","5","5","4","4","4","3","4","4","4","4","1","1","-1","0","-1","1","0","0","4","4","5","4","4","3","3","4","4","3","5","5","5","5","4","4","6","5","5","5","3","6","5","3","4","5","2","5","3","1","2","3","6","3","4","5","5","4","5","4","3","4","2","3","4","5","5","6","5","6","5","3","6","2","3","5","5","1","3","6","775465718602010626","刘","419","Male","[""坏我"",""坏他"",""好他"",""好我""]","[""弱我"",""弱他"",""强他"",""强我""]","","","","","","","","yes","","","","","","","","","SRET_EW","EW_practice","","key","j","11.347040816326626","853.3333333333334","529.3333333333334","自己","刻板","Negative","ability","","","","","","","","","","",""
"38058","
    <p><div style='color:white;font-size:35px; line-height:20px;'>请您再次阅读实验要求</div></p><br>
    <p><div style='color:white;font-size:25px; line-height:20px;'>请回忆某一个亲密的朋友，你们至少2年前就认识了，并且最近2年经常见面。</div></p>
    <p><div style='color:white;font-size:25px; line-height:20px;'>在本实验中，您将会看到一些形容词。</div></p>
    <p><div style='color:yellow;font-size:25px; line-height:20px;'>您的任务是判断这些形容词是否符合对您自己或您的朋友的描述。</div></p>
    <p><div class='footer' style='font-size:25px; line-height:20px;'>如果对本实验还有不清楚之处，请立即向实验员咨询。</p><p style='font-size:25px; line-height:20px;'>如果您明白了规则：</p><p style='font-size:22px; line-height:20px;'>请按 继续 进入正式实验</p>
    </div>
    <p style='font-size:35px'>符合按<span style=""color:lightgreen""> j 键</span>，不符合按<span style=""color:red""> f 键</span></p>","0","html-button-response","13","358049","0.0-7.0-2.0","6","5","5","4","4","4","3","4","4","4","4","1","1","-1","0","-1","1","0","0","4","4","5","4","4","3","3","4","4","3","5","5","5","5","4","4","6","5","5","5","3","6","5","3","4","5","2","5","3","1","2","3","6","3","4","5","5","4","5","4","3","4","2","3","4","5","5","6","5","6","5","3","6","2","3","5","5","1","3","6","775465718602010626","刘","419","Male","[""坏我"",""坏他"",""好他"",""好我""]","[""弱我"",""弱他"",""强他"",""强我""]","","","","","","","","","","","","","","","","","SRET_EW","prac_instructions","Sat Jan 20 2024 20:25:22 GMT+0800 (中国标准时间)","","","","","","","","","","","","","","","","","","","",""
"1877","","j","psychophysics","14","360929","0.0-7.0-3.0-0.0","6","5","5","4","4","4","3","4","4","4","4","1","1","-1","0","-1","1","0","0","4","4","5","4","4","3","3","4","4","3","5","5","5","5","4","4","6","5","5","5","3","6","5","3","4","5","2","5","3","1","2","3","6","3","4","5","5","4","5","4","3","4","2","3","4","5","5","6","5","6","5","3","6","2","3","5","5","1","3","6","775465718602010626","刘","419","Male","[""坏我"",""坏他"",""好他"",""好我""]","[""弱我"",""弱他"",""强他"",""强我""]","","","","","","","","yes","","","","","","","","","SRET","EW_formal","","key","j","10.655687732342026","853.3333333333334","529.3333333333334","朋友","迷糊","Negative","ability","","","","","","","","","","",""
"733","","j","psychophysics","15","362665","0.0-7.0-3.0-0.1","6","5","5","4","4","4","3","4","4","4","4","1","1","-1","0","-1","1","0","0","4","4","5","4","4","3","3","4","4","3","5","5","5","5","4","4","6","5","5","5","3","6","5","3","4","5","2","5","3","1","2","3","6","3","4","5","5","4","5","4","3","4","2","3","4","5","5","6","5","6","5","3","6","2","3","5","5","1","3","6","775465718602010626","刘","419","Male","[""坏我"",""坏他"",""好他"",""好我""]","[""弱我"",""弱他"",""强他"",""强我""]","","","","","","","","yes","","","","","","","","","SRET","EW_formal","","key","j","11.362499999999846","853.3333333333334","529.3333333333334","朋友","务实","Positive","ability","","","","","","","","","","",""
"1029","","f","psychophysics","16","364695","0.0-7.0-3.0-0.2","6","5","5","4","4","4","3","4","4","4","4","1","1","-1","0","-1","1","0","0","4","4","5","4","4","3","3","4","4","3","5","5","5","5","4","4","6","5","5","5","3","6","5","3","4","5","2","5","3","1","2","3","6","3","4","5","5","4","5","4","3","4","2","3","4","5","5","6","5","6","5","3","6","2","3","5","5","1","3","6","775465718602010626","刘","419","Male","[""坏我"",""坏他"",""好他"",""好我""]","[""弱我"",""弱他"",""强他"",""强我""]","","","","","","","","no","","","","","","","","","SRET","EW_formal","","key","f","11.732441860465347","853.3333333333334","529.3333333333334","自己","说谎","Negative","morality","","","","","","","","","","",""
"1030","","j","psychophysics","17","366729","0.0-7.0-3.0-0.3","6","5","5","4","4","4","3","4","4","4","4","1","1","-1","0","-1","1","0","0","4","4","5","4","4","3","3","4","4","3","5","5","5","5","4","4","6","5","5","5","3","6","5","3","4","5","2","5","3","1","2","3","6","3","4","5","5","4","5","4","3","4","2","3","4","5","5","6","5","6","5","3","6","2","3","5","5","1","3","6","775465718602010626","刘","419","Male","[""坏我"",""坏他"",""好他"",""好我""]","[""弱我"",""弱他"",""强他"",""强我""]","","","","","","","","yes","","","","","","","","","SRET","EW_formal","","key","j","11.465795454545349","853.3333333333334","529.3333333333334","自己","坚贞","Positive","morality","","","","","","","","","","",""
"872","","j","psychophysics","18","368620","0.0-7.0-3.0-0.4","6","5","5","4","4","4","3","4","4","4","4","1","1","-1","0","-1","1","0","0","4","4","5","4","4","3","3","4","4","3","5","5","5","5","4","4","6","5","5","5","3","6","5","3","4","5","2","5","3","1","2","3","6","3","4","5","5","4","5","4","3","4","2","3","4","5","5","6","5","6","5","3","6","2","3","5","5","1","3","6","775465718602010626","刘","419","Male","[""坏我"",""坏他"",""好他"",""好我""]","[""弱我"",""弱他"",""强他"",""强我""]","","","","","","","","yes","","","","","","","","","SRET","EW_formal","","key","j","11.422181818182016","853.3333333333334","529.3333333333334","朋友","忠诚","Positive","morality","","","","","","","","","","",""
"749","","j","psychophysics","19","370376","0.0-7.0-3.0-0.5","6","5","5","4","4","4","3","4","4","4","4","1","1","-1","0","-1","1","0","0","4","4","5","4","4","3","3","4","4","3","5","5","5","5","4","4","6","5","5","5","3","6","5","3","4","5","2","5","3","1","2","3","6","3","4","5","5","4","5","4","3","4","2","3","4","5","5","6","5","6","5","3","6","2","3","5","5","1","3","6","775465718602010626","刘","419","Male","[""坏我"",""坏他"",""好他"",""好我""]","[""弱我"",""弱他"",""强他"",""强我""]","","","","","","","","yes","","","","","","","","","SRET","EW_formal","","key","j","10.93849056603756","853.3333333333334","529.3333333333334","朋友","远见","Positive","ability","","","","","","","","","","",""
"907","","j","psychophysics","20","372296","0.0-7.0-3.0-0.6","6","5","5","4","4","4","3","4","4","4","4","1","1","-1","0","-1","1","0","0","4","4","5","4","4","3","3","4","4","3","5","5","5","5","4","4","6","5","5","5","3","6","5","3","4","5","2","5","3","1","2","3","6","3","4","5","5","4","5","4","3","4","2","3","4","5","5","6","5","6","5","3","6","2","3","5","5","1","3","6","775465718602010626","刘","419","Male","[""坏我"",""坏他"",""好他"",""好我""]","[""弱我"",""弱他"",""强他"",""强我""]","","","","","","","","yes","","","","","","","","","SRET","EW_formal","","key","j","11.098255813953624","853.3333333333334","529.3333333333334","朋友","中用","Positive","ability","","","","","","","","","","",""
"1034","","f","psychophysics","21","374336","0.0-7.0-3.0-0.7","6","5","5","4","4","4","3","4","4","4","4","1","1","-1","0","-1","1","0","0","4","4","5","4","4","3","3","4","4","3","5","5","5","5","4","4","6","5","5","5","3","6","5","3","4","5","2","5","3","1","2","3","6","3","4","5","5","4","5","4","3","4","2","3","4","5","5","6","5","6","5","3","6","2","3","5","5","1","3","6","775465718602010626","刘","419","Male","[""坏我"",""坏他"",""好他"",""好我""]","[""弱我"",""弱他"",""强他"",""强我""]","","","","","","","","no","","","","","","","","","SRET","EW_formal","","key","f","11.941764705882216","853.3333333333334","529.3333333333334","自己","狡诈","Negative","morality","","","","","","","","","","",""
"1092","","f","psychophysics","22","376436","0.0-7.0-3.0-0.8","6","5","5","4","4","4","3","4","4","4","4","1","1","-1","0","-1","1","0","0","4","4","5","4","4","3","3","4","4","3","5","5","5","5","4","4","6","5","5","5","3","6","5","3","4","5","2","5","3","1","2","3","6","3","4","5","5","4","5","4","3","4","2","3","4","5","5","6","5","6","5","3","6","2","3","5","5","1","3","6","775465718602010626","刘","419","Male","[""坏我"",""坏他"",""好他"",""好我""]","[""弱我"",""弱他"",""强他"",""强我""]","","","","","","","","no","","","","","","","","","SRET","EW_formal","","key","f","11.584309392265245","853.3333333333334","529.3333333333334","朋友","独断","Negative","ability","","","","","","","","","","",""
"1240","","j","psychophysics","23","378682","0.0-7.0-3.0-0.9","6","5","5","4","4","4","3","4","4","4","4","1","1","-1","0","-1","1","0","0","4","4","5","4","4","3","3","4","4","3","5","5","5","5","4","4","6","5","5","5","3","6","5","3","4","5","2","5","3","1","2","3","6","3","4","5","5","4","5","4","3","4","2","3","4","5","5","6","5","6","5","3","6","2","3","5","5","1","3","6","775465718602010626","刘","419","Male","[""坏我"",""坏他"",""好他"",""好我""]","[""弱我"",""弱他"",""强他"",""强我""]","","","","","","","","yes","","","","","","","","","SRET","EW_formal","","key","j","10.931764705882433","853.3333333333334","529.3333333333334","自己","淡泊","Positive","morality","","","","","","","","","","",""
"1345","","f","psychophysics","24","381037","0.0-7.0-3.0-0.10","6","5","5","4","4","4","3","4","4","4","4","1","1","-1","0","-1","1","0","0","4","4","5","4","4","3","3","4","4","3","5","5","5","5","4","4","6","5","5","5","3","6","5","3","4","5","2","5","3","1","2","3","6","3","4","5","5","4","5","4","3","4","2","3","4","5","5","6","5","6","5","3","6","2","3","5","5","1","3","6","775465718602010626","刘","419","Male","[""坏我"",""坏他"",""好他"",""好我""]","[""弱我"",""弱他"",""强他"",""强我""]","","","","","","","","no","","","","","","","","","SRET","EW_formal","","key","f","11.667761194030001","853.3333333333334","529.3333333333334","自己","差生","Negative","ability","","","","","","","","","","",""
"999","","f","psychophysics","25","383038","0.0-7.0-3.0-0.11","6","5","5","4","4","4","3","4","4","4","4","1","1","-1","0","-1","1","0","0","4","4","5","4","4","3","3","4","4","3","5","5","5","5","4","4","6","5","5","5","3","6","5","3","4","5","2","5","3","1","2","3","6","3","4","5","5","4","5","4","3","4","2","3","4","5","5","6","5","6","5","3","6","2","3","5","5","1","3","6","775465718602010626","刘","419","Male","[""坏我"",""坏他"",""好他"",""好我""]","[""弱我"",""弱他"",""强他"",""强我""]","","","","","","","","no","","","","","","","","","SRET","EW_formal","","key","f","11.166741573033669","853.3333333333334","529.3333333333334","自己","虚伪","Negative","morality","","","","","","","","","","",""
"1003","","j","psychophysics","26","385043","0.0-7.0-3.0-0.12","6","5","5","4","4","4","3","4","4","4","4","1","1","-1","0","-1","1","0","0","4","4","5","4","4","3","3","4","4","3","5","5","5","5","4","4","6","5","5","5","3","6","5","3","4","5","2","5","3","1","2","3","6","3","4","5","5","4","5","4","3","4","2","3","4","5","5","6","5","6","5","3","6","2","3","5","5","1","3","6","775465718602010626","刘","419","Male","[""坏我"",""坏他"",""好他"",""好我""]","[""弱我"",""弱他"",""强他"",""强我""]","","","","","","","","yes","","","","","","","","","SRET","EW_formal","","key","j","11.493103448275795","853.3333333333334","529.3333333333334","朋友","侠义","Positive","morality","","","","","","","","","","",""
"1202","","j","psychophysics","27","387255","0.0-7.0-3.0-0.13","6","5","5","4","4","4","3","4","4","4","4","1","1","-1","0","-1","1","0","0","4","4","5","4","4","3","3","4","4","3","5","5","5","5","4","4","6","5","5","5","3","6","5","3","4","5","2","5","3","1","2","3","6","3","4","5","5","4","5","4","3","4","2","3","4","5","5","6","5","6","5","3","6","2","3","5","5","1","3","6","775465718602010626","刘","419","Male","[""坏我"",""坏他"",""好他"",""好我""]","[""弱我"",""弱他"",""强他"",""强我""]","","","","","","","","yes","","","","","","","","","SRET","EW_formal","","key","j","11.517172774869255","853.3333333333334","529.3333333333334","自己","敏捷","Positive","ability","","","","","","","","","","",""
"1110","","j","psychophysics","28","389369","0.0-7.0-3.0-0.14","6","5","5","4","4","4","3","4","4","4","4","1","1","-1","0","-1","1","0","0","4","4","5","4","4","3","3","4","4","3","5","5","5","5","4","4","6","5","5","5","3","6","5","3","4","5","2","5","3","1","2","3","6","3","4","5","5","4","5","4","3","4","2","3","4","5","5","6","5","6","5","3","6","2","3","5","5","1","3","6","775465718602010626","刘","419","Male","[""坏我"",""坏他"",""好他"",""好我""]","[""弱我"",""弱他"",""强他"",""强我""]","","","","","","","","yes","","","","","","","","","SRET","EW_formal","","key","j","11.185212765957484","853.3333333333334","529.3333333333334","朋友","宽容","Positive","morality","","","","","","","","","","",""
"831","","j","psychophysics","29","391201","0.0-7.0-3.0-0.15","6","5","5","4","4","4","3","4","4","4","4","1","1","-1","0","-1","1","0","0","4","4","5","4","4","3","3","4","4","3","5","5","5","5","4","4","6","5","5","5","3","6","5","3","4","5","2","5","3","1","2","3","6","3","4","5","5","4","5","4","3","4","2","3","4","5","5","6","5","6","5","3","6","2","3","5","5","1","3","6","775465718602010626","刘","419","Male","[""坏我"",""坏他"",""好他"",""好我""]","[""弱我"",""弱他"",""强他"",""强我""]","","","","","","","","yes","","","","","","","","","SRET","EW_formal","","key","j","11.472075471698098","853.3333333333334","529.3333333333334","自己","利落","Positive","ability","","","","","","","","","","",""
"null","","null","psychophysics","30","394213","0.0-7.0-3.0-0.16","6","5","5","4","4","4","3","4","4","4","4","1","1","-1","0","-1","1","0","0","4","4","5","4","4","3","3","4","4","3","5","5","5","5","4","4","6","5","5","5","3","6","5","3","4","5","2","5","3","1","2","3","6","3","4","5","5","4","5","4","3","4","2","3","4","5","5","6","5","6","5","3","6","2","3","5","5","1","3","6","775465718602010626","刘","419","Male","[""坏我"",""坏他"",""好他"",""好我""]","[""弱我"",""弱他"",""强他"",""强我""]","","","","","","","","","","","","","","","","","SRET","EW_formal","","key","null","11.362500000000043","853.3333333333334","529.3333333333334","自己","利己","Negative","morality","","","","","","","","","","",""
"922","","f","psychophysics","31","396136","0.0-7.0-3.0-0.17","6","5","5","4","4","4","3","4","4","4","4","1","1","-1","0","-1","1","0","0","4","4","5","4","4","3","3","4","4","3","5","5","5","5","4","4","6","5","5","5","3","6","5","3","4","5","2","5","3","1","2","3","6","3","4","5","5","4","5","4","3","4","2","3","4","5","5","6","5","6","5","3","6","2","3","5","5","1","3","6","775465718602010626","刘","419","Male","[""坏我"",""坏他"",""好他"",""好我""]","[""弱我"",""弱他"",""强他"",""强我""]","","","","","","","","no","","","","","","","","","SRET","EW_formal","","key","f","11.163157894736639","853.3333333333334","529.3333333333334","朋友","虚假","Negative","morality","","","","","","","","","","",""
"1255","","j","psychophysics","32","398402","0.0-7.0-3.0-0.18","6","5","5","4","4","4","3","4","4","4","4","1","1","-1","0","-1","1","0","0","4","4","5","4","4","3","3","4","4","3","5","5","5","5","4","4","6","5","5","5","3","6","5","3","4","5","2","5","3","1","2","3","6","3","4","5","5","4","5","4","3","4","2","3","4","5","5","6","5","6","5","3","6","2","3","5","5","1","3","6","775465718602010626","刘","419","Male","[""坏我"",""坏他"",""好他"",""好我""]","[""弱我"",""弱他"",""强他"",""强我""]","","","","","","","","yes","","","","","","","","","SRET","EW_formal","","key","j","11.680414507772056","853.3333333333334","529.3333333333334","自己","拖延","Negative","ability","","","","","","","","","","",""
"753","","j","psychophysics","33","400178","0.0-7.0-3.0-0.19","6","5","5","4","4","4","3","4","4","4","4","1","1","-1","0","-1","1","0","0","4","4","5","4","4","3","3","4","4","3","5","5","5","5","4","4","6","5","5","5","3","6","5","3","4","5","2","5","3","1","2","3","6","3","4","5","5","4","5","4","3","4","2","3","4","5","5","6","5","6","5","3","6","2","3","5","5","1","3","6","775465718602010626","刘","419","Male","[""坏我"",""坏他"",""好他"",""好我""]","[""弱我"",""弱他"",""强他"",""强我""]","","","","","","","","yes","","","","","","","","","SRET","EW_formal","","key","j","11.915270270270412","853.3333333333334","529.3333333333334","朋友","勤恳","Positive","morality","","","","","","","","","","",""
"751","","j","psychophysics","34","401945","0.0-7.0-3.0-0.20","6","5","5","4","4","4","3","4","4","4","4","1","1","-1","0","-1","1","0","0","4","4","5","4","4","3","3","4","4","3","5","5","5","5","4","4","6","5","5","5","3","6","5","3","4","5","2","5","3","1","2","3","6","3","4","5","5","4","5","4","3","4","2","3","4","5","5","6","5","6","5","3","6","2","3","5","5","1","3","6","775465718602010626","刘","419","Male","[""坏我"",""坏他"",""好他"",""好我""]","[""弱我"",""弱他"",""强他"",""强我""]","","","","","","","","yes","","","","","","","","","SRET","EW_formal","","key","j","11.486274509804074","853.3333333333334","529.3333333333334","朋友","专注","Positive","ability","","","","","","","","","","",""
"857","","f","psychophysics","35","403817","0.0-7.0-3.0-0.21","6","5","5","4","4","4","3","4","4","4","4","1","1","-1","0","-1","1","0","0","4","4","5","4","4","3","3","4","4","3","5","5","5","5","4","4","6","5","5","5","3","6","5","3","4","5","2","5","3","1","2","3","6","3","4","5","5","4","5","4","3","4","2","3","4","5","5","6","5","6","5","3","6","2","3","5","5","1","3","6","775465718602010626","刘","419","Male","[""坏我"",""坏他"",""好他"",""好我""]","[""弱我"",""弱他"",""强他"",""强我""]","","","","","","","","no","","","","","","","","","SRET","EW_formal","","key","f","11.140239520957985","853.3333333333334","529.3333333333334","朋友","弱智","Negative","ability","","","","","","","","","","",""
"918","","j","psychophysics","36","405740","0.0-7.0-3.0-0.22","6","5","5","4","4","4","3","4","4","4","4","1","1","-1","0","-1","1","0","0","4","4","5","4","4","3","3","4","4","3","5","5","5","5","4","4","6","5","5","5","3","6","5","3","4","5","2","5","3","1","2","3","6","3","4","5","5","4","5","4","3","4","2","3","4","5","5","6","5","6","5","3","6","2","3","5","5","1","3","6","775465718602010626","刘","419","Male","[""坏我"",""坏他"",""好他"",""好我""]","[""弱我"",""弱他"",""强他"",""强我""]","","","","","","","","yes","","","","","","","","","SRET","EW_formal","","key","j","11.639634146341605","853.3333333333334","529.3333333333334","朋友","廉正","Positive","morality","","","","","","","","","","",""
"853","","f","psychophysics","37","407610","0.0-7.0-3.0-0.23","6","5","5","4","4","4","3","4","4","4","4","1","1","-1","0","-1","1","0","0","4","4","5","4","4","3","3","4","4","3","5","5","5","5","4","4","6","5","5","5","3","6","5","3","4","5","2","5","3","1","2","3","6","3","4","5","5","4","5","4","3","4","2","3","4","5","5","6","5","6","5","3","6","2","3","5","5","1","3","6","775465718602010626","刘","419","Male","[""坏我"",""坏他"",""好他"",""好我""]","[""弱我"",""弱他"",""强他"",""强我""]","","","","","","","","no","","","","","","","","","SRET","EW_formal","","key","f","11.344024390243803","853.3333333333334","529.3333333333334","自己","不孝","Negative","morality","","","","","","","","","","",""
"1024","","j","psychophysics","38","409645","0.0-7.0-3.0-0.24","6","5","5","4","4","4","3","4","4","4","4","1","1","-1","0","-1","1","0","0","4","4","5","4","4","3","3","4","4","3","5","5","5","5","4","4","6","5","5","5","3","6","5","3","4","5","2","5","3","1","2","3","6","3","4","5","5","4","5","4","3","4","2","3","4","5","5","6","5","6","5","3","6","2","3","5","5","1","3","6","775465718602010626","刘","419","Male","[""坏我"",""坏他"",""好他"",""好我""]","[""弱我"",""弱他"",""强他"",""强我""]","","","","","","","","yes","","","","","","","","","SRET","EW_formal","","key","j","11.060327868852344","853.3333333333334","529.3333333333334","自己","笨蛋","Negative","ability","","","","","","","","","","",""
"1335","","j","psychophysics","39","411986","0.0-7.0-3.0-0.25","6","5","5","4","4","4","3","4","4","4","4","1","1","-1","0","-1","1","0","0","4","4","5","4","4","3","3","4","4","3","5","5","5","5","4","4","6","5","5","5","3","6","5","3","4","5","2","5","3","1","2","3","6","3","4","5","5","4","5","4","3","4","2","3","4","5","5","6","5","6","5","3","6","2","3","5","5","1","3","6","775465718602010626","刘","419","Male","[""坏我"",""坏他"",""好他"",""好我""]","[""弱我"",""弱他"",""强他"",""强我""]","","","","","","","","yes","","","","","","","","","SRET","EW_formal","","key","j","11.028625592416962","853.3333333333334","529.3333333333334","朋友","热心","Positive","morality","","","","","","","","","","",""
"734","","j","psychophysics","40","413736","0.0-7.0-3.0-0.26","6","5","5","4","4","4","3","4","4","4","4","1","1","-1","0","-1","1","0","0","4","4","5","4","4","3","3","4","4","3","5","5","5","5","4","4","6","5","5","5","3","6","5","3","4","5","2","5","3","1","2","3","6","3","4","5","5","4","5","4","3","4","2","3","4","5","5","6","5","6","5","3","6","2","3","5","5","1","3","6","775465718602010626","刘","419","Male","[""坏我"",""坏他"",""好他"",""好我""]","[""弱我"",""弱他"",""强他"",""强我""]","","","","","","","","yes","","","","","","","","","SRET","EW_formal","","key","j","10.83224999999984","853.3333333333334","529.3333333333334","自己","勤奋","Positive","ability","","","","","","","","","","",""
"942","","f","psychophysics","41","415680","0.0-7.0-3.0-0.27","6","5","5","4","4","4","3","4","4","4","4","1","1","-1","0","-1","1","0","0","4","4","5","4","4","3","3","4","4","3","5","5","5","5","4","4","6","5","5","5","3","6","5","3","4","5","2","5","3","1","2","3","6","3","4","5","5","4","5","4","3","4","2","3","4","5","5","6","5","6","5","3","6","2","3","5","5","1","3","6","775465718602010626","刘","419","Male","[""坏我"",""坏他"",""好他"",""好我""]","[""弱我"",""弱他"",""强他"",""强我""]","","","","","","","","no","","","","","","","","","SRET","EW_formal","","key","f","10.983749999999748","853.3333333333334","529.3333333333334","朋友","贪腐","Negative","morality","","","","","","","","","","",""
"688","","j","psychophysics","42","417376","0.0-7.0-3.0-0.28","6","5","5","4","4","4","3","4","4","4","4","1","1","-1","0","-1","1","0","0","4","4","5","4","4","3","3","4","4","3","5","5","5","5","4","4","6","5","5","5","3","6","5","3","4","5","2","5","3","1","2","3","6","3","4","5","5","4","5","4","3","4","2","3","4","5","5","6","5","6","5","3","6","2","3","5","5","1","3","6","775465718602010626","刘","419","Male","[""坏我"",""坏他"",""好他"",""好我""]","[""弱我"",""弱他"",""强他"",""强我""]","","","","","","","","yes","","","","","","","","","SRET","EW_formal","","key","j","11.990142857142823","853.3333333333334","529.3333333333334","自己","周到","Positive","ability","","","","","","","","","","",""
"926","","f","psychophysics","43","419316","0.0-7.0-3.0-0.29","6","5","5","4","4","4","3","4","4","4","4","1","1","-1","0","-1","1","0","0","4","4","5","4","4","3","3","4","4","3","5","5","5","5","4","4","6","5","5","5","3","6","5","3","4","5","2","5","3","1","2","3","6","3","4","5","5","4","5","4","3","4","2","3","4","5","5","6","5","6","5","3","6","2","3","5","5","1","3","6","775465718602010626","刘","419","Male","[""坏我"",""坏他"",""好他"",""好我""]","[""弱我"",""弱他"",""强他"",""强我""]","","","","","","","","no","","","","","","","","","SRET","EW_formal","","key","f","11.20395348837185","853.3333333333334","529.3333333333334","自己","缺德","Negative","morality","","","","","","","","","","",""
"635","","f","psychophysics","44","420969","0.0-7.0-3.0-0.30","6","5","5","4","4","4","3","4","4","4","4","1","1","-1","0","-1","1","0","0","4","4","5","4","4","3","3","4","4","3","5","5","5","5","4","4","6","5","5","5","3","6","5","3","4","5","2","5","3","1","2","3","6","3","4","5","5","4","5","4","3","4","2","3","4","5","5","6","5","6","5","3","6","2","3","5","5","1","3","6","775465718602010626","刘","419","Male","[""坏我"",""坏他"",""好他"",""好我""]","[""弱我"",""弱他"",""强他"",""强我""]","","","","","","","","no","","","","","","","","","SRET","EW_formal","","key","f","11.48433566433573","853.3333333333334","529.3333333333334","自己","愚钝","Negative","ability","","","","","","","","","","",""
"774","","j","psychophysics","45","422750","0.0-7.0-3.0-0.31","6","5","5","4","4","4","3","4","4","4","4","1","1","-1","0","-1","1","0","0","4","4","5","4","4","3","3","4","4","3","5","5","5","5","4","4","6","5","5","5","3","6","5","3","4","5","2","5","3","1","2","3","6","3","4","5","5","4","5","4","3","4","2","3","4","5","5","6","5","6","5","3","6","2","3","5","5","1","3","6","775465718602010626","刘","419","Male","[""坏我"",""坏他"",""好他"",""好我""]","[""弱我"",""弱他"",""强他"",""强我""]","","","","","","","","yes","","","","","","","","","SRET","EW_formal","","key","j","11.343076923077042","853.3333333333334","529.3333333333334","朋友","变通","Positive","ability","","","","","","","","","","",""
"1034","","f","psychophysics","46","424787","0.0-7.0-3.0-0.32","6","5","5","4","4","4","3","4","4","4","4","1","1","-1","0","-1","1","0","0","4","4","5","4","4","3","3","4","4","3","5","5","5","5","4","4","6","5","5","5","3","6","5","3","4","5","2","5","3","1","2","3","6","3","4","5","5","4","5","4","3","4","2","3","4","5","5","6","5","6","5","3","6","2","3","5","5","1","3","6","775465718602010626","刘","419","Male","[""坏我"",""坏他"",""好他"",""好我""]","[""弱我"",""弱他"",""强他"",""强我""]","","","","","","","","no","","","","","","","","","SRET","EW_formal","","key","f","11.435254237288017","853.3333333333334","529.3333333333334","自己","迂拙","Negative","ability","","","","","","","","","","",""
"1112","","j","psychophysics","47","426913","0.0-7.0-3.0-0.33","6","5","5","4","4","4","3","4","4","4","4","1","1","-1","0","-1","1","0","0","4","4","5","4","4","3","3","4","4","3","5","5","5","5","4","4","6","5","5","5","3","6","5","3","4","5","2","5","3","1","2","3","6","3","4","5","5","4","5","4","3","4","2","3","4","5","5","6","5","6","5","3","6","2","3","5","5","1","3","6","775465718602010626","刘","419","Male","[""坏我"",""坏他"",""好他"",""好我""]","[""弱我"",""弱他"",""强他"",""强我""]","","","","","","","","yes","","","","","","","","","SRET","EW_formal","","key","j","11.309839572192526","853.3333333333334","529.3333333333334","自己","懂行","Positive","ability","","","","","","","","","","",""
"709","","j","psychophysics","48","428633","0.0-7.0-3.0-0.34","6","5","5","4","4","4","3","4","4","4","4","1","1","-1","0","-1","1","0","0","4","4","5","4","4","3","3","4","4","3","5","5","5","5","4","4","6","5","5","5","3","6","5","3","4","5","2","5","3","1","2","3","6","3","4","5","5","4","5","4","3","4","2","3","4","5","5","6","5","6","5","3","6","2","3","5","5","1","3","6","775465718602010626","刘","419","Male","[""坏我"",""坏他"",""好他"",""好我""]","[""弱我"",""弱他"",""强他"",""强我""]","","","","","","","","yes","","","","","","","","","SRET","EW_formal","","key","j","11.317350993377376","853.3333333333334","529.3333333333334","朋友","果断","Positive","ability","","","","","","","","","","",""
"740","","f","psychophysics","49","430374","0.0-7.0-3.0-0.35","6","5","5","4","4","4","3","4","4","4","4","1","1","-1","0","-1","1","0","0","4","4","5","4","4","3","3","4","4","3","5","5","5","5","4","4","6","5","5","5","3","6","5","3","4","5","2","5","3","1","2","3","6","3","4","5","5","4","5","4","3","4","2","3","4","5","5","6","5","6","5","3","6","2","3","5","5","1","3","6","775465718602010626","刘","419","Male","[""坏我"",""坏他"",""好他"",""好我""]","[""弱我"",""弱他"",""强他"",""强我""]","","","","","","","","no","","","","","","","","","SRET","EW_formal","","key","f","11.254285714285547","853.3333333333334","529.3333333333334","朋友","黑心","Negative","morality","","","","","","","","","","",""
"999","","f","psychophysics","50","432375","0.0-7.0-3.0-0.36","6","5","5","4","4","4","3","4","4","4","4","1","1","-1","0","-1","1","0","0","4","4","5","4","4","3","3","4","4","3","5","5","5","5","4","4","6","5","5","5","3","6","5","3","4","5","2","5","3","1","2","3","6","3","4","5","5","4","5","4","3","4","2","3","4","5","5","6","5","6","5","3","6","2","3","5","5","1","3","6","775465718602010626","刘","419","Male","[""坏我"",""坏他"",""好他"",""好我""]","[""弱我"",""弱他"",""强他"",""强我""]","","","","","","","","no","","","","","","","","","SRET","EW_formal","","key","f","11.104357541899402","853.3333333333334","529.3333333333334","自己","逞能","Negative","ability","","","","","","","","","","",""
"1002","","f","psychophysics","51","434389","0.0-7.0-3.0-0.37","6","5","5","4","4","4","3","4","4","4","4","1","1","-1","0","-1","1","0","0","4","4","5","4","4","3","3","4","4","3","5","5","5","5","4","4","6","5","5","5","3","6","5","3","4","5","2","5","3","1","2","3","6","3","4","5","5","4","5","4","3","4","2","3","4","5","5","6","5","6","5","3","6","2","3","5","5","1","3","6","775465718602010626","刘","419","Male","[""坏我"",""坏他"",""好他"",""好我""]","[""弱我"",""弱他"",""强他"",""强我""]","","","","","","","","no","","","","","","","","","SRET","EW_formal","","key","f","11.39693181818174","853.3333333333334","529.3333333333334","自己","无助","Negative","ability","","","","","","","","","","",""
"742","","j","psychophysics","52","436145","0.0-7.0-3.0-0.38","6","5","5","4","4","4","3","4","4","4","4","1","1","-1","0","-1","1","0","0","4","4","5","4","4","3","3","4","4","3","5","5","5","5","4","4","6","5","5","5","3","6","5","3","4","5","2","5","3","1","2","3","6","3","4","5","5","4","5","4","3","4","2","3","4","5","5","6","5","6","5","3","6","2","3","5","5","1","3","6","775465718602010626","刘","419","Male","[""坏我"",""坏他"",""好他"",""好我""]","[""弱我"",""弱他"",""强他"",""强我""]","","","","","","","","yes","","","","","","","","","SRET","EW_formal","","key","j","11.327843137254735","853.3333333333334","529.3333333333334","自己","忠勇","Positive","morality","","","","","","","","","","",""
"533","","j","psychophysics","53","437681","0.0-7.0-3.0-0.39","6","5","5","4","4","4","3","4","4","4","4","1","1","-1","0","-1","1","0","0","4","4","5","4","4","3","3","4","4","3","5","5","5","5","4","4","6","5","5","5","3","6","5","3","4","5","2","5","3","1","2","3","6","3","4","5","5","4","5","4","3","4","2","3","4","5","5","6","5","6","5","3","6","2","3","5","5","1","3","6","775465718602010626","刘","419","Male","[""坏我"",""坏他"",""好他"",""好我""]","[""弱我"",""弱他"",""强他"",""强我""]","","","","","","","","yes","","","","","","","","","SRET","EW_formal","","key","j","11.184264705882336","853.3333333333334","529.3333333333334","自己","高明","Positive","ability","","","","","","","","","","",""
"772","","f","psychophysics","54","439456","0.0-7.0-3.0-0.40","6","5","5","4","4","4","3","4","4","4","4","1","1","-1","0","-1","1","0","0","4","4","5","4","4","3","3","4","4","3","5","5","5","5","4","4","6","5","5","5","3","6","5","3","4","5","2","5","3","1","2","3","6","3","4","5","5","4","5","4","3","4","2","3","4","5","5","6","5","6","5","3","6","2","3","5","5","1","3","6","775465718602010626","刘","419","Male","[""坏我"",""坏他"",""好他"",""好我""]","[""弱我"",""弱他"",""强他"",""强我""]","","","","","","","","no","","","","","","","","","SRET","EW_formal","","key","f","11.021624999999768","853.3333333333334","529.3333333333334","朋友","无耻","Negative","morality","","","","","","","","","","",""
"716","","j","psychophysics","55","441175","0.0-7.0-3.0-0.41","6","5","5","4","4","4","3","4","4","4","4","1","1","-1","0","-1","1","0","0","4","4","5","4","4","3","3","4","4","3","5","5","5","5","4","4","6","5","5","5","3","6","5","3","4","5","2","5","3","1","2","3","6","3","4","5","5","4","5","4","3","4","2","3","4","5","5","6","5","6","5","3","6","2","3","5","5","1","3","6","775465718602010626","刘","419","Male","[""坏我"",""坏他"",""好他"",""好我""]","[""弱我"",""弱他"",""强他"",""强我""]","","","","","","","","yes","","","","","","","","","SRET","EW_formal","","key","j","11.096883116883388","853.3333333333334","529.3333333333334","自己","仗义","Positive","morality","","","","","","","","","","",""
"693","","f","psychophysics","56","442889","0.0-7.0-3.0-0.42","6","5","5","4","4","4","3","4","4","4","4","1","1","-1","0","-1","1","0","0","4","4","5","4","4","3","3","4","4","3","5","5","5","5","4","4","6","5","5","5","3","6","5","3","4","5","2","5","3","1","2","3","6","3","4","5","5","4","5","4","3","4","2","3","4","5","5","6","5","6","5","3","6","2","3","5","5","1","3","6","775465718602010626","刘","419","Male","[""坏我"",""坏他"",""好他"",""好我""]","[""弱我"",""弱他"",""强他"",""强我""]","","","","","","","","no","","","","","","","","","SRET","EW_formal","","key","f","11.542857142857065","853.3333333333334","529.3333333333334","朋友","阴毒","Negative","morality","","","","","","","","","","",""
"738","","f","psychophysics","57","444637","0.0-7.0-3.0-0.43","6","5","5","4","4","4","3","4","4","4","4","1","1","-1","0","-1","1","0","0","4","4","5","4","4","3","3","4","4","3","5","5","5","5","4","4","6","5","5","5","3","6","5","3","4","5","2","5","3","1","2","3","6","3","4","5","5","4","5","4","3","4","2","3","4","5","5","6","5","6","5","3","6","2","3","5","5","1","3","6","775465718602010626","刘","419","Male","[""坏我"",""坏他"",""好他"",""好我""]","[""弱我"",""弱他"",""强他"",""强我""]","","","","","","","","no","","","","","","","","","SRET","EW_formal","","key","f","11.44223684210508","853.3333333333334","529.3333333333334","自己","腐败","Negative","morality","","","","","","","","","","",""
"707","","f","psychophysics","58","446345","0.0-7.0-3.0-0.44","6","5","5","4","4","4","3","4","4","4","4","1","1","-1","0","-1","1","0","0","4","4","5","4","4","3","3","4","4","3","5","5","5","5","4","4","6","5","5","5","3","6","5","3","4","5","2","5","3","1","2","3","6","3","4","5","5","4","5","4","3","4","2","3","4","5","5","6","5","6","5","3","6","2","3","5","5","1","3","6","775465718602010626","刘","419","Male","[""坏我"",""坏他"",""好他"",""好我""]","[""弱我"",""弱他"",""强他"",""强我""]","","","","","","","","no","","","","","","","","","SRET","EW_formal","","key","f","11.542857142857459","853.3333333333334","529.3333333333334","朋友","愚蠢","Negative","ability","","","","","","","","","","",""
"1207","","j","psychophysics","59","448569","0.0-7.0-3.0-0.45","6","5","5","4","4","4","3","4","4","4","4","1","1","-1","0","-1","1","0","0","4","4","5","4","4","3","3","4","4","3","5","5","5","5","4","4","6","5","5","5","3","6","5","3","4","5","2","5","3","1","2","3","6","3","4","5","5","4","5","4","3","4","2","3","4","5","5","6","5","6","5","3","6","2","3","5","5","1","3","6","775465718602010626","刘","419","Male","[""坏我"",""坏他"",""好他"",""好我""]","[""弱我"",""弱他"",""强他"",""强我""]","","","","","","","","yes","","","","","","","","","SRET","EW_formal","","key","j","11.609684210526144","853.3333333333334","529.3333333333334","朋友","拖拉","Negative","ability","","","","","","","","","","",""
"707","","j","psychophysics","60","450289","0.0-7.0-3.0-0.46","6","5","5","4","4","4","3","4","4","4","4","1","1","-1","0","-1","1","0","0","4","4","5","4","4","3","3","4","4","3","5","5","5","5","4","4","6","5","5","5","3","6","5","3","4","5","2","5","3","1","2","3","6","3","4","5","5","4","5","4","3","4","2","3","4","5","5","6","5","6","5","3","6","2","3","5","5","1","3","6","775465718602010626","刘","419","Male","[""坏我"",""坏他"",""好他"",""好我""]","[""弱我"",""弱他"",""强他"",""强我""]","","","","","","","","yes","","","","","","","","","SRET","EW_formal","","key","j","11.129803921568916","853.3333333333334","529.3333333333334","自己","博学","Positive","ability","","","","","","","","","","",""
"767","","f","psychophysics","61","452062","0.0-7.0-3.0-0.47","6","5","5","4","4","4","3","4","4","4","4","1","1","-1","0","-1","1","0","0","4","4","5","4","4","3","3","4","4","3","5","5","5","5","4","4","6","5","5","5","3","6","5","3","4","5","2","5","3","1","2","3","6","3","4","5","5","4","5","4","3","4","2","3","4","5","5","6","5","6","5","3","6","2","3","5","5","1","3","6","775465718602010626","刘","419","Male","[""坏我"",""坏他"",""好他"",""好我""]","[""弱我"",""弱他"",""强他"",""强我""]","","","","","","","","no","","","","","","","","","SRET","EW_formal","","key","f","11.45103896103872","853.3333333333334","529.3333333333334","自己","偏私","Negative","morality","","","","","","","","","","",""
"675","","f","psychophysics","62","453741","0.0-7.0-3.0-0.48","6","5","5","4","4","4","3","4","4","4","4","1","1","-1","0","-1","1","0","0","4","4","5","4","4","3","3","4","4","3","5","5","5","5","4","4","6","5","5","5","3","6","5","3","4","5","2","5","3","1","2","3","6","3","4","5","5","4","5","4","3","4","2","3","4","5","5","6","5","6","5","3","6","2","3","5","5","1","3","6","775465718602010626","刘","419","Male","[""坏我"",""坏他"",""好他"",""好我""]","[""弱我"",""弱他"",""强他"",""强我""]","","","","","","","","no","","","","","","","","","SRET","EW_formal","","key","f","11.572916666666666","853.3333333333334","529.3333333333334","朋友","小人","Negative","morality","","","","","","","","","","",""
"791","","f","psychophysics","63","455544","0.0-7.0-3.0-0.49","6","5","5","4","4","4","3","4","4","4","4","1","1","-1","0","-1","1","0","0","4","4","5","4","4","3","3","4","4","3","5","5","5","5","4","4","6","5","5","5","3","6","5","3","4","5","2","5","3","1","2","3","6","3","4","5","5","4","5","4","3","4","2","3","4","5","5","6","5","6","5","3","6","2","3","5","5","1","3","6","775465718602010626","刘","419","Male","[""坏我"",""坏他"",""好他"",""好我""]","[""弱我"",""弱他"",""强他"",""强我""]","","","","","","","","no","","","","","","","","","SRET","EW_formal","","key","f","11.314556962025021","853.3333333333334","529.3333333333334","自己","浅薄","Negative","ability","","","","","","","","","","",""
"633","","j","psychophysics","64","457188","0.0-7.0-3.0-0.50","6","5","5","4","4","4","3","4","4","4","4","1","1","-1","0","-1","1","0","0","4","4","5","4","4","3","3","4","4","3","5","5","5","5","4","4","6","5","5","5","3","6","5","3","4","5","2","5","3","1","2","3","6","3","4","5","5","4","5","4","3","4","2","3","4","5","5","6","5","6","5","3","6","2","3","5","5","1","3","6","775465718602010626","刘","419","Male","[""坏我"",""坏他"",""好他"",""好我""]","[""弱我"",""弱他"",""强他"",""强我""]","","","","","","","","yes","","","","","","","","","SRET","EW_formal","","key","j","11.812608695651853","853.3333333333334","529.3333333333334","朋友","忠良","Positive","morality","","","","","","","","","","",""
"635","","f","psychophysics","65","458824","0.0-7.0-3.0-0.51","6","5","5","4","4","4","3","4","4","4","4","1","1","-1","0","-1","1","0","0","4","4","5","4","4","3","3","4","4","3","5","5","5","5","4","4","6","5","5","5","3","6","5","3","4","5","2","5","3","1","2","3","6","3","4","5","5","4","5","4","3","4","2","3","4","5","5","6","5","6","5","3","6","2","3","5","5","1","3","6","775465718602010626","刘","419","Male","[""坏我"",""坏他"",""好他"",""好我""]","[""弱我"",""弱他"",""强他"",""强我""]","","","","","","","","no","","","","","","","","","SRET","EW_formal","","key","f","12.120000000000122","853.3333333333334","529.3333333333334","朋友","淫乱","Negative","morality","","","","","","","","","","",""
"732","","f","psychophysics","66","460568","0.0-7.0-3.0-0.52","6","5","5","4","4","4","3","4","4","4","4","1","1","-1","0","-1","1","0","0","4","4","5","4","4","3","3","4","4","3","5","5","5","5","4","4","6","5","5","5","3","6","5","3","4","5","2","5","3","1","2","3","6","3","4","5","5","4","5","4","3","4","2","3","4","5","5","6","5","6","5","3","6","2","3","5","5","1","3","6","775465718602010626","刘","419","Male","[""坏我"",""坏他"",""好他"",""好我""]","[""弱我"",""弱他"",""强他"",""强我""]","","","","","","","","no","","","","","","","","","SRET","EW_formal","","key","f","10.938490566037926","853.3333333333334","529.3333333333334","朋友","博识","Positive","ability","","","","","","","","","","",""
"762","","j","psychophysics","67","462344","0.0-7.0-3.0-0.53","6","5","5","4","4","4","3","4","4","4","4","1","1","-1","0","-1","1","0","0","4","4","5","4","4","3","3","4","4","3","5","5","5","5","4","4","6","5","5","5","3","6","5","3","4","5","2","5","3","1","2","3","6","3","4","5","5","4","5","4","3","4","2","3","4","5","5","6","5","6","5","3","6","2","3","5","5","1","3","6","775465718602010626","刘","419","Male","[""坏我"",""坏他"",""好他"",""好我""]","[""弱我"",""弱他"",""强他"",""强我""]","","","","","","","","yes","","","","","","","","","SRET","EW_formal","","key","j","10.724363636363396","853.3333333333334","529.3333333333334","自己","仁厚","Positive","morality","","","","","","","","","","",""
"727","","f","psychophysics","68","464081","0.0-7.0-3.0-0.54","6","5","5","4","4","4","3","4","4","4","4","1","1","-1","0","-1","1","0","0","4","4","5","4","4","3","3","4","4","3","5","5","5","5","4","4","6","5","5","5","3","6","5","3","4","5","2","5","3","1","2","3","6","3","4","5","5","4","5","4","3","4","2","3","4","5","5","6","5","6","5","3","6","2","3","5","5","1","3","6","775465718602010626","刘","419","Male","[""坏我"",""坏他"",""好他"",""好我""]","[""弱我"",""弱他"",""强他"",""强我""]","","","","","","","","no","","","","","","","","","SRET","EW_formal","","key","f","11.032307692307931","853.3333333333334","529.3333333333334","自己","歹毒","Negative","morality","","","","","","","","","","",""
"691","","j","psychophysics","69","465775","0.0-7.0-3.0-0.55","6","5","5","4","4","4","3","4","4","4","4","1","1","-1","0","-1","1","0","0","4","4","5","4","4","3","3","4","4","3","5","5","5","5","4","4","6","5","5","5","3","6","5","3","4","5","2","5","3","1","2","3","6","3","4","5","5","4","5","4","3","4","2","3","4","5","5","6","5","6","5","3","6","2","3","5","5","1","3","6","775465718602010626","刘","419","Male","[""坏我"",""坏他"",""好他"",""好我""]","[""弱我"",""弱他"",""强他"",""强我""]","","","","","","","","yes","","","","","","","","","SRET","EW_formal","","key","j","11.156821192052934","853.3333333333334","529.3333333333334","自己","守法","Positive","morality","","","","","","","","","","",""
"1175","","j","psychophysics","70","467966","0.0-7.0-3.0-0.56","6","5","5","4","4","4","3","4","4","4","4","1","1","-1","0","-1","1","0","0","4","4","5","4","4","3","3","4","4","3","5","5","5","5","4","4","6","5","5","5","3","6","5","3","4","5","2","5","3","1","2","3","6","3","4","5","5","4","5","4","3","4","2","3","4","5","5","6","5","6","5","3","6","2","3","5","5","1","3","6","775465718602010626","刘","419","Male","[""坏我"",""坏他"",""好他"",""好我""]","[""弱我"",""弱他"",""强他"",""强我""]","","","","","","","","yes","","","","","","","","","SRET","EW_formal","","key","j","11.604255319148812","853.3333333333334","529.3333333333334","朋友","君子","Positive","morality","","","","","","","","","","",""
"1091","","f","psychophysics","71","470072","0.0-7.0-3.0-0.57","6","5","5","4","4","4","3","4","4","4","4","1","1","-1","0","-1","1","0","0","4","4","5","4","4","3","3","4","4","3","5","5","5","5","4","4","6","5","5","5","3","6","5","3","4","5","2","5","3","1","2","3","6","3","4","5","5","4","5","4","3","4","2","3","4","5","5","6","5","6","5","3","6","2","3","5","5","1","3","6","775465718602010626","刘","419","Male","[""坏我"",""坏他"",""好他"",""好我""]","[""弱我"",""弱他"",""强他"",""强我""]","","","","","","","","no","","","","","","","","","SRET","EW_formal","","key","f","11.615000000000064","853.3333333333334","529.3333333333334","朋友","外行","Negative","ability","","","","","","","","","","",""
"933","","f","psychophysics","72","472015","0.0-7.0-3.0-0.58","6","5","5","4","4","4","3","4","4","4","4","1","1","-1","0","-1","1","0","0","4","4","5","4","4","3","3","4","4","3","5","5","5","5","4","4","6","5","5","5","3","6","5","3","4","5","2","5","3","1","2","3","6","3","4","5","5","4","5","4","3","4","2","3","4","5","5","6","5","6","5","3","6","2","3","5","5","1","3","6","775465718602010626","刘","419","Male","[""坏我"",""坏他"",""好他"",""好我""]","[""弱我"",""弱他"",""强他"",""强我""]","","","","","","","","no","","","","","","","","","SRET","EW_formal","","key","f","11.269473684210622","853.3333333333334","529.3333333333334","自己","背叛","Negative","morality","","","","","","","","","","",""
"948","","f","psychophysics","73","473964","0.0-7.0-3.0-0.59","6","5","5","4","4","4","3","4","4","4","4","1","1","-1","0","-1","1","0","0","4","4","5","4","4","3","3","4","4","3","5","5","5","5","4","4","6","5","5","5","3","6","5","3","4","5","2","5","3","1","2","3","6","3","4","5","5","4","5","4","3","4","2","3","4","5","5","6","5","6","5","3","6","2","3","5","5","1","3","6","775465718602010626","刘","419","Male","[""坏我"",""坏他"",""好他"",""好我""]","[""弱我"",""弱他"",""强他"",""强我""]","","","","","","","","no","","","","","","","","","SRET","EW_formal","","key","f","11.209248554913362","853.3333333333334","529.3333333333334","自己","混账","Negative","morality","","","","","","","","","","",""
"784","","j","psychophysics","74","475753","0.0-7.0-3.0-0.60","6","5","5","4","4","4","3","4","4","4","4","1","1","-1","0","-1","1","0","0","4","4","5","4","4","3","3","4","4","3","5","5","5","5","4","4","6","5","5","5","3","6","5","3","4","5","2","5","3","1","2","3","6","3","4","5","5","4","5","4","3","4","2","3","4","5","5","6","5","6","5","3","6","2","3","5","5","1","3","6","775465718602010626","刘","419","Male","[""坏我"",""坏他"",""好他"",""好我""]","[""弱我"",""弱他"",""强他"",""强我""]","","","","","","","","yes","","","","","","","","","SRET","EW_formal","","key","j","10.761090909091008","853.3333333333334","529.3333333333334","朋友","扎实","Positive","ability","","","","","","","","","","",""
"567","","j","psychophysics","75","477320","0.0-7.0-3.0-0.61","6","5","5","4","4","4","3","4","4","4","4","1","1","-1","0","-1","1","0","0","4","4","5","4","4","3","3","4","4","3","5","5","5","5","4","4","6","5","5","5","3","6","5","3","4","5","2","5","3","1","2","3","6","3","4","5","5","4","5","4","3","4","2","3","4","5","5","6","5","6","5","3","6","2","3","5","5","1","3","6","775465718602010626","刘","419","Male","[""坏我"",""坏他"",""好他"",""好我""]","[""弱我"",""弱他"",""强他"",""强我""]","","","","","","","","yes","","","","","","","","","SRET","EW_formal","","key","j","11.081142857142757","853.3333333333334","529.3333333333334","自己","守信","Positive","morality","","","","","","","","","","",""
"653","","j","psychophysics","76","478978","0.0-7.0-3.0-0.62","6","5","5","4","4","4","3","4","4","4","4","1","1","-1","0","-1","1","0","0","4","4","5","4","4","3","3","4","4","3","5","5","5","5","4","4","6","5","5","5","3","6","5","3","4","5","2","5","3","1","2","3","6","3","4","5","5","4","5","4","3","4","2","3","4","5","5","6","5","6","5","3","6","2","3","5","5","1","3","6","775465718602010626","刘","419","Male","[""坏我"",""坏他"",""好他"",""好我""]","[""弱我"",""弱他"",""强他"",""强我""]","","","","","","","","yes","","","","","","","","","SRET","EW_formal","","key","j","11.68714285714294","853.3333333333334","529.3333333333334","朋友","守时","Positive","morality","","","","","","","","","","",""
"557","","j","psychophysics","77","480553","0.0-7.0-3.0-0.63","6","5","5","4","4","4","3","4","4","4","4","1","1","-1","0","-1","1","0","0","4","4","5","4","4","3","3","4","4","3","5","5","5","5","4","4","6","5","5","5","3","6","5","3","4","5","2","5","3","1","2","3","6","3","4","5","5","4","5","4","3","4","2","3","4","5","5","6","5","6","5","3","6","2","3","5","5","1","3","6","775465718602010626","刘","419","Male","[""坏我"",""坏他"",""好他"",""好我""]","[""弱我"",""弱他"",""强他"",""强我""]","","","","","","","","yes","","","","","","","","","SRET","EW_formal","","key","j","11.79863636363624","853.3333333333334","529.3333333333334","自己","自律","Positive","ability","","","","","","","","","","",""
"948","","f","psychophysics","78","482512","0.0-7.0-3.0-0.64","6","5","5","4","4","4","3","4","4","4","4","1","1","-1","0","-1","1","0","0","4","4","5","4","4","3","3","4","4","3","5","5","5","5","4","4","6","5","5","5","3","6","5","3","4","5","2","5","3","1","2","3","6","3","4","5","5","4","5","4","3","4","2","3","4","5","5","6","5","6","5","3","6","2","3","5","5","1","3","6","775465718602010626","刘","419","Male","[""坏我"",""坏他"",""好他"",""好我""]","[""弱我"",""弱他"",""强他"",""强我""]","","","","","","","","no","","","","","","","","","SRET","EW_formal","","key","f","11.546272189348809","853.3333333333334","529.3333333333334","自己","盲目","Negative","ability","","","","","","","","","","",""
"1144","","f","psychophysics","79","484663","0.0-7.0-3.0-0.65","6","5","5","4","4","4","3","4","4","4","4","1","1","-1","0","-1","1","0","0","4","4","5","4","4","3","3","4","4","3","5","5","5","5","4","4","6","5","5","5","3","6","5","3","4","5","2","5","3","1","2","3","6","3","4","5","5","4","5","4","3","4","2","3","4","5","5","6","5","6","5","3","6","2","3","5","5","1","3","6","775465718602010626","刘","419","Male","[""坏我"",""坏他"",""好他"",""好我""]","[""弱我"",""弱他"",""强他"",""强我""]","","","","","","","","no","","","","","","","","","SRET","EW_formal","","key","f","11.410851063830048","853.3333333333334","529.3333333333334","自己","无为","Negative","ability","","","","","","","","","","",""
"964","","f","psychophysics","80","486628","0.0-7.0-3.0-0.66","6","5","5","4","4","4","3","4","4","4","4","1","1","-1","0","-1","1","0","0","4","4","5","4","4","3","3","4","4","3","5","5","5","5","4","4","6","5","5","5","3","6","5","3","4","5","2","5","3","1","2","3","6","3","4","5","5","4","5","4","3","4","2","3","4","5","5","6","5","6","5","3","6","2","3","5","5","1","3","6","775465718602010626","刘","419","Male","[""坏我"",""坏他"",""好他"",""好我""]","[""弱我"",""弱他"",""强他"",""强我""]","","","","","","","","no","","","","","","","","","SRET","EW_formal","","key","f","11.15040000000004","853.3333333333334","529.3333333333334","朋友","恶劣","Negative","morality","","","","","","","","","","",""
"708","","f","psychophysics","81","488344","0.0-7.0-3.0-0.67","6","5","5","4","4","4","3","4","4","4","4","1","1","-1","0","-1","1","0","0","4","4","5","4","4","3","3","4","4","3","5","5","5","5","4","4","6","5","5","5","3","6","5","3","4","5","2","5","3","1","2","3","6","3","4","5","5","4","5","4","3","4","2","3","4","5","5","6","5","6","5","3","6","2","3","5","5","1","3","6","775465718602010626","刘","419","Male","[""坏我"",""坏他"",""好他"",""好我""]","[""弱我"",""弱他"",""强他"",""强我""]","","","","","","","","no","","","","","","","","","SRET","EW_formal","","key","f","11.74386206896542","853.3333333333334","529.3333333333334","朋友","蛇蝎","Negative","morality","","","","","","","","","","",""
"772","","j","psychophysics","82","490117","0.0-7.0-3.0-0.68","6","5","5","4","4","4","3","4","4","4","4","1","1","-1","0","-1","1","0","0","4","4","5","4","4","3","3","4","4","3","5","5","5","5","4","4","6","5","5","5","3","6","5","3","4","5","2","5","3","1","2","3","6","3","4","5","5","4","5","4","3","4","2","3","4","5","5","6","5","6","5","3","6","2","3","5","5","1","3","6","775465718602010626","刘","419","Male","[""坏我"",""坏他"",""好他"",""好我""]","[""弱我"",""弱他"",""强他"",""强我""]","","","","","","","","yes","","","","","","","","","SRET","EW_formal","","key","j","11.377161290322716","853.3333333333334","529.3333333333334","自己","肯干","Positive","ability","","","","","","","","","","",""
"760","","j","psychophysics","83","491889","0.0-7.0-3.0-0.69","6","5","5","4","4","4","3","4","4","4","4","1","1","-1","0","-1","1","0","0","4","4","5","4","4","3","3","4","4","3","5","5","5","5","4","4","6","5","5","5","3","6","5","3","4","5","2","5","3","1","2","3","6","3","4","5","5","4","5","4","3","4","2","3","4","5","5","6","5","6","5","3","6","2","3","5","5","1","3","6","775465718602010626","刘","419","Male","[""坏我"",""坏他"",""好他"",""好我""]","[""弱我"",""弱他"",""强他"",""强我""]","","","","","","","","yes","","","","","","","","","SRET","EW_formal","","key","j","10.818773006134741","853.3333333333334","529.3333333333334","朋友","有力","Positive","ability","","","","","","","","","","",""
"740","","f","psychophysics","84","493647","0.0-7.0-3.0-0.70","6","5","5","4","4","4","3","4","4","4","4","1","1","-1","0","-1","1","0","0","4","4","5","4","4","3","3","4","4","3","5","5","5","5","4","4","6","5","5","5","3","6","5","3","4","5","2","5","3","1","2","3","6","3","4","5","5","4","5","4","3","4","2","3","4","5","5","6","5","6","5","3","6","2","3","5","5","1","3","6","775465718602010626","刘","419","Male","[""坏我"",""坏他"",""好他"",""好我""]","[""弱我"",""弱他"",""强他"",""强我""]","","","","","","","","no","","","","","","","","","SRET","EW_formal","","key","f","11.187692307692487","853.3333333333334","529.3333333333334","朋友","伪善","Negative","morality","","","","","","","","","","",""
"691","","j","psychophysics","85","495340","0.0-7.0-3.0-0.71","6","5","5","4","4","4","3","4","4","4","4","1","1","-1","0","-1","1","0","0","4","4","5","4","4","3","3","4","4","3","5","5","5","5","4","4","6","5","5","5","3","6","5","3","4","5","2","5","3","1","2","3","6","3","4","5","5","4","5","4","3","4","2","3","4","5","5","6","5","6","5","3","6","2","3","5","5","1","3","6","775465718602010626","刘","419","Male","[""坏我"",""坏他"",""好他"",""好我""]","[""弱我"",""弱他"",""强他"",""强我""]","","","","","","","","yes","","","","","","","","","SRET","EW_formal","","key","j","11.618482758620642","853.3333333333334","529.3333333333334","自己","敬业","Positive","morality","","","","","","","","","","",""
"710","","f","psychophysics","86","497056","0.0-7.0-3.0-0.72","6","5","5","4","4","4","3","4","4","4","4","1","1","-1","0","-1","1","0","0","4","4","5","4","4","3","3","4","4","3","5","5","5","5","4","4","6","5","5","5","3","6","5","3","4","5","2","5","3","1","2","3","6","3","4","5","5","4","5","4","3","4","2","3","4","5","5","6","5","6","5","3","6","2","3","5","5","1","3","6","775465718602010626","刘","419","Male","[""坏我"",""坏他"",""好他"",""好我""]","[""弱我"",""弱他"",""强他"",""强我""]","","","","","","","","no","","","","","","","","","SRET","EW_formal","","key","f","11.584081632652966","853.3333333333334","529.3333333333334","朋友","窝囊","Negative","ability","","","","","","","","","","",""
"1009","","j","psychophysics","87","499075","0.0-7.0-3.0-0.73","6","5","5","4","4","4","3","4","4","4","4","1","1","-1","0","-1","1","0","0","4","4","5","4","4","3","3","4","4","3","5","5","5","5","4","4","6","5","5","5","3","6","5","3","4","5","2","5","3","1","2","3","6","3","4","5","5","4","5","4","3","4","2","3","4","5","5","6","5","6","5","3","6","2","3","5","5","1","3","6","775465718602010626","刘","419","Male","[""坏我"",""坏他"",""好他"",""好我""]","[""弱我"",""弱他"",""强他"",""强我""]","","","","","","","","yes","","","","","","","","","SRET","EW_formal","","key","j","10.669468085106308","853.3333333333334","529.3333333333334","朋友","毅力","Positive","ability","","","","","","","","","","",""
"734","","j","psychophysics","88","500811","0.0-7.0-3.0-0.74","6","5","5","4","4","4","3","4","4","4","4","1","1","-1","0","-1","1","0","0","4","4","5","4","4","3","3","4","4","3","5","5","5","5","4","4","6","5","5","5","3","6","5","3","4","5","2","5","3","1","2","3","6","3","4","5","5","4","5","4","3","4","2","3","4","5","5","6","5","6","5","3","6","2","3","5","5","1","3","6","775465718602010626","刘","419","Male","[""坏我"",""坏他"",""好他"",""好我""]","[""弱我"",""弱他"",""强他"",""强我""]","","","","","","","","yes","","","","","","","","","SRET","EW_formal","","key","j","11.787945205479309","853.3333333333334","529.3333333333334","自己","娴熟","Positive","ability","","","","","","","","","","",""
"702","","f","psychophysics","89","502532","0.0-7.0-3.0-0.75","6","5","5","4","4","4","3","4","4","4","4","1","1","-1","0","-1","1","0","0","4","4","5","4","4","3","3","4","4","3","5","5","5","5","4","4","6","5","5","5","3","6","5","3","4","5","2","5","3","1","2","3","6","3","4","5","5","4","5","4","3","4","2","3","4","5","5","6","5","6","5","3","6","2","3","5","5","1","3","6","775465718602010626","刘","419","Male","[""坏我"",""坏他"",""好他"",""好我""]","[""弱我"",""弱他"",""强他"",""强我""]","","","","","","","","no","","","","","","","","","SRET","EW_formal","","key","f","11.666530612245166","853.3333333333334","529.3333333333334","朋友","犹豫","Negative","ability","","","","","","","","","","",""
"593","","j","psychophysics","90","504127","0.0-7.0-3.0-0.76","6","5","5","4","4","4","3","4","4","4","4","1","1","-1","0","-1","1","0","0","4","4","5","4","4","3","3","4","4","3","5","5","5","5","4","4","6","5","5","5","3","6","5","3","4","5","2","5","3","1","2","3","6","3","4","5","5","4","5","4","3","4","2","3","4","5","5","6","5","6","5","3","6","2","3","5","5","1","3","6","775465718602010626","刘","419","Male","[""坏我"",""坏他"",""好他"",""好我""]","[""弱我"",""弱他"",""强他"",""强我""]","","","","","","","","yes","","","","","","","","","SRET","EW_formal","","key","j","11.340857142856944","853.3333333333334","529.3333333333334","自己","忠义","Positive","morality","","","","","","","","","","",""
"599","","j","psychophysics","91","505739","0.0-7.0-3.0-0.77","6","5","5","4","4","4","3","4","4","4","4","1","1","-1","0","-1","1","0","0","4","4","5","4","4","3","3","4","4","3","5","5","5","5","4","4","6","5","5","5","3","6","5","3","4","5","2","5","3","1","2","3","6","3","4","5","5","4","5","4","3","4","2","3","4","5","5","6","5","6","5","3","6","2","3","5","5","1","3","6","775465718602010626","刘","419","Male","[""坏我"",""坏他"",""好他"",""好我""]","[""弱我"",""弱他"",""强他"",""强我""]","","","","","","","","yes","","","","","","","","","SRET","EW_formal","","key","j","11.427428571428754","853.3333333333334","529.3333333333334","自己","坦荡","Positive","morality","","","","","","","","","","",""
"608","","j","psychophysics","92","507348","0.0-7.0-3.0-0.78","6","5","5","4","4","4","3","4","4","4","4","1","1","-1","0","-1","1","0","0","4","4","5","4","4","3","3","4","4","3","5","5","5","5","4","4","6","5","5","5","3","6","5","3","4","5","2","5","3","1","2","3","6","3","4","5","5","4","5","4","3","4","2","3","4","5","5","6","5","6","5","3","6","2","3","5","5","1","3","6","775465718602010626","刘","419","Male","[""坏我"",""坏他"",""好他"",""好我""]","[""弱我"",""弱他"",""强他"",""强我""]","","","","","","","","yes","","","","","","","","","SRET","EW_formal","","key","j","11.18769230769208","853.3333333333334","529.3333333333334","朋友","稳健","Positive","ability","","","","","","","","","","",""
"591","","j","psychophysics","93","508946","0.0-7.0-3.0-0.79","6","5","5","4","4","4","3","4","4","4","4","1","1","-1","0","-1","1","0","0","4","4","5","4","4","3","3","4","4","3","5","5","5","5","4","4","6","5","5","5","3","6","5","3","4","5","2","5","3","1","2","3","6","3","4","5","5","4","5","4","3","4","2","3","4","5","5","6","5","6","5","3","6","2","3","5","5","1","3","6","775465718602010626","刘","419","Male","[""坏我"",""坏他"",""好他"",""好我""]","[""弱我"",""弱他"",""强他"",""强我""]","","","","","","","","yes","","","","","","","","","SRET","EW_formal","","key","j","10.874794520548152","853.3333333333334","529.3333333333334","自己","慷慨","Positive","morality","","","","","","","","","","",""
"754","","f","psychophysics","94","510720","0.0-7.0-3.0-0.80","6","5","5","4","4","4","3","4","4","4","4","1","1","-1","0","-1","1","0","0","4","4","5","4","4","3","3","4","4","3","5","5","5","5","4","4","6","5","5","5","3","6","5","3","4","5","2","5","3","1","2","3","6","3","4","5","5","4","5","4","3","4","2","3","4","5","5","6","5","6","5","3","6","2","3","5","5","1","3","6","775465718602010626","刘","419","Male","[""坏我"",""坏他"",""好他"",""好我""]","[""弱我"",""弱他"",""强他"",""强我""]","","","","","","","","no","","","","","","","","","SRET","EW_formal","","key","f","11.23222929936319","853.3333333333334","529.3333333333334","朋友","废物","Negative","ability","","","","","","","","","","",""
"699","","j","psychophysics","95","512424","0.0-7.0-3.0-0.81","6","5","5","4","4","4","3","4","4","4","4","1","1","-1","0","-1","1","0","0","4","4","5","4","4","3","3","4","4","3","5","5","5","5","4","4","6","5","5","5","3","6","5","3","4","5","2","5","3","1","2","3","6","3","4","5","5","4","5","4","3","4","2","3","4","5","5","6","5","6","5","3","6","2","3","5","5","1","3","6","775465718602010626","刘","419","Male","[""坏我"",""坏他"",""好他"",""好我""]","[""弱我"",""弱他"",""强他"",""强我""]","","","","","","","","yes","","","","","","","","","SRET","EW_formal","","key","j","10.907999999999939","853.3333333333334","529.3333333333334","朋友","慈悲","Positive","morality","","","","","","","","","","",""
"811","","f","psychophysics","96","514242","0.0-7.0-3.0-0.82","6","5","5","4","4","4","3","4","4","4","4","1","1","-1","0","-1","1","0","0","4","4","5","4","4","3","3","4","4","3","5","5","5","5","4","4","6","5","5","5","3","6","5","3","4","5","2","5","3","1","2","3","6","3","4","5","5","4","5","4","3","4","2","3","4","5","5","6","5","6","5","3","6","2","3","5","5","1","3","6","775465718602010626","刘","419","Male","[""坏我"",""坏他"",""好他"",""好我""]","[""弱我"",""弱他"",""强他"",""强我""]","","","","","","","","no","","","","","","","","","SRET","EW_formal","","key","f","11.357735849056633","853.3333333333334","529.3333333333334","朋友","驽钝","Negative","ability","","","","","","","","","","",""
"1094","","j","psychophysics","97","516337","0.0-7.0-3.0-0.83","6","5","5","4","4","4","3","4","4","4","4","1","1","-1","0","-1","1","0","0","4","4","5","4","4","3","3","4","4","3","5","5","5","5","4","4","6","5","5","5","3","6","5","3","4","5","2","5","3","1","2","3","6","3","4","5","5","4","5","4","3","4","2","3","4","5","5","6","5","6","5","3","6","2","3","5","5","1","3","6","775465718602010626","刘","419","Male","[""坏我"",""坏他"",""好他"",""好我""]","[""弱我"",""弱他"",""强他"",""强我""]","","","","","","","","yes","","","","","","","","","SRET","EW_formal","","key","j","11.207741935483947","853.3333333333334","529.3333333333334","朋友","毛糙","Negative","ability","","","","","","","","","","",""
"796","","j","psychophysics","98","518141","0.0-7.0-3.0-0.84","6","5","5","4","4","4","3","4","4","4","4","1","1","-1","0","-1","1","0","0","4","4","5","4","4","3","3","4","4","3","5","5","5","5","4","4","6","5","5","5","3","6","5","3","4","5","2","5","3","1","2","3","6","3","4","5","5","4","5","4","3","4","2","3","4","5","5","6","5","6","5","3","6","2","3","5","5","1","3","6","775465718602010626","刘","419","Male","[""坏我"",""坏他"",""好他"",""好我""]","[""弱我"",""弱他"",""强他"",""强我""]","","","","","","","","yes","","","","","","","","","SRET","EW_formal","","key","j","11.839072847682196","853.3333333333334","529.3333333333334","朋友","素养","Positive","morality","","","","","","","","","","",""
"674","","f","psychophysics","99","519826","0.0-7.0-3.0-0.85","6","5","5","4","4","4","3","4","4","4","4","1","1","-1","0","-1","1","0","0","4","4","5","4","4","3","3","4","4","3","5","5","5","5","4","4","6","5","5","5","3","6","5","3","4","5","2","5","3","1","2","3","6","3","4","5","5","4","5","4","3","4","2","3","4","5","5","6","5","6","5","3","6","2","3","5","5","1","3","6","775465718602010626","刘","419","Male","[""坏我"",""坏他"",""好他"",""好我""]","[""弱我"",""弱他"",""强他"",""强我""]","","","","","","","","no","","","","","","","","","SRET","EW_formal","","key","f","11.301081081081065","853.3333333333334","529.3333333333334","朋友","低俗","Negative","morality","","","","","","","","","","",""
"909","","j","psychophysics","100","521736","0.0-7.0-3.0-0.86","6","5","5","4","4","4","3","4","4","4","4","1","1","-1","0","-1","1","0","0","4","4","5","4","4","3","3","4","4","3","5","5","5","5","4","4","6","5","5","5","3","6","5","3","4","5","2","5","3","1","2","3","6","3","4","5","5","4","5","4","3","4","2","3","4","5","5","6","5","6","5","3","6","2","3","5","5","1","3","6","775465718602010626","刘","419","Male","[""坏我"",""坏他"",""好他"",""好我""]","[""弱我"",""弱他"",""强他"",""强我""]","","","","","","","","yes","","","","","","","","","SRET","EW_formal","","key","j","11.290357142856962","853.3333333333334","529.3333333333334","自己","缓慢","Negative","ability","","","","","","","","","","",""
"676","","j","psychophysics","101","523420","0.0-7.0-3.0-0.87","6","5","5","4","4","4","3","4","4","4","4","1","1","-1","0","-1","1","0","0","4","4","5","4","4","3","3","4","4","3","5","5","5","5","4","4","6","5","5","5","3","6","5","3","4","5","2","5","3","1","2","3","6","3","4","5","5","4","5","4","3","4","2","3","4","5","5","6","5","6","5","3","6","2","3","5","5","1","3","6","775465718602010626","刘","419","Male","[""坏我"",""坏他"",""好他"",""好我""]","[""弱我"",""弱他"",""强他"",""强我""]","","","","","","","","yes","","","","","","","","","SRET","EW_formal","","key","j","10.76038461538496","853.3333333333334","529.3333333333334","自己","主见","Positive","ability","","","","","","","","","","",""
"121370","
    <p><div style='color:white;font-size:35px; line-height:20px;'>计算任务</div></p><br>
    <p><div style='color:red;font-size:25px; line-height:20px;'>接下来，您将看到一些四则运算题，<b>请从键盘选择 0-9 进行反应。</b></div></p>
    <p><div style='color:red;font-size:25px; line-height:20px;'>请尽可能快地进行计算，计算的速度和正确率将影响报酬的发放。</div></p>
    <p><div class='footer' style='color:white;font-size:25px; line-height:20px;'>如果对本实验还有不清楚之处，请立即向实验员咨询。</p><p style='color:white;font-size:25px; line-height:20px;'>如果您明白了规则：</p><p style='color:white;font-size:22px; line-height:20px;'>请按 继续 进入练习</p>
    </div>
    ","0","html-button-response","102","644793","0.0-7.0-4.0","6","5","5","4","4","4","3","4","4","4","4","1","1","-1","0","-1","1","0","0","4","4","5","4","4","3","3","4","4","3","5","5","5","5","4","4","6","5","5","5","3","6","5","3","4","5","2","5","3","1","2","3","6","3","4","5","5","4","5","4","3","4","2","3","4","5","5","6","5","6","5","3","6","2","3","5","5","1","3","6","775465718602010626","刘","419","Male","[""坏我"",""坏他"",""好他"",""好我""]","[""弱我"",""弱他"",""强他"",""强我""]","","","","","","","","","","","","","","","","","SRET_math","math_instructions","Sat Jan 20 2024 20:25:22 GMT+0800 (中国标准时间)","","","","","","","","","","","","","","","","","","","",""
"2800","","0","psychophysics","103","647619","0.0-7.0-5.0-0.0","6","5","5","4","4","4","3","4","4","4","4","1","1","-1","0","-1","1","0","0","4","4","5","4","4","3","3","4","4","3","5","5","5","5","4","4","6","5","5","5","3","6","5","3","4","5","2","5","3","1","2","3","6","3","4","5","5","4","5","4","3","4","2","3","4","5","5","6","5","6","5","3","6","2","3","5","5","1","3","6","775465718602010626","刘","419","Male","[""坏我"",""坏他"",""好他"",""好我""]","[""弱我"",""弱他"",""强他"",""强我""]","","","","","","","","0","","","","","","","","","SRET","SRET_math_calculate","","key","0","11.408502024291593","853.3333333333334","529.3333333333334","","","","","6*0= ?","0","1","","","","","","","",""
"2111","","4","psychophysics","104","649741","0.0-7.0-5.0-0.1","6","5","5","4","4","4","3","4","4","4","4","1","1","-1","0","-1","1","0","0","4","4","5","4","4","3","3","4","4","3","5","5","5","5","4","4","6","5","5","5","3","6","5","3","4","5","2","5","3","1","2","3","6","3","4","5","5","4","5","4","3","4","2","3","4","5","5","6","5","6","5","3","6","2","3","5","5","1","3","6","775465718602010626","刘","419","Male","[""坏我"",""坏他"",""好他"",""好我""]","[""弱我"",""弱他"",""强他"",""强我""]","","","","","","","","4","","","","","","","","","SRET","SRET_math_calculate","","key","4","10.926839378238366","853.3333333333334","529.3333333333334","","","","","3+1= ?","4","1","","","","","","","",""
"1944","","5","psychophysics","105","651697","0.0-7.0-5.0-0.2","6","5","5","4","4","4","3","4","4","4","4","1","1","-1","0","-1","1","0","0","4","4","5","4","4","3","3","4","4","3","5","5","5","5","4","4","6","5","5","5","3","6","5","3","4","5","2","5","3","1","2","3","6","3","4","5","5","4","5","4","3","4","2","3","4","5","5","6","5","6","5","3","6","2","3","5","5","1","3","6","775465718602010626","刘","419","Male","[""坏我"",""坏他"",""好他"",""好我""]","[""弱我"",""弱他"",""强他"",""强我""]","","","","","","","","5","","","","","","","","","SRET","SRET_math_calculate","","key","5","10.86737430167603","853.3333333333334","529.3333333333334","","","","","3+2= ?","5","1","","","","","","","",""
"2146","","5","psychophysics","106","653856","0.0-7.0-5.0-0.3","6","5","5","4","4","4","3","4","4","4","4","1","1","-1","0","-1","1","0","0","4","4","5","4","4","3","3","4","4","3","5","5","5","5","4","4","6","5","5","5","3","6","5","3","4","5","2","5","3","1","2","3","6","3","4","5","5","4","5","4","3","4","2","3","4","5","5","6","5","6","5","3","6","2","3","5","5","1","3","6","775465718602010626","刘","419","Male","[""坏我"",""坏他"",""好他"",""好我""]","[""弱我"",""弱他"",""强他"",""强我""]","","","","","","","","5","","","","","","","","","SRET","SRET_math_calculate","","key","5","11.263350785340558","853.3333333333334","529.3333333333334","","","","","16-11= ?","5","1","","","","","","","",""
"2189","","4","psychophysics","107","656058","0.0-7.0-5.0-0.4","6","5","5","4","4","4","3","4","4","4","4","1","1","-1","0","-1","1","0","0","4","4","5","4","4","3","3","4","4","3","5","5","5","5","4","4","6","5","5","5","3","6","5","3","4","5","2","5","3","1","2","3","6","3","4","5","5","4","5","4","3","4","2","3","4","5","5","6","5","6","5","3","6","2","3","5","5","1","3","6","775465718602010626","刘","419","Male","[""坏我"",""坏他"",""好他"",""好我""]","[""弱我"",""弱他"",""强他"",""强我""]","","","","","","","","4","","","","","","","","","SRET","SRET_math_calculate","","key","4","11.453717277486472","853.3333333333334","529.3333333333334","","","","","4*1= ?","4","1","","","","","","","",""
"2153","","8","psychophysics","108","658225","0.0-7.0-5.0-0.5","6","5","5","4","4","4","3","4","4","4","4","1","1","-1","0","-1","1","0","0","4","4","5","4","4","3","3","4","4","3","5","5","5","5","4","4","6","5","5","5","3","6","5","3","4","5","2","5","3","1","2","3","6","3","4","5","5","4","5","4","3","4","2","3","4","5","5","6","5","6","5","3","6","2","3","5","5","1","3","6","775465718602010626","刘","419","Male","[""坏我"",""坏他"",""好他"",""好我""]","[""弱我"",""弱他"",""强他"",""强我""]","","","","","","","","8","","","","","","","","","SRET","SRET_math_calculate","","key","8","11.146632124352573","853.3333333333334","529.3333333333334","","","","","4*2= ?","8","1","","","","","","","",""
"2011","","7","psychophysics","109","660248","0.0-7.0-5.0-0.6","6","5","5","4","4","4","3","4","4","4","4","1","1","-1","0","-1","1","0","0","4","4","5","4","4","3","3","4","4","3","5","5","5","5","4","4","6","5","5","5","3","6","5","3","4","5","2","5","3","1","2","3","6","3","4","5","5","4","5","4","3","4","2","3","4","5","5","6","5","6","5","3","6","2","3","5","5","1","3","6","775465718602010626","刘","419","Male","[""坏我"",""坏他"",""好他"",""好我""]","[""弱我"",""弱他"",""强他"",""强我""]","","","","","","","","7","","","","","","","","","SRET","SRET_math_calculate","","key","7","11.17733333333292","853.3333333333334","529.3333333333334","","","","","3+4= ?","7","1","","","","","","","",""
"1972","","8","psychophysics","110","662230","0.0-7.0-5.0-0.7","6","5","5","4","4","4","3","4","4","4","4","1","1","-1","0","-1","1","0","0","4","4","5","4","4","3","3","4","4","3","5","5","5","5","4","4","6","5","5","5","3","6","5","3","4","5","2","5","3","1","2","3","6","3","4","5","5","4","5","4","3","4","2","3","4","5","5","6","5","6","5","3","6","2","3","5","5","1","3","6","775465718602010626","刘","419","Male","[""坏我"",""坏他"",""好他"",""好我""]","[""弱我"",""弱他"",""强他"",""强我""]","","","","","","","","8","","","","","","","","","SRET","SRET_math_calculate","","key","8","11.384393063583815","853.3333333333334","529.3333333333334","","","","","7+1= ?","8","1","","","","","","","",""
"2000","","2","psychophysics","111","664243","0.0-7.0-5.0-0.8","6","5","5","4","4","4","3","4","4","4","4","1","1","-1","0","-1","1","0","0","4","4","5","4","4","3","3","4","4","3","5","5","5","5","4","4","6","5","5","5","3","6","5","3","4","5","2","5","3","1","2","3","6","3","4","5","5","4","5","4","3","4","2","3","4","5","5","6","5","6","5","3","6","2","3","5","5","1","3","6","775465718602010626","刘","419","Male","[""坏我"",""坏他"",""好他"",""好我""]","[""弱我"",""弱他"",""强他"",""强我""]","","","","","","","","2","","","","","","","","","SRET","SRET_math_calculate","","key","2","11.49310344827613","853.3333333333334","529.3333333333334","","","","","8-5= ?","3","0","","","","","","","",""
"2002","","6","psychophysics","112","666257","0.0-7.0-5.0-0.9","6","5","5","4","4","4","3","4","4","4","4","1","1","-1","0","-1","1","0","0","4","4","5","4","4","3","3","4","4","3","5","5","5","5","4","4","6","5","5","5","3","6","5","3","4","5","2","5","3","1","2","3","6","3","4","5","5","4","5","4","3","4","2","3","4","5","5","6","5","6","5","3","6","2","3","5","5","1","3","6","775465718602010626","刘","419","Male","[""坏我"",""坏他"",""好他"",""好我""]","[""弱我"",""弱他"",""强他"",""强我""]","","","","","","","","6","","","","","","","","","SRET","SRET_math_calculate","","key","6","11.694736842105536","853.3333333333334","529.3333333333334","","","","","8-2= ?","6","1","","","","","","","",""
"2403","","3","psychophysics","113","668672","0.0-7.0-5.0-0.10","6","5","5","4","4","4","3","4","4","4","4","1","1","-1","0","-1","1","0","0","4","4","5","4","4","3","3","4","4","3","5","5","5","5","4","4","6","5","5","5","3","6","5","3","4","5","2","5","3","1","2","3","6","3","4","5","5","4","5","4","3","4","2","3","4","5","5","6","5","6","5","3","6","2","3","5","5","1","3","6","775465718602010626","刘","419","Male","[""坏我"",""坏他"",""好他"",""好我""]","[""弱我"",""弱他"",""强他"",""强我""]","","","","","","","","3","","","","","","","","","SRET","SRET_math_calculate","","key","3","11.242149532710041","853.3333333333334","529.3333333333334","","","","","6/2= ?","3","1","","","","","","","",""
"2223","","6","psychophysics","114","670908","0.0-7.0-5.0-0.11","6","5","5","4","4","4","3","4","4","4","4","1","1","-1","0","-1","1","0","0","4","4","5","4","4","3","3","4","4","3","5","5","5","5","4","4","6","5","5","5","3","6","5","3","4","5","2","5","3","1","2","3","6","3","4","5","5","4","5","4","3","4","2","3","4","5","5","6","5","6","5","3","6","2","3","5","5","1","3","6","775465718602010626","刘","419","Male","[""坏我"",""坏他"",""好他"",""好我""]","[""弱我"",""弱他"",""强他"",""强我""]","","","","","","","","6","","","","","","","","","SRET","SRET_math_calculate","","key","6","11.644083769633605","853.3333333333334","529.3333333333334","","","","","3*2= ?","6","1","","","","","","","",""
"2670","","8","psychophysics","115","673590","0.0-7.0-5.0-0.12","6","5","5","4","4","4","3","4","4","4","4","1","1","-1","0","-1","1","0","0","4","4","5","4","4","3","3","4","4","3","5","5","5","5","4","4","6","5","5","5","3","6","5","3","4","5","2","5","3","1","2","3","6","3","4","5","5","4","5","4","3","4","2","3","4","5","5","6","5","6","5","3","6","2","3","5","5","1","3","6","775465718602010626","刘","419","Male","[""坏我"",""坏他"",""好他"",""好我""]","[""弱我"",""弱他"",""强他"",""强我""]","","","","","","","","8","","","","","","","","","SRET","SRET_math_calculate","","key","8","11.181841004183944","853.3333333333334","529.3333333333334","","","","","13-6= ?","7","0","","","","","","","",""
"2062","","9","psychophysics","116","675663","0.0-7.0-5.0-0.13","6","5","5","4","4","4","3","4","4","4","4","1","1","-1","0","-1","1","0","0","4","4","5","4","4","3","3","4","4","3","5","5","5","5","4","4","6","5","5","5","3","6","5","3","4","5","2","5","3","1","2","3","6","3","4","5","5","4","5","4","3","4","2","3","4","5","5","6","5","6","5","3","6","2","3","5","5","1","3","6","775465718602010626","刘","419","Male","[""坏我"",""坏他"",""好他"",""好我""]","[""弱我"",""弱他"",""强他"",""强我""]","","","","","","","","9","","","","","","","","","SRET","SRET_math_calculate","","key","9","11.197826086956649","853.3333333333334","529.3333333333334","","","","","1+8= ?","9","1","","","","","","","",""
"2266","","5","psychophysics","117","677941","0.0-7.0-5.0-0.14","6","5","5","4","4","4","3","4","4","4","4","1","1","-1","0","-1","1","0","0","4","4","5","4","4","3","3","4","4","3","5","5","5","5","4","4","6","5","5","5","3","6","5","3","4","5","2","5","3","1","2","3","6","3","4","5","5","4","5","4","3","4","2","3","4","5","5","6","5","6","5","3","6","2","3","5","5","1","3","6","775465718602010626","刘","419","Male","[""坏我"",""坏他"",""好他"",""好我""]","[""弱我"",""弱他"",""强他"",""强我""]","","","","","","","","5","","","","","","","","","SRET","SRET_math_calculate","","key","5","11.139705882352942","853.3333333333334","529.3333333333334","","","","","12-7= ?","5","1","","","","","","","",""
"2283","","8","psychophysics","118","680236","0.0-7.0-5.0-0.15","6","5","5","4","4","4","3","4","4","4","4","1","1","-1","0","-1","1","0","0","4","4","5","4","4","3","3","4","4","3","5","5","5","5","4","4","6","5","5","5","3","6","5","3","4","5","2","5","3","1","2","3","6","3","4","5","5","4","5","4","3","4","2","3","4","5","5","6","5","6","5","3","6","2","3","5","5","1","3","6","775465718602010626","刘","419","Male","[""坏我"",""坏他"",""好他"",""好我""]","[""弱我"",""弱他"",""强他"",""强我""]","","","","","","","","8","","","","","","","","","SRET","SRET_math_calculate","","key","8","11.114926829267997","853.3333333333334","529.3333333333334","","","","","1*8= ?","8","1","","","","","","","",""
"1949","","6","psychophysics","119","682196","0.0-7.0-5.0-0.16","6","5","5","4","4","4","3","4","4","4","4","1","1","-1","0","-1","1","0","0","4","4","5","4","4","3","3","4","4","3","5","5","5","5","4","4","6","5","5","5","3","6","5","3","4","5","2","5","3","1","2","3","6","3","4","5","5","4","5","4","3","4","2","3","4","5","5","6","5","6","5","3","6","2","3","5","5","1","3","6","775465718602010626","刘","419","Male","[""坏我"",""坏他"",""好他"",""好我""]","[""弱我"",""弱他"",""强他"",""强我""]","","","","","","","","6","","","","","","","","","SRET","SRET_math_calculate","","key","6","11.214482758621065","853.3333333333334","529.3333333333334","","","","","5+1= ?","6","1","","","","","","","",""
"2163","","6","psychophysics","120","684372","0.0-7.0-5.0-0.17","6","5","5","4","4","4","3","4","4","4","4","1","1","-1","0","-1","1","0","0","4","4","5","4","4","3","3","4","4","3","5","5","5","5","4","4","6","5","5","5","3","6","5","3","4","5","2","5","3","1","2","3","6","3","4","5","5","4","5","4","3","4","2","3","4","5","5","6","5","6","5","3","6","2","3","5","5","1","3","6","775465718602010626","刘","419","Male","[""坏我"",""坏他"",""好他"",""好我""]","[""弱我"",""弱他"",""强他"",""强我""]","","","","","","","","6","","","","","","","","","SRET","SRET_math_calculate","","key","6","11.299374999999904","853.3333333333334","529.3333333333334","","","","","4+2= ?","6","1","","","","","","","",""
"2274","","7","psychophysics","121","686657","0.0-7.0-5.0-0.18","6","5","5","4","4","4","3","4","4","4","4","1","1","-1","0","-1","1","0","0","4","4","5","4","4","3","3","4","4","3","5","5","5","5","4","4","6","5","5","5","3","6","5","3","4","5","2","5","3","1","2","3","6","3","4","5","5","4","5","4","3","4","2","3","4","5","5","6","5","6","5","3","6","2","3","5","5","1","3","6","775465718602010626","刘","419","Male","[""坏我"",""坏他"",""好他"",""好我""]","[""弱我"",""弱他"",""强他"",""强我""]","","","","","","","","7","","","","","","","","","SRET","SRET_math_calculate","","key","7","11.25","853.3333333333334","529.3333333333334","","","","","11-5= ?","6","0","","","","","","","",""
"2341","","6","psychophysics","122","689009","0.0-7.0-5.0-0.19","6","5","5","4","4","4","3","4","4","4","4","1","1","-1","0","-1","1","0","0","4","4","5","4","4","3","3","4","4","3","5","5","5","5","4","4","6","5","5","5","3","6","5","3","4","5","2","5","3","1","2","3","6","3","4","5","5","4","5","4","3","4","2","3","4","5","5","6","5","6","5","3","6","2","3","5","5","1","3","6","775465718602010626","刘","419","Male","[""坏我"",""坏他"",""好他"",""好我""]","[""弱我"",""弱他"",""强他"",""强我""]","","","","","","","","6","","","","","","","","","SRET","SRET_math_calculate","","key","6","11.355145631067554","853.3333333333334","529.3333333333334","","","","","9-2= ?","7","0","","","","","","","",""
"2551","","1","psychophysics","123","691573","0.0-7.0-5.0-0.20","6","5","5","4","4","4","3","4","4","4","4","1","1","-1","0","-1","1","0","0","4","4","5","4","4","3","3","4","4","3","5","5","5","5","4","4","6","5","5","5","3","6","5","3","4","5","2","5","3","1","2","3","6","3","4","5","5","4","5","4","3","4","2","3","4","5","5","6","5","6","5","3","6","2","3","5","5","1","3","6","775465718602010626","刘","419","Male","[""坏我"",""坏他"",""好他"",""好我""]","[""弱我"",""弱他"",""强他"",""强我""]","","","","","","","","1","","","","","","","","","SRET","SRET_math_calculate","","key","1","10.856425531914933","853.3333333333334","529.3333333333334","","","","","29-27= ?","2","0","","","","","","","",""
"310","","3","psychophysics","124","691893","0.0-7.0-5.0-0.21","6","5","5","4","4","4","3","4","4","4","4","1","1","-1","0","-1","1","0","0","4","4","5","4","4","3","3","4","4","3","5","5","5","5","4","4","6","5","5","5","3","6","5","3","4","5","2","5","3","1","2","3","6","3","4","5","5","4","5","4","3","4","2","3","4","5","5","6","5","6","5","3","6","2","3","5","5","1","3","6","775465718602010626","刘","419","Male","[""坏我"",""坏他"",""好他"",""好我""]","[""弱我"",""弱他"",""强他"",""强我""]","","","","","","","","3","","","","","","","","","SRET","SRET_math_calculate","","key","3","11.037857142859139","853.3333333333334","529.3333333333334","","","","","7+2= ?","9","0","","","","","","","",""
"3131","","3","psychophysics","125","695038","0.0-7.0-5.0-0.22","6","5","5","4","4","4","3","4","4","4","4","1","1","-1","0","-1","1","0","0","4","4","5","4","4","3","3","4","4","3","5","5","5","5","4","4","6","5","5","5","3","6","5","3","4","5","2","5","3","1","2","3","6","3","4","5","5","4","5","4","3","4","2","3","4","5","5","6","5","6","5","3","6","2","3","5","5","1","3","6","775465718602010626","刘","419","Male","[""坏我"",""坏他"",""好他"",""好我""]","[""弱我"",""弱他"",""强他"",""强我""]","","","","","","","","3","","","","","","","","","SRET","SRET_math_calculate","","key","3","11.14953736654811","853.3333333333334","529.3333333333334","","","","","18/9= ?","2","0","","","","","","","",""
"2453","","4","psychophysics","126","697502","0.0-7.0-5.0-0.23","6","5","5","4","4","4","3","4","4","4","4","1","1","-1","0","-1","1","0","0","4","4","5","4","4","3","3","4","4","3","5","5","5","5","4","4","6","5","5","5","3","6","5","3","4","5","2","5","3","1","2","3","6","3","4","5","5","4","5","4","3","4","2","3","4","5","5","6","5","6","5","3","6","2","3","5","5","1","3","6","775465718602010626","刘","419","Male","[""坏我"",""坏他"",""好他"",""好我""]","[""弱我"",""弱他"",""强他"",""强我""]","","","","","","","","4","","","","","","","","","SRET","SRET_math_calculate","","key","4","11.155909090908773","853.3333333333334","529.3333333333334","","","","","2+2= ?","4","1","","","","","","","",""
"1915","","5","psychophysics","127","699429","0.0-7.0-5.0-0.24","6","5","5","4","4","4","3","4","4","4","4","1","1","-1","0","-1","1","0","0","4","4","5","4","4","3","3","4","4","3","5","5","5","5","4","4","6","5","5","5","3","6","5","3","4","5","2","5","3","1","2","3","6","3","4","5","5","4","5","4","3","4","2","3","4","5","5","6","5","6","5","3","6","2","3","5","5","1","3","6","775465718602010626","刘","419","Male","[""坏我"",""坏他"",""好他"",""好我""]","[""弱我"",""弱他"",""强他"",""强我""]","","","","","","","","5","","","","","","","","","SRET","SRET_math_calculate","","key","5","11.820740740741229","853.3333333333334","529.3333333333334","","","","","4+1= ?","5","1","","","","","","","",""
"11624","","7","psychophysics","128","711065","0.0-7.0-5.0-0.25","6","5","5","4","4","4","3","4","4","4","4","1","1","-1","0","-1","1","0","0","4","4","5","4","4","3","3","4","4","3","5","5","5","5","4","4","6","5","5","5","3","6","5","3","4","5","2","5","3","1","2","3","6","3","4","5","5","4","5","4","3","4","2","3","4","5","5","6","5","6","5","3","6","2","3","5","5","1","3","6","775465718602010626","刘","419","Male","[""坏我"",""坏他"",""好他"",""好我""]","[""弱我"",""弱他"",""强他"",""强我""]","","","","","","","","7","","","","","","","","","SRET","SRET_math_calculate","","key","7","11.306498054474782","853.3333333333334","529.3333333333334","","","","","49/7 = ?","7","1","","","","","","","",""
"2173","","9","psychophysics","129","713249","0.0-7.0-5.0-0.26","6","5","5","4","4","4","3","4","4","4","4","1","1","-1","0","-1","1","0","0","4","4","5","4","4","3","3","4","4","3","5","5","5","5","4","4","6","5","5","5","3","6","5","3","4","5","2","5","3","1","2","3","6","3","4","5","5","4","5","4","3","4","2","3","4","5","5","6","5","6","5","3","6","2","3","5","5","1","3","6","775465718602010626","刘","419","Male","[""坏我"",""坏他"",""好他"",""好我""]","[""弱我"",""弱他"",""强他"",""强我""]","","","","","","","","9","","","","","","","","","SRET","SRET_math_calculate","","key","9","11.390261780104298","853.3333333333334","529.3333333333334","","","","","3+6= ?","9","1","","","","","","","",""
"2644","","3","psychophysics","130","715906","0.0-7.0-5.0-0.27","6","5","5","4","4","4","3","4","4","4","4","1","1","-1","0","-1","1","0","0","4","4","5","4","4","3","3","4","4","3","5","5","5","5","4","4","6","5","5","5","3","6","5","3","4","5","2","5","3","1","2","3","6","3","4","5","5","4","5","4","3","4","2","3","4","5","5","6","5","6","5","3","6","2","3","5","5","1","3","6","775465718602010626","刘","419","Male","[""坏我"",""坏他"",""好他"",""好我""]","[""弱我"",""弱他"",""强他"",""强我""]","","","","","","","","3","","","","","","","","","SRET","SRET_math_calculate","","key","3","11.29128205128219","853.3333333333334","529.3333333333334","","","","","3*1= ?","3","1","","","","","","","",""
"2072","","9","psychophysics","131","717992","0.0-7.0-5.0-0.28","6","5","5","4","4","4","3","4","4","4","4","1","1","-1","0","-1","1","0","0","4","4","5","4","4","3","3","4","4","3","5","5","5","5","4","4","6","5","5","5","3","6","5","3","4","5","2","5","3","1","2","3","6","3","4","5","5","4","5","4","3","4","2","3","4","5","5","6","5","6","5","3","6","2","3","5","5","1","3","6","775465718602010626","刘","419","Male","[""坏我"",""坏他"",""好他"",""好我""]","[""弱我"",""弱他"",""强他"",""强我""]","","","","","","","","9","","","","","","","","","SRET","SRET_math_calculate","","key","9","11.547666666666434","853.3333333333334","529.3333333333334","","","","","2+7= ?","9","1","","","","","","","",""
"2131","","7","psychophysics","132","720136","0.0-7.0-5.0-0.29","6","5","5","4","4","4","3","4","4","4","4","1","1","-1","0","-1","1","0","0","4","4","5","4","4","3","3","4","4","3","5","5","5","5","4","4","6","5","5","5","3","6","5","3","4","5","2","5","3","1","2","3","6","3","4","5","5","4","5","4","3","4","2","3","4","5","5","6","5","6","5","3","6","2","3","5","5","1","3","6","775465718602010626","刘","419","Male","[""坏我"",""坏他"",""好他"",""好我""]","[""弱我"",""弱他"",""强他"",""强我""]","","","","","","","","7","","","","","","","","","SRET","SRET_math_calculate","","key","7","11.052435233160598","853.3333333333334","529.3333333333334","","","","","7*1=  ?","7","1","","","","","","","",""
"2062","","7","psychophysics","133","722208","0.0-7.0-5.0-0.30","6","5","5","4","4","4","3","4","4","4","4","1","1","-1","0","-1","1","0","0","4","4","5","4","4","3","3","4","4","3","5","5","5","5","4","4","6","5","5","5","3","6","5","3","4","5","2","5","3","1","2","3","6","3","4","5","5","4","5","4","3","4","2","3","4","5","5","6","5","6","5","3","6","2","3","5","5","1","3","6","775465718602010626","刘","419","Male","[""坏我"",""坏他"",""好他"",""好我""]","[""弱我"",""弱他"",""强他"",""强我""]","","","","","","","","7","","","","","","","","","SRET","SRET_math_calculate","","key","7","10.959574468084611","853.3333333333334","529.3333333333334","","","","","8-1= ?","7","1","","","","","","","",""
"2216","","9","psychophysics","134","724435","0.0-7.0-5.0-0.31","6","5","5","4","4","4","3","4","4","4","4","1","1","-1","0","-1","1","0","0","4","4","5","4","4","3","3","4","4","3","5","5","5","5","4","4","6","5","5","5","3","6","5","3","4","5","2","5","3","1","2","3","6","3","4","5","5","4","5","4","3","4","2","3","4","5","5","6","5","6","5","3","6","2","3","5","5","1","3","6","775465718602010626","刘","419","Male","[""坏我"",""坏他"",""好他"",""好我""]","[""弱我"",""弱他"",""强他"",""强我""]","","","","","","","","9","","","","","","","","","SRET","SRET_math_calculate","","key","9","11.343076923077042","853.3333333333334","529.3333333333334","","","","","8+1= ?","9","1","","","","","","","",""
"1903","","8","psychophysics","135","726350","0.0-7.0-5.0-0.32","6","5","5","4","4","4","3","4","4","4","4","1","1","-1","0","-1","1","0","0","4","4","5","4","4","3","3","4","4","3","5","5","5","5","4","4","6","5","5","5","3","6","5","3","4","5","2","5","3","1","2","3","6","3","4","5","5","4","5","4","3","4","2","3","4","5","5","6","5","6","5","3","6","2","3","5","5","1","3","6","775465718602010626","刘","419","Male","[""坏我"",""坏他"",""好他"",""好我""]","[""弱我"",""弱他"",""强他"",""强我""]","","","","","","","","8","","","","","","","","","SRET","SRET_math_calculate","","key","8","11.673865030674646","853.3333333333334","529.3333333333334","","","","","9-1= ?","8","1","","","","","","","",""
"2167","","3","psychophysics","136","728529","0.0-7.0-5.0-0.33","6","5","5","4","4","4","3","4","4","4","4","1","1","-1","0","-1","1","0","0","4","4","5","4","4","3","3","4","4","3","5","5","5","5","4","4","6","5","5","5","3","6","5","3","4","5","2","5","3","1","2","3","6","3","4","5","5","4","5","4","3","4","2","3","4","5","5","6","5","6","5","3","6","2","3","5","5","1","3","6","775465718602010626","刘","419","Male","[""坏我"",""坏他"",""好他"",""好我""]","[""弱我"",""弱他"",""强他"",""强我""]","","","","","","","","3","","","","","","","","","SRET","SRET_math_calculate","","key","3","11.60149732620311","853.3333333333334","529.3333333333334","","","","","8-6= ?","2","0","","","","","","","",""
"2112","","0","psychophysics","137","730653","0.0-7.0-5.0-0.34","6","5","5","4","4","4","3","4","4","4","4","1","1","-1","0","-1","1","0","0","4","4","5","4","4","3","3","4","4","3","5","5","5","5","4","4","6","5","5","5","3","6","5","3","4","5","2","5","3","1","2","3","6","3","4","5","5","4","5","4","3","4","2","3","4","5","5","6","5","6","5","3","6","2","3","5","5","1","3","6","775465718602010626","刘","419","Male","[""坏我"",""坏他"",""好他"",""好我""]","[""弱我"",""弱他"",""强他"",""强我""]","","","","","","","","0","","","","","","","","","SRET","SRET_math_calculate","","key","0","10.926839378238366","853.3333333333334","529.3333333333334","","","","","1-1= ?","0","1","","","","","","","",""
