"rt","stimulus","response","trial_type","trial_index","time_elapsed","internal_node_id","swb_1","swb_2","swb_3","swb_4","swb_5","LOT_1","LOT_2","LOT_3","LOT_4","LOT_5","LOT_6","IPC_1","IPC_2","IPC_3","IPC_4","IPC_5","IPC_6","IPC_7","IPC_8","MorIden_1","MorIden_2","MorIden_3","MorIden_4","MorIden_5","MorIden_6","MorIden_7","MorIden_8","MorIden_9","MorIden_10","moralSeImag_1","moralSeImag_2","moralSeImag_3","moralSeImag_4","moralSeImag_5","moralSeImag_6","moralSeImag_7","moralSeImag_8","moralSeImag_9","sde_1","sde_2","sde_3","sde_4","sde_5","sde_6","sde_7","sde_8","sde_9","sde_10","trap2","sde_11","sde_12","sde_13","sde_14","sde_15","sde_16","sde_17","sde_18","sde_19","sde_20","IM_1","IM_2","IM_3","IM_4","IM_5","IM_6","IM_7","IM_8","IM_9","IM_10","IM_11","IM_12","IM_13","IM_14","IM_15","IM_16","IM_17","IM_18","IM_19","IM_20","subj_idx","friend_name","ParticipantID","Sex","Word","Word2","value","success","timeout","failed_images","failed_audio","failed_video","user_agent","responses","item_order","radio_event_ids","radio_event_times","key_event_times","mouse_event_times","straightlining","zigzagging","honeypot","view_history","response_type","key_press","avg_frame_time","center_x","center_y","correct_response","correct","identity","Image","word","condition","task_id","screen_id","time_stamp","person","valence","domain","math","status","duration","question_order","trap2_item"
"5605","
   <p><div style='color:white; font-size: 25px'>您好，欢迎参加本次实验。</div></p>
   <p><div style='color:white; font-size: 25px'>为充分保障您的权利，请确保您已经知晓并同意《参与实验同意书》以及《数据公开知情同意书》。</div></p>
   <p><div style='color:white; font-size: 25px'>如果您未见过上述内容，请咨询实验员。</div></p>
   <p style='color:white; font-size: 25px'>如果您选择继续实验，则表示您已经清楚两份知情同意书的内容并同意。</p>
   <p><div style = ""color: pink;font-size:30px;"">请确保您记得day0的实验编号，您将在本次实验输入该编号，若您忘记，请咨询实验员后作答。</div></p>
   <p><div style = ""color:lightblue;font-size:25px;"">请您尽可能认真地作答，我们将依据您在各问卷和按键任务中的作答质量发放报酬。</div></p>
   <p> <div style = ""color: green""><按空格键至下页></div> </p>
   "," ","html-keyboard-response","0","5610","0.0-0.0","4","4","4","2","3","4","3","3","5","4","5","1","-2","1","0","-3","1","2","2","4","5","5","4","4","3","4","3","4","3","6","5","4","5","7","5","4","5","5","3","2","5","2","4","4","7","6","5","4","1","5","2","5","5","5","6","4","3","3","4","3","5","2","5","4","5","2","5","6","5","7","3","4","5","4","7","1","7","3","4","789065248304009217","陈","211","Male","[""坏他"",""好我"",""好他"",""坏我""]","[""弱他"",""强我"",""强他"",""弱我""]","","","","","","","","","","","","","","","","","","","","","","","","","","","","","","","","","","","","","","",""
"","","","call-function","1","5612","0.0-1.0-0.0","4","4","4","2","3","4","3","3","5","4","5","1","-2","1","0","-3","1","2","2","4","5","5","4","4","3","4","3","4","3","6","5","4","5","7","5","4","5","5","3","2","5","2","4","4","7","6","5","4","1","5","2","5","5","5","6","4","3","3","4","3","5","2","5","4","5","2","5","6","5","7","3","4","5","4","7","1","7","3","4","789065248304009217","陈","211","Male","[""坏他"",""好我"",""好他"",""坏我""]","[""弱他"",""强我"",""强他"",""弱我""]","","","","","","","","","","","","","","","","","","","","","","","","","","","","","","","","","","","","","","",""
"38696","","[{""name"":""Sex"",""value"":""0""},{""name"":""friend_name"",""value"":""陈""},{""name"":""ParticipantID"",""value"":""211""}]","survey-html-form","2","44308","0.0-1.0-1.0","4","4","4","2","3","4","3","3","5","4","5","1","-2","1","0","-3","1","2","2","4","5","5","4","4","3","4","3","4","3","6","5","4","5","7","5","4","5","5","3","2","5","2","4","4","7","6","5","4","1","5","2","5","5","5","6","4","3","3","4","3","5","2","5","4","5","2","5","6","5","7","3","4","5","4","7","1","7","3","4","789065248304009217","陈","211","Male","[""坏他"",""好我"",""好他"",""坏我""]","[""弱他"",""强我"",""强他"",""弱我""]","","","","","","","","","","","","","","","","","","","","","","","","","","","","","","","","","","","","","","",""
"","","","preload","3","44742","0.0-2.0","4","4","4","2","3","4","3","3","5","4","5","1","-2","1","0","-3","1","2","2","4","5","5","4","4","3","4","3","4","3","6","5","4","5","7","5","4","5","5","3","2","5","2","4","4","7","6","5","4","1","5","2","5","5","5","6","4","3","3","4","3","5","2","5","4","5","2","5","6","5","7","3","4","5","4","7","1","7","3","4","789065248304009217","陈","211","Male","[""坏他"",""好我"",""好他"",""坏我""]","[""弱他"",""强我"",""强他"",""弱我""]","","true","false","[]","[]","[]","","","","","","","","","","","","","","","","","","","","","","","","","","","","","","","","",""
"","","","fullscreen","4","53089","0.0-3.0","4","4","4","2","3","4","3","3","5","4","5","1","-2","1","0","-3","1","2","2","4","5","5","4","4","3","4","3","4","3","6","5","4","5","7","5","4","5","5","3","2","5","2","4","4","7","6","5","4","1","5","2","5","5","5","6","4","3","3","4","3","5","2","5","4","5","2","5","6","5","7","3","4","5","4","7","1","7","3","4","789065248304009217","陈","211","Male","[""坏他"",""好我"",""好他"",""坏我""]","[""弱他"",""强我"",""强他"",""弱我""]","","true","","","","","{}","","","","","","","","","","","","","","","","","","","","","","","","","","","","","","","",""
"16394.400000000373","","{""Q01"":""4"",""Q02"":""4"",""Q03"":""4"",""Q04"":""2"",""Q05"":""3""}","survey-template","5","69484","0.0-4.0","4","4","4","2","3","4","3","3","5","4","5","1","-2","1","0","-3","1","2","2","4","5","5","4","4","3","4","3","4","3","6","5","4","5","7","5","4","5","5","3","2","5","2","4","4","7","6","5","4","1","5","2","5","5","5","6","4","3","3","4","3","5","2","5","4","5","2","5","6","5","7","3","4","5","4","7","1","7","3","4","789065248304009217","陈","211","Male","[""坏他"",""好我"",""好他"",""坏我""]","[""弱他"",""强我"",""强他"",""弱我""]","","","","","","","","{""Q01"":""4"",""Q02"":""4"",""Q03"":""4"",""Q04"":""2"",""Q05"":""3""}","[0,1,2,3,4]","[""Q01"",""Q02"",""Q03"",""Q04"",""Q05""]","[6369.5999999996275,7041.699999999255,9489.599999999627,13857.400000000373,14698.300000000745]","[]","[4793.699999999255,5401.5999999996275,5945.5999999996275,6369.5999999996275,7041.699999999255,8201.699999999255,9489.599999999627,11977.599999999627,13857.400000000373,14698.300000000745,16393.5]","0.6","0.25","0","","","","","","","","","","","","","","","","","","","","","","",""
"21060.799999998882","","{""Q01"":""4"",""Q02"":""3"",""Q03"":""3"",""Q04"":""5"",""Q05"":""4"",""Q06"":""5""}","survey-template","6","90548","0.0-5.0","4","4","4","2","3","4","3","3","5","4","5","1","-2","1","0","-3","1","2","2","4","5","5","4","4","3","4","3","4","3","6","5","4","5","7","5","4","5","5","3","2","5","2","4","4","7","6","5","4","1","5","2","5","5","5","6","4","3","3","4","3","5","2","5","4","5","2","5","6","5","7","3","4","5","4","7","1","7","3","4","789065248304009217","陈","211","Male","[""坏他"",""好我"",""好他"",""坏我""]","[""弱他"",""强我"",""强他"",""弱我""]","","","","","","","","{""Q01"":""4"",""Q02"":""3"",""Q03"":""3"",""Q04"":""5"",""Q05"":""4"",""Q06"":""5""}","[0,1,2,3,4,5]","[""Q01"",""Q02"",""Q03"",""Q04"",""Q04"",""Q05"",""Q06""]","[2236.0999999996275,4676.199999999255,6660.199999999255,12036.199999999255,13860.099999999627,15764.099999999627,20012.199999999255]","[]","[2236.0999999996275,4676.199999999255,6660.199999999255,12036.199999999255,13860.099999999627,15764.099999999627,20012.199999999255,21060.099999999627]","0.3333333333333333","0.4","0","","","","","","","","","","","","","","","","","","","","","","",""
"25173.799999998882","","{""Q01"":""1"",""Q02"":""-2"",""Q03"":""1"",""Q04"":""0"",""Q05"":""-3"",""Q06"":""1"",""Q07"":""2"",""Q08"":""2""}","survey-template","7","115725","0.0-6.0","4","4","4","2","3","4","3","3","5","4","5","1","-2","1","0","-3","1","2","2","4","5","5","4","4","3","4","3","4","3","6","5","4","5","7","5","4","5","5","3","2","5","2","4","4","7","6","5","4","1","5","2","5","5","5","6","4","3","3","4","3","5","2","5","4","5","2","5","6","5","7","3","4","5","4","7","1","7","3","4","789065248304009217","陈","211","Male","[""坏他"",""好我"",""好他"",""坏我""]","[""弱他"",""强我"",""强他"",""弱我""]","","","","","","","","{""Q01"":""1"",""Q02"":""-2"",""Q03"":""1"",""Q04"":""0"",""Q05"":""-3"",""Q06"":""1"",""Q07"":""2"",""Q08"":""2""}","[0,1,2,3,4,5,6,7]","[""Q01"",""Q02"",""Q03"",""Q04"",""Q04"",""Q05"",""Q06"",""Q07"",""Q07"",""Q08""]","[3948.699999999255,6636.799999998882,9420.799999998882,11252.799999998882,13180.799999998882,17654,18821.39999999851,20988.799999998882,23100.799999998882,24572.699999999255]","[]","[3948.699999999255,6636.799999998882,9420.799999998882,11252.799999998882,13180.799999998882,16764.699999999255,17654,18821.39999999851,20988.799999998882,22204.799999998882,23100.799999998882,24140.699999999255,24572.699999999255,25172.699999999255]","0.375","0.2857142857142857","0","","","","","","","","","","","","","","","","","","","","","","",""
"41781","","","instructions","8","157508","0.0-7.0","4","4","4","2","3","4","3","3","5","4","5","1","-2","1","0","-3","1","2","2","4","5","5","4","4","3","4","3","4","3","6","5","4","5","7","5","4","5","5","3","2","5","2","4","4","7","6","5","4","1","5","2","5","5","5","6","4","3","3","4","3","5","2","5","4","5","2","5","6","5","7","3","4","5","4","7","1","7","3","4","789065248304009217","陈","211","Male","[""坏他"",""好我"",""好他"",""坏我""]","[""弱他"",""强我"",""强他"",""弱我""]","","","","","","","","","","","","","","","","","[{""page_index"":0,""viewing_time"":41781}]","","","","","","","","","","","","","","","","","","","","","",""
"53119","","","instructions","9","210628","0.0-8.0-1.0-0.0","4","4","4","2","3","4","3","3","5","4","5","1","-2","1","0","-3","1","2","2","4","5","5","4","4","3","4","3","4","3","6","5","4","5","7","5","4","5","5","3","2","5","2","4","4","7","6","5","4","1","5","2","5","5","5","6","4","3","3","4","3","5","2","5","4","5","2","5","6","5","7","3","4","5","4","7","1","7","3","4","789065248304009217","陈","211","Male","[""坏他"",""好我"",""好他"",""坏我""]","[""弱他"",""强我"",""强他"",""弱我""]","","","","","","","","","","","","","","","","","[{""page_index"":0,""viewing_time"":20318},{""page_index"":1,""viewing_time"":29273},{""page_index"":2,""viewing_time"":1919},{""page_index"":3,""viewing_time"":1608}]","","","","","","","","","","","","","","","","","","","","","",""
"null","","null","psychophysics","10","212833","0.0-8.0-1.0-1.0-0.0-0.0","4","4","4","2","3","4","3","3","5","4","5","1","-2","1","0","-3","1","2","2","4","5","5","4","4","3","4","3","4","3","6","5","4","5","7","5","4","5","5","3","2","5","2","4","4","7","6","5","4","1","5","2","5","5","5","6","4","3","3","4","3","5","2","5","4","5","2","5","6","5","7","3","4","5","4","7","1","7","3","4","789065248304009217","陈","211","Male","[""坏他"",""好我"",""好他"",""坏我""]","[""弱他"",""强我"",""强他"",""弱我""]","","","","","","","","null","","","","","","","","","","key","null","16.66717557251904","800","446","j","false","match","img/pentagon.png","强他","强他","prac_ALT2_ability","practice_ability","","","","","","","","",""
"null","<span class='add_' style='color:yellow; font-size: 70px;'> 太慢! </span>","null","html-keyboard-response","11","213335","0.0-8.0-1.0-1.0-0.0-1.0","4","4","4","2","3","4","3","3","5","4","5","1","-2","1","0","-3","1","2","2","4","5","5","4","4","3","4","3","4","3","6","5","4","5","7","5","4","5","5","3","2","5","2","4","4","7","6","5","4","1","5","2","5","5","5","6","4","3","3","4","3","5","2","5","4","5","2","5","6","5","7","3","4","5","4","7","1","7","3","4","789065248304009217","陈","211","Male","[""坏他"",""好我"",""好他"",""坏我""]","[""弱他"",""强我"",""强他"",""弱我""]","","","","","","","","","","","","","","","","","","","","","","","","","","","","","","feedback_test","","","","","","","","",""
"377","","j","psychophysics","12","214712","0.0-8.0-1.0-1.0-0.0-0.1","4","4","4","2","3","4","3","3","5","4","5","1","-2","1","0","-3","1","2","2","4","5","5","4","4","3","4","3","4","3","6","5","4","5","7","5","4","5","5","3","2","5","2","4","4","7","6","5","4","1","5","2","5","5","5","6","4","3","3","4","3","5","2","5","4","5","2","5","6","5","7","3","4","5","4","7","1","7","3","4","789065248304009217","陈","211","Male","[""坏他"",""好我"",""好他"",""坏我""]","[""弱他"",""强我"",""强他"",""弱我""]","","","","","","","","match","","","","","","","","","","key","j","16.66543209876536","800","446","j","true","match","img/diamond.png","强我","强我","prac_ALT2_ability","practice_ability","","","","","","","","",""
"null","<span style='color:GreenYellow; font-size: 70px;'>正确! </span>","null","html-keyboard-response","13","215213","0.0-8.0-1.0-1.0-0.0-1.1","4","4","4","2","3","4","3","3","5","4","5","1","-2","1","0","-3","1","2","2","4","5","5","4","4","3","4","3","4","3","6","5","4","5","7","5","4","5","5","3","2","5","2","4","4","7","6","5","4","1","5","2","5","5","5","6","4","3","3","4","3","5","2","5","4","5","2","5","6","5","7","3","4","5","4","7","1","7","3","4","789065248304009217","陈","211","Male","[""坏他"",""好我"",""好他"",""坏我""]","[""弱他"",""强我"",""强他"",""弱我""]","","","","","","","","","","","","","","","","","","","","","","","","","","","","","","feedback_test","","","","","","","","",""
"null","","null","psychophysics","14","217416","0.0-8.0-1.0-1.0-0.0-0.2","4","4","4","2","3","4","3","3","5","4","5","1","-2","1","0","-3","1","2","2","4","5","5","4","4","3","4","3","4","3","6","5","4","5","7","5","4","5","5","3","2","5","2","4","4","7","6","5","4","1","5","2","5","5","5","6","4","3","3","4","3","5","2","5","4","5","2","5","6","5","7","3","4","5","4","7","1","7","3","4","789065248304009217","陈","211","Male","[""坏他"",""好我"",""好他"",""坏我""]","[""弱他"",""强我"",""强他"",""弱我""]","","","","","","","","null","","","","","","","","","","key","null","16.667175572519263","800","446","j","false","match","img/ellipse.png","弱我","弱我","prac_ALT2_ability","practice_ability","","","","","","","","",""
"null","<span class='add_' style='color:yellow; font-size: 70px;'> 太慢! </span>","null","html-keyboard-response","15","217918","0.0-8.0-1.0-1.0-0.0-1.2","4","4","4","2","3","4","3","3","5","4","5","1","-2","1","0","-3","1","2","2","4","5","5","4","4","3","4","3","4","3","6","5","4","5","7","5","4","5","5","3","2","5","2","4","4","7","6","5","4","1","5","2","5","5","5","6","4","3","3","4","3","5","2","5","4","5","2","5","6","5","7","3","4","5","4","7","1","7","3","4","789065248304009217","陈","211","Male","[""坏他"",""好我"",""好他"",""坏我""]","[""弱他"",""强我"",""强他"",""弱我""]","","","","","","","","","","","","","","","","","","","","","","","","","","","","","","feedback_test","","","","","","","","",""
"null","","null","psychophysics","16","220120","0.0-8.0-1.0-1.0-0.0-0.3","4","4","4","2","3","4","3","3","5","4","5","1","-2","1","0","-3","1","2","2","4","5","5","4","4","3","4","3","4","3","6","5","4","5","7","5","4","5","5","3","2","5","2","4","4","7","6","5","4","1","5","2","5","5","5","6","4","3","3","4","3","5","2","5","4","5","2","5","6","5","7","3","4","5","4","7","1","7","3","4","789065248304009217","陈","211","Male","[""坏他"",""好我"",""好他"",""坏我""]","[""弱他"",""强我"",""强他"",""弱我""]","","","","","","","","null","","","","","","","","","","key","null","16.66793893129771","800","446","j","false","match","img/diamond.png","强我","强我","prac_ALT2_ability","practice_ability","","","","","","","","",""
"null","<span class='add_' style='color:yellow; font-size: 70px;'> 太慢! </span>","null","html-keyboard-response","17","220621","0.0-8.0-1.0-1.0-0.0-1.3","4","4","4","2","3","4","3","3","5","4","5","1","-2","1","0","-3","1","2","2","4","5","5","4","4","3","4","3","4","3","6","5","4","5","7","5","4","5","5","3","2","5","2","4","4","7","6","5","4","1","5","2","5","5","5","6","4","3","3","4","3","5","2","5","4","5","2","5","6","5","7","3","4","5","4","7","1","7","3","4","789065248304009217","陈","211","Male","[""坏他"",""好我"",""好他"",""坏我""]","[""弱他"",""强我"",""强他"",""弱我""]","","","","","","","","","","","","","","","","","","","","","","","","","","","","","","feedback_test","","","","","","","","",""
"854","","f","psychophysics","18","222476","0.0-8.0-1.0-1.0-0.0-0.4","4","4","4","2","3","4","3","3","5","4","5","1","-2","1","0","-3","1","2","2","4","5","5","4","4","3","4","3","4","3","6","5","4","5","7","5","4","5","5","3","2","5","2","4","4","7","6","5","4","1","5","2","5","5","5","6","4","3","3","4","3","5","2","5","4","5","2","5","6","5","7","3","4","5","4","7","1","7","3","4","789065248304009217","陈","211","Male","[""坏他"",""好我"",""好他"",""坏我""]","[""弱他"",""强我"",""强他"",""弱我""]","","","","","","","","nonmatch","","","","","","","","","","key","f","16.66636363636353","800","446","j","false","match","img/pentagon.png","强他","强他","prac_ALT2_ability","practice_ability","","","","","","","","",""
"null","<span style='color:red; font-size: 70px;'>错误! </span>","null","html-keyboard-response","19","222977","0.0-8.0-1.0-1.0-0.0-1.4","4","4","4","2","3","4","3","3","5","4","5","1","-2","1","0","-3","1","2","2","4","5","5","4","4","3","4","3","4","3","6","5","4","5","7","5","4","5","5","3","2","5","2","4","4","7","6","5","4","1","5","2","5","5","5","6","4","3","3","4","3","5","2","5","4","5","2","5","6","5","7","3","4","5","4","7","1","7","3","4","789065248304009217","陈","211","Male","[""坏他"",""好我"",""好他"",""坏我""]","[""弱他"",""强我"",""强他"",""弱我""]","","","","","","","","","","","","","","","","","","","","","","","","","","","","","","feedback_test","","","","","","","","",""
"381","","j","psychophysics","20","224360","0.0-8.0-1.0-1.0-0.0-0.5","4","4","4","2","3","4","3","3","5","4","5","1","-2","1","0","-3","1","2","2","4","5","5","4","4","3","4","3","4","3","6","5","4","5","7","5","4","5","5","3","2","5","2","4","4","7","6","5","4","1","5","2","5","5","5","6","4","3","3","4","3","5","2","5","4","5","2","5","6","5","7","3","4","5","4","7","1","7","3","4","789065248304009217","陈","211","Male","[""坏他"",""好我"",""好他"",""坏我""]","[""弱他"",""强我"",""强他"",""弱我""]","","","","","","","","match","","","","","","","","","","key","j","16.668292682927042","800","446","j","true","match","img/pentagon.png","强他","强他","prac_ALT2_ability","practice_ability","","","","","","","","",""
"null","<span style='color:GreenYellow; font-size: 70px;'>正确! </span>","null","html-keyboard-response","21","224861","0.0-8.0-1.0-1.0-0.0-1.5","4","4","4","2","3","4","3","3","5","4","5","1","-2","1","0","-3","1","2","2","4","5","5","4","4","3","4","3","4","3","6","5","4","5","7","5","4","5","5","3","2","5","2","4","4","7","6","5","4","1","5","2","5","5","5","6","4","3","3","4","3","5","2","5","4","5","2","5","6","5","7","3","4","5","4","7","1","7","3","4","789065248304009217","陈","211","Male","[""坏他"",""好我"",""好他"",""坏我""]","[""弱他"",""强我"",""强他"",""弱我""]","","","","","","","","","","","","","","","","","","","","","","","","","","","","","","feedback_test","","","","","","","","",""
"748","","f","psychophysics","22","226611","0.0-8.0-1.0-1.0-0.0-0.6","4","4","4","2","3","4","3","3","5","4","5","1","-2","1","0","-3","1","2","2","4","5","5","4","4","3","4","3","4","3","6","5","4","5","7","5","4","5","5","3","2","5","2","4","4","7","6","5","4","1","5","2","5","5","5","6","4","3","3","4","3","5","2","5","4","5","2","5","6","5","7","3","4","5","4","7","1","7","3","4","789065248304009217","陈","211","Male","[""坏他"",""好我"",""好他"",""坏我""]","[""弱他"",""强我"",""强他"",""弱我""]","","","","","","","","nonmatch","","","","","","","","","","key","f","16.665384615384728","800","446","f","true","nonmatch","img/pentagon.png","弱我","强他","prac_ALT2_ability","practice_ability","","","","","","","","",""
"null","<span style='color:GreenYellow; font-size: 70px;'>正确! </span>","null","html-keyboard-response","23","227112","0.0-8.0-1.0-1.0-0.0-1.6","4","4","4","2","3","4","3","3","5","4","5","1","-2","1","0","-3","1","2","2","4","5","5","4","4","3","4","3","4","3","6","5","4","5","7","5","4","5","5","3","2","5","2","4","4","7","6","5","4","1","5","2","5","5","5","6","4","3","3","4","3","5","2","5","4","5","2","5","6","5","7","3","4","5","4","7","1","7","3","4","789065248304009217","陈","211","Male","[""坏他"",""好我"",""好他"",""坏我""]","[""弱他"",""强我"",""强他"",""弱我""]","","","","","","","","","","","","","","","","","","","","","","","","","","","","","","feedback_test","","","","","","","","",""
"819","","f","psychophysics","24","228932","0.0-8.0-1.0-1.0-0.0-0.7","4","4","4","2","3","4","3","3","5","4","5","1","-2","1","0","-3","1","2","2","4","5","5","4","4","3","4","3","4","3","6","5","4","5","7","5","4","5","5","3","2","5","2","4","4","7","6","5","4","1","5","2","5","5","5","6","4","3","3","4","3","5","2","5","4","5","2","5","6","5","7","3","4","5","4","7","1","7","3","4","789065248304009217","陈","211","Male","[""坏他"",""好我"",""好他"",""坏我""]","[""弱他"",""强我"",""强他"",""弱我""]","","","","","","","","nonmatch","","","","","","","","","","key","f","16.665740740740958","800","446","j","false","match","img/trapezoid.png","弱他","弱他","prac_ALT2_ability","practice_ability","","","","","","","","",""
"null","<span style='color:red; font-size: 70px;'>错误! </span>","null","html-keyboard-response","25","229432","0.0-8.0-1.0-1.0-0.0-1.7","4","4","4","2","3","4","3","3","5","4","5","1","-2","1","0","-3","1","2","2","4","5","5","4","4","3","4","3","4","3","6","5","4","5","7","5","4","5","5","3","2","5","2","4","4","7","6","5","4","1","5","2","5","5","5","6","4","3","3","4","3","5","2","5","4","5","2","5","6","5","7","3","4","5","4","7","1","7","3","4","789065248304009217","陈","211","Male","[""坏他"",""好我"",""好他"",""坏我""]","[""弱他"",""强我"",""强他"",""弱我""]","","","","","","","","","","","","","","","","","","","","","","","","","","","","","","feedback_test","","","","","","","","",""
"null","","null","psychophysics","26","231640","0.0-8.0-1.0-1.0-0.0-0.8","4","4","4","2","3","4","3","3","5","4","5","1","-2","1","0","-3","1","2","2","4","5","5","4","4","3","4","3","4","3","6","5","4","5","7","5","4","5","5","3","2","5","2","4","4","7","6","5","4","1","5","2","5","5","5","6","4","3","3","4","3","5","2","5","4","5","2","5","6","5","7","3","4","5","4","7","1","7","3","4","789065248304009217","陈","211","Male","[""坏他"",""好我"",""好他"",""坏我""]","[""弱他"",""强我"",""强他"",""弱我""]","","","","","","","","null","","","","","","","","","","key","null","16.665909090909047","800","446","f","false","nonmatch","img/diamond.png","强他","强我","prac_ALT2_ability","practice_ability","","","","","","","","",""
"null","<span class='add_' style='color:yellow; font-size: 70px;'> 太慢! </span>","null","html-keyboard-response","27","232142","0.0-8.0-1.0-1.0-0.0-1.8","4","4","4","2","3","4","3","3","5","4","5","1","-2","1","0","-3","1","2","2","4","5","5","4","4","3","4","3","4","3","6","5","4","5","7","5","4","5","5","3","2","5","2","4","4","7","6","5","4","1","5","2","5","5","5","6","4","3","3","4","3","5","2","5","4","5","2","5","6","5","7","3","4","5","4","7","1","7","3","4","789065248304009217","陈","211","Male","[""坏他"",""好我"",""好他"",""坏我""]","[""弱他"",""强我"",""强他"",""弱我""]","","","","","","","","","","","","","","","","","","","","","","","","","","","","","","feedback_test","","","","","","","","",""
"null","","null","psychophysics","28","234345","0.0-8.0-1.0-1.0-0.0-0.9","4","4","4","2","3","4","3","3","5","4","5","1","-2","1","0","-3","1","2","2","4","5","5","4","4","3","4","3","4","3","6","5","4","5","7","5","4","5","5","3","2","5","2","4","4","7","6","5","4","1","5","2","5","5","5","6","4","3","3","4","3","5","2","5","4","5","2","5","6","5","7","3","4","5","4","7","1","7","3","4","789065248304009217","陈","211","Male","[""坏他"",""好我"",""好他"",""坏我""]","[""弱他"",""强我"",""强他"",""弱我""]","","","","","","","","null","","","","","","","","","","key","null","16.66870229007638","800","446","f","false","nonmatch","img/pentagon.png","强我","强他","prac_ALT2_ability","practice_ability","","","","","","","","",""
"null","<span class='add_' style='color:yellow; font-size: 70px;'> 太慢! </span>","null","html-keyboard-response","29","234847","0.0-8.0-1.0-1.0-0.0-1.9","4","4","4","2","3","4","3","3","5","4","5","1","-2","1","0","-3","1","2","2","4","5","5","4","4","3","4","3","4","3","6","5","4","5","7","5","4","5","5","3","2","5","2","4","4","7","6","5","4","1","5","2","5","5","5","6","4","3","3","4","3","5","2","5","4","5","2","5","6","5","7","3","4","5","4","7","1","7","3","4","789065248304009217","陈","211","Male","[""坏他"",""好我"",""好他"",""坏我""]","[""弱他"",""强我"",""强他"",""弱我""]","","","","","","","","","","","","","","","","","","","","","","","","","","","","","","feedback_test","","","","","","","","",""
"null","","null","psychophysics","30","237049","0.0-8.0-1.0-1.0-0.0-0.10","4","4","4","2","3","4","3","3","5","4","5","1","-2","1","0","-3","1","2","2","4","5","5","4","4","3","4","3","4","3","6","5","4","5","7","5","4","5","5","3","2","5","2","4","4","7","6","5","4","1","5","2","5","5","5","6","4","3","3","4","3","5","2","5","4","5","2","5","6","5","7","3","4","5","4","7","1","7","3","4","789065248304009217","陈","211","Male","[""坏他"",""好我"",""好他"",""坏我""]","[""弱他"",""强我"",""强他"",""弱我""]","","","","","","","","null","","","","","","","","","","key","null","16.66793893129771","800","446","j","false","match","img/diamond.png","强我","强我","prac_ALT2_ability","practice_ability","","","","","","","","",""
"null","<span class='add_' style='color:yellow; font-size: 70px;'> 太慢! </span>","null","html-keyboard-response","31","237550","0.0-8.0-1.0-1.0-0.0-1.10","4","4","4","2","3","4","3","3","5","4","5","1","-2","1","0","-3","1","2","2","4","5","5","4","4","3","4","3","4","3","6","5","4","5","7","5","4","5","5","3","2","5","2","4","4","7","6","5","4","1","5","2","5","5","5","6","4","3","3","4","3","5","2","5","4","5","2","5","6","5","7","3","4","5","4","7","1","7","3","4","789065248304009217","陈","211","Male","[""坏他"",""好我"",""好他"",""坏我""]","[""弱他"",""强我"",""强他"",""弱我""]","","","","","","","","","","","","","","","","","","","","","","","","","","","","","","feedback_test","","","","","","","","",""
"773","","j","psychophysics","32","239324","0.0-8.0-1.0-1.0-0.0-0.11","4","4","4","2","3","4","3","3","5","4","5","1","-2","1","0","-3","1","2","2","4","5","5","4","4","3","4","3","4","3","6","5","4","5","7","5","4","5","5","3","2","5","2","4","4","7","6","5","4","1","5","2","5","5","5","6","4","3","3","4","3","5","2","5","4","5","2","5","6","5","7","3","4","5","4","7","1","7","3","4","789065248304009217","陈","211","Male","[""坏他"",""好我"",""好他"",""坏我""]","[""弱他"",""强我"",""强他"",""弱我""]","","","","","","","","match","","","","","","","","","","key","j","16.666037735849113","800","446","f","false","nonmatch","img/trapezoid.png","强我","弱他","prac_ALT2_ability","practice_ability","","","","","","","","",""
"null","<span style='color:red; font-size: 70px;'>错误! </span>","null","html-keyboard-response","33","239825","0.0-8.0-1.0-1.0-0.0-1.11","4","4","4","2","3","4","3","3","5","4","5","1","-2","1","0","-3","1","2","2","4","5","5","4","4","3","4","3","4","3","6","5","4","5","7","5","4","5","5","3","2","5","2","4","4","7","6","5","4","1","5","2","5","5","5","6","4","3","3","4","3","5","2","5","4","5","2","5","6","5","7","3","4","5","4","7","1","7","3","4","789065248304009217","陈","211","Male","[""坏他"",""好我"",""好他"",""坏我""]","[""弱他"",""强我"",""强他"",""弱我""]","","","","","","","","","","","","","","","","","","","","","","","","","","","","","","feedback_test","","","","","","","","",""
"null","","null","psychophysics","34","242028","0.0-8.0-1.0-1.0-0.0-0.12","4","4","4","2","3","4","3","3","5","4","5","1","-2","1","0","-3","1","2","2","4","5","5","4","4","3","4","3","4","3","6","5","4","5","7","5","4","5","5","3","2","5","2","4","4","7","6","5","4","1","5","2","5","5","5","6","4","3","3","4","3","5","2","5","4","5","2","5","6","5","7","3","4","5","4","7","1","7","3","4","789065248304009217","陈","211","Male","[""坏他"",""好我"",""好他"",""坏我""]","[""弱他"",""强我"",""强他"",""弱我""]","","","","","","","","null","","","","","","","","","","key","null","16.66793893129771","800","446","f","false","nonmatch","img/trapezoid.png","强他","弱他","prac_ALT2_ability","practice_ability","","","","","","","","",""
"null","<span class='add_' style='color:yellow; font-size: 70px;'> 太慢! </span>","null","html-keyboard-response","35","242530","0.0-8.0-1.0-1.0-0.0-1.12","4","4","4","2","3","4","3","3","5","4","5","1","-2","1","0","-3","1","2","2","4","5","5","4","4","3","4","3","4","3","6","5","4","5","7","5","4","5","5","3","2","5","2","4","4","7","6","5","4","1","5","2","5","5","5","6","4","3","3","4","3","5","2","5","4","5","2","5","6","5","7","3","4","5","4","7","1","7","3","4","789065248304009217","陈","211","Male","[""坏他"",""好我"",""好他"",""坏我""]","[""弱他"",""强我"",""强他"",""弱我""]","","","","","","","","","","","","","","","","","","","","","","","","","","","","","","feedback_test","","","","","","","","",""
"843","","f","psychophysics","36","244373","0.0-8.0-1.0-1.0-0.0-0.13","4","4","4","2","3","4","3","3","5","4","5","1","-2","1","0","-3","1","2","2","4","5","5","4","4","3","4","3","4","3","6","5","4","5","7","5","4","5","5","3","2","5","2","4","4","7","6","5","4","1","5","2","5","5","5","6","4","3","3","4","3","5","2","5","4","5","2","5","6","5","7","3","4","5","4","7","1","7","3","4","789065248304009217","陈","211","Male","[""坏他"",""好我"",""好他"",""坏我""]","[""弱他"",""强我"",""强他"",""弱我""]","","","","","","","","nonmatch","","","","","","","","","","key","f","16.668181818181818","800","446","j","false","match","img/trapezoid.png","弱他","弱他","prac_ALT2_ability","practice_ability","","","","","","","","",""
"null","<span style='color:red; font-size: 70px;'>错误! </span>","null","html-keyboard-response","37","244875","0.0-8.0-1.0-1.0-0.0-1.13","4","4","4","2","3","4","3","3","5","4","5","1","-2","1","0","-3","1","2","2","4","5","5","4","4","3","4","3","4","3","6","5","4","5","7","5","4","5","5","3","2","5","2","4","4","7","6","5","4","1","5","2","5","5","5","6","4","3","3","4","3","5","2","5","4","5","2","5","6","5","7","3","4","5","4","7","1","7","3","4","789065248304009217","陈","211","Male","[""坏他"",""好我"",""好他"",""坏我""]","[""弱他"",""强我"",""强他"",""弱我""]","","","","","","","","","","","","","","","","","","","","","","","","","","","","","","feedback_test","","","","","","","","",""
"null","","null","psychophysics","38","247081","0.0-8.0-1.0-1.0-0.0-0.14","4","4","4","2","3","4","3","3","5","4","5","1","-2","1","0","-3","1","2","2","4","5","5","4","4","3","4","3","4","3","6","5","4","5","7","5","4","5","5","3","2","5","2","4","4","7","6","5","4","1","5","2","5","5","5","6","4","3","3","4","3","5","2","5","4","5","2","5","6","5","7","3","4","5","4","7","1","7","3","4","789065248304009217","陈","211","Male","[""坏他"",""好我"",""好他"",""坏我""]","[""弱他"",""强我"",""强他"",""弱我""]","","","","","","","","null","","","","","","","","","","key","null","16.66793893129771","800","446","j","false","match","img/ellipse.png","弱我","弱我","prac_ALT2_ability","practice_ability","","","","","","","","",""
"null","<span class='add_' style='color:yellow; font-size: 70px;'> 太慢! </span>","null","html-keyboard-response","39","247582","0.0-8.0-1.0-1.0-0.0-1.14","4","4","4","2","3","4","3","3","5","4","5","1","-2","1","0","-3","1","2","2","4","5","5","4","4","3","4","3","4","3","6","5","4","5","7","5","4","5","5","3","2","5","2","4","4","7","6","5","4","1","5","2","5","5","5","6","4","3","3","4","3","5","2","5","4","5","2","5","6","5","7","3","4","5","4","7","1","7","3","4","789065248304009217","陈","211","Male","[""坏他"",""好我"",""好他"",""坏我""]","[""弱他"",""强我"",""强他"",""弱我""]","","","","","","","","","","","","","","","","","","","","","","","","","","","","","","feedback_test","","","","","","","","",""
"1007","","f","psychophysics","40","249591","0.0-8.0-1.0-1.0-0.0-0.15","4","4","4","2","3","4","3","3","5","4","5","1","-2","1","0","-3","1","2","2","4","5","5","4","4","3","4","3","4","3","6","5","4","5","7","5","4","5","5","3","2","5","2","4","4","7","6","5","4","1","5","2","5","5","5","6","4","3","3","4","3","5","2","5","4","5","2","5","6","5","7","3","4","5","4","7","1","7","3","4","789065248304009217","陈","211","Male","[""坏他"",""好我"",""好他"",""坏我""]","[""弱他"",""强我"",""强他"",""弱我""]","","","","","","","","nonmatch","","","","","","","","","","key","f","16.66750000000005","800","446","f","true","nonmatch","img/diamond.png","弱他","强我","prac_ALT2_ability","practice_ability","","","","","","","","",""
"null","<span style='color:GreenYellow; font-size: 70px;'>正确! </span>","null","html-keyboard-response","41","250091","0.0-8.0-1.0-1.0-0.0-1.15","4","4","4","2","3","4","3","3","5","4","5","1","-2","1","0","-3","1","2","2","4","5","5","4","4","3","4","3","4","3","6","5","4","5","7","5","4","5","5","3","2","5","2","4","4","7","6","5","4","1","5","2","5","5","5","6","4","3","3","4","3","5","2","5","4","5","2","5","6","5","7","3","4","5","4","7","1","7","3","4","789065248304009217","陈","211","Male","[""坏他"",""好我"",""好他"",""坏我""]","[""弱他"",""强我"",""强他"",""弱我""]","","","","","","","","","","","","","","","","","","","","","","","","","","","","","","feedback_test","","","","","","","","",""
"707","","j","psychophysics","42","251801","0.0-8.0-1.0-1.0-0.0-0.16","4","4","4","2","3","4","3","3","5","4","5","1","-2","1","0","-3","1","2","2","4","5","5","4","4","3","4","3","4","3","6","5","4","5","7","5","4","5","5","3","2","5","2","4","4","7","6","5","4","1","5","2","5","5","5","6","4","3","3","4","3","5","2","5","4","5","2","5","6","5","7","3","4","5","4","7","1","7","3","4","789065248304009217","陈","211","Male","[""坏他"",""好我"",""好他"",""坏我""]","[""弱他"",""强我"",""强他"",""弱我""]","","","","","","","","match","","","","","","","","","","key","j","16.66930693069313","800","446","f","false","nonmatch","img/ellipse.png","强我","弱我","prac_ALT2_ability","practice_ability","","","","","","","","",""
"null","<span style='color:red; font-size: 70px;'>错误! </span>","null","html-keyboard-response","43","252302","0.0-8.0-1.0-1.0-0.0-1.16","4","4","4","2","3","4","3","3","5","4","5","1","-2","1","0","-3","1","2","2","4","5","5","4","4","3","4","3","4","3","6","5","4","5","7","5","4","5","5","3","2","5","2","4","4","7","6","5","4","1","5","2","5","5","5","6","4","3","3","4","3","5","2","5","4","5","2","5","6","5","7","3","4","5","4","7","1","7","3","4","789065248304009217","陈","211","Male","[""坏他"",""好我"",""好他"",""坏我""]","[""弱他"",""强我"",""强他"",""弱我""]","","","","","","","","","","","","","","","","","","","","","","","","","","","","","","feedback_test","","","","","","","","",""
"null","","null","psychophysics","44","254507","0.0-8.0-1.0-1.0-0.0-0.17","4","4","4","2","3","4","3","3","5","4","5","1","-2","1","0","-3","1","2","2","4","5","5","4","4","3","4","3","4","3","6","5","4","5","7","5","4","5","5","3","2","5","2","4","4","7","6","5","4","1","5","2","5","5","5","6","4","3","3","4","3","5","2","5","4","5","2","5","6","5","7","3","4","5","4","7","1","7","3","4","789065248304009217","陈","211","Male","[""坏他"",""好我"",""好他"",""坏我""]","[""弱他"",""强我"",""强他"",""弱我""]","","","","","","","","null","","","","","","","","","","key","null","16.66717557251904","800","446","f","false","nonmatch","img/pentagon.png","弱他","强他","prac_ALT2_ability","practice_ability","","","","","","","","",""
"null","<span class='add_' style='color:yellow; font-size: 70px;'> 太慢! </span>","null","html-keyboard-response","45","255009","0.0-8.0-1.0-1.0-0.0-1.17","4","4","4","2","3","4","3","3","5","4","5","1","-2","1","0","-3","1","2","2","4","5","5","4","4","3","4","3","4","3","6","5","4","5","7","5","4","5","5","3","2","5","2","4","4","7","6","5","4","1","5","2","5","5","5","6","4","3","3","4","3","5","2","5","4","5","2","5","6","5","7","3","4","5","4","7","1","7","3","4","789065248304009217","陈","211","Male","[""坏他"",""好我"",""好他"",""坏我""]","[""弱他"",""强我"",""强他"",""弱我""]","","","","","","","","","","","","","","","","","","","","","","","","","","","","","","feedback_test","","","","","","","","",""
"null","","null","psychophysics","46","257212","0.0-8.0-1.0-1.0-0.0-0.18","4","4","4","2","3","4","3","3","5","4","5","1","-2","1","0","-3","1","2","2","4","5","5","4","4","3","4","3","4","3","6","5","4","5","7","5","4","5","5","3","2","5","2","4","4","7","6","5","4","1","5","2","5","5","5","6","4","3","3","4","3","5","2","5","4","5","2","5","6","5","7","3","4","5","4","7","1","7","3","4","789065248304009217","陈","211","Male","[""坏他"",""好我"",""好他"",""坏我""]","[""弱他"",""强我"",""强他"",""弱我""]","","","","","","","","null","","","","","","","","","","key","null","16.66717557251904","800","446","j","false","match","img/ellipse.png","弱我","弱我","prac_ALT2_ability","practice_ability","","","","","","","","",""
"null","<span class='add_' style='color:yellow; font-size: 70px;'> 太慢! </span>","null","html-keyboard-response","47","257713","0.0-8.0-1.0-1.0-0.0-1.18","4","4","4","2","3","4","3","3","5","4","5","1","-2","1","0","-3","1","2","2","4","5","5","4","4","3","4","3","4","3","6","5","4","5","7","5","4","5","5","3","2","5","2","4","4","7","6","5","4","1","5","2","5","5","5","6","4","3","3","4","3","5","2","5","4","5","2","5","6","5","7","3","4","5","4","7","1","7","3","4","789065248304009217","陈","211","Male","[""坏他"",""好我"",""好他"",""坏我""]","[""弱他"",""强我"",""强他"",""弱我""]","","","","","","","","","","","","","","","","","","","","","","","","","","","","","","feedback_test","","","","","","","","",""
"null","","null","psychophysics","48","259919","0.0-8.0-1.0-1.0-0.0-0.19","4","4","4","2","3","4","3","3","5","4","5","1","-2","1","0","-3","1","2","2","4","5","5","4","4","3","4","3","4","3","6","5","4","5","7","5","4","5","5","3","2","5","2","4","4","7","6","5","4","1","5","2","5","5","5","6","4","3","3","4","3","5","2","5","4","5","2","5","6","5","7","3","4","5","4","7","1","7","3","4","789065248304009217","陈","211","Male","[""坏他"",""好我"",""好他"",""坏我""]","[""弱他"",""强我"",""强他"",""弱我""]","","","","","","","","null","","","","","","","","","","key","null","16.665648854961923","800","446","f","false","nonmatch","img/trapezoid.png","弱我","弱他","prac_ALT2_ability","practice_ability","","","","","","","","",""
"null","<span class='add_' style='color:yellow; font-size: 70px;'> 太慢! </span>","null","html-keyboard-response","49","260420","0.0-8.0-1.0-1.0-0.0-1.19","4","4","4","2","3","4","3","3","5","4","5","1","-2","1","0","-3","1","2","2","4","5","5","4","4","3","4","3","4","3","6","5","4","5","7","5","4","5","5","3","2","5","2","4","4","7","6","5","4","1","5","2","5","5","5","6","4","3","3","4","3","5","2","5","4","5","2","5","6","5","7","3","4","5","4","7","1","7","3","4","789065248304009217","陈","211","Male","[""坏他"",""好我"",""好他"",""坏我""]","[""弱他"",""强我"",""强他"",""弱我""]","","","","","","","","","","","","","","","","","","","","","","","","","","","","","","feedback_test","","","","","","","","",""
"null","","null","psychophysics","50","262625","0.0-8.0-1.0-1.0-0.0-0.20","4","4","4","2","3","4","3","3","5","4","5","1","-2","1","0","-3","1","2","2","4","5","5","4","4","3","4","3","4","3","6","5","4","5","7","5","4","5","5","3","2","5","2","4","4","7","6","5","4","1","5","2","5","5","5","6","4","3","3","4","3","5","2","5","4","5","2","5","6","5","7","3","4","5","4","7","1","7","3","4","789065248304009217","陈","211","Male","[""坏他"",""好我"",""好他"",""坏我""]","[""弱他"",""强我"",""强他"",""弱我""]","","","","","","","","null","","","","","","","","","","key","null","16.66793893129771","800","446","j","false","match","img/trapezoid.png","弱他","弱他","prac_ALT2_ability","practice_ability","","","","","","","","",""
"null","<span class='add_' style='color:yellow; font-size: 70px;'> 太慢! </span>","null","html-keyboard-response","51","263126","0.0-8.0-1.0-1.0-0.0-1.20","4","4","4","2","3","4","3","3","5","4","5","1","-2","1","0","-3","1","2","2","4","5","5","4","4","3","4","3","4","3","6","5","4","5","7","5","4","5","5","3","2","5","2","4","4","7","6","5","4","1","5","2","5","5","5","6","4","3","3","4","3","5","2","5","4","5","2","5","6","5","7","3","4","5","4","7","1","7","3","4","789065248304009217","陈","211","Male","[""坏他"",""好我"",""好他"",""坏我""]","[""弱他"",""强我"",""强他"",""弱我""]","","","","","","","","","","","","","","","","","","","","","","","","","","","","","","feedback_test","","","","","","","","",""
"1021","","f","psychophysics","52","265150","0.0-8.0-1.0-1.0-0.0-0.21","4","4","4","2","3","4","3","3","5","4","5","1","-2","1","0","-3","1","2","2","4","5","5","4","4","3","4","3","4","3","6","5","4","5","7","5","4","5","5","3","2","5","2","4","4","7","6","5","4","1","5","2","5","5","5","6","4","3","3","4","3","5","2","5","4","5","2","5","6","5","7","3","4","5","4","7","1","7","3","4","789065248304009217","陈","211","Male","[""坏他"",""好我"",""好他"",""坏我""]","[""弱他"",""强我"",""强他"",""弱我""]","","","","","","","","nonmatch","","","","","","","","","","key","f","16.666666666666668","800","446","f","true","nonmatch","img/ellipse.png","强他","弱我","prac_ALT2_ability","practice_ability","","","","","","","","",""
"null","<span style='color:GreenYellow; font-size: 70px;'>正确! </span>","null","html-keyboard-response","53","265652","0.0-8.0-1.0-1.0-0.0-1.21","4","4","4","2","3","4","3","3","5","4","5","1","-2","1","0","-3","1","2","2","4","5","5","4","4","3","4","3","4","3","6","5","4","5","7","5","4","5","5","3","2","5","2","4","4","7","6","5","4","1","5","2","5","5","5","6","4","3","3","4","3","5","2","5","4","5","2","5","6","5","7","3","4","5","4","7","1","7","3","4","789065248304009217","陈","211","Male","[""坏他"",""好我"",""好他"",""坏我""]","[""弱他"",""强我"",""强他"",""弱我""]","","","","","","","","","","","","","","","","","","","","","","","","","","","","","","feedback_test","","","","","","","","",""
"794","","j","psychophysics","54","267447","0.0-8.0-1.0-1.0-0.0-0.22","4","4","4","2","3","4","3","3","5","4","5","1","-2","1","0","-3","1","2","2","4","5","5","4","4","3","4","3","4","3","6","5","4","5","7","5","4","5","5","3","2","5","2","4","4","7","6","5","4","1","5","2","5","5","5","6","4","3","3","4","3","5","2","5","4","5","2","5","6","5","7","3","4","5","4","7","1","7","3","4","789065248304009217","陈","211","Male","[""坏他"",""好我"",""好他"",""坏我""]","[""弱他"",""强我"",""强他"",""弱我""]","","","","","","","","match","","","","","","","","","","key","j","16.667924528302326","800","446","f","false","nonmatch","img/diamond.png","弱我","强我","prac_ALT2_ability","practice_ability","","","","","","","","",""
"null","<span style='color:red; font-size: 70px;'>错误! </span>","null","html-keyboard-response","55","267948","0.0-8.0-1.0-1.0-0.0-1.22","4","4","4","2","3","4","3","3","5","4","5","1","-2","1","0","-3","1","2","2","4","5","5","4","4","3","4","3","4","3","6","5","4","5","7","5","4","5","5","3","2","5","2","4","4","7","6","5","4","1","5","2","5","5","5","6","4","3","3","4","3","5","2","5","4","5","2","5","6","5","7","3","4","5","4","7","1","7","3","4","789065248304009217","陈","211","Male","[""坏他"",""好我"",""好他"",""坏我""]","[""弱他"",""强我"",""强他"",""弱我""]","","","","","","","","","","","","","","","","","","","","","","","","","","","","","","feedback_test","","","","","","","","",""
"1170","","f","psychophysics","56","270120","0.0-8.0-1.0-1.0-0.0-0.23","4","4","4","2","3","4","3","3","5","4","5","1","-2","1","0","-3","1","2","2","4","5","5","4","4","3","4","3","4","3","6","5","4","5","7","5","4","5","5","3","2","5","2","4","4","7","6","5","4","1","5","2","5","5","5","6","4","3","3","4","3","5","2","5","4","5","2","5","6","5","7","3","4","5","4","7","1","7","3","4","789065248304009217","陈","211","Male","[""坏他"",""好我"",""好他"",""坏我""]","[""弱他"",""强我"",""强他"",""弱我""]","","","","","","","","nonmatch","","","","","","","","","","key","f","16.666923076923165","800","446","f","true","nonmatch","img/ellipse.png","弱他","弱我","prac_ALT2_ability","practice_ability","","","","","","","","",""
"null","<span style='color:GreenYellow; font-size: 70px;'>正确! </span>","null","html-keyboard-response","57","270622","0.0-8.0-1.0-1.0-0.0-1.23","4","4","4","2","3","4","3","3","5","4","5","1","-2","1","0","-3","1","2","2","4","5","5","4","4","3","4","3","4","3","6","5","4","5","7","5","4","5","5","3","2","5","2","4","4","7","6","5","4","1","5","2","5","5","5","6","4","3","3","4","3","5","2","5","4","5","2","5","6","5","7","3","4","5","4","7","1","7","3","4","789065248304009217","陈","211","Male","[""坏他"",""好我"",""好他"",""坏我""]","[""弱他"",""强我"",""强他"",""弱我""]","","","","","","","","","","","","","","","","","","","","","","","","","","","","","","feedback_test","","","","","","","","",""
"1087","","j","psychophysics","58","272714","0.0-8.0-1.0-1.0-0.0-0.24","4","4","4","2","3","4","3","3","5","4","5","1","-2","1","0","-3","1","2","2","4","5","5","4","4","3","4","3","4","3","6","5","4","5","7","5","4","5","5","3","2","5","2","4","4","7","6","5","4","1","5","2","5","5","5","6","4","3","3","4","3","5","2","5","4","5","2","5","6","5","7","3","4","5","4","7","1","7","3","4","789065248304009217","陈","211","Male","[""坏他"",""好我"",""好他"",""坏我""]","[""弱他"",""强我"",""强他"",""弱我""]","","","","","","","","match","","","","","","","","","","key","j","16.66693548387106","800","446","j","true","match","img/pentagon.png","强他","强他","prac_ALT2_ability","practice_ability","","","","","","","","",""
"null","<span style='color:GreenYellow; font-size: 70px;'>正确! </span>","null","html-keyboard-response","59","273215","0.0-8.0-1.0-1.0-0.0-1.24","4","4","4","2","3","4","3","3","5","4","5","1","-2","1","0","-3","1","2","2","4","5","5","4","4","3","4","3","4","3","6","5","4","5","7","5","4","5","5","3","2","5","2","4","4","7","6","5","4","1","5","2","5","5","5","6","4","3","3","4","3","5","2","5","4","5","2","5","6","5","7","3","4","5","4","7","1","7","3","4","789065248304009217","陈","211","Male","[""坏他"",""好我"",""好他"",""坏我""]","[""弱他"",""强我"",""强他"",""弱我""]","","","","","","","","","","","","","","","","","","","","","","","","","","","","","","feedback_test","","","","","","","","",""
"948","","f","psychophysics","60","275165","0.0-8.0-1.0-1.0-0.0-0.25","4","4","4","2","3","4","3","3","5","4","5","1","-2","1","0","-3","1","2","2","4","5","5","4","4","3","4","3","4","3","6","5","4","5","7","5","4","5","5","3","2","5","2","4","4","7","6","5","4","1","5","2","5","5","5","6","4","3","3","4","3","5","2","5","4","5","2","5","6","5","7","3","4","5","4","7","1","7","3","4","789065248304009217","陈","211","Male","[""坏他"",""好我"",""好他"",""坏我""]","[""弱他"",""强我"",""强他"",""弱我""]","","","","","","","","nonmatch","","","","","","","","","","key","f","16.664655172414093","800","446","f","true","nonmatch","img/trapezoid.png","强我","弱他","prac_ALT2_ability","practice_ability","","","","","","","","",""
"null","<span style='color:GreenYellow; font-size: 70px;'>正确! </span>","null","html-keyboard-response","61","275666","0.0-8.0-1.0-1.0-0.0-1.25","4","4","4","2","3","4","3","3","5","4","5","1","-2","1","0","-3","1","2","2","4","5","5","4","4","3","4","3","4","3","6","5","4","5","7","5","4","5","5","3","2","5","2","4","4","7","6","5","4","1","5","2","5","5","5","6","4","3","3","4","3","5","2","5","4","5","2","5","6","5","7","3","4","5","4","7","1","7","3","4","789065248304009217","陈","211","Male","[""坏他"",""好我"",""好他"",""坏我""]","[""弱他"",""强我"",""强他"",""弱我""]","","","","","","","","","","","","","","","","","","","","","","","","","","","","","","feedback_test","","","","","","","","",""
"963","","f","psychophysics","62","277631","0.0-8.0-1.0-1.0-0.0-0.26","4","4","4","2","3","4","3","3","5","4","5","1","-2","1","0","-3","1","2","2","4","5","5","4","4","3","4","3","4","3","6","5","4","5","7","5","4","5","5","3","2","5","2","4","4","7","6","5","4","1","5","2","5","5","5","6","4","3","3","4","3","5","2","5","4","5","2","5","6","5","7","3","4","5","4","7","1","7","3","4","789065248304009217","陈","211","Male","[""坏他"",""好我"",""好他"",""坏我""]","[""弱他"",""强我"",""强他"",""弱我""]","","","","","","","","nonmatch","","","","","","","","","","key","f","16.665517241378907","800","446","f","true","nonmatch","img/trapezoid.png","弱我","弱他","prac_ALT2_ability","practice_ability","","","","","","","","",""
"null","<span style='color:GreenYellow; font-size: 70px;'>正确! </span>","null","html-keyboard-response","63","278132","0.0-8.0-1.0-1.0-0.0-1.26","4","4","4","2","3","4","3","3","5","4","5","1","-2","1","0","-3","1","2","2","4","5","5","4","4","3","4","3","4","3","6","5","4","5","7","5","4","5","5","3","2","5","2","4","4","7","6","5","4","1","5","2","5","5","5","6","4","3","3","4","3","5","2","5","4","5","2","5","6","5","7","3","4","5","4","7","1","7","3","4","789065248304009217","陈","211","Male","[""坏他"",""好我"",""好他"",""坏我""]","[""弱他"",""强我"",""强他"",""弱我""]","","","","","","","","","","","","","","","","","","","","","","","","","","","","","","feedback_test","","","","","","","","",""
"823","","f","psychophysics","64","279955","0.0-8.0-1.0-1.0-0.0-0.27","4","4","4","2","3","4","3","3","5","4","5","1","-2","1","0","-3","1","2","2","4","5","5","4","4","3","4","3","4","3","6","5","4","5","7","5","4","5","5","3","2","5","2","4","4","7","6","5","4","1","5","2","5","5","5","6","4","3","3","4","3","5","2","5","4","5","2","5","6","5","7","3","4","5","4","7","1","7","3","4","789065248304009217","陈","211","Male","[""坏他"",""好我"",""好他"",""坏我""]","[""弱他"",""强我"",""强他"",""弱我""]","","","","","","","","nonmatch","","","","","","","","","","key","f","16.667889908256775","800","446","j","false","match","img/pentagon.png","强他","强他","prac_ALT2_ability","practice_ability","","","","","","","","",""
"null","<span style='color:red; font-size: 70px;'>错误! </span>","null","html-keyboard-response","65","280456","0.0-8.0-1.0-1.0-0.0-1.27","4","4","4","2","3","4","3","3","5","4","5","1","-2","1","0","-3","1","2","2","4","5","5","4","4","3","4","3","4","3","6","5","4","5","7","5","4","5","5","3","2","5","2","4","4","7","6","5","4","1","5","2","5","5","5","6","4","3","3","4","3","5","2","5","4","5","2","5","6","5","7","3","4","5","4","7","1","7","3","4","789065248304009217","陈","211","Male","[""坏他"",""好我"",""好他"",""坏我""]","[""弱他"",""强我"",""强他"",""弱我""]","","","","","","","","","","","","","","","","","","","","","","","","","","","","","","feedback_test","","","","","","","","",""
"426","","j","psychophysics","66","281885","0.0-8.0-1.0-1.0-0.0-0.28","4","4","4","2","3","4","3","3","5","4","5","1","-2","1","0","-3","1","2","2","4","5","5","4","4","3","4","3","4","3","6","5","4","5","7","5","4","5","5","3","2","5","2","4","4","7","6","5","4","1","5","2","5","5","5","6","4","3","3","4","3","5","2","5","4","5","2","5","6","5","7","3","4","5","4","7","1","7","3","4","789065248304009217","陈","211","Male","[""坏他"",""好我"",""好他"",""坏我""]","[""弱他"",""强我"",""强他"",""弱我""]","","","","","","","","match","","","","","","","","","","key","j","16.66785714285756","800","446","j","true","match","img/ellipse.png","弱我","弱我","prac_ALT2_ability","practice_ability","","","","","","","","",""
"null","<span style='color:GreenYellow; font-size: 70px;'>正确! </span>","null","html-keyboard-response","67","282386","0.0-8.0-1.0-1.0-0.0-1.28","4","4","4","2","3","4","3","3","5","4","5","1","-2","1","0","-3","1","2","2","4","5","5","4","4","3","4","3","4","3","6","5","4","5","7","5","4","5","5","3","2","5","2","4","4","7","6","5","4","1","5","2","5","5","5","6","4","3","3","4","3","5","2","5","4","5","2","5","6","5","7","3","4","5","4","7","1","7","3","4","789065248304009217","陈","211","Male","[""坏他"",""好我"",""好他"",""坏我""]","[""弱他"",""强我"",""强他"",""弱我""]","","","","","","","","","","","","","","","","","","","","","","","","","","","","","","feedback_test","","","","","","","","",""
"725","","j","psychophysics","68","284113","0.0-8.0-1.0-1.0-0.0-0.29","4","4","4","2","3","4","3","3","5","4","5","1","-2","1","0","-3","1","2","2","4","5","5","4","4","3","4","3","4","3","6","5","4","5","7","5","4","5","5","3","2","5","2","4","4","7","6","5","4","1","5","2","5","5","5","6","4","3","3","4","3","5","2","5","4","5","2","5","6","5","7","3","4","5","4","7","1","7","3","4","789065248304009217","陈","211","Male","[""坏他"",""好我"",""好他"",""坏我""]","[""弱他"",""强我"",""强他"",""弱我""]","","","","","","","","match","","","","","","","","","","key","j","16.666666666666668","800","446","j","true","match","img/diamond.png","强我","强我","prac_ALT2_ability","practice_ability","","","","","","","","",""
"null","<span style='color:GreenYellow; font-size: 70px;'>正确! </span>","null","html-keyboard-response","69","284614","0.0-8.0-1.0-1.0-0.0-1.29","4","4","4","2","3","4","3","3","5","4","5","1","-2","1","0","-3","1","2","2","4","5","5","4","4","3","4","3","4","3","6","5","4","5","7","5","4","5","5","3","2","5","2","4","4","7","6","5","4","1","5","2","5","5","5","6","4","3","3","4","3","5","2","5","4","5","2","5","6","5","7","3","4","5","4","7","1","7","3","4","789065248304009217","陈","211","Male","[""坏他"",""好我"",""好他"",""坏我""]","[""弱他"",""强我"",""强他"",""弱我""]","","","","","","","","","","","","","","","","","","","","","","","","","","","","","","feedback_test","","","","","","","","",""
"879","","j","psychophysics","70","286493","0.0-8.0-1.0-1.0-0.0-0.30","4","4","4","2","3","4","3","3","5","4","5","1","-2","1","0","-3","1","2","2","4","5","5","4","4","3","4","3","4","3","6","5","4","5","7","5","4","5","5","3","2","5","2","4","4","7","6","5","4","1","5","2","5","5","5","6","4","3","3","4","3","5","2","5","4","5","2","5","6","5","7","3","4","5","4","7","1","7","3","4","789065248304009217","陈","211","Male","[""坏他"",""好我"",""好他"",""坏我""]","[""弱他"",""强我"",""强他"",""弱我""]","","","","","","","","match","","","","","","","","","","key","j","16.66875000000021","800","446","j","true","match","img/ellipse.png","弱我","弱我","prac_ALT2_ability","practice_ability","","","","","","","","",""
"null","<span style='color:GreenYellow; font-size: 70px;'>正确! </span>","null","html-keyboard-response","71","286994","0.0-8.0-1.0-1.0-0.0-1.30","4","4","4","2","3","4","3","3","5","4","5","1","-2","1","0","-3","1","2","2","4","5","5","4","4","3","4","3","4","3","6","5","4","5","7","5","4","5","5","3","2","5","2","4","4","7","6","5","4","1","5","2","5","5","5","6","4","3","3","4","3","5","2","5","4","5","2","5","6","5","7","3","4","5","4","7","1","7","3","4","789065248304009217","陈","211","Male","[""坏他"",""好我"",""好他"",""坏我""]","[""弱他"",""强我"",""强他"",""弱我""]","","","","","","","","","","","","","","","","","","","","","","","","","","","","","","feedback_test","","","","","","","","",""
"1068","","j","psychophysics","72","289064","0.0-8.0-1.0-1.0-0.0-0.31","4","4","4","2","3","4","3","3","5","4","5","1","-2","1","0","-3","1","2","2","4","5","5","4","4","3","4","3","4","3","6","5","4","5","7","5","4","5","5","3","2","5","2","4","4","7","6","5","4","1","5","2","5","5","5","6","4","3","3","4","3","5","2","5","4","5","2","5","6","5","7","3","4","5","4","7","1","7","3","4","789065248304009217","陈","211","Male","[""坏他"",""好我"",""好他"",""坏我""]","[""弱他"",""强我"",""强他"",""弱我""]","","","","","","","","match","","","","","","","","","","key","j","16.66747967479656","800","446","f","false","nonmatch","img/diamond.png","弱我","强我","prac_ALT2_ability","practice_ability","","","","","","","","",""
"null","<span style='color:red; font-size: 70px;'>错误! </span>","null","html-keyboard-response","73","289564","0.0-8.0-1.0-1.0-0.0-1.31","4","4","4","2","3","4","3","3","5","4","5","1","-2","1","0","-3","1","2","2","4","5","5","4","4","3","4","3","4","3","6","5","4","5","7","5","4","5","5","3","2","5","2","4","4","7","6","5","4","1","5","2","5","5","5","6","4","3","3","4","3","5","2","5","4","5","2","5","6","5","7","3","4","5","4","7","1","7","3","4","789065248304009217","陈","211","Male","[""坏他"",""好我"",""好他"",""坏我""]","[""弱他"",""强我"",""强他"",""弱我""]","","","","","","","","","","","","","","","","","","","","","","","","","","","","","","feedback_test","","","","","","","","",""
"988","","j","psychophysics","74","291553","0.0-8.0-1.0-1.0-0.0-0.32","4","4","4","2","3","4","3","3","5","4","5","1","-2","1","0","-3","1","2","2","4","5","5","4","4","3","4","3","4","3","6","5","4","5","7","5","4","5","5","3","2","5","2","4","4","7","6","5","4","1","5","2","5","5","5","6","4","3","3","4","3","5","2","5","4","5","2","5","6","5","7","3","4","5","4","7","1","7","3","4","789065248304009217","陈","211","Male","[""坏他"",""好我"",""好他"",""坏我""]","[""弱他"",""强我"",""强他"",""弱我""]","","","","","","","","match","","","","","","","","","","key","j","16.666386554621752","800","446","f","false","nonmatch","img/ellipse.png","强他","弱我","prac_ALT2_ability","practice_ability","","","","","","","","",""
"null","<span style='color:red; font-size: 70px;'>错误! </span>","null","html-keyboard-response","75","292053","0.0-8.0-1.0-1.0-0.0-1.32","4","4","4","2","3","4","3","3","5","4","5","1","-2","1","0","-3","1","2","2","4","5","5","4","4","3","4","3","4","3","6","5","4","5","7","5","4","5","5","3","2","5","2","4","4","7","6","5","4","1","5","2","5","5","5","6","4","3","3","4","3","5","2","5","4","5","2","5","6","5","7","3","4","5","4","7","1","7","3","4","789065248304009217","陈","211","Male","[""坏他"",""好我"",""好他"",""坏我""]","[""弱他"",""强我"",""强他"",""弱我""]","","","","","","","","","","","","","","","","","","","","","","","","","","","","","","feedback_test","","","","","","","","",""
"730","","j","psychophysics","76","293785","0.0-8.0-1.0-1.0-0.0-0.33","4","4","4","2","3","4","3","3","5","4","5","1","-2","1","0","-3","1","2","2","4","5","5","4","4","3","4","3","4","3","6","5","4","5","7","5","4","5","5","3","2","5","2","4","4","7","6","5","4","1","5","2","5","5","5","6","4","3","3","4","3","5","2","5","4","5","2","5","6","5","7","3","4","5","4","7","1","7","3","4","789065248304009217","陈","211","Male","[""坏他"",""好我"",""好他"",""坏我""]","[""弱他"",""强我"",""强他"",""弱我""]","","","","","","","","match","","","","","","","","","","key","j","16.666666666666668","800","446","j","true","match","img/ellipse.png","弱我","弱我","prac_ALT2_ability","practice_ability","","","","","","","","",""
"null","<span style='color:GreenYellow; font-size: 70px;'>正确! </span>","null","html-keyboard-response","77","294286","0.0-8.0-1.0-1.0-0.0-1.33","4","4","4","2","3","4","3","3","5","4","5","1","-2","1","0","-3","1","2","2","4","5","5","4","4","3","4","3","4","3","6","5","4","5","7","5","4","5","5","3","2","5","2","4","4","7","6","5","4","1","5","2","5","5","5","6","4","3","3","4","3","5","2","5","4","5","2","5","6","5","7","3","4","5","4","7","1","7","3","4","789065248304009217","陈","211","Male","[""坏他"",""好我"",""好他"",""坏我""]","[""弱他"",""强我"",""强他"",""弱我""]","","","","","","","","","","","","","","","","","","","","","","","","","","","","","","feedback_test","","","","","","","","",""
"943","","f","psychophysics","78","296231","0.0-8.0-1.0-1.0-0.0-0.34","4","4","4","2","3","4","3","3","5","4","5","1","-2","1","0","-3","1","2","2","4","5","5","4","4","3","4","3","4","3","6","5","4","5","7","5","4","5","5","3","2","5","2","4","4","7","6","5","4","1","5","2","5","5","5","6","4","3","3","4","3","5","2","5","4","5","2","5","6","5","7","3","4","5","4","7","1","7","3","4","789065248304009217","陈","211","Male","[""坏他"",""好我"",""好他"",""坏我""]","[""弱他"",""强我"",""强他"",""弱我""]","","","","","","","","nonmatch","","","","","","","","","","key","f","16.666956521738726","800","446","f","true","nonmatch","img/ellipse.png","强我","弱我","prac_ALT2_ability","practice_ability","","","","","","","","",""
"null","<span style='color:GreenYellow; font-size: 70px;'>正确! </span>","null","html-keyboard-response","79","296733","0.0-8.0-1.0-1.0-0.0-1.34","4","4","4","2","3","4","3","3","5","4","5","1","-2","1","0","-3","1","2","2","4","5","5","4","4","3","4","3","4","3","6","5","4","5","7","5","4","5","5","3","2","5","2","4","4","7","6","5","4","1","5","2","5","5","5","6","4","3","3","4","3","5","2","5","4","5","2","5","6","5","7","3","4","5","4","7","1","7","3","4","789065248304009217","陈","211","Male","[""坏他"",""好我"",""好他"",""坏我""]","[""弱他"",""强我"",""强他"",""弱我""]","","","","","","","","","","","","","","","","","","","","","","","","","","","","","","feedback_test","","","","","","","","",""
"745","","f","psychophysics","80","298480","0.0-8.0-1.0-1.0-0.0-0.35","4","4","4","2","3","4","3","3","5","4","5","1","-2","1","0","-3","1","2","2","4","5","5","4","4","3","4","3","4","3","6","5","4","5","7","5","4","5","5","3","2","5","2","4","4","7","6","5","4","1","5","2","5","5","5","6","4","3","3","4","3","5","2","5","4","5","2","5","6","5","7","3","4","5","4","7","1","7","3","4","789065248304009217","陈","211","Male","[""坏他"",""好我"",""好他"",""坏我""]","[""弱他"",""强我"",""强他"",""弱我""]","","","","","","","","nonmatch","","","","","","","","","","key","f","16.667307692307357","800","446","f","true","nonmatch","img/diamond.png","弱他","强我","prac_ALT2_ability","practice_ability","","","","","","","","",""
"null","<span style='color:GreenYellow; font-size: 70px;'>正确! </span>","null","html-keyboard-response","81","298981","0.0-8.0-1.0-1.0-0.0-1.35","4","4","4","2","3","4","3","3","5","4","5","1","-2","1","0","-3","1","2","2","4","5","5","4","4","3","4","3","4","3","6","5","4","5","7","5","4","5","5","3","2","5","2","4","4","7","6","5","4","1","5","2","5","5","5","6","4","3","3","4","3","5","2","5","4","5","2","5","6","5","7","3","4","5","4","7","1","7","3","4","789065248304009217","陈","211","Male","[""坏他"",""好我"",""好他"",""坏我""]","[""弱他"",""强我"",""强他"",""弱我""]","","","","","","","","","","","","","","","","","","","","","","","","","","","","","","feedback_test","","","","","","","","",""
"1126","","f","psychophysics","82","301110","0.0-8.0-1.0-1.0-0.0-0.36","4","4","4","2","3","4","3","3","5","4","5","1","-2","1","0","-3","1","2","2","4","5","5","4","4","3","4","3","4","3","6","5","4","5","7","5","4","5","5","3","2","5","2","4","4","7","6","5","4","1","5","2","5","5","5","6","4","3","3","4","3","5","2","5","4","5","2","5","6","5","7","3","4","5","4","7","1","7","3","4","789065248304009217","陈","211","Male","[""坏他"",""好我"",""好他"",""坏我""]","[""弱他"",""强我"",""强他"",""弱我""]","","","","","","","","nonmatch","","","","","","","","","","key","f","16.66692913385836","800","446","j","false","match","img/trapezoid.png","弱他","弱他","prac_ALT2_ability","practice_ability","","","","","","","","",""
"null","<span style='color:red; font-size: 70px;'>错误! </span>","null","html-keyboard-response","83","301612","0.0-8.0-1.0-1.0-0.0-1.36","4","4","4","2","3","4","3","3","5","4","5","1","-2","1","0","-3","1","2","2","4","5","5","4","4","3","4","3","4","3","6","5","4","5","7","5","4","5","5","3","2","5","2","4","4","7","6","5","4","1","5","2","5","5","5","6","4","3","3","4","3","5","2","5","4","5","2","5","6","5","7","3","4","5","4","7","1","7","3","4","789065248304009217","陈","211","Male","[""坏他"",""好我"",""好他"",""坏我""]","[""弱他"",""强我"",""强他"",""弱我""]","","","","","","","","","","","","","","","","","","","","","","","","","","","","","","feedback_test","","","","","","","","",""
"null","","null","psychophysics","84","303814","0.0-8.0-1.0-1.0-0.0-0.37","4","4","4","2","3","4","3","3","5","4","5","1","-2","1","0","-3","1","2","2","4","5","5","4","4","3","4","3","4","3","6","5","4","5","7","5","4","5","5","3","2","5","2","4","4","7","6","5","4","1","5","2","5","5","5","6","4","3","3","4","3","5","2","5","4","5","2","5","6","5","7","3","4","5","4","7","1","7","3","4","789065248304009217","陈","211","Male","[""坏他"",""好我"",""好他"",""坏我""]","[""弱他"",""强我"",""强他"",""弱我""]","","","","","","","","null","","","","","","","","","","key","null","16.66641221374037","800","446","f","false","nonmatch","img/ellipse.png","弱他","弱我","prac_ALT2_ability","practice_ability","","","","","","","","",""
"null","<span class='add_' style='color:yellow; font-size: 70px;'> 太慢! </span>","null","html-keyboard-response","85","304315","0.0-8.0-1.0-1.0-0.0-1.37","4","4","4","2","3","4","3","3","5","4","5","1","-2","1","0","-3","1","2","2","4","5","5","4","4","3","4","3","4","3","6","5","4","5","7","5","4","5","5","3","2","5","2","4","4","7","6","5","4","1","5","2","5","5","5","6","4","3","3","4","3","5","2","5","4","5","2","5","6","5","7","3","4","5","4","7","1","7","3","4","789065248304009217","陈","211","Male","[""坏他"",""好我"",""好他"",""坏我""]","[""弱他"",""强我"",""强他"",""弱我""]","","","","","","","","","","","","","","","","","","","","","","","","","","","","","","feedback_test","","","","","","","","",""
"null","","null","psychophysics","86","306517","0.0-8.0-1.0-1.0-0.0-0.38","4","4","4","2","3","4","3","3","5","4","5","1","-2","1","0","-3","1","2","2","4","5","5","4","4","3","4","3","4","3","6","5","4","5","7","5","4","5","5","3","2","5","2","4","4","7","6","5","4","1","5","2","5","5","5","6","4","3","3","4","3","5","2","5","4","5","2","5","6","5","7","3","4","5","4","7","1","7","3","4","789065248304009217","陈","211","Male","[""坏他"",""好我"",""好他"",""坏我""]","[""弱他"",""强我"",""强他"",""弱我""]","","","","","","","","null","","","","","","","","","","key","null","16.667175572519263","800","446","f","false","nonmatch","img/pentagon.png","弱我","强他","prac_ALT2_ability","practice_ability","","","","","","","","",""
"null","<span class='add_' style='color:yellow; font-size: 70px;'> 太慢! </span>","null","html-keyboard-response","87","307019","0.0-8.0-1.0-1.0-0.0-1.38","4","4","4","2","3","4","3","3","5","4","5","1","-2","1","0","-3","1","2","2","4","5","5","4","4","3","4","3","4","3","6","5","4","5","7","5","4","5","5","3","2","5","2","4","4","7","6","5","4","1","5","2","5","5","5","6","4","3","3","4","3","5","2","5","4","5","2","5","6","5","7","3","4","5","4","7","1","7","3","4","789065248304009217","陈","211","Male","[""坏他"",""好我"",""好他"",""坏我""]","[""弱他"",""强我"",""强他"",""弱我""]","","","","","","","","","","","","","","","","","","","","","","","","","","","","","","feedback_test","","","","","","","","",""
"908","","f","psychophysics","88","308929","0.0-8.0-1.0-1.0-0.0-0.39","4","4","4","2","3","4","3","3","5","4","5","1","-2","1","0","-3","1","2","2","4","5","5","4","4","3","4","3","4","3","6","5","4","5","7","5","4","5","5","3","2","5","2","4","4","7","6","5","4","1","5","2","5","5","5","6","4","3","3","4","3","5","2","5","4","5","2","5","6","5","7","3","4","5","4","7","1","7","3","4","789065248304009217","陈","211","Male","[""坏他"",""好我"",""好他"",""坏我""]","[""弱他"",""强我"",""强他"",""弱我""]","","","","","","","","nonmatch","","","","","","","","","","key","f","16.66725663716783","800","446","f","true","nonmatch","img/diamond.png","强他","强我","prac_ALT2_ability","practice_ability","","","","","","","","",""
"null","<span style='color:GreenYellow; font-size: 70px;'>正确! </span>","null","html-keyboard-response","89","309431","0.0-8.0-1.0-1.0-0.0-1.39","4","4","4","2","3","4","3","3","5","4","5","1","-2","1","0","-3","1","2","2","4","5","5","4","4","3","4","3","4","3","6","5","4","5","7","5","4","5","5","3","2","5","2","4","4","7","6","5","4","1","5","2","5","5","5","6","4","3","3","4","3","5","2","5","4","5","2","5","6","5","7","3","4","5","4","7","1","7","3","4","789065248304009217","陈","211","Male","[""坏他"",""好我"",""好他"",""坏我""]","[""弱他"",""强我"",""强他"",""弱我""]","","","","","","","","","","","","","","","","","","","","","","","","","","","","","","feedback_test","","","","","","","","",""
"1039","","f","psychophysics","90","311472","0.0-8.0-1.0-1.0-0.0-0.40","4","4","4","2","3","4","3","3","5","4","5","1","-2","1","0","-3","1","2","2","4","5","5","4","4","3","4","3","4","3","6","5","4","5","7","5","4","5","5","3","2","5","2","4","4","7","6","5","4","1","5","2","5","5","5","6","4","3","3","4","3","5","2","5","4","5","2","5","6","5","7","3","4","5","4","7","1","7","3","4","789065248304009217","陈","211","Male","[""坏他"",""好我"",""好他"",""坏我""]","[""弱他"",""强我"",""强他"",""弱我""]","","","","","","","","nonmatch","","","","","","","","","","key","f","16.666393442622855","800","446","j","false","match","img/pentagon.png","强他","强他","prac_ALT2_ability","practice_ability","","","","","","","","",""
"null","<span style='color:red; font-size: 70px;'>错误! </span>","null","html-keyboard-response","91","311973","0.0-8.0-1.0-1.0-0.0-1.40","4","4","4","2","3","4","3","3","5","4","5","1","-2","1","0","-3","1","2","2","4","5","5","4","4","3","4","3","4","3","6","5","4","5","7","5","4","5","5","3","2","5","2","4","4","7","6","5","4","1","5","2","5","5","5","6","4","3","3","4","3","5","2","5","4","5","2","5","6","5","7","3","4","5","4","7","1","7","3","4","789065248304009217","陈","211","Male","[""坏他"",""好我"",""好他"",""坏我""]","[""弱他"",""强我"",""强他"",""弱我""]","","","","","","","","","","","","","","","","","","","","","","","","","","","","","","feedback_test","","","","","","","","",""
"961","","j","psychophysics","92","313935","0.0-8.0-1.0-1.0-0.0-0.41","4","4","4","2","3","4","3","3","5","4","5","1","-2","1","0","-3","1","2","2","4","5","5","4","4","3","4","3","4","3","6","5","4","5","7","5","4","5","5","3","2","5","2","4","4","7","6","5","4","1","5","2","5","5","5","6","4","3","3","4","3","5","2","5","4","5","2","5","6","5","7","3","4","5","4","7","1","7","3","4","789065248304009217","陈","211","Male","[""坏他"",""好我"",""好他"",""坏我""]","[""弱他"",""强我"",""强他"",""弱我""]","","","","","","","","match","","","","","","","","","","key","j","16.664957264957167","800","446","j","true","match","img/diamond.png","强我","强我","prac_ALT2_ability","practice_ability","","","","","","","","",""
"null","<span style='color:GreenYellow; font-size: 70px;'>正确! </span>","null","html-keyboard-response","93","314436","0.0-8.0-1.0-1.0-0.0-1.41","4","4","4","2","3","4","3","3","5","4","5","1","-2","1","0","-3","1","2","2","4","5","5","4","4","3","4","3","4","3","6","5","4","5","7","5","4","5","5","3","2","5","2","4","4","7","6","5","4","1","5","2","5","5","5","6","4","3","3","4","3","5","2","5","4","5","2","5","6","5","7","3","4","5","4","7","1","7","3","4","789065248304009217","陈","211","Male","[""坏他"",""好我"",""好他"",""坏我""]","[""弱他"",""强我"",""强他"",""弱我""]","","","","","","","","","","","","","","","","","","","","","","","","","","","","","","feedback_test","","","","","","","","",""
"1114","","f","psychophysics","94","316553","0.0-8.0-1.0-1.0-0.0-0.42","4","4","4","2","3","4","3","3","5","4","5","1","-2","1","0","-3","1","2","2","4","5","5","4","4","3","4","3","4","3","6","5","4","5","7","5","4","5","5","3","2","5","2","4","4","7","6","5","4","1","5","2","5","5","5","6","4","3","3","4","3","5","2","5","4","5","2","5","6","5","7","3","4","5","4","7","1","7","3","4","789065248304009217","陈","211","Male","[""坏他"",""好我"",""好他"",""坏我""]","[""弱他"",""强我"",""强他"",""弱我""]","","","","","","","","nonmatch","","","","","","","","","","key","f","16.66825396825406","800","446","j","false","match","img/trapezoid.png","弱他","弱他","prac_ALT2_ability","practice_ability","","","","","","","","",""
"null","<span style='color:red; font-size: 70px;'>错误! </span>","null","html-keyboard-response","95","317055","0.0-8.0-1.0-1.0-0.0-1.42","4","4","4","2","3","4","3","3","5","4","5","1","-2","1","0","-3","1","2","2","4","5","5","4","4","3","4","3","4","3","6","5","4","5","7","5","4","5","5","3","2","5","2","4","4","7","6","5","4","1","5","2","5","5","5","6","4","3","3","4","3","5","2","5","4","5","2","5","6","5","7","3","4","5","4","7","1","7","3","4","789065248304009217","陈","211","Male","[""坏他"",""好我"",""好他"",""坏我""]","[""弱他"",""强我"",""强他"",""弱我""]","","","","","","","","","","","","","","","","","","","","","","","","","","","","","","feedback_test","","","","","","","","",""
"870","","j","psychophysics","96","318926","0.0-8.0-1.0-1.0-0.0-0.43","4","4","4","2","3","4","3","3","5","4","5","1","-2","1","0","-3","1","2","2","4","5","5","4","4","3","4","3","4","3","6","5","4","5","7","5","4","5","5","3","2","5","2","4","4","7","6","5","4","1","5","2","5","5","5","6","4","3","3","4","3","5","2","5","4","5","2","5","6","5","7","3","4","5","4","7","1","7","3","4","789065248304009217","陈","211","Male","[""坏他"",""好我"",""好他"",""坏我""]","[""弱他"",""强我"",""强他"",""弱我""]","","","","","","","","match","","","","","","","","","","key","j","16.667567567567357","800","446","f","false","nonmatch","img/pentagon.png","弱他","强他","prac_ALT2_ability","practice_ability","","","","","","","","",""
"null","<span style='color:red; font-size: 70px;'>错误! </span>","null","html-keyboard-response","97","319429","0.0-8.0-1.0-1.0-0.0-1.43","4","4","4","2","3","4","3","3","5","4","5","1","-2","1","0","-3","1","2","2","4","5","5","4","4","3","4","3","4","3","6","5","4","5","7","5","4","5","5","3","2","5","2","4","4","7","6","5","4","1","5","2","5","5","5","6","4","3","3","4","3","5","2","5","4","5","2","5","6","5","7","3","4","5","4","7","1","7","3","4","789065248304009217","陈","211","Male","[""坏他"",""好我"",""好他"",""坏我""]","[""弱他"",""强我"",""强他"",""弱我""]","","","","","","","","","","","","","","","","","","","","","","","","","","","","","","feedback_test","","","","","","","","",""
"952","","f","psychophysics","98","321381","0.0-8.0-1.0-1.0-0.0-0.44","4","4","4","2","3","4","3","3","5","4","5","1","-2","1","0","-3","1","2","2","4","5","5","4","4","3","4","3","4","3","6","5","4","5","7","5","4","5","5","3","2","5","2","4","4","7","6","5","4","1","5","2","5","5","5","6","4","3","3","4","3","5","2","5","4","5","2","5","6","5","7","3","4","5","4","7","1","7","3","4","789065248304009217","陈","211","Male","[""坏他"",""好我"",""好他"",""坏我""]","[""弱他"",""强我"",""强他"",""弱我""]","","","","","","","","nonmatch","","","","","","","","","","key","f","16.667241379310546","800","446","f","true","nonmatch","img/trapezoid.png","强他","弱他","prac_ALT2_ability","practice_ability","","","","","","","","",""
"null","<span style='color:GreenYellow; font-size: 70px;'>正确! </span>","null","html-keyboard-response","99","321883","0.0-8.0-1.0-1.0-0.0-1.44","4","4","4","2","3","4","3","3","5","4","5","1","-2","1","0","-3","1","2","2","4","5","5","4","4","3","4","3","4","3","6","5","4","5","7","5","4","5","5","3","2","5","2","4","4","7","6","5","4","1","5","2","5","5","5","6","4","3","3","4","3","5","2","5","4","5","2","5","6","5","7","3","4","5","4","7","1","7","3","4","789065248304009217","陈","211","Male","[""坏他"",""好我"",""好他"",""坏我""]","[""弱他"",""强我"",""强他"",""弱我""]","","","","","","","","","","","","","","","","","","","","","","","","","","","","","","feedback_test","","","","","","","","",""
"929","","f","psychophysics","100","323814","0.0-8.0-1.0-1.0-0.0-0.45","4","4","4","2","3","4","3","3","5","4","5","1","-2","1","0","-3","1","2","2","4","5","5","4","4","3","4","3","4","3","6","5","4","5","7","5","4","5","5","3","2","5","2","4","4","7","6","5","4","1","5","2","5","5","5","6","4","3","3","4","3","5","2","5","4","5","2","5","6","5","7","3","4","5","4","7","1","7","3","4","789065248304009217","陈","211","Male","[""坏他"",""好我"",""好他"",""坏我""]","[""弱他"",""强我"",""强他"",""弱我""]","","","","","","","","nonmatch","","","","","","","","","","key","f","16.66695652173923","800","446","j","false","match","img/trapezoid.png","弱他","弱他","prac_ALT2_ability","practice_ability","","","","","","","","",""
"null","<span style='color:red; font-size: 70px;'>错误! </span>","null","html-keyboard-response","101","324315","0.0-8.0-1.0-1.0-0.0-1.45","4","4","4","2","3","4","3","3","5","4","5","1","-2","1","0","-3","1","2","2","4","5","5","4","4","3","4","3","4","3","6","5","4","5","7","5","4","5","5","3","2","5","2","4","4","7","6","5","4","1","5","2","5","5","5","6","4","3","3","4","3","5","2","5","4","5","2","5","6","5","7","3","4","5","4","7","1","7","3","4","789065248304009217","陈","211","Male","[""坏他"",""好我"",""好他"",""坏我""]","[""弱他"",""强我"",""强他"",""弱我""]","","","","","","","","","","","","","","","","","","","","","","","","","","","","","","feedback_test","","","","","","","","",""
"null","","null","psychophysics","102","326516","0.0-8.0-1.0-1.0-0.0-0.46","4","4","4","2","3","4","3","3","5","4","5","1","-2","1","0","-3","1","2","2","4","5","5","4","4","3","4","3","4","3","6","5","4","5","7","5","4","5","5","3","2","5","2","4","4","7","6","5","4","1","5","2","5","5","5","6","4","3","3","4","3","5","2","5","4","5","2","5","6","5","7","3","4","5","4","7","1","7","3","4","789065248304009217","陈","211","Male","[""坏他"",""好我"",""好他"",""坏我""]","[""弱他"",""强我"",""强他"",""弱我""]","","","","","","","","null","","","","","","","","","","key","null","16.66793893129771","800","446","f","false","nonmatch","img/pentagon.png","强我","强他","prac_ALT2_ability","practice_ability","","","","","","","","",""
"null","<span class='add_' style='color:yellow; font-size: 70px;'> 太慢! </span>","null","html-keyboard-response","103","327017","0.0-8.0-1.0-1.0-0.0-1.46","4","4","4","2","3","4","3","3","5","4","5","1","-2","1","0","-3","1","2","2","4","5","5","4","4","3","4","3","4","3","6","5","4","5","7","5","4","5","5","3","2","5","2","4","4","7","6","5","4","1","5","2","5","5","5","6","4","3","3","4","3","5","2","5","4","5","2","5","6","5","7","3","4","5","4","7","1","7","3","4","789065248304009217","陈","211","Male","[""坏他"",""好我"",""好他"",""坏我""]","[""弱他"",""强我"",""强他"",""弱我""]","","","","","","","","","","","","","","","","","","","","","","","","","","","","","","feedback_test","","","","","","","","",""
"693","","j","psychophysics","104","328711","0.0-8.0-1.0-1.0-0.0-0.47","4","4","4","2","3","4","3","3","5","4","5","1","-2","1","0","-3","1","2","2","4","5","5","4","4","3","4","3","4","3","6","5","4","5","7","5","4","5","5","3","2","5","2","4","4","7","6","5","4","1","5","2","5","5","5","6","4","3","3","4","3","5","2","5","4","5","2","5","6","5","7","3","4","5","4","7","1","7","3","4","789065248304009217","陈","211","Male","[""坏他"",""好我"",""好他"",""坏我""]","[""弱他"",""强我"",""强他"",""弱我""]","","","","","","","","match","","","","","","","","","","key","j","16.663000000000466","800","446","j","true","match","img/diamond.png","强我","强我","prac_ALT2_ability","practice_ability","","","","","","","","",""
"null","<span style='color:GreenYellow; font-size: 70px;'>正确! </span>","null","html-keyboard-response","105","329213","0.0-8.0-1.0-1.0-0.0-1.47","4","4","4","2","3","4","3","3","5","4","5","1","-2","1","0","-3","1","2","2","4","5","5","4","4","3","4","3","4","3","6","5","4","5","7","5","4","5","5","3","2","5","2","4","4","7","6","5","4","1","5","2","5","5","5","6","4","3","3","4","3","5","2","5","4","5","2","5","6","5","7","3","4","5","4","7","1","7","3","4","789065248304009217","陈","211","Male","[""坏他"",""好我"",""好他"",""坏我""]","[""弱他"",""强我"",""强他"",""弱我""]","","","","","","","","","","","","","","","","","","","","","","","","","","","","","","feedback_test","","","","","","","","",""
"94736","<style>.context{color:white; font-size: 35px; line-height:40px}</style>                          <div><p class='context'>您正确回答了40% 的试次。</p><p class='context'>您的平均反应时为824毫秒。</p><p class='context'>恭喜您完成练习。按空格键继续。</p></div>"," ","html-keyboard-response","106","423950","0.0-8.0-1.0-1.0-1.0-0.0","4","4","4","2","3","4","3","3","5","4","5","1","-2","1","0","-3","1","2","2","4","5","5","4","4","3","4","3","4","3","6","5","4","5","7","5","4","5","5","3","2","5","2","4","4","7","6","5","4","1","5","2","5","5","5","6","4","3","3","4","3","5","2","5","4","5","2","5","6","5","7","3","4","5","4","7","1","7","3","4","789065248304009217","陈","211","Male","[""坏他"",""好我"",""好他"",""坏我""]","[""弱他"",""强我"",""强他"",""弱我""]","","","","","","","","","","","","","","","","","","","","","","","","","","","","","","","","","","","","","","",""
"18009","","","instructions","107","441964","0.0-8.0-1.0-1.0-1.0-1.0","4","4","4","2","3","4","3","3","5","4","5","1","-2","1","0","-3","1","2","2","4","5","5","4","4","3","4","3","4","3","6","5","4","5","7","5","4","5","5","3","2","5","2","4","4","7","6","5","4","1","5","2","5","5","5","6","4","3","3","4","3","5","2","5","4","5","2","5","6","5","7","3","4","5","4","7","1","7","3","4","789065248304009217","陈","211","Male","[""坏他"",""好我"",""好他"",""坏我""]","[""弱他"",""强我"",""强他"",""弱我""]","","","","","","","","","","","","","","","","","[{""page_index"":0,""viewing_time"":4025},{""page_index"":1,""viewing_time"":12680},{""page_index"":2,""viewing_time"":1304}]","","","","","","","","","","","","","","","","","","","","","",""
"1024","","f","psychophysics","108","443990","0.0-8.0-1.0-1.1-0.1-0.48","4","4","4","2","3","4","3","3","5","4","5","1","-2","1","0","-3","1","2","2","4","5","5","4","4","3","4","3","4","3","6","5","4","5","7","5","4","5","5","3","2","5","2","4","4","7","6","5","4","1","5","2","5","5","5","6","4","3","3","4","3","5","2","5","4","5","2","5","6","5","7","3","4","5","4","7","1","7","3","4","789065248304009217","陈","211","Male","[""坏他"",""好我"",""好他"",""坏我""]","[""弱他"",""强我"",""强他"",""弱我""]","","","","","","","","nonmatch","","","","","","","","","","key","f","16.667768595041707","800","446","f","true","nonmatch","img/ellipse.png","强他","弱我","prac_ALT2_ability","practice_ability","","","","","","","","",""
"null","<span style='color:GreenYellow; font-size: 70px;'>正确! </span>","null","html-keyboard-response","109","444490","0.0-8.0-1.0-1.1-0.1-1.48","4","4","4","2","3","4","3","3","5","4","5","1","-2","1","0","-3","1","2","2","4","5","5","4","4","3","4","3","4","3","6","5","4","5","7","5","4","5","5","3","2","5","2","4","4","7","6","5","4","1","5","2","5","5","5","6","4","3","3","4","3","5","2","5","4","5","2","5","6","5","7","3","4","5","4","7","1","7","3","4","789065248304009217","陈","211","Male","[""坏他"",""好我"",""好他"",""坏我""]","[""弱他"",""强我"",""强他"",""弱我""]","","","","","","","","","","","","","","","","","","","","","","","","","","","","","","feedback_test","","","","","","","","",""
"null","","null","psychophysics","110","446696","0.0-8.0-1.0-1.1-0.1-0.49","4","4","4","2","3","4","3","3","5","4","5","1","-2","1","0","-3","1","2","2","4","5","5","4","4","3","4","3","4","3","6","5","4","5","7","5","4","5","5","3","2","5","2","4","4","7","6","5","4","1","5","2","5","5","5","6","4","3","3","4","3","5","2","5","4","5","2","5","6","5","7","3","4","5","4","7","1","7","3","4","789065248304009217","陈","211","Male","[""坏他"",""好我"",""好他"",""坏我""]","[""弱他"",""强我"",""强他"",""弱我""]","","","","","","","","null","","","","","","","","","","key","null","16.665648854961923","800","446","f","false","nonmatch","img/trapezoid.png","强我","弱他","prac_ALT2_ability","practice_ability","","","","","","","","",""
"null","<span class='add_' style='color:yellow; font-size: 70px;'> 太慢! </span>","null","html-keyboard-response","111","447198","0.0-8.0-1.0-1.1-0.1-1.49","4","4","4","2","3","4","3","3","5","4","5","1","-2","1","0","-3","1","2","2","4","5","5","4","4","3","4","3","4","3","6","5","4","5","7","5","4","5","5","3","2","5","2","4","4","7","6","5","4","1","5","2","5","5","5","6","4","3","3","4","3","5","2","5","4","5","2","5","6","5","7","3","4","5","4","7","1","7","3","4","789065248304009217","陈","211","Male","[""坏他"",""好我"",""好他"",""坏我""]","[""弱他"",""强我"",""强他"",""弱我""]","","","","","","","","","","","","","","","","","","","","","","","","","","","","","","feedback_test","","","","","","","","",""
"759","","f","psychophysics","112","448960","0.0-8.0-1.0-1.1-0.1-0.50","4","4","4","2","3","4","3","3","5","4","5","1","-2","1","0","-3","1","2","2","4","5","5","4","4","3","4","3","4","3","6","5","4","5","7","5","4","5","5","3","2","5","2","4","4","7","6","5","4","1","5","2","5","5","5","6","4","3","3","4","3","5","2","5","4","5","2","5","6","5","7","3","4","5","4","7","1","7","3","4","789065248304009217","陈","211","Male","[""坏他"",""好我"",""好他"",""坏我""]","[""弱他"",""强我"",""强他"",""弱我""]","","","","","","","","nonmatch","","","","","","","","","","key","f","16.667619047618825","800","446","f","true","nonmatch","img/ellipse.png","弱他","弱我","prac_ALT2_ability","practice_ability","","","","","","","","",""
"null","<span style='color:GreenYellow; font-size: 70px;'>正确! </span>","null","html-keyboard-response","113","449461","0.0-8.0-1.0-1.1-0.1-1.50","4","4","4","2","3","4","3","3","5","4","5","1","-2","1","0","-3","1","2","2","4","5","5","4","4","3","4","3","4","3","6","5","4","5","7","5","4","5","5","3","2","5","2","4","4","7","6","5","4","1","5","2","5","5","5","6","4","3","3","4","3","5","2","5","4","5","2","5","6","5","7","3","4","5","4","7","1","7","3","4","789065248304009217","陈","211","Male","[""坏他"",""好我"",""好他"",""坏我""]","[""弱他"",""强我"",""强他"",""弱我""]","","","","","","","","","","","","","","","","","","","","","","","","","","","","","","feedback_test","","","","","","","","",""
"878","","f","psychophysics","114","451341","0.0-8.0-1.0-1.1-0.1-0.51","4","4","4","2","3","4","3","3","5","4","5","1","-2","1","0","-3","1","2","2","4","5","5","4","4","3","4","3","4","3","6","5","4","5","7","5","4","5","5","3","2","5","2","4","4","7","6","5","4","1","5","2","5","5","5","6","4","3","3","4","3","5","2","5","4","5","2","5","6","5","7","3","4","5","4","7","1","7","3","4","789065248304009217","陈","211","Male","[""坏他"",""好我"",""好他"",""坏我""]","[""弱他"",""强我"",""强他"",""弱我""]","","","","","","","","nonmatch","","","","","","","","","","key","f","16.66696428571439","800","446","j","false","match","img/trapezoid.png","弱他","弱他","prac_ALT2_ability","practice_ability","","","","","","","","",""
"null","<span style='color:red; font-size: 70px;'>错误! </span>","null","html-keyboard-response","115","451842","0.0-8.0-1.0-1.1-0.1-1.51","4","4","4","2","3","4","3","3","5","4","5","1","-2","1","0","-3","1","2","2","4","5","5","4","4","3","4","3","4","3","6","5","4","5","7","5","4","5","5","3","2","5","2","4","4","7","6","5","4","1","5","2","5","5","5","6","4","3","3","4","3","5","2","5","4","5","2","5","6","5","7","3","4","5","4","7","1","7","3","4","789065248304009217","陈","211","Male","[""坏他"",""好我"",""好他"",""坏我""]","[""弱他"",""强我"",""强他"",""弱我""]","","","","","","","","","","","","","","","","","","","","","","","","","","","","","","feedback_test","","","","","","","","",""
"680","","j","psychophysics","116","453524","0.0-8.0-1.0-1.1-0.1-0.52","4","4","4","2","3","4","3","3","5","4","5","1","-2","1","0","-3","1","2","2","4","5","5","4","4","3","4","3","4","3","6","5","4","5","7","5","4","5","5","3","2","5","2","4","4","7","6","5","4","1","5","2","5","5","5","6","4","3","3","4","3","5","2","5","4","5","2","5","6","5","7","3","4","5","4","7","1","7","3","4","789065248304009217","陈","211","Male","[""坏他"",""好我"",""好他"",""坏我""]","[""弱他"",""强我"",""强他"",""弱我""]","","","","","","","","match","","","","","","","","","","key","j","16.668999999999652","800","446","f","false","nonmatch","img/trapezoid.png","强他","弱他","prac_ALT2_ability","practice_ability","","","","","","","","",""
"null","<span style='color:red; font-size: 70px;'>错误! </span>","null","html-keyboard-response","117","454024","0.0-8.0-1.0-1.1-0.1-1.52","4","4","4","2","3","4","3","3","5","4","5","1","-2","1","0","-3","1","2","2","4","5","5","4","4","3","4","3","4","3","6","5","4","5","7","5","4","5","5","3","2","5","2","4","4","7","6","5","4","1","5","2","5","5","5","6","4","3","3","4","3","5","2","5","4","5","2","5","6","5","7","3","4","5","4","7","1","7","3","4","789065248304009217","陈","211","Male","[""坏他"",""好我"",""好他"",""坏我""]","[""弱他"",""强我"",""强他"",""弱我""]","","","","","","","","","","","","","","","","","","","","","","","","","","","","","","feedback_test","","","","","","","","",""
"934","","f","psychophysics","118","455966","0.0-8.0-1.0-1.1-0.1-0.53","4","4","4","2","3","4","3","3","5","4","5","1","-2","1","0","-3","1","2","2","4","5","5","4","4","3","4","3","4","3","6","5","4","5","7","5","4","5","5","3","2","5","2","4","4","7","6","5","4","1","5","2","5","5","5","6","4","3","3","4","3","5","2","5","4","5","2","5","6","5","7","3","4","5","4","7","1","7","3","4","789065248304009217","陈","211","Male","[""坏他"",""好我"",""好他"",""坏我""]","[""弱他"",""强我"",""强他"",""弱我""]","","","","","","","","nonmatch","","","","","","","","","","key","f","16.666086956521536","800","446","f","true","nonmatch","img/pentagon.png","弱我","强他","prac_ALT2_ability","practice_ability","","","","","","","","",""
"null","<span style='color:GreenYellow; font-size: 70px;'>正确! </span>","null","html-keyboard-response","119","456467","0.0-8.0-1.0-1.1-0.1-1.53","4","4","4","2","3","4","3","3","5","4","5","1","-2","1","0","-3","1","2","2","4","5","5","4","4","3","4","3","4","3","6","5","4","5","7","5","4","5","5","3","2","5","2","4","4","7","6","5","4","1","5","2","5","5","5","6","4","3","3","4","3","5","2","5","4","5","2","5","6","5","7","3","4","5","4","7","1","7","3","4","789065248304009217","陈","211","Male","[""坏他"",""好我"",""好他"",""坏我""]","[""弱他"",""强我"",""强他"",""弱我""]","","","","","","","","","","","","","","","","","","","","","","","","","","","","","","feedback_test","","","","","","","","",""
"689","","f","psychophysics","120","458158","0.0-8.0-1.0-1.1-0.1-0.54","4","4","4","2","3","4","3","3","5","4","5","1","-2","1","0","-3","1","2","2","4","5","5","4","4","3","4","3","4","3","6","5","4","5","7","5","4","5","5","3","2","5","2","4","4","7","6","5","4","1","5","2","5","5","5","6","4","3","3","4","3","5","2","5","4","5","2","5","6","5","7","3","4","5","4","7","1","7","3","4","789065248304009217","陈","211","Male","[""坏他"",""好我"",""好他"",""坏我""]","[""弱他"",""强我"",""强他"",""弱我""]","","","","","","","","nonmatch","","","","","","","","","","key","f","16.667999999999882","800","446","f","true","nonmatch","img/pentagon.png","强我","强他","prac_ALT2_ability","practice_ability","","","","","","","","",""
"null","<span style='color:GreenYellow; font-size: 70px;'>正确! </span>","null","html-keyboard-response","121","458659","0.0-8.0-1.0-1.1-0.1-1.54","4","4","4","2","3","4","3","3","5","4","5","1","-2","1","0","-3","1","2","2","4","5","5","4","4","3","4","3","4","3","6","5","4","5","7","5","4","5","5","3","2","5","2","4","4","7","6","5","4","1","5","2","5","5","5","6","4","3","3","4","3","5","2","5","4","5","2","5","6","5","7","3","4","5","4","7","1","7","3","4","789065248304009217","陈","211","Male","[""坏他"",""好我"",""好他"",""坏我""]","[""弱他"",""强我"",""强他"",""弱我""]","","","","","","","","","","","","","","","","","","","","","","","","","","","","","","feedback_test","","","","","","","","",""
"879","","f","psychophysics","122","460541","0.0-8.0-1.0-1.1-0.1-0.55","4","4","4","2","3","4","3","3","5","4","5","1","-2","1","0","-3","1","2","2","4","5","5","4","4","3","4","3","4","3","6","5","4","5","7","5","4","5","5","3","2","5","2","4","4","7","6","5","4","1","5","2","5","5","5","6","4","3","3","4","3","5","2","5","4","5","2","5","6","5","7","3","4","5","4","7","1","7","3","4","789065248304009217","陈","211","Male","[""坏他"",""好我"",""好他"",""坏我""]","[""弱他"",""强我"",""强他"",""弱我""]","","","","","","","","nonmatch","","","","","","","","","","key","f","16.66785714285756","800","446","f","true","nonmatch","img/diamond.png","强他","强我","prac_ALT2_ability","practice_ability","","","","","","","","",""
"null","<span style='color:GreenYellow; font-size: 70px;'>正确! </span>","null","html-keyboard-response","123","461042","0.0-8.0-1.0-1.1-0.1-1.55","4","4","4","2","3","4","3","3","5","4","5","1","-2","1","0","-3","1","2","2","4","5","5","4","4","3","4","3","4","3","6","5","4","5","7","5","4","5","5","3","2","5","2","4","4","7","6","5","4","1","5","2","5","5","5","6","4","3","3","4","3","5","2","5","4","5","2","5","6","5","7","3","4","5","4","7","1","7","3","4","789065248304009217","陈","211","Male","[""坏他"",""好我"",""好他"",""坏我""]","[""弱他"",""强我"",""强他"",""弱我""]","","","","","","","","","","","","","","","","","","","","","","","","","","","","","","feedback_test","","","","","","","","",""
"921","","j","psychophysics","124","462966","0.0-8.0-1.0-1.1-0.1-0.56","4","4","4","2","3","4","3","3","5","4","5","1","-2","1","0","-3","1","2","2","4","5","5","4","4","3","4","3","4","3","6","5","4","5","7","5","4","5","5","3","2","5","2","4","4","7","6","5","4","1","5","2","5","5","5","6","4","3","3","4","3","5","2","5","4","5","2","5","6","5","7","3","4","5","4","7","1","7","3","4","789065248304009217","陈","211","Male","[""坏他"",""好我"",""好他"",""坏我""]","[""弱他"",""强我"",""强他"",""弱我""]","","","","","","","","match","","","","","","","","","","key","j","16.66754385964892","800","446","j","true","match","img/trapezoid.png","弱他","弱他","prac_ALT2_ability","practice_ability","","","","","","","","",""
"null","<span style='color:GreenYellow; font-size: 70px;'>正确! </span>","null","html-keyboard-response","125","463467","0.0-8.0-1.0-1.1-0.1-1.56","4","4","4","2","3","4","3","3","5","4","5","1","-2","1","0","-3","1","2","2","4","5","5","4","4","3","4","3","4","3","6","5","4","5","7","5","4","5","5","3","2","5","2","4","4","7","6","5","4","1","5","2","5","5","5","6","4","3","3","4","3","5","2","5","4","5","2","5","6","5","7","3","4","5","4","7","1","7","3","4","789065248304009217","陈","211","Male","[""坏他"",""好我"",""好他"",""坏我""]","[""弱他"",""强我"",""强他"",""弱我""]","","","","","","","","","","","","","","","","","","","","","","","","","","","","","","feedback_test","","","","","","","","",""
"1073","","j","psychophysics","126","465542","0.0-8.0-1.0-1.1-0.1-0.57","4","4","4","2","3","4","3","3","5","4","5","1","-2","1","0","-3","1","2","2","4","5","5","4","4","3","4","3","4","3","6","5","4","5","7","5","4","5","5","3","2","5","2","4","4","7","6","5","4","1","5","2","5","5","5","6","4","3","3","4","3","5","2","5","4","5","2","5","6","5","7","3","4","5","4","7","1","7","3","4","789065248304009217","陈","211","Male","[""坏他"",""好我"",""好他"",""坏我""]","[""弱他"",""强我"",""强他"",""弱我""]","","","","","","","","match","","","","","","","","","","key","j","16.66260162601626","800","446","j","true","match","img/pentagon.png","强他","强他","prac_ALT2_ability","practice_ability","","","","","","","","",""
"null","<span style='color:GreenYellow; font-size: 70px;'>正确! </span>","null","html-keyboard-response","127","466043","0.0-8.0-1.0-1.1-0.1-1.57","4","4","4","2","3","4","3","3","5","4","5","1","-2","1","0","-3","1","2","2","4","5","5","4","4","3","4","3","4","3","6","5","4","5","7","5","4","5","5","3","2","5","2","4","4","7","6","5","4","1","5","2","5","5","5","6","4","3","3","4","3","5","2","5","4","5","2","5","6","5","7","3","4","5","4","7","1","7","3","4","789065248304009217","陈","211","Male","[""坏他"",""好我"",""好他"",""坏我""]","[""弱他"",""强我"",""强他"",""弱我""]","","","","","","","","","","","","","","","","","","","","","","","","","","","","","","feedback_test","","","","","","","","",""
"768","","f","psychophysics","128","467813","0.0-8.0-1.0-1.1-0.1-0.58","4","4","4","2","3","4","3","3","5","4","5","1","-2","1","0","-3","1","2","2","4","5","5","4","4","3","4","3","4","3","6","5","4","5","7","5","4","5","5","3","2","5","2","4","4","7","6","5","4","1","5","2","5","5","5","6","4","3","3","4","3","5","2","5","4","5","2","5","6","5","7","3","4","5","4","7","1","7","3","4","789065248304009217","陈","211","Male","[""坏他"",""好我"",""好他"",""坏我""]","[""弱他"",""强我"",""强他"",""弱我""]","","","","","","","","nonmatch","","","","","","","","","","key","f","16.666666666666668","800","446","j","false","match","img/diamond.png","强我","强我","prac_ALT2_ability","practice_ability","","","","","","","","",""
"null","<span style='color:red; font-size: 70px;'>错误! </span>","null","html-keyboard-response","129","468314","0.0-8.0-1.0-1.1-0.1-1.58","4","4","4","2","3","4","3","3","5","4","5","1","-2","1","0","-3","1","2","2","4","5","5","4","4","3","4","3","4","3","6","5","4","5","7","5","4","5","5","3","2","5","2","4","4","7","6","5","4","1","5","2","5","5","5","6","4","3","3","4","3","5","2","5","4","5","2","5","6","5","7","3","4","5","4","7","1","7","3","4","789065248304009217","陈","211","Male","[""坏他"",""好我"",""好他"",""坏我""]","[""弱他"",""强我"",""强他"",""弱我""]","","","","","","","","","","","","","","","","","","","","","","","","","","","","","","feedback_test","","","","","","","","",""
"null","","null","psychophysics","130","470519","0.0-8.0-1.0-1.1-0.1-0.59","4","4","4","2","3","4","3","3","5","4","5","1","-2","1","0","-3","1","2","2","4","5","5","4","4","3","4","3","4","3","6","5","4","5","7","5","4","5","5","3","2","5","2","4","4","7","6","5","4","1","5","2","5","5","5","6","4","3","3","4","3","5","2","5","4","5","2","5","6","5","7","3","4","5","4","7","1","7","3","4","789065248304009217","陈","211","Male","[""坏他"",""好我"",""好他"",""坏我""]","[""弱他"",""强我"",""强他"",""弱我""]","","","","","","","","null","","","","","","","","","","key","null","16.666666666666668","800","446","j","false","match","img/pentagon.png","强他","强他","prac_ALT2_ability","practice_ability","","","","","","","","",""
"null","<span class='add_' style='color:yellow; font-size: 70px;'> 太慢! </span>","null","html-keyboard-response","131","471021","0.0-8.0-1.0-1.1-0.1-1.59","4","4","4","2","3","4","3","3","5","4","5","1","-2","1","0","-3","1","2","2","4","5","5","4","4","3","4","3","4","3","6","5","4","5","7","5","4","5","5","3","2","5","2","4","4","7","6","5","4","1","5","2","5","5","5","6","4","3","3","4","3","5","2","5","4","5","2","5","6","5","7","3","4","5","4","7","1","7","3","4","789065248304009217","陈","211","Male","[""坏他"",""好我"",""好他"",""坏我""]","[""弱他"",""强我"",""强他"",""弱我""]","","","","","","","","","","","","","","","","","","","","","","","","","","","","","","feedback_test","","","","","","","","",""
"742","","f","psychophysics","132","472765","0.0-8.0-1.0-1.1-0.1-0.60","4","4","4","2","3","4","3","3","5","4","5","1","-2","1","0","-3","1","2","2","4","5","5","4","4","3","4","3","4","3","6","5","4","5","7","5","4","5","5","3","2","5","2","4","4","7","6","5","4","1","5","2","5","5","5","6","4","3","3","4","3","5","2","5","4","5","2","5","6","5","7","3","4","5","4","7","1","7","3","4","789065248304009217","陈","211","Male","[""坏他"",""好我"",""好他"",""坏我""]","[""弱他"",""强我"",""强他"",""弱我""]","","","","","","","","nonmatch","","","","","","","","","","key","f","16.668932038835177","800","446","f","true","nonmatch","img/diamond.png","弱他","强我","prac_ALT2_ability","practice_ability","","","","","","","","",""
"null","<span style='color:GreenYellow; font-size: 70px;'>正确! </span>","null","html-keyboard-response","133","473267","0.0-8.0-1.0-1.1-0.1-1.60","4","4","4","2","3","4","3","3","5","4","5","1","-2","1","0","-3","1","2","2","4","5","5","4","4","3","4","3","4","3","6","5","4","5","7","5","4","5","5","3","2","5","2","4","4","7","6","5","4","1","5","2","5","5","5","6","4","3","3","4","3","5","2","5","4","5","2","5","6","5","7","3","4","5","4","7","1","7","3","4","789065248304009217","陈","211","Male","[""坏他"",""好我"",""好他"",""坏我""]","[""弱他"",""强我"",""强他"",""弱我""]","","","","","","","","","","","","","","","","","","","","","","","","","","","","","","feedback_test","","","","","","","","",""
"853","","f","psychophysics","134","475121","0.0-8.0-1.0-1.1-0.1-0.61","4","4","4","2","3","4","3","3","5","4","5","1","-2","1","0","-3","1","2","2","4","5","5","4","4","3","4","3","4","3","6","5","4","5","7","5","4","5","5","3","2","5","2","4","4","7","6","5","4","1","5","2","5","5","5","6","4","3","3","4","3","5","2","5","4","5","2","5","6","5","7","3","4","5","4","7","1","7","3","4","789065248304009217","陈","211","Male","[""坏他"",""好我"",""好他"",""坏我""]","[""弱他"",""强我"",""强他"",""弱我""]","","","","","","","","nonmatch","","","","","","","","","","key","f","16.66454545454577","800","446","j","false","match","img/pentagon.png","强他","强他","prac_ALT2_ability","practice_ability","","","","","","","","",""
"null","<span style='color:red; font-size: 70px;'>错误! </span>","null","html-keyboard-response","135","475622","0.0-8.0-1.0-1.1-0.1-1.61","4","4","4","2","3","4","3","3","5","4","5","1","-2","1","0","-3","1","2","2","4","5","5","4","4","3","4","3","4","3","6","5","4","5","7","5","4","5","5","3","2","5","2","4","4","7","6","5","4","1","5","2","5","5","5","6","4","3","3","4","3","5","2","5","4","5","2","5","6","5","7","3","4","5","4","7","1","7","3","4","789065248304009217","陈","211","Male","[""坏他"",""好我"",""好他"",""坏我""]","[""弱他"",""强我"",""强他"",""弱我""]","","","","","","","","","","","","","","","","","","","","","","","","","","","","","","feedback_test","","","","","","","","",""
"847","","j","psychophysics","136","477471","0.0-8.0-1.0-1.1-0.1-0.62","4","4","4","2","3","4","3","3","5","4","5","1","-2","1","0","-3","1","2","2","4","5","5","4","4","3","4","3","4","3","6","5","4","5","7","5","4","5","5","3","2","5","2","4","4","7","6","5","4","1","5","2","5","5","5","6","4","3","3","4","3","5","2","5","4","5","2","5","6","5","7","3","4","5","4","7","1","7","3","4","789065248304009217","陈","211","Male","[""坏他"",""好我"",""好他"",""坏我""]","[""弱他"",""强我"",""强他"",""弱我""]","","","","","","","","match","","","","","","","","","","key","j","16.66636363636353","800","446","j","true","match","img/ellipse.png","弱我","弱我","prac_ALT2_ability","practice_ability","","","","","","","","",""
"null","<span style='color:GreenYellow; font-size: 70px;'>正确! </span>","null","html-keyboard-response","137","477972","0.0-8.0-1.0-1.1-0.1-1.62","4","4","4","2","3","4","3","3","5","4","5","1","-2","1","0","-3","1","2","2","4","5","5","4","4","3","4","3","4","3","6","5","4","5","7","5","4","5","5","3","2","5","2","4","4","7","6","5","4","1","5","2","5","5","5","6","4","3","3","4","3","5","2","5","4","5","2","5","6","5","7","3","4","5","4","7","1","7","3","4","789065248304009217","陈","211","Male","[""坏他"",""好我"",""好他"",""坏我""]","[""弱他"",""强我"",""强他"",""弱我""]","","","","","","","","","","","","","","","","","","","","","","","","","","","","","","feedback_test","","","","","","","","",""
