"rt","stimulus","response","trial_type","trial_index","time_elapsed","internal_node_id","swb_1","swb_2","swb_3","swb_4","swb_5","LOT_1","LOT_2","LOT_3","LOT_4","LOT_5","LOT_6","IPC_1","IPC_2","IPC_3","IPC_4","IPC_5","IPC_6","IPC_7","IPC_8","MorIden_1","MorIden_2","MorIden_3","MorIden_4","MorIden_5","MorIden_6","MorIden_7","MorIden_8","MorIden_9","MorIden_10","moralSeImag_1","moralSeImag_2","moralSeImag_3","moralSeImag_4","moralSeImag_5","moralSeImag_6","moralSeImag_7","moralSeImag_8","moralSeImag_9","sde_1","sde_2","sde_3","sde_4","sde_5","sde_6","sde_7","sde_8","sde_9","sde_10","trap2","sde_11","sde_12","sde_13","sde_14","sde_15","sde_16","sde_17","sde_18","sde_19","sde_20","IM_1","IM_2","IM_3","IM_4","IM_5","IM_6","IM_7","IM_8","IM_9","IM_10","IM_11","IM_12","IM_13","IM_14","IM_15","IM_16","IM_17","IM_18","IM_19","IM_20","subj_idx","friend_name","ParticipantID","Sex","Word","Word2","value","success","timeout","failed_images","failed_audio","failed_video","user_agent","responses","item_order","radio_event_ids","radio_event_times","key_event_times","mouse_event_times","straightlining","zigzagging","honeypot","task_id","screen_id","time_stamp","response_type","key_press","avg_frame_time","center_x","center_y","person","word","valence","domain","math","correct_response","correct","status","view_history","identity","duration","Image","condition","question_order","trap2_item"
"1613","
   <p><div style='color:white; font-size: 25px'>您好，欢迎参加本次实验。</div></p>
   <p><div style='color:white; font-size: 25px'>为充分保障您的权利，请确保您已经知晓并同意《参与实验同意书》以及《数据公开知情同意书》。</div></p>
   <p><div style='color:white; font-size: 25px'>如果您未见过上述内容，请咨询实验员。</div></p>
   <p style='color:white; font-size: 25px'>如果您选择继续实验，则表示您已经清楚两份知情同意书的内容并同意。</p>
   <p><div style = ""color: pink;font-size:30px;"">请确保您记得day0的实验编号，您将在本次实验输入该编号，若您忘记，请咨询实验员后作答。</div></p>
   <p><div style = ""color:lightblue;font-size:25px;"">请您尽可能认真地作答，我们将依据您在各问卷和按键任务中的作答质量发放报酬。</div></p>
   <p> <div style = ""color: green""><按空格键至下页></div> </p>
   "," ","html-keyboard-response","0","1617","0.0-0.0","6","5","6","4","2","4","4","5","5","5","4","0","-1","0","1","-2","2","2","0","4","5","5","5","5","4","4","3","4","5","5","6","7","5","7","8","7","8","8","5","5","3","6","2","3","3","3","6","5","1","5","2","6","3","6","3","6","5","4","6","5","5","3","1","3","6","5","5","2","7","7","3","6","1","3","7","3","3","2","5","741960766508503041","张","696","Female","[""好我"",""坏我"",""好她"",""坏她""]","[""强我"",""弱我"",""强她"",""弱她""]","","","","","","","","","","","","","","","","","","","","","","","","","","","","","","","","","","","","","","",""
"","","","call-function","1","1619","0.0-1.0-0.0","6","5","6","4","2","4","4","5","5","5","4","0","-1","0","1","-2","2","2","0","4","5","5","5","5","4","4","3","4","5","5","6","7","5","7","8","7","8","8","5","5","3","6","2","3","3","3","6","5","1","5","2","6","3","6","3","6","5","4","6","5","5","3","1","3","6","5","5","2","7","7","3","6","1","3","7","3","3","2","5","741960766508503041","张","696","Female","[""好我"",""坏我"",""好她"",""坏她""]","[""强我"",""弱我"",""强她"",""弱她""]","","","","","","","","","","","","","","","","","","","","","","","","","","","","","","","","","","","","","","",""
"6620","","[{""name"":""Sex"",""value"":""1""},{""name"":""friend_name"",""value"":""张""},{""name"":""ParticipantID"",""value"":""696""}]","survey-html-form","2","8240","0.0-1.0-1.0","6","5","6","4","2","4","4","5","5","5","4","0","-1","0","1","-2","2","2","0","4","5","5","5","5","4","4","3","4","5","5","6","7","5","7","8","7","8","8","5","5","3","6","2","3","3","3","6","5","1","5","2","6","3","6","3","6","5","4","6","5","5","3","1","3","6","5","5","2","7","7","3","6","1","3","7","3","3","2","5","741960766508503041","张","696","Female","[""好我"",""坏我"",""好她"",""坏她""]","[""强我"",""弱我"",""强她"",""弱她""]","","","","","","","","","","","","","","","","","","","","","","","","","","","","","","","","","","","","","","",""
"","","","preload","3","8547","0.0-2.0","6","5","6","4","2","4","4","5","5","5","4","0","-1","0","1","-2","2","2","0","4","5","5","5","5","4","4","3","4","5","5","6","7","5","7","8","7","8","8","5","5","3","6","2","3","3","3","6","5","1","5","2","6","3","6","3","6","5","4","6","5","5","3","1","3","6","5","5","2","7","7","3","6","1","3","7","3","3","2","5","741960766508503041","张","696","Female","[""好我"",""坏我"",""好她"",""坏她""]","[""强我"",""弱我"",""强她"",""弱她""]","","true","false","[]","[]","[]","","","","","","","","","","","","","","","","","","","","","","","","","","","","","","","","",""
"","","","fullscreen","4","9490","0.0-3.0","6","5","6","4","2","4","4","5","5","5","4","0","-1","0","1","-2","2","2","0","4","5","5","5","5","4","4","3","4","5","5","6","7","5","7","8","7","8","8","5","5","3","6","2","3","3","3","6","5","1","5","2","6","3","6","3","6","5","4","6","5","5","3","1","3","6","5","5","2","7","7","3","6","1","3","7","3","3","2","5","741960766508503041","张","696","Female","[""好我"",""坏我"",""好她"",""坏她""]","[""强我"",""弱我"",""强她"",""弱她""]","","true","","","","","{}","","","","","","","","","","","","","","","","","","","","","","","","","","","","","","","",""
"10231.799999952316","","{""Q01"":""6"",""Q02"":""5"",""Q03"":""6"",""Q04"":""4"",""Q05"":""2""}","survey-template","5","19726","0.0-4.0","6","5","6","4","2","4","4","5","5","5","4","0","-1","0","1","-2","2","2","0","4","5","5","5","5","4","4","3","4","5","5","6","7","5","7","8","7","8","8","5","5","3","6","2","3","3","3","6","5","1","5","2","6","3","6","3","6","5","4","6","5","5","3","1","3","6","5","5","2","7","7","3","6","1","3","7","3","3","2","5","741960766508503041","张","696","Female","[""好我"",""坏我"",""好她"",""坏她""]","[""强我"",""弱我"",""强她"",""弱她""]","","","","","","","","{""Q01"":""6"",""Q02"":""5"",""Q03"":""6"",""Q04"":""4"",""Q05"":""2""}","[0,1,2,3,4]","[""Q01"",""Q01"",""Q02"",""Q03"",""Q04"",""Q05""]","[2072.899999976158,2180.5,3892.699999988079,4896.399999976158,7160.699999988079,9562.599999964237]","[]","[2072.899999976158,2180.5,3892.699999988079,4896.399999976158,7160.699999988079,9562.599999964237,10230.399999976158]","0.4","0.5","0","","","","","","","","","","","","","","","","","","","","","","",""
"14247.800000011921","","{""Q01"":""4"",""Q02"":""4"",""Q03"":""5"",""Q04"":""5"",""Q05"":""5"",""Q06"":""4""}","survey-template","6","33980","0.0-5.0","6","5","6","4","2","4","4","5","5","5","4","0","-1","0","1","-2","2","2","0","4","5","5","5","5","4","4","3","4","5","5","6","7","5","7","8","7","8","8","5","5","3","6","2","3","3","3","6","5","1","5","2","6","3","6","3","6","5","4","6","5","5","3","1","3","6","5","5","2","7","7","3","6","1","3","7","3","3","2","5","741960766508503041","张","696","Female","[""好我"",""坏我"",""好她"",""坏她""]","[""强我"",""弱我"",""强她"",""弱她""]","","","","","","","","{""Q01"":""4"",""Q02"":""4"",""Q03"":""5"",""Q04"":""5"",""Q05"":""5"",""Q06"":""4""}","[0,1,2,3,4,5]","[""Q01"",""Q02"",""Q02"",""Q03"",""Q04"",""Q05"",""Q06""]","[2034.2000000476837,5680.800000011921,6844.800000011921,8276.700000047684,9708.600000023842,11151.900000035763,13614.700000047684]","[]","[2034.2000000476837,5680.800000011921,6408.800000011921,6844.800000011921,7972.800000011921,8276.700000047684,9708.600000023842,11151.900000035763,13614.700000047684,14246.700000047684]","0.3333333333333333","0.2","0","","","","","","","","","","","","","","","","","","","","","","",""
"18707.80000001192","","{""Q01"":""0"",""Q02"":""-1"",""Q03"":""0"",""Q04"":""1"",""Q05"":""-2"",""Q06"":""2"",""Q07"":""2"",""Q08"":""0""}","survey-template","7","52695","0.0-6.0","6","5","6","4","2","4","4","5","5","5","4","0","-1","0","1","-2","2","2","0","4","5","5","5","5","4","4","3","4","5","5","6","7","5","7","8","7","8","8","5","5","3","6","2","3","3","3","6","5","1","5","2","6","3","6","3","6","5","4","6","5","5","3","1","3","6","5","5","2","7","7","3","6","1","3","7","3","3","2","5","741960766508503041","张","696","Female","[""好我"",""坏我"",""好她"",""坏她""]","[""强我"",""弱我"",""强她"",""弱她""]","","","","","","","","{""Q01"":""0"",""Q02"":""-1"",""Q03"":""0"",""Q04"":""1"",""Q05"":""-2"",""Q06"":""2"",""Q07"":""2"",""Q08"":""0""}","[0,1,2,3,4,5,6,7]","[""Q01"",""Q02"",""Q03"",""Q04"",""Q05"",""Q06"",""Q07"",""Q08""]","[2981,6549.099999964237,9186.899999976158,10854.899999976158,13711,15471,16768.80000001192,18160.899999976158]","[]","[2981,6549.099999964237,9186.899999976158,10854.899999976158,13711,15471,16768.80000001192,17832.899999976158,18160.899999976158,18704.899999976158]","0.375","0.42857142857142855","0","","","","","","","","","","","","","","","","","","","","","","",""
"4916","
    <p><div style='color:white;font-size:35px; line-height:20px;'>词汇评估任务</div></p><br>
    <p><div style='color:white;font-size:25px; line-height:20px;'>请再次回忆该亲密的朋友，你们至少2年前就认识了，并且最近2年经常见面。</div></p>
    <p><div style='color:white;font-size:25px; line-height:20px;'>在本实验中，您将会看到一些形容词。</div></p>
    <p><div style='color:yellow;font-size:25px; line-height:20px;'>您的任务是判断这些形容词是否符合对您自己或您的朋友的描述。</div></p><p style='font-size:35px'>符合按<span style=""color:lightgreen""> f 键</span>，不符合按<span style=""color:red""> j 键</span></p>","0","html-button-response","8","57620","0.0-7.0-0.0","6","5","6","4","2","4","4","5","5","5","4","0","-1","0","1","-2","2","2","0","4","5","5","5","5","4","4","3","4","5","5","6","7","5","7","8","7","8","8","5","5","3","6","2","3","3","3","6","5","1","5","2","6","3","6","3","6","5","4","6","5","5","3","1","3","6","5","5","2","7","7","3","6","1","3","7","3","3","2","5","741960766508503041","张","696","Female","[""好我"",""坏我"",""好她"",""坏她""]","[""强我"",""弱我"",""强她"",""弱她""]","","","","","","","","","","","","","","","","","SRET_EW","EW_instructions","Fri Jan 19 2024 21:58:48 GMT+0800 (中国标准时间)","","","","","","","","","","","","","","","","","","","",""
"1106","","f","psychophysics","9","59741","0.0-7.0-1.0-0.0","6","5","6","4","2","4","4","5","5","5","4","0","-1","0","1","-2","2","2","0","4","5","5","5","5","4","4","3","4","5","5","6","7","5","7","8","7","8","8","5","5","3","6","2","3","3","3","6","5","1","5","2","6","3","6","3","6","5","4","6","5","5","3","1","3","6","5","5","2","7","7","3","6","1","3","7","3","3","2","5","741960766508503041","张","696","Female","[""好我"",""坏我"",""好她"",""坏她""]","[""强我"",""弱我"",""强她"",""弱她""]","","","","","","","","yes","","","","","","","","","SRET_EW","EW_practice","","key","f","16.799428571428535","640","356","朋友","忠实","Positive","morality","","","","","","","","","","",""
"466","","f","psychophysics","10","61224","0.0-7.0-1.0-0.1","6","5","6","4","2","4","4","5","5","5","4","0","-1","0","1","-2","2","2","0","4","5","5","5","5","4","4","3","4","5","5","6","7","5","7","8","7","8","8","5","5","3","6","2","3","3","3","6","5","1","5","2","6","3","6","3","6","5","4","6","5","5","3","1","3","6","5","5","2","7","7","3","6","1","3","7","3","3","2","5","741960766508503041","张","696","Female","[""好我"",""坏我"",""好她"",""坏她""]","[""强我"",""弱我"",""强她"",""弱她""]","","","","","","","","yes","","","","","","","","","SRET_EW","EW_practice","","key","f","16.667897727272745","640","356","自己","严谨","Positive","ability","","","","","","","","","","",""
"null","","null","psychophysics","11","64236","0.0-7.0-1.0-0.2","6","5","6","4","2","4","4","5","5","5","4","0","-1","0","1","-2","2","2","0","4","5","5","5","5","4","4","3","4","5","5","6","7","5","7","8","7","8","8","5","5","3","6","2","3","3","3","6","5","1","5","2","6","3","6","3","6","5","4","6","5","5","3","1","3","6","5","5","2","7","7","3","6","1","3","7","3","3","2","5","741960766508503041","张","696","Female","[""好我"",""坏我"",""好她"",""坏她""]","[""强我"",""弱我"",""强她"",""弱她""]","","","","","","","","","","","","","","","","","SRET_EW","EW_practice","","key","null","16.666672222222203","640","356","自己","刻板","Negative","ability","","","","","","","","","","",""
"1009","","j","psychophysics","12","66248","0.0-7.0-1.0-0.3","6","5","6","4","2","4","4","5","5","5","4","0","-1","0","1","-2","2","2","0","4","5","5","5","5","4","4","3","4","5","5","6","7","5","7","8","7","8","8","5","5","3","6","2","3","3","3","6","5","1","5","2","6","3","6","3","6","5","4","6","5","5","3","1","3","6","5","5","2","7","7","3","6","1","3","7","3","3","2","5","741960766508503041","张","696","Female","[""好我"",""坏我"",""好她"",""坏她""]","[""强我"",""弱我"",""强她"",""弱她""]","","","","","","","","no","","","","","","","","","SRET_EW","EW_practice","","key","j","16.66706666666669","640","356","朋友","徇私","Negative","morality","","","","","","","","","","",""
"7800","
    <p><div style='color:white;font-size:35px; line-height:20px;'>请您再次阅读实验要求</div></p><br>
    <p><div style='color:white;font-size:25px; line-height:20px;'>请回忆某一个亲密的朋友，你们至少2年前就认识了，并且最近2年经常见面。</div></p>
    <p><div style='color:white;font-size:25px; line-height:20px;'>在本实验中，您将会看到一些形容词。</div></p>
    <p><div style='color:yellow;font-size:25px; line-height:20px;'>您的任务是判断这些形容词是否符合对您自己或您的朋友的描述。</div></p>
    <p><div class='footer' style='font-size:25px; line-height:20px;'>如果对本实验还有不清楚之处，请立即向实验员咨询。</p><p style='font-size:25px; line-height:20px;'>如果您明白了规则：</p><p style='font-size:22px; line-height:20px;'>请按 继续 进入正式实验</p>
    </div>
    <p style='font-size:35px'>符合按<span style=""color:lightgreen""> f 键</span>，不符合按<span style=""color:red""> j 键</span></p>","0","html-button-response","13","74051","0.0-7.0-2.0","6","5","6","4","2","4","4","5","5","5","4","0","-1","0","1","-2","2","2","0","4","5","5","5","5","4","4","3","4","5","5","6","7","5","7","8","7","8","8","5","5","3","6","2","3","3","3","6","5","1","5","2","6","3","6","3","6","5","4","6","5","5","3","1","3","6","5","5","2","7","7","3","6","1","3","7","3","3","2","5","741960766508503041","张","696","Female","[""好我"",""坏我"",""好她"",""坏她""]","[""强我"",""弱我"",""强她"",""弱她""]","","","","","","","","","","","","","","","","","SRET_EW","prac_instructions","Fri Jan 19 2024 21:58:48 GMT+0800 (中国标准时间)","","","","","","","","","","","","","","","","","","","",""
"557","","j","psychophysics","14","75612","0.0-7.0-3.0-0.0","6","5","6","4","2","4","4","5","5","5","4","0","-1","0","1","-2","2","2","0","4","5","5","5","5","4","4","3","4","5","5","6","7","5","7","8","7","8","8","5","5","3","6","2","3","3","3","6","5","1","5","2","6","3","6","3","6","5","4","6","5","5","3","1","3","6","5","5","2","7","7","3","6","1","3","7","3","3","2","5","741960766508503041","张","696","Female","[""好我"",""坏我"",""好她"",""坏她""]","[""强我"",""弱我"",""强她"",""弱她""]","","","","","","","","no","","","","","","","","","SRET","EW_formal","","key","j","16.668010638297773","640","356","自己","说谎","Negative","morality","","","","","","","","","","",""
"624","","f","psychophysics","15","77240","0.0-7.0-3.0-0.1","6","5","6","4","2","4","4","5","5","5","4","0","-1","0","1","-2","2","2","0","4","5","5","5","5","4","4","3","4","5","5","6","7","5","7","8","7","8","8","5","5","3","6","2","3","3","3","6","5","1","5","2","6","3","6","3","6","5","4","6","5","5","3","1","3","6","5","5","2","7","7","3","6","1","3","7","3","3","2","5","741960766508503041","张","696","Female","[""好我"",""坏我"",""好她"",""坏她""]","[""强我"",""弱我"",""强她"",""弱她""]","","","","","","","","yes","","","","","","","","","SRET","EW_formal","","key","f","16.667958333333445","640","356","朋友","务实","Positive","ability","","","","","","","","","","",""
"522","","j","psychophysics","16","78768","0.0-7.0-3.0-0.2","6","5","6","4","2","4","4","5","5","5","4","0","-1","0","1","-2","2","2","0","4","5","5","5","5","4","4","3","4","5","5","6","7","5","7","8","7","8","8","5","5","3","6","2","3","3","3","6","5","1","5","2","6","3","6","3","6","5","4","6","5","5","3","1","3","6","5","5","2","7","7","3","6","1","3","7","3","3","2","5","741960766508503041","张","696","Female","[""好我"",""坏我"",""好她"",""坏她""]","[""强我"",""弱我"",""强她"",""弱她""]","","","","","","","","no","","","","","","","","","SRET","EW_formal","","key","j","16.66864835164829","640","356","朋友","迷糊","Negative","ability","","","","","","","","","","",""
"559","","f","psychophysics","17","80330","0.0-7.0-3.0-0.3","6","5","6","4","2","4","4","5","5","5","4","0","-1","0","1","-2","2","2","0","4","5","5","5","5","4","4","3","4","5","5","6","7","5","7","8","7","8","8","5","5","3","6","2","3","3","3","6","5","1","5","2","6","3","6","3","6","5","4","6","5","5","3","1","3","6","5","5","2","7","7","3","6","1","3","7","3","3","2","5","741960766508503041","张","696","Female","[""好我"",""坏我"",""好她"",""坏她""]","[""强我"",""弱我"",""强她"",""弱她""]","","","","","","","","yes","","","","","","","","","SRET","EW_formal","","key","f","16.66835483870959","640","356","自己","坚贞","Positive","morality","","","","","","","","","","",""
"501","","f","psychophysics","18","81836","0.0-7.0-3.0-0.4","6","5","6","4","2","4","4","5","5","5","4","0","-1","0","1","-2","2","2","0","4","5","5","5","5","4","4","3","4","5","5","6","7","5","7","8","7","8","8","5","5","3","6","2","3","3","3","6","5","1","5","2","6","3","6","3","6","5","4","6","5","5","3","1","3","6","5","5","2","7","7","3","6","1","3","7","3","3","2","5","741960766508503041","张","696","Female","[""好我"",""坏我"",""好她"",""坏她""]","[""强我"",""弱我"",""强她"",""弱她""]","","","","","","","","yes","","","","","","","","","SRET","EW_formal","","key","f","16.668786516854066","640","356","自己","忠诚","Positive","morality","","","","","","","","","","",""
"451","","f","psychophysics","19","83291","0.0-7.0-3.0-0.5","6","5","6","4","2","4","4","5","5","5","4","0","-1","0","1","-2","2","2","0","4","5","5","5","5","4","4","3","4","5","5","6","7","5","7","8","7","8","8","5","5","3","6","2","3","3","3","6","5","1","5","2","6","3","6","3","6","5","4","6","5","5","3","1","3","6","5","5","2","7","7","3","6","1","3","7","3","3","2","5","741960766508503041","张","696","Female","[""好我"",""坏我"",""好她"",""坏她""]","[""强我"",""弱我"",""强她"",""弱她""]","","","","","","","","yes","","","","","","","","","SRET","EW_formal","","key","f","16.66710465116278","640","356","自己","精干","Positive","ability","","","","","","","","","","",""
"468","","f","psychophysics","20","84765","0.0-7.0-3.0-0.6","6","5","6","4","2","4","4","5","5","5","4","0","-1","0","1","-2","2","2","0","4","5","5","5","5","4","4","3","4","5","5","6","7","5","7","8","7","8","8","5","5","3","6","2","3","3","3","6","5","1","5","2","6","3","6","3","6","5","4","6","5","5","3","1","3","6","5","5","2","7","7","3","6","1","3","7","3","3","2","5","741960766508503041","张","696","Female","[""好我"",""坏我"",""好她"",""坏她""]","[""强我"",""弱我"",""强她"",""弱她""]","","","","","","","","yes","","","","","","","","","SRET","EW_formal","","key","f","16.667693181818155","640","356","朋友","慈悲","Positive","morality","","","","","","","","","","",""
"443","","j","psychophysics","21","86212","0.0-7.0-3.0-0.7","6","5","6","4","2","4","4","5","5","5","4","0","-1","0","1","-2","2","2","0","4","5","5","5","5","4","4","3","4","5","5","6","7","5","7","8","7","8","8","5","5","3","6","2","3","3","3","6","5","1","5","2","6","3","6","3","6","5","4","6","5","5","3","1","3","6","5","5","2","7","7","3","6","1","3","7","3","3","2","5","741960766508503041","张","696","Female","[""好我"",""坏我"",""好她"",""坏她""]","[""强我"",""弱我"",""强她"",""弱她""]","","","","","","","","no","","","","","","","","","SRET","EW_formal","","key","j","16.66838372093023","640","356","朋友","拙笨","Negative","ability","","","","","","","","","","",""
"835","","j","psychophysics","22","88052","0.0-7.0-3.0-0.8","6","5","6","4","2","4","4","5","5","5","4","0","-1","0","1","-2","2","2","0","4","5","5","5","5","4","4","3","4","5","5","6","7","5","7","8","7","8","8","5","5","3","6","2","3","3","3","6","5","1","5","2","6","3","6","3","6","5","4","6","5","5","3","1","3","6","5","5","2","7","7","3","6","1","3","7","3","3","2","5","741960766508503041","张","696","Female","[""好我"",""坏我"",""好她"",""坏她""]","[""强我"",""弱我"",""强她"",""弱她""]","","","","","","","","no","","","","","","","","","SRET","EW_formal","","key","j","16.668963302752307","640","356","自己","逞强","Negative","ability","","","","","","","","","","",""
"535","","j","psychophysics","23","89591","0.0-7.0-3.0-0.9","6","5","6","4","2","4","4","5","5","5","4","0","-1","0","1","-2","2","2","0","4","5","5","5","5","4","4","3","4","5","5","6","7","5","7","8","7","8","8","5","5","3","6","2","3","3","3","6","5","1","5","2","6","3","6","3","6","5","4","6","5","5","3","1","3","6","5","5","2","7","7","3","6","1","3","7","3","3","2","5","741960766508503041","张","696","Female","[""好我"",""坏我"",""好她"",""坏她""]","[""强我"",""弱我"",""强她"",""弱她""]","","","","","","","","no","","","","","","","","","SRET","EW_formal","","key","j","16.669263736263797","640","356","自己","卑鄙","Negative","morality","","","","","","","","","","",""
"474","","f","psychophysics","24","91076","0.0-7.0-3.0-0.10","6","5","6","4","2","4","4","5","5","5","4","0","-1","0","1","-2","2","2","0","4","5","5","5","5","4","4","3","4","5","5","6","7","5","7","8","7","8","8","5","5","3","6","2","3","3","3","6","5","1","5","2","6","3","6","3","6","5","4","6","5","5","3","1","3","6","5","5","2","7","7","3","6","1","3","7","3","3","2","5","741960766508503041","张","696","Female","[""好我"",""坏我"",""好她"",""坏她""]","[""强我"",""弱我"",""强她"",""弱她""]","","","","","","","","yes","","","","","","","","","SRET","EW_formal","","key","f","16.666818181818268","640","356","朋友","高效","Positive","ability","","","","","","","","","","",""
"773","","j","psychophysics","25","92859","0.0-7.0-3.0-0.11","6","5","6","4","2","4","4","5","5","5","4","0","-1","0","1","-2","2","2","0","4","5","5","5","5","4","4","3","4","5","5","6","7","5","7","8","7","8","8","5","5","3","6","2","3","3","3","6","5","1","5","2","6","3","6","3","6","5","4","6","5","5","3","1","3","6","5","5","2","7","7","3","6","1","3","7","3","3","2","5","741960766508503041","张","696","Female","[""好我"",""坏我"",""好她"",""坏她""]","[""强我"",""弱我"",""强她"",""弱她""]","","","","","","","","no","","","","","","","","","SRET","EW_formal","","key","j","16.66740566037745","640","356","朋友","外行","Negative","ability","","","","","","","","","","",""
"441","","f","psychophysics","26","94309","0.0-7.0-3.0-0.12","6","5","6","4","2","4","4","5","5","5","4","0","-1","0","1","-2","2","2","0","4","5","5","5","5","4","4","3","4","5","5","6","7","5","7","8","7","8","8","5","5","3","6","2","3","3","3","6","5","1","5","2","6","3","6","3","6","5","4","6","5","5","3","1","3","6","5","5","2","7","7","3","6","1","3","7","3","3","2","5","741960766508503041","张","696","Female","[""好我"",""坏我"",""好她"",""坏她""]","[""强我"",""弱我"",""强她"",""弱她""]","","","","","","","","yes","","","","","","","","","SRET","EW_formal","","key","f","16.66858139534875","640","356","自己","文明","Positive","morality","","","","","","","","","","",""
"540","","j","psychophysics","27","95862","0.0-7.0-3.0-0.13","6","5","6","4","2","4","4","5","5","5","4","0","-1","0","1","-2","2","2","0","4","5","5","5","5","4","4","3","4","5","5","6","7","5","7","8","7","8","8","5","5","3","6","2","3","3","3","6","5","1","5","2","6","3","6","3","6","5","4","6","5","5","3","1","3","6","5","5","2","7","7","3","6","1","3","7","3","3","2","5","741960766508503041","张","696","Female","[""好我"",""坏我"",""好她"",""坏她""]","[""强我"",""弱我"",""强她"",""弱她""]","","","","","","","","no","","","","","","","","","SRET","EW_formal","","key","j","16.668032258064443","640","356","自己","怠惰","Negative","ability","","","","","","","","","","",""
"529","","j","psychophysics","28","97396","0.0-7.0-3.0-0.14","6","5","6","4","2","4","4","5","5","5","4","0","-1","0","1","-2","2","2","0","4","5","5","5","5","4","4","3","4","5","5","6","7","5","7","8","7","8","8","5","5","3","6","2","3","3","3","6","5","1","5","2","6","3","6","3","6","5","4","6","5","5","3","1","3","6","5","5","2","7","7","3","6","1","3","7","3","3","2","5","741960766508503041","张","696","Female","[""好我"",""坏我"",""好她"",""坏她""]","[""强我"",""弱我"",""强她"",""弱她""]","","","","","","","","no","","","","","","","","","SRET","EW_formal","","key","j","16.66803296703294","640","356","朋友","偏私","Negative","morality","","","","","","","","","","",""
"491","","j","psychophysics","29","98892","0.0-7.0-3.0-0.15","6","5","6","4","2","4","4","5","5","5","4","0","-1","0","1","-2","2","2","0","4","5","5","5","5","4","4","3","4","5","5","6","7","5","7","8","7","8","8","5","5","3","6","2","3","3","3","6","5","1","5","2","6","3","6","3","6","5","4","6","5","5","3","1","3","6","5","5","2","7","7","3","6","1","3","7","3","3","2","5","741960766508503041","张","696","Female","[""好我"",""坏我"",""好她"",""坏她""]","[""强我"",""弱我"",""强她"",""弱她""]","","","","","","","","no","","","","","","","","","SRET","EW_formal","","key","j","16.670079545454595","640","356","朋友","不仁","Negative","morality","","","","","","","","","","",""
"568","","j","psychophysics","30","100468","0.0-7.0-3.0-0.16","6","5","6","4","2","4","4","5","5","5","4","0","-1","0","1","-2","2","2","0","4","5","5","5","5","4","4","3","4","5","5","6","7","5","7","8","7","8","8","5","5","3","6","2","3","3","3","6","5","1","5","2","6","3","6","3","6","5","4","6","5","5","3","1","3","6","5","5","2","7","7","3","6","1","3","7","3","3","2","5","741960766508503041","张","696","Female","[""好我"",""坏我"",""好她"",""坏她""]","[""强我"",""弱我"",""强她"",""弱她""]","","","","","","","","no","","","","","","","","","SRET","EW_formal","","key","j","16.66760638297862","640","356","自己","逞能","Negative","ability","","","","","","","","","","",""
"469","","f","psychophysics","31","101940","0.0-7.0-3.0-0.17","6","5","6","4","2","4","4","5","5","5","4","0","-1","0","1","-2","2","2","0","4","5","5","5","5","4","4","3","4","5","5","6","7","5","7","8","7","8","8","5","5","3","6","2","3","3","3","6","5","1","5","2","6","3","6","3","6","5","4","6","5","5","3","1","3","6","5","5","2","7","7","3","6","1","3","7","3","3","2","5","741960766508503041","张","696","Female","[""好我"",""坏我"",""好她"",""坏她""]","[""强我"",""弱我"",""强她"",""弱她""]","","","","","","","","yes","","","","","","","","","SRET","EW_formal","","key","f","16.66937931034488","640","356","朋友","守信","Positive","morality","","","","","","","","","","",""
"828","","j","psychophysics","32","103785","0.0-7.0-3.0-0.18","6","5","6","4","2","4","4","5","5","5","4","0","-1","0","1","-2","2","2","0","4","5","5","5","5","4","4","3","4","5","5","6","7","5","7","8","7","8","8","5","5","3","6","2","3","3","3","6","5","1","5","2","6","3","6","3","6","5","4","6","5","5","3","1","3","6","5","5","2","7","7","3","6","1","3","7","3","3","2","5","741960766508503041","张","696","Female","[""好我"",""坏我"",""好她"",""坏她""]","[""强我"",""弱我"",""强她"",""弱她""]","","","","","","","","no","","","","","","","","","SRET","EW_formal","","key","j","16.66724545454543","640","356","自己","歹毒","Negative","morality","","","","","","","","","","",""
"574","","j","psychophysics","33","105363","0.0-7.0-3.0-0.19","6","5","6","4","2","4","4","5","5","5","4","0","-1","0","1","-2","2","2","0","4","5","5","5","5","4","4","3","4","5","5","6","7","5","7","8","7","8","8","5","5","3","6","2","3","3","3","6","5","1","5","2","6","3","6","3","6","5","4","6","5","5","3","1","3","6","5","5","2","7","7","3","6","1","3","7","3","3","2","5","741960766508503041","张","696","Female","[""好我"",""坏我"",""好她"",""坏她""]","[""强我"",""弱我"",""强她"",""弱她""]","","","","","","","","no","","","","","","","","","SRET","EW_formal","","key","j","16.668829787233992","640","356","朋友","阴毒","Negative","morality","","","","","","","","","","",""
"573","","f","psychophysics","34","106940","0.0-7.0-3.0-0.20","6","5","6","4","2","4","4","5","5","5","4","0","-1","0","1","-2","2","2","0","4","5","5","5","5","4","4","3","4","5","5","6","7","5","7","8","7","8","8","5","5","3","6","2","3","3","3","6","5","1","5","2","6","3","6","3","6","5","4","6","5","5","3","1","3","6","5","5","2","7","7","3","6","1","3","7","3","3","2","5","741960766508503041","张","696","Female","[""好我"",""坏我"",""好她"",""坏她""]","[""强我"",""弱我"",""强她"",""弱她""]","","","","","","","","yes","","","","","","","","","SRET","EW_formal","","key","f","16.66858064516129","640","356","朋友","肯干","Positive","ability","","","","","","","","","","",""
"451","","f","psychophysics","35","108401","0.0-7.0-3.0-0.21","6","5","6","4","2","4","4","5","5","5","4","0","-1","0","1","-2","2","2","0","4","5","5","5","5","4","4","3","4","5","5","6","7","5","7","8","7","8","8","5","5","3","6","2","3","3","3","6","5","1","5","2","6","3","6","3","6","5","4","6","5","5","3","1","3","6","5","5","2","7","7","3","6","1","3","7","3","3","2","5","741960766508503041","张","696","Female","[""好我"",""坏我"",""好她"",""坏她""]","[""强我"",""弱我"",""强她"",""弱她""]","","","","","","","","yes","","","","","","","","","SRET","EW_formal","","key","f","16.668160919540284","640","356","自己","义气","Positive","morality","","","","","","","","","","",""
"522","","f","psychophysics","36","109927","0.0-7.0-3.0-0.22","6","5","6","4","2","4","4","5","5","5","4","0","-1","0","1","-2","2","2","0","4","5","5","5","5","4","4","3","4","5","5","6","7","5","7","8","7","8","8","5","5","3","6","2","3","3","3","6","5","1","5","2","6","3","6","3","6","5","4","6","5","5","3","1","3","6","5","5","2","7","7","3","6","1","3","7","3","3","2","5","741960766508503041","张","696","Female","[""好我"",""坏我"",""好她"",""坏她""]","[""强我"",""弱我"",""强她"",""弱她""]","","","","","","","","yes","","","","","","","","","SRET","EW_formal","","key","f","16.668688888888898","640","356","自己","好心","Positive","morality","","","","","","","","","","",""
"472","","f","psychophysics","37","111409","0.0-7.0-3.0-0.23","6","5","6","4","2","4","4","5","5","5","4","0","-1","0","1","-2","2","2","0","4","5","5","5","5","4","4","3","4","5","5","6","7","5","7","8","7","8","8","5","5","3","6","2","3","3","3","6","5","1","5","2","6","3","6","3","6","5","4","6","5","5","3","1","3","6","5","5","2","7","7","3","6","1","3","7","3","3","2","5","741960766508503041","张","696","Female","[""好我"",""坏我"",""好她"",""坏她""]","[""强我"",""弱我"",""强她"",""弱她""]","","","","","","","","yes","","","","","","","","","SRET","EW_formal","","key","f","16.66779545454549","640","356","朋友","干练","Positive","ability","","","","","","","","","","",""
"540","","j","psychophysics","38","112960","0.0-7.0-3.0-0.24","6","5","6","4","2","4","4","5","5","5","4","0","-1","0","1","-2","2","2","0","4","5","5","5","5","4","4","3","4","5","5","6","7","5","7","8","7","8","8","5","5","3","6","2","3","3","3","6","5","1","5","2","6","3","6","3","6","5","4","6","5","5","3","1","3","6","5","5","2","7","7","3","6","1","3","7","3","3","2","5","741960766508503041","张","696","Female","[""好我"",""坏我"",""好她"",""坏她""]","[""强我"",""弱我"",""强她"",""弱她""]","","","","","","","","no","","","","","","","","","SRET","EW_formal","","key","j","16.66767391304355","640","356","朋友","浅薄","Negative","ability","","","","","","","","","","",""
"482","","j","psychophysics","39","114450","0.0-7.0-3.0-0.25","6","5","6","4","2","4","4","5","5","5","4","0","-1","0","1","-2","2","2","0","4","5","5","5","5","4","4","3","4","5","5","6","7","5","7","8","7","8","8","5","5","3","6","2","3","3","3","6","5","1","5","2","6","3","6","3","6","5","4","6","5","5","3","1","3","6","5","5","2","7","7","3","6","1","3","7","3","3","2","5","741960766508503041","张","696","Female","[""好我"",""坏我"",""好她"",""坏她""]","[""强我"",""弱我"",""强她"",""弱她""]","","","","","","","","no","","","","","","","","","SRET","EW_formal","","key","j","16.667629213483245","640","356","自己","昏庸","Negative","ability","","","","","","","","","","",""
"465","","j","psychophysics","40","115919","0.0-7.0-3.0-0.26","6","5","6","4","2","4","4","5","5","5","4","0","-1","0","1","-2","2","2","0","4","5","5","5","5","4","4","3","4","5","5","6","7","5","7","8","7","8","8","5","5","3","6","2","3","3","3","6","5","1","5","2","6","3","6","3","6","5","4","6","5","5","3","1","3","6","5","5","2","7","7","3","6","1","3","7","3","3","2","5","741960766508503041","张","696","Female","[""好我"",""坏我"",""好她"",""坏她""]","[""强我"",""弱我"",""强她"",""弱她""]","","","","","","","","no","","","","","","","","","SRET","EW_formal","","key","j","16.66785057471251","640","356","自己","淫乱","Negative","morality","","","","","","","","","","",""
"450","","j","psychophysics","41","117373","0.0-7.0-3.0-0.27","6","5","6","4","2","4","4","5","5","5","4","0","-1","0","1","-2","2","2","0","4","5","5","5","5","4","4","3","4","5","5","6","7","5","7","8","7","8","8","5","5","3","6","2","3","3","3","6","5","1","5","2","6","3","6","3","6","5","4","6","5","5","3","1","3","6","5","5","2","7","7","3","6","1","3","7","3","3","2","5","741960766508503041","张","696","Female","[""好我"",""坏我"",""好她"",""坏她""]","[""强我"",""弱我"",""强她"",""弱她""]","","","","","","","","no","","","","","","","","","SRET","EW_formal","","key","j","16.669197674418683","640","356","朋友","屈才","Negative","ability","","","","","","","","","","",""
"420","","f","psychophysics","42","118797","0.0-7.0-3.0-0.28","6","5","6","4","2","4","4","5","5","5","4","0","-1","0","1","-2","2","2","0","4","5","5","5","5","4","4","3","4","5","5","6","7","5","7","8","7","8","8","5","5","3","6","2","3","3","3","6","5","1","5","2","6","3","6","3","6","5","4","6","5","5","3","1","3","6","5","5","2","7","7","3","6","1","3","7","3","3","2","5","741960766508503041","张","696","Female","[""好我"",""坏我"",""好她"",""坏她""]","[""强我"",""弱我"",""强她"",""弱她""]","","","","","","","","yes","","","","","","","","","SRET","EW_formal","","key","f","16.668905882352984","640","356","朋友","善良","Positive","morality","","","","","","","","","","",""
"565","","j","psychophysics","43","120365","0.0-7.0-3.0-0.29","6","5","6","4","2","4","4","5","5","5","4","0","-1","0","1","-2","2","2","0","4","5","5","5","5","4","4","3","4","5","5","6","7","5","7","8","7","8","8","5","5","3","6","2","3","3","3","6","5","1","5","2","6","3","6","3","6","5","4","6","5","5","3","1","3","6","5","5","2","7","7","3","6","1","3","7","3","3","2","5","741960766508503041","张","696","Female","[""好我"",""坏我"",""好她"",""坏她""]","[""强我"",""弱我"",""强她"",""弱她""]","","","","","","","","no","","","","","","","","","SRET","EW_formal","","key","j","16.66898924731183","640","356","自己","无为","Negative","ability","","","","","","","","","","",""
"631","","j","psychophysics","44","122001","0.0-7.0-3.0-0.30","6","5","6","4","2","4","4","5","5","5","4","0","-1","0","1","-2","2","2","0","4","5","5","5","5","4","4","3","4","5","5","6","7","5","7","8","7","8","8","5","5","3","6","2","3","3","3","6","5","1","5","2","6","3","6","3","6","5","4","6","5","5","3","1","3","6","5","5","2","7","7","3","6","1","3","7","3","3","2","5","741960766508503041","张","696","Female","[""好我"",""坏我"",""好她"",""坏她""]","[""强我"",""弱我"",""强她"",""弱她""]","","","","","","","","no","","","","","","","","","SRET","EW_formal","","key","j","16.66978350515476","640","356","朋友","伪善","Negative","morality","","","","","","","","","","",""
"524","","j","psychophysics","45","123529","0.0-7.0-3.0-0.31","6","5","6","4","2","4","4","5","5","5","4","0","-1","0","1","-2","2","2","0","4","5","5","5","5","4","4","3","4","5","5","6","7","5","7","8","7","8","8","5","5","3","6","2","3","3","3","6","5","1","5","2","6","3","6","3","6","5","4","6","5","5","3","1","3","6","5","5","2","7","7","3","6","1","3","7","3","3","2","5","741960766508503041","张","696","Female","[""好我"",""坏我"",""好她"",""坏她""]","[""强我"",""弱我"",""强她"",""弱她""]","","","","","","","","no","","","","","","","","","SRET","EW_formal","","key","j","16.667989010989135","640","356","朋友","利己","Negative","morality","","","","","","","","","","",""
"441","","f","psychophysics","46","124975","0.0-7.0-3.0-0.32","6","5","6","4","2","4","4","5","5","5","4","0","-1","0","1","-2","2","2","0","4","5","5","5","5","4","4","3","4","5","5","6","7","5","7","8","7","8","8","5","5","3","6","2","3","3","3","6","5","1","5","2","6","3","6","3","6","5","4","6","5","5","3","1","3","6","5","5","2","7","7","3","6","1","3","7","3","3","2","5","741960766508503041","张","696","Female","[""好我"",""坏我"",""好她"",""坏她""]","[""强我"",""弱我"",""强她"",""弱她""]","","","","","","","","yes","","","","","","","","","SRET","EW_formal","","key","f","16.667717647058925","640","356","朋友","业余","Negative","ability","","","","","","","","","","",""
"374","","f","psychophysics","47","126353","0.0-7.0-3.0-0.33","6","5","6","4","2","4","4","5","5","5","4","0","-1","0","1","-2","2","2","0","4","5","5","5","5","4","4","3","4","5","5","6","7","5","7","8","7","8","8","5","5","3","6","2","3","3","3","6","5","1","5","2","6","3","6","3","6","5","4","6","5","5","3","1","3","6","5","5","2","7","7","3","6","1","3","7","3","3","2","5","741960766508503041","张","696","Female","[""好我"",""坏我"",""好她"",""坏她""]","[""强我"",""弱我"",""强她"",""弱她""]","","","","","","","","yes","","","","","","","","","SRET","EW_formal","","key","f","16.668426829268313","640","356","朋友","忠良","Positive","morality","","","","","","","","","","",""
"473","","j","psychophysics","48","127830","0.0-7.0-3.0-0.34","6","5","6","4","2","4","4","5","5","5","4","0","-1","0","1","-2","2","2","0","4","5","5","5","5","4","4","3","4","5","5","6","7","5","7","8","7","8","8","5","5","3","6","2","3","3","3","6","5","1","5","2","6","3","6","3","6","5","4","6","5","5","3","1","3","6","5","5","2","7","7","3","6","1","3","7","3","3","2","5","741960766508503041","张","696","Female","[""好我"",""坏我"",""好她"",""坏她""]","[""强我"",""弱我"",""强她"",""弱她""]","","","","","","","","no","","","","","","","","","SRET","EW_formal","","key","j","16.66754545454536","640","356","自己","无知","Negative","ability","","","","","","","","","","",""
"483","","f","psychophysics","49","129317","0.0-7.0-3.0-0.35","6","5","6","4","2","4","4","5","5","5","4","0","-1","0","1","-2","2","2","0","4","5","5","5","5","4","4","3","4","5","5","6","7","5","7","8","7","8","8","5","5","3","6","2","3","3","3","6","5","1","5","2","6","3","6","3","6","5","4","6","5","5","3","1","3","6","5","5","2","7","7","3","6","1","3","7","3","3","2","5","741960766508503041","张","696","Female","[""好我"",""坏我"",""好她"",""坏她""]","[""强我"",""弱我"",""强她"",""弱她""]","","","","","","","","yes","","","","","","","","","SRET","EW_formal","","key","f","16.669204545454537","640","356","自己","智慧","Positive","ability","","","","","","","","","","",""
"659","","f","psychophysics","50","130981","0.0-7.0-3.0-0.36","6","5","6","4","2","4","4","5","5","5","4","0","-1","0","1","-2","2","2","0","4","5","5","5","5","4","4","3","4","5","5","6","7","5","7","8","7","8","8","5","5","3","6","2","3","3","3","6","5","1","5","2","6","3","6","3","6","5","4","6","5","5","3","1","3","6","5","5","2","7","7","3","6","1","3","7","3","3","2","5","741960766508503041","张","696","Female","[""好我"",""坏我"",""好她"",""坏她""]","[""强我"",""弱我"",""强她"",""弱她""]","","","","","","","","yes","","","","","","","","","SRET","EW_formal","","key","f","16.669121212121087","640","356","朋友","懂行","Positive","ability","","","","","","","","","","",""
"430","","f","psychophysics","51","132415","0.0-7.0-3.0-0.37","6","5","6","4","2","4","4","5","5","5","4","0","-1","0","1","-2","2","2","0","4","5","5","5","5","4","4","3","4","5","5","6","7","5","7","8","7","8","8","5","5","3","6","2","3","3","3","6","5","1","5","2","6","3","6","3","6","5","4","6","5","5","3","1","3","6","5","5","2","7","7","3","6","1","3","7","3","3","2","5","741960766508503041","张","696","Female","[""好我"",""坏我"",""好她"",""坏她""]","[""强我"",""弱我"",""强她"",""弱她""]","","","","","","","","yes","","","","","","","","","SRET","EW_formal","","key","f","16.66789411764715","640","356","朋友","礼貌","Positive","morality","","","","","","","","","","",""
"555","","f","psychophysics","52","133974","0.0-7.0-3.0-0.38","6","5","6","4","2","4","4","5","5","5","4","0","-1","0","1","-2","2","2","0","4","5","5","5","5","4","4","3","4","5","5","6","7","5","7","8","7","8","8","5","5","3","6","2","3","3","3","6","5","1","5","2","6","3","6","3","6","5","4","6","5","5","3","1","3","6","5","5","2","7","7","3","6","1","3","7","3","3","2","5","741960766508503041","张","696","Female","[""好我"",""坏我"",""好她"",""坏她""]","[""强我"",""弱我"",""强她"",""弱她""]","","","","","","","","yes","","","","","","","","","SRET","EW_formal","","key","f","16.668184782608677","640","356","朋友","扎实","Positive","ability","","","","","","","","","","",""
"590","","j","psychophysics","53","135572","0.0-7.0-3.0-0.39","6","5","6","4","2","4","4","5","5","5","4","0","-1","0","1","-2","2","2","0","4","5","5","5","5","4","4","3","4","5","5","6","7","5","7","8","7","8","8","5","5","3","6","2","3","3","3","6","5","1","5","2","6","3","6","3","6","5","4","6","5","5","3","1","3","6","5","5","2","7","7","3","6","1","3","7","3","3","2","5","741960766508503041","张","696","Female","[""好我"",""坏我"",""好她"",""坏她""]","[""强我"",""弱我"",""强她"",""弱她""]","","","","","","","","no","","","","","","","","","SRET","EW_formal","","key","j","16.66756842105288","640","356","自己","自私","Negative","morality","","","","","","","","","","",""
"479","","f","psychophysics","54","137056","0.0-7.0-3.0-0.40","6","5","6","4","2","4","4","5","5","5","4","0","-1","0","1","-2","2","2","0","4","5","5","5","5","4","4","3","4","5","5","6","7","5","7","8","7","8","8","5","5","3","6","2","3","3","3","6","5","1","5","2","6","3","6","3","6","5","4","6","5","5","3","1","3","6","5","5","2","7","7","3","6","1","3","7","3","3","2","5","741960766508503041","张","696","Female","[""好我"",""坏我"",""好她"",""坏她""]","[""强我"",""弱我"",""强她"",""弱她""]","","","","","","","","yes","","","","","","","","","SRET","EW_formal","","key","f","16.666534090909078","640","356","自己","热心","Positive","morality","","","","","","","","","","",""
"574","","f","psychophysics","55","138633","0.0-7.0-3.0-0.41","6","5","6","4","2","4","4","5","5","5","4","0","-1","0","1","-2","2","2","0","4","5","5","5","5","4","4","3","4","5","5","6","7","5","7","8","7","8","8","5","5","3","6","2","3","3","3","6","5","1","5","2","6","3","6","3","6","5","4","6","5","5","3","1","3","6","5","5","2","7","7","3","6","1","3","7","3","3","2","5","741960766508503041","张","696","Female","[""好我"",""坏我"",""好她"",""坏她""]","[""强我"",""弱我"",""强她"",""弱她""]","","","","","","","","yes","","","","","","","","","SRET","EW_formal","","key","f","16.66779787234028","640","356","自己","专注","Positive","ability","","","","","","","","","","",""
"604","","j","psychophysics","56","140241","0.0-7.0-3.0-0.42","6","5","6","4","2","4","4","5","5","5","4","0","-1","0","1","-2","2","2","0","4","5","5","5","5","4","4","3","4","5","5","6","7","5","7","8","7","8","8","5","5","3","6","2","3","3","3","6","5","1","5","2","6","3","6","3","6","5","4","6","5","5","3","1","3","6","5","5","2","7","7","3","6","1","3","7","3","3","2","5","741960766508503041","张","696","Female","[""好我"",""坏我"",""好她"",""坏她""]","[""强我"",""弱我"",""强她"",""弱她""]","","","","","","","","no","","","","","","","","","SRET","EW_formal","","key","j","16.669410526315914","640","356","自己","犹豫","Negative","ability","","","","","","","","","","",""
"621","","j","psychophysics","57","141866","0.0-7.0-3.0-0.43","6","5","6","4","2","4","4","5","5","5","4","0","-1","0","1","-2","2","2","0","4","5","5","5","5","4","4","3","4","5","5","6","7","5","7","8","7","8","8","5","5","3","6","2","3","3","3","6","5","1","5","2","6","3","6","3","6","5","4","6","5","5","3","1","3","6","5","5","2","7","7","3","6","1","3","7","3","3","2","5","741960766508503041","张","696","Female","[""好我"",""坏我"",""好她"",""坏她""]","[""强我"",""弱我"",""强她"",""弱她""]","","","","","","","","no","","","","","","","","","SRET","EW_formal","","key","j","16.66686597938131","640","356","朋友","恶劣","Negative","morality","","","","","","","","","","",""
"469","","j","psychophysics","58","143339","0.0-7.0-3.0-0.44","6","5","6","4","2","4","4","5","5","5","4","0","-1","0","1","-2","2","2","0","4","5","5","5","5","4","4","3","4","5","5","6","7","5","7","8","7","8","8","5","5","3","6","2","3","3","3","6","5","1","5","2","6","3","6","3","6","5","4","6","5","5","3","1","3","6","5","5","2","7","7","3","6","1","3","7","3","3","2","5","741960766508503041","张","696","Female","[""好我"",""坏我"",""好她"",""坏她""]","[""强我"",""弱我"",""强她"",""弱她""]","","","","","","","","no","","","","","","","","","SRET","EW_formal","","key","j","16.66621839080438","640","356","朋友","拖延","Negative","ability","","","","","","","","","","",""
"728","","f","psychophysics","59","145069","0.0-7.0-3.0-0.45","6","5","6","4","2","4","4","5","5","5","4","0","-1","0","1","-2","2","2","0","4","5","5","5","5","4","4","3","4","5","5","6","7","5","7","8","7","8","8","5","5","3","6","2","3","3","3","6","5","1","5","2","6","3","6","3","6","5","4","6","5","5","3","1","3","6","5","5","2","7","7","3","6","1","3","7","3","3","2","5","741960766508503041","张","696","Female","[""好我"",""坏我"",""好她"",""坏她""]","[""强我"",""弱我"",""强她"",""弱她""]","","","","","","","","yes","","","","","","","","","SRET","EW_formal","","key","f","16.668679611650308","640","356","朋友","高洁","Positive","morality","","","","","","","","","","",""
"485","","j","psychophysics","60","146558","0.0-7.0-3.0-0.46","6","5","6","4","2","4","4","5","5","5","4","0","-1","0","1","-2","2","2","0","4","5","5","5","5","4","4","3","4","5","5","6","7","5","7","8","7","8","8","5","5","3","6","2","3","3","3","6","5","1","5","2","6","3","6","3","6","5","4","6","5","5","3","1","3","6","5","5","2","7","7","3","6","1","3","7","3","3","2","5","741960766508503041","张","696","Female","[""好我"",""坏我"",""好她"",""坏她""]","[""强我"",""弱我"",""强她"",""弱她""]","","","","","","","","no","","","","","","","","","SRET","EW_formal","","key","j","16.669113636363775","640","356","朋友","刻薄","Negative","morality","","","","","","","","","","",""
"802","","f","psychophysics","61","148377","0.0-7.0-3.0-0.47","6","5","6","4","2","4","4","5","5","5","4","0","-1","0","1","-2","2","2","0","4","5","5","5","5","4","4","3","4","5","5","6","7","5","7","8","7","8","8","5","5","3","6","2","3","3","3","6","5","1","5","2","6","3","6","3","6","5","4","6","5","5","3","1","3","6","5","5","2","7","7","3","6","1","3","7","3","3","2","5","741960766508503041","张","696","Female","[""好我"",""坏我"",""好她"",""坏她""]","[""强我"",""弱我"",""强她"",""弱她""]","","","","","","","","yes","","","","","","","","","SRET","EW_formal","","key","f","16.667685185185324","640","356","自己","坦荡","Positive","morality","","","","","","","","","","",""
"491","","j","psychophysics","62","149877","0.0-7.0-3.0-0.48","6","5","6","4","2","4","4","5","5","5","4","0","-1","0","1","-2","2","2","0","4","5","5","5","5","4","4","3","4","5","5","6","7","5","7","8","7","8","8","5","5","3","6","2","3","3","3","6","5","1","5","2","6","3","6","3","6","5","4","6","5","5","3","1","3","6","5","5","2","7","7","3","6","1","3","7","3","3","2","5","741960766508503041","张","696","Female","[""好我"",""坏我"",""好她"",""坏她""]","[""强我"",""弱我"",""强她"",""弱她""]","","","","","","","","no","","","","","","","","","SRET","EW_formal","","key","j","16.667123595505412","640","356","朋友","小人","Negative","morality","","","","","","","","","","",""
"455","","f","psychophysics","63","151344","0.0-7.0-3.0-0.49","6","5","6","4","2","4","4","5","5","5","4","0","-1","0","1","-2","2","2","0","4","5","5","5","5","4","4","3","4","5","5","6","7","5","7","8","7","8","8","5","5","3","6","2","3","3","3","6","5","1","5","2","6","3","6","3","6","5","4","6","5","5","3","1","3","6","5","5","2","7","7","3","6","1","3","7","3","3","2","5","741960766508503041","张","696","Female","[""好我"",""坏我"",""好她"",""坏她""]","[""强我"",""弱我"",""强她"",""弱她""]","","","","","","","","yes","","","","","","","","","SRET","EW_formal","","key","f","16.667413793103474","640","356","朋友","孝顺","Positive","morality","","","","","","","","","","",""
"455","","f","psychophysics","64","152803","0.0-7.0-3.0-0.50","6","5","6","4","2","4","4","5","5","5","4","0","-1","0","1","-2","2","2","0","4","5","5","5","5","4","4","3","4","5","5","6","7","5","7","8","7","8","8","5","5","3","6","2","3","3","3","6","5","1","5","2","6","3","6","3","6","5","4","6","5","5","3","1","3","6","5","5","2","7","7","3","6","1","3","7","3","3","2","5","741960766508503041","张","696","Female","[""好我"",""坏我"",""好她"",""坏她""]","[""强我"",""弱我"",""强她"",""弱她""]","","","","","","","","yes","","","","","","","","","SRET","EW_formal","","key","f","16.665551724137828","640","356","朋友","细心","Positive","ability","","","","","","","","","","",""
"410","","f","psychophysics","65","154215","0.0-7.0-3.0-0.51","6","5","6","4","2","4","4","5","5","5","4","0","-1","0","1","-2","2","2","0","4","5","5","5","5","4","4","3","4","5","5","6","7","5","7","8","7","8","8","5","5","3","6","2","3","3","3","6","5","1","5","2","6","3","6","3","6","5","4","6","5","5","3","1","3","6","5","5","2","7","7","3","6","1","3","7","3","3","2","5","741960766508503041","张","696","Female","[""好我"",""坏我"",""好她"",""坏她""]","[""强我"",""弱我"",""强她"",""弱她""]","","","","","","","","yes","","","","","","","","","SRET","EW_formal","","key","f","16.66845238095231","640","356","自己","坚持","Positive","ability","","","","","","","","","","",""
"491","","j","psychophysics","66","155709","0.0-7.0-3.0-0.52","6","5","6","4","2","4","4","5","5","5","4","0","-1","0","1","-2","2","2","0","4","5","5","5","5","4","4","3","4","5","5","6","7","5","7","8","7","8","8","5","5","3","6","2","3","3","3","6","5","1","5","2","6","3","6","3","6","5","4","6","5","5","3","1","3","6","5","5","2","7","7","3","6","1","3","7","3","3","2","5","741960766508503041","张","696","Female","[""好我"",""坏我"",""好她"",""坏她""]","[""强我"",""弱我"",""强她"",""弱她""]","","","","","","","","no","","","","","","","","","SRET","EW_formal","","key","j","16.66912500000002","640","356","朋友","无能","Negative","ability","","","","","","","","","","",""
"547","","j","psychophysics","67","157264","0.0-7.0-3.0-0.53","6","5","6","4","2","4","4","5","5","5","4","0","-1","0","1","-2","2","2","0","4","5","5","5","5","4","4","3","4","5","5","6","7","5","7","8","7","8","8","5","5","3","6","2","3","3","3","6","5","1","5","2","6","3","6","3","6","5","4","6","5","5","3","1","3","6","5","5","2","7","7","3","6","1","3","7","3","3","2","5","741960766508503041","张","696","Female","[""好我"",""坏我"",""好她"",""坏她""]","[""强我"",""弱我"",""强她"",""弱她""]","","","","","","","","no","","","","","","","","","SRET","EW_formal","","key","j","16.66669892473115","640","356","自己","粗心","Negative","ability","","","","","","","","","","",""
"608","","j","psychophysics","68","158875","0.0-7.0-3.0-0.54","6","5","6","4","2","4","4","5","5","5","4","0","-1","0","1","-2","2","2","0","4","5","5","5","5","4","4","3","4","5","5","6","7","5","7","8","7","8","8","5","5","3","6","2","3","3","3","6","5","1","5","2","6","3","6","3","6","5","4","6","5","5","3","1","3","6","5","5","2","7","7","3","6","1","3","7","3","3","2","5","741960766508503041","张","696","Female","[""好我"",""坏我"",""好她"",""坏她""]","[""强我"",""弱我"",""强她"",""弱她""]","","","","","","","","no","","","","","","","","","SRET","EW_formal","","key","j","16.668705263157914","640","356","自己","远见","Positive","ability","","","","","","","","","","",""
"458","","j","psychophysics","69","160337","0.0-7.0-3.0-0.55","6","5","6","4","2","4","4","5","5","5","4","0","-1","0","1","-2","2","2","0","4","5","5","5","5","4","4","3","4","5","5","6","7","5","7","8","7","8","8","5","5","3","6","2","3","3","3","6","5","1","5","2","6","3","6","3","6","5","4","6","5","5","3","1","3","6","5","5","2","7","7","3","6","1","3","7","3","3","2","5","741960766508503041","张","696","Female","[""好我"",""坏我"",""好她"",""坏她""]","[""强我"",""弱我"",""强她"",""弱她""]","","","","","","","","no","","","","","","","","","SRET","EW_formal","","key","j","18.83025974025965","640","356","自己","狡诈","Negative","morality","","","","","","","","","","",""
"981","","f","psychophysics","70","162320","0.0-7.0-3.0-0.56","6","5","6","4","2","4","4","5","5","5","4","0","-1","0","1","-2","2","2","0","4","5","5","5","5","4","4","3","4","5","5","6","7","5","7","8","7","8","8","5","5","3","6","2","3","3","3","6","5","1","5","2","6","3","6","3","6","5","4","6","5","5","3","1","3","6","5","5","2","7","7","3","6","1","3","7","3","3","2","5","741960766508503041","张","696","Female","[""好我"",""坏我"",""好她"",""坏她""]","[""强我"",""弱我"",""强她"",""弱她""]","","","","","","","","yes","","","","","","","","","SRET","EW_formal","","key","f","16.66925423728821","640","356","自己","骁勇","Positive","ability","","","","","","","","","","",""
"502","","f","psychophysics","71","163825","0.0-7.0-3.0-0.57","6","5","6","4","2","4","4","5","5","5","4","0","-1","0","1","-2","2","2","0","4","5","5","5","5","4","4","3","4","5","5","6","7","5","7","8","7","8","8","5","5","3","6","2","3","3","3","6","5","1","5","2","6","3","6","3","6","5","4","6","5","5","3","1","3","6","5","5","2","7","7","3","6","1","3","7","3","3","2","5","741960766508503041","张","696","Female","[""好我"",""坏我"",""好她"",""坏她""]","[""强我"",""弱我"",""强她"",""弱她""]","","","","","","","","yes","","","","","","","","","SRET","EW_formal","","key","f","16.668415730337095","640","356","朋友","侠义","Positive","morality","","","","","","","","","","",""
"590","","f","psychophysics","72","165419","0.0-7.0-3.0-0.58","6","5","6","4","2","4","4","5","5","5","4","0","-1","0","1","-2","2","2","0","4","5","5","5","5","4","4","3","4","5","5","6","7","5","7","8","7","8","8","5","5","3","6","2","3","3","3","6","5","1","5","2","6","3","6","3","6","5","4","6","5","5","3","1","3","6","5","5","2","7","7","3","6","1","3","7","3","3","2","5","741960766508503041","张","696","Female","[""好我"",""坏我"",""好她"",""坏她""]","[""强我"",""弱我"",""强她"",""弱她""]","","","","","","","","yes","","","","","","","","","SRET","EW_formal","","key","f","16.66526315789486","640","356","朋友","娴熟","Positive","ability","","","","","","","","","","",""
"499","","j","psychophysics","73","166920","0.0-7.0-3.0-0.59","6","5","6","4","2","4","4","5","5","5","4","0","-1","0","1","-2","2","2","0","4","5","5","5","5","4","4","3","4","5","5","6","7","5","7","8","7","8","8","5","5","3","6","2","3","3","3","6","5","1","5","2","6","3","6","3","6","5","4","6","5","5","3","1","3","6","5","5","2","7","7","3","6","1","3","7","3","3","2","5","741960766508503041","张","696","Female","[""好我"",""坏我"",""好她"",""坏她""]","[""强我"",""弱我"",""强她"",""弱她""]","","","","","","","","no","","","","","","","","","SRET","EW_formal","","key","j","16.66970786516845","640","356","朋友","黑心","Negative","morality","","","","","","","","","","",""
"489","","j","psychophysics","74","168414","0.0-7.0-3.0-0.60","6","5","6","4","2","4","4","5","5","5","4","0","-1","0","1","-2","2","2","0","4","5","5","5","5","4","4","3","4","5","5","6","7","5","7","8","7","8","8","5","5","3","6","2","3","3","3","6","5","1","5","2","6","3","6","3","6","5","4","6","5","5","3","1","3","6","5","5","2","7","7","3","6","1","3","7","3","3","2","5","741960766508503041","张","696","Female","[""好我"",""坏我"",""好她"",""坏她""]","[""强我"",""弱我"",""强她"",""弱她""]","","","","","","","","no","","","","","","","","","SRET","EW_formal","","key","j","16.66669662921327","640","356","朋友","无私","Positive","morality","","","","","","","","","","",""
"529","","j","psychophysics","75","169948","0.0-7.0-3.0-0.61","6","5","6","4","2","4","4","5","5","5","4","0","-1","0","1","-2","2","2","0","4","5","5","5","5","4","4","3","4","5","5","6","7","5","7","8","7","8","8","5","5","3","6","2","3","3","3","6","5","1","5","2","6","3","6","3","6","5","4","6","5","5","3","1","3","6","5","5","2","7","7","3","6","1","3","7","3","3","2","5","741960766508503041","张","696","Female","[""好我"",""坏我"",""好她"",""坏她""]","[""强我"",""弱我"",""强她"",""弱她""]","","","","","","","","no","","","","","","","","","SRET","EW_formal","","key","j","16.669076923076908","640","356","朋友","盲目","Negative","ability","","","","","","","","","","",""
"592","","j","psychophysics","76","171544","0.0-7.0-3.0-0.62","6","5","6","4","2","4","4","5","5","5","4","0","-1","0","1","-2","2","2","0","4","5","5","5","5","4","4","3","4","5","5","6","7","5","7","8","7","8","8","5","5","3","6","2","3","3","3","6","5","1","5","2","6","3","6","3","6","5","4","6","5","5","3","1","3","6","5","5","2","7","7","3","6","1","3","7","3","3","2","5","741960766508503041","张","696","Female","[""好我"",""坏我"",""好她"",""坏她""]","[""强我"",""弱我"",""强她"",""弱她""]","","","","","","","","no","","","","","","","","","SRET","EW_formal","","key","j","16.668648936170243","640","356","朋友","拜金","Negative","morality","","","","","","","","","","",""
"858","","f","psychophysics","77","173412","0.0-7.0-3.0-0.63","6","5","6","4","2","4","4","5","5","5","4","0","-1","0","1","-2","2","2","0","4","5","5","5","5","4","4","3","4","5","5","6","7","5","7","8","7","8","8","5","5","3","6","2","3","3","3","6","5","1","5","2","6","3","6","3","6","5","4","6","5","5","3","1","3","6","5","5","2","7","7","3","6","1","3","7","3","3","2","5","741960766508503041","张","696","Female","[""好我"",""坏我"",""好她"",""坏她""]","[""强我"",""弱我"",""强她"",""弱她""]","","","","","","","","yes","","","","","","","","","SRET","EW_formal","","key","f","16.66607142857148","640","356","自己","淡泊","Positive","morality","","","","","","","","","","",""
"414","","f","psychophysics","78","174828","0.0-7.0-3.0-0.64","6","5","6","4","2","4","4","5","5","5","4","0","-1","0","1","-2","2","2","0","4","5","5","5","5","4","4","3","4","5","5","6","7","5","7","8","7","8","8","5","5","3","6","2","3","3","3","6","5","1","5","2","6","3","6","3","6","5","4","6","5","5","3","1","3","6","5","5","2","7","7","3","6","1","3","7","3","3","2","5","741960766508503041","张","696","Female","[""好我"",""坏我"",""好她"",""坏她""]","[""强我"",""弱我"",""强她"",""弱她""]","","","","","","","","yes","","","","","","","","","SRET","EW_formal","","key","f","16.66984337349373","640","356","朋友","努力","Positive","ability","","","","","","","","","","",""
"490","","f","psychophysics","79","176326","0.0-7.0-3.0-0.65","6","5","6","4","2","4","4","5","5","5","4","0","-1","0","1","-2","2","2","0","4","5","5","5","5","4","4","3","4","5","5","6","7","5","7","8","7","8","8","5","5","3","6","2","3","3","3","6","5","1","5","2","6","3","6","3","6","5","4","6","5","5","3","1","3","6","5","5","2","7","7","3","6","1","3","7","3","3","2","5","741960766508503041","张","696","Female","[""好我"",""坏我"",""好她"",""坏她""]","[""强我"",""弱我"",""强她"",""弱她""]","","","","","","","","yes","","","","","","","","","SRET","EW_formal","","key","f","16.667213483146206","640","356","朋友","博学","Positive","ability","","","","","","","","","","",""
"503","","j","psychophysics","80","177833","0.0-7.0-3.0-0.66","6","5","6","4","2","4","4","5","5","5","4","0","-1","0","1","-2","2","2","0","4","5","5","5","5","4","4","3","4","5","5","6","7","5","7","8","7","8","8","5","5","3","6","2","3","3","3","6","5","1","5","2","6","3","6","3","6","5","4","6","5","5","3","1","3","6","5","5","2","7","7","3","6","1","3","7","3","3","2","5","741960766508503041","张","696","Female","[""好我"",""坏我"",""好她"",""坏她""]","[""强我"",""弱我"",""强她"",""弱她""]","","","","","","","","no","","","","","","","","","SRET","EW_formal","","key","j","16.665777777777596","640","356","自己","诡诈","Negative","morality","","","","","","","","","","",""
"530","","j","psychophysics","81","179365","0.0-7.0-3.0-0.67","6","5","6","4","2","4","4","5","5","5","4","0","-1","0","1","-2","2","2","0","4","5","5","5","5","4","4","3","4","5","5","6","7","5","7","8","7","8","8","5","5","3","6","2","3","3","3","6","5","1","5","2","6","3","6","3","6","5","4","6","5","5","3","1","3","6","5","5","2","7","7","3","6","1","3","7","3","3","2","5","741960766508503041","张","696","Female","[""好我"",""坏我"",""好她"",""坏她""]","[""强我"",""弱我"",""强她"",""弱她""]","","","","","","","","no","","","","","","","","","SRET","EW_formal","","key","j","16.669736263736223","640","356","朋友","拖拉","Negative","ability","","","","","","","","","","",""
"554","","f","psychophysics","82","180922","0.0-7.0-3.0-0.68","6","5","6","4","2","4","4","5","5","5","4","0","-1","0","1","-2","2","2","0","4","5","5","5","5","4","4","3","4","5","5","6","7","5","7","8","7","8","8","5","5","3","6","2","3","3","3","6","5","1","5","2","6","3","6","3","6","5","4","6","5","5","3","1","3","6","5","5","2","7","7","3","6","1","3","7","3","3","2","5","741960766508503041","张","696","Female","[""好我"",""坏我"",""好她"",""坏她""]","[""强我"",""弱我"",""强她"",""弱她""]","","","","","","","","yes","","","","","","","","","SRET","EW_formal","","key","f","16.66810869565202","640","356","自己","敬业","Positive","morality","","","","","","","","","","",""
"440","","f","psychophysics","83","182367","0.0-7.0-3.0-0.69","6","5","6","4","2","4","4","5","5","5","4","0","-1","0","1","-2","2","2","0","4","5","5","5","5","4","4","3","4","5","5","6","7","5","7","8","7","8","8","5","5","3","6","2","3","3","3","6","5","1","5","2","6","3","6","3","6","5","4","6","5","5","3","1","3","6","5","5","2","7","7","3","6","1","3","7","3","3","2","5","741960766508503041","张","696","Female","[""好我"",""坏我"",""好她"",""坏她""]","[""强我"",""弱我"",""强她"",""弱她""]","","","","","","","","yes","","","","","","","","","SRET","EW_formal","","key","f","16.667581395348968","640","356","自己","聪明","Positive","ability","","","","","","","","","","",""
"441","","f","psychophysics","84","183811","0.0-7.0-3.0-0.70","6","5","6","4","2","4","4","5","5","5","4","0","-1","0","1","-2","2","2","0","4","5","5","5","5","4","4","3","4","5","5","6","7","5","7","8","7","8","8","5","5","3","6","2","3","3","3","6","5","1","5","2","6","3","6","3","6","5","4","6","5","5","3","1","3","6","5","5","2","7","7","3","6","1","3","7","3","3","2","5","741960766508503041","张","696","Female","[""好我"",""坏我"",""好她"",""坏她""]","[""强我"",""弱我"",""强她"",""弱她""]","","","","","","","","yes","","","","","","","","","SRET","EW_formal","","key","f","16.666639534883785","640","356","自己","独立","Positive","ability","","","","","","","","","","",""
"652","","j","psychophysics","85","185465","0.0-7.0-3.0-0.71","6","5","6","4","2","4","4","5","5","5","4","0","-1","0","1","-2","2","2","0","4","5","5","5","5","4","4","3","4","5","5","6","7","5","7","8","7","8","8","5","5","3","6","2","3","3","3","6","5","1","5","2","6","3","6","3","6","5","4","6","5","5","3","1","3","6","5","5","2","7","7","3","6","1","3","7","3","3","2","5","741960766508503041","张","696","Female","[""好我"",""坏我"",""好她"",""坏她""]","[""强我"",""弱我"",""强她"",""弱她""]","","","","","","","","no","","","","","","","","","SRET","EW_formal","","key","j","16.66644897959189","640","356","自己","缺德","Negative","morality","","","","","","","","","","",""
"551","","f","psychophysics","86","187022","0.0-7.0-3.0-0.72","6","5","6","4","2","4","4","5","5","5","4","0","-1","0","1","-2","2","2","0","4","5","5","5","5","4","4","3","4","5","5","6","7","5","7","8","7","8","8","5","5","3","6","2","3","3","3","6","5","1","5","2","6","3","6","3","6","5","4","6","5","5","3","1","3","6","5","5","2","7","7","3","6","1","3","7","3","3","2","5","741960766508503041","张","696","Female","[""好我"",""坏我"",""好她"",""坏她""]","[""强我"",""弱我"",""强她"",""弱她""]","","","","","","","","yes","","","","","","","","","SRET","EW_formal","","key","f","16.66979347826102","640","356","自己","能干","Positive","ability","","","","","","","","","","",""
"549","","f","psychophysics","87","188575","0.0-7.0-3.0-0.73","6","5","6","4","2","4","4","5","5","5","4","0","-1","0","1","-2","2","2","0","4","5","5","5","5","4","4","3","4","5","5","6","7","5","7","8","7","8","8","5","5","3","6","2","3","3","3","6","5","1","5","2","6","3","6","3","6","5","4","6","5","5","3","1","3","6","5","5","2","7","7","3","6","1","3","7","3","3","2","5","741960766508503041","张","696","Female","[""好我"",""坏我"",""好她"",""坏她""]","[""强我"",""弱我"",""强她"",""弱她""]","","","","","","","","yes","","","","","","","","","SRET","EW_formal","","key","f","16.66558695652202","640","356","自己","仁爱","Positive","morality","","","","","","","","","","",""
"401","","f","psychophysics","88","189978","0.0-7.0-3.0-0.74","6","5","6","4","2","4","4","5","5","5","4","0","-1","0","1","-2","2","2","0","4","5","5","5","5","4","4","3","4","5","5","6","7","5","7","8","7","8","8","5","5","3","6","2","3","3","3","6","5","1","5","2","6","3","6","3","6","5","4","6","5","5","3","1","3","6","5","5","2","7","7","3","6","1","3","7","3","3","2","5","741960766508503041","张","696","Female","[""好我"",""坏我"",""好她"",""坏她""]","[""强我"",""弱我"",""强她"",""弱她""]","","","","","","","","yes","","","","","","","","","SRET","EW_formal","","key","f","16.66956626506016","640","356","朋友","仗义","Positive","morality","","","","","","","","","","",""
"604","","f","psychophysics","89","191590","0.0-7.0-3.0-0.75","6","5","6","4","2","4","4","5","5","5","4","0","-1","0","1","-2","2","2","0","4","5","5","5","5","4","4","3","4","5","5","6","7","5","7","8","7","8","8","5","5","3","6","2","3","3","3","6","5","1","5","2","6","3","6","3","6","5","4","6","5","5","3","1","3","6","5","5","2","7","7","3","6","1","3","7","3","3","2","5","741960766508503041","张","696","Female","[""好我"",""坏我"",""好她"",""坏她""]","[""强我"",""弱我"",""强她"",""弱她""]","","","","","","","","yes","","","","","","","","","SRET","EW_formal","","key","f","16.66821875000005","640","356","朋友","沉着","Positive","ability","","","","","","","","","","",""
"506","","j","psychophysics","90","193100","0.0-7.0-3.0-0.76","6","5","6","4","2","4","4","5","5","5","4","0","-1","0","1","-2","2","2","0","4","5","5","5","5","4","4","3","4","5","5","6","7","5","7","8","7","8","8","5","5","3","6","2","3","3","3","6","5","1","5","2","6","3","6","3","6","5","4","6","5","5","3","1","3","6","5","5","2","7","7","3","6","1","3","7","3","3","2","5","741960766508503041","张","696","Female","[""好我"",""坏我"",""好她"",""坏她""]","[""强我"",""弱我"",""强她"",""弱她""]","","","","","","","","no","","","","","","","","","SRET","EW_formal","","key","j","16.667799999999826","640","356","自己","失信","Negative","morality","","","","","","","","","","",""
"477","","f","psychophysics","91","194581","0.0-7.0-3.0-0.77","6","5","6","4","2","4","4","5","5","5","4","0","-1","0","1","-2","2","2","0","4","5","5","5","5","4","4","3","4","5","5","6","7","5","7","8","7","8","8","5","5","3","6","2","3","3","3","6","5","1","5","2","6","3","6","3","6","5","4","6","5","5","3","1","3","6","5","5","2","7","7","3","6","1","3","7","3","3","2","5","741960766508503041","张","696","Female","[""好我"",""坏我"",""好她"",""坏她""]","[""强我"",""弱我"",""强她"",""弱她""]","","","","","","","","yes","","","","","","","","","SRET","EW_formal","","key","f","16.668000000000163","640","356","自己","果决","Positive","ability","","","","","","","","","","",""
"443","","j","psychophysics","92","196029","0.0-7.0-3.0-0.78","6","5","6","4","2","4","4","5","5","5","4","0","-1","0","1","-2","2","2","0","4","5","5","5","5","4","4","3","4","5","5","6","7","5","7","8","7","8","8","5","5","3","6","2","3","3","3","6","5","1","5","2","6","3","6","3","6","5","4","6","5","5","3","1","3","6","5","5","2","7","7","3","6","1","3","7","3","3","2","5","741960766508503041","张","696","Female","[""好我"",""坏我"",""好她"",""坏她""]","[""强我"",""弱我"",""强她"",""弱她""]","","","","","","","","no","","","","","","","","","SRET","EW_formal","","key","j","16.669905882352715","640","356","自己","虚假","Negative","morality","","","","","","","","","","",""
"530","","j","psychophysics","93","197600","0.0-7.0-3.0-0.79","6","5","6","4","2","4","4","5","5","5","4","0","-1","0","1","-2","2","2","0","4","5","5","5","5","4","4","3","4","5","5","6","7","5","7","8","7","8","8","5","5","3","6","2","3","3","3","6","5","1","5","2","6","3","6","3","6","5","4","6","5","5","3","1","3","6","5","5","2","7","7","3","6","1","3","7","3","3","2","5","741960766508503041","张","696","Female","[""好我"",""坏我"",""好她"",""坏她""]","[""强我"",""弱我"",""强她"",""弱她""]","","","","","","","","no","","","","","","","","","SRET","EW_formal","","key","j","16.846892473118576","640","356","朋友","畏难","Negative","ability","","","","","","","","","","",""
"579","","j","psychophysics","94","199183","0.0-7.0-3.0-0.80","6","5","6","4","2","4","4","5","5","5","4","0","-1","0","1","-2","2","2","0","4","5","5","5","5","4","4","3","4","5","5","6","7","5","7","8","7","8","8","5","5","3","6","2","3","3","3","6","5","1","5","2","6","3","6","3","6","5","4","6","5","5","3","1","3","6","5","5","2","7","7","3","6","1","3","7","3","3","2","5","741960766508503041","张","696","Female","[""好我"",""坏我"",""好她"",""坏她""]","[""强我"",""弱我"",""强她"",""弱她""]","","","","","","","","no","","","","","","","","","SRET","EW_formal","","key","j","16.66756382978743","640","356","自己","狡狯","Negative","morality","","","","","","","","","","",""
"607","","j","psychophysics","95","200795","0.0-7.0-3.0-0.81","6","5","6","4","2","4","4","5","5","5","4","0","-1","0","1","-2","2","2","0","4","5","5","5","5","4","4","3","4","5","5","6","7","5","7","8","7","8","8","5","5","3","6","2","3","3","3","6","5","1","5","2","6","3","6","3","6","5","4","6","5","5","3","1","3","6","5","5","2","7","7","3","6","1","3","7","3","3","2","5","741960766508503041","张","696","Female","[""好我"",""坏我"",""好她"",""坏她""]","[""强我"",""弱我"",""强她"",""弱她""]","","","","","","","","no","","","","","","","","","SRET","EW_formal","","key","j","16.668978947368572","640","356","自己","愚痴","Negative","ability","","","","","","","","","","",""
"674","","f","psychophysics","96","202478","0.0-7.0-3.0-0.82","6","5","6","4","2","4","4","5","5","5","4","0","-1","0","1","-2","2","2","0","4","5","5","5","5","4","4","3","4","5","5","6","7","5","7","8","7","8","8","5","5","3","6","2","3","3","3","6","5","1","5","2","6","3","6","3","6","5","4","6","5","5","3","1","3","6","5","5","2","7","7","3","6","1","3","7","3","3","2","5","741960766508503041","张","696","Female","[""好我"",""坏我"",""好她"",""坏她""]","[""强我"",""弱我"",""强她"",""弱她""]","","","","","","","","yes","","","","","","","","","SRET","EW_formal","","key","f","16.668129999999948","640","356","自己","谦逊","Positive","morality","","","","","","","","","","",""
"400","","f","psychophysics","97","203886","0.0-7.0-3.0-0.83","6","5","6","4","2","4","4","5","5","5","4","0","-1","0","1","-2","2","2","0","4","5","5","5","5","4","4","3","4","5","5","6","7","5","7","8","7","8","8","5","5","3","6","2","3","3","3","6","5","1","5","2","6","3","6","3","6","5","4","6","5","5","3","1","3","6","5","5","2","7","7","3","6","1","3","7","3","3","2","5","741960766508503041","张","696","Female","[""好我"",""坏我"",""好她"",""坏她""]","[""强我"",""弱我"",""强她"",""弱她""]","","","","","","","","yes","","","","","","","","","SRET","EW_formal","","key","f","16.66784523809509","640","356","自己","新手","Negative","ability","","","","","","","","","","",""
"452","","j","psychophysics","98","205342","0.0-7.0-3.0-0.84","6","5","6","4","2","4","4","5","5","5","4","0","-1","0","1","-2","2","2","0","4","5","5","5","5","4","4","3","4","5","5","6","7","5","7","8","7","8","8","5","5","3","6","2","3","3","3","6","5","1","5","2","6","3","6","3","6","5","4","6","5","5","3","1","3","6","5","5","2","7","7","3","6","1","3","7","3","3","2","5","741960766508503041","张","696","Female","[""好我"",""坏我"",""好她"",""坏她""]","[""强我"",""弱我"",""强她"",""弱她""]","","","","","","","","no","","","","","","","","","SRET","EW_formal","","key","j","16.668034883720942","640","356","朋友","低俗","Negative","morality","","","","","","","","","","",""
"868","","f","psychophysics","99","207222","0.0-7.0-3.0-0.85","6","5","6","4","2","4","4","5","5","5","4","0","-1","0","1","-2","2","2","0","4","5","5","5","5","4","4","3","4","5","5","6","7","5","7","8","7","8","8","5","5","3","6","2","3","3","3","6","5","1","5","2","6","3","6","3","6","5","4","6","5","5","3","1","3","6","5","5","2","7","7","3","6","1","3","7","3","3","2","5","741960766508503041","张","696","Female","[""好我"",""坏我"",""好她"",""坏她""]","[""强我"",""弱我"",""强她"",""弱她""]","","","","","","","","yes","","","","","","","","","SRET","EW_formal","","key","f","16.66641071428577","640","356","自己","缓慢","Negative","ability","","","","","","","","","","",""
"455","","f","psychophysics","100","208680","0.0-7.0-3.0-0.86","6","5","6","4","2","4","4","5","5","5","4","0","-1","0","1","-2","2","2","0","4","5","5","5","5","4","4","3","4","5","5","6","7","5","7","8","7","8","8","5","5","3","6","2","3","3","3","6","5","1","5","2","6","3","6","3","6","5","4","6","5","5","3","1","3","6","5","5","2","7","7","3","6","1","3","7","3","3","2","5","741960766508503041","张","696","Female","[""好我"",""坏我"",""好她"",""坏她""]","[""强我"",""弱我"",""强她"",""弱她""]","","","","","","","","yes","","","","","","","","","SRET","EW_formal","","key","f","16.668816091954085","640","356","自己","主见","Positive","ability","","","","","","","","","","",""
"582","","f","psychophysics","101","210266","0.0-7.0-3.0-0.87","6","5","6","4","2","4","4","5","5","5","4","0","-1","0","1","-2","2","2","0","4","5","5","5","5","4","4","3","4","5","5","6","7","5","7","8","7","8","8","5","5","3","6","2","3","3","3","6","5","1","5","2","6","3","6","3","6","5","4","6","5","5","3","1","3","6","5","5","2","7","7","3","6","1","3","7","3","3","2","5","741960766508503041","张","696","Female","[""好我"",""坏我"",""好她"",""坏她""]","[""强我"",""弱我"",""强她"",""弱她""]","","","","","","","","yes","","","","","","","","","SRET","EW_formal","","key","f","16.669840425531877","640","356","朋友","素养","Positive","morality","","","","","","","","","","",""
"73555","
    <p><div style='color:white;font-size:35px; line-height:20px;'>计算任务</div></p><br>
    <p><div style='color:red;font-size:25px; line-height:20px;'>接下来，您将看到一些四则运算题，<b>请从键盘选择 0-9 进行反应。</b></div></p>
    <p><div style='color:red;font-size:25px; line-height:20px;'>请尽可能快地进行计算，计算的速度和正确率将影响报酬的发放。</div></p>
    <p><div class='footer' style='color:white;font-size:25px; line-height:20px;'>如果对本实验还有不清楚之处，请立即向实验员咨询。</p><p style='color:white;font-size:25px; line-height:20px;'>如果您明白了规则：</p><p style='color:white;font-size:22px; line-height:20px;'>请按 继续 进入练习</p>
    </div>
    ","0","html-button-response","102","283826","0.0-7.0-4.0","6","5","6","4","2","4","4","5","5","5","4","0","-1","0","1","-2","2","2","0","4","5","5","5","5","4","4","3","4","5","5","6","7","5","7","8","7","8","8","5","5","3","6","2","3","3","3","6","5","1","5","2","6","3","6","3","6","5","4","6","5","5","3","1","3","6","5","5","2","7","7","3","6","1","3","7","3","3","2","5","741960766508503041","张","696","Female","[""好我"",""坏我"",""好她"",""坏她""]","[""强我"",""弱我"",""强她"",""弱她""]","","","","","","","","","","","","","","","","","SRET_math","math_instructions","Fri Jan 19 2024 21:58:48 GMT+0800 (中国标准时间)","","","","","","","","","","","","","","","","","","","",""
"2628","","2","psychophysics","103","286466","0.0-7.0-5.0-0.0","6","5","6","4","2","4","4","5","5","5","4","0","-1","0","1","-2","2","2","0","4","5","5","5","5","4","4","3","4","5","5","6","7","5","7","8","7","8","8","5","5","3","6","2","3","3","3","6","5","1","5","2","6","3","6","3","6","5","4","6","5","5","3","1","3","6","5","5","2","7","7","3","6","1","3","7","3","3","2","5","741960766508503041","张","696","Female","[""好我"",""坏我"",""好她"",""坏她""]","[""强我"",""弱我"",""强她"",""弱她""]","","","","","","","","2","","","","","","","","","SRET","SRET_math_calculate","","key","2","16.66783018867923","640","356","","","","","29-27= ?","2","1","","","","","","","",""
"2609","","7","psychophysics","104","289082","0.0-7.0-5.0-0.1","6","5","6","4","2","4","4","5","5","5","4","0","-1","0","1","-2","2","2","0","4","5","5","5","5","4","4","3","4","5","5","6","7","5","7","8","7","8","8","5","5","3","6","2","3","3","3","6","5","1","5","2","6","3","6","3","6","5","4","6","5","5","3","1","3","6","5","5","2","7","7","3","6","1","3","7","3","3","2","5","741960766508503041","张","696","Female","[""好我"",""坏我"",""好她"",""坏她""]","[""强我"",""弱我"",""强她"",""弱她""]","","","","","","","","7","","","","","","","","","SRET","SRET_math_calculate","","key","7","16.668282051282286","640","356","","","","","8-1= ?","7","1","","","","","","","",""
"5876","","9","psychophysics","105","294966","0.0-7.0-5.0-0.2","6","5","6","4","2","4","4","5","5","5","4","0","-1","0","1","-2","2","2","0","4","5","5","5","5","4","4","3","4","5","5","6","7","5","7","8","7","8","8","5","5","3","6","2","3","3","3","6","5","1","5","2","6","3","6","3","6","5","4","6","5","5","3","1","3","6","5","5","2","7","7","3","6","1","3","7","3","3","2","5","741960766508503041","张","696","Female","[""好我"",""坏我"",""好她"",""坏她""]","[""强我"",""弱我"",""强她"",""弱她""]","","","","","","","","9","","","","","","","","","SRET","SRET_math_calculate","","key","9","16.667170454545406","640","356","","","","","43-34= ?","9","1","","","","","","","",""
"1953","","3","psychophysics","106","296926","0.0-7.0-5.0-0.3","6","5","6","4","2","4","4","5","5","5","4","0","-1","0","1","-2","2","2","0","4","5","5","5","5","4","4","3","4","5","5","6","7","5","7","8","7","8","8","5","5","3","6","2","3","3","3","6","5","1","5","2","6","3","6","3","6","5","4","6","5","5","3","1","3","6","5","5","2","7","7","3","6","1","3","7","3","3","2","5","741960766508503041","张","696","Female","[""好我"",""坏我"",""好她"",""坏她""]","[""强我"",""弱我"",""强她"",""弱她""]","","","","","","","","3","","","","","","","","","SRET","SRET_math_calculate","","key","3","16.66845689655195","640","356","","","","","1+2= ?","3","1","","","","","","","",""
"1873","","3","psychophysics","107","298808","0.0-7.0-5.0-0.4","6","5","6","4","2","4","4","5","5","5","4","0","-1","0","1","-2","2","2","0","4","5","5","5","5","4","4","3","4","5","5","6","7","5","7","8","7","8","8","5","5","3","6","2","3","3","3","6","5","1","5","2","6","3","6","3","6","5","4","6","5","5","3","1","3","6","5","5","2","7","7","3","6","1","3","7","3","3","2","5","741960766508503041","张","696","Female","[""好我"",""坏我"",""好她"",""坏她""]","[""强我"",""弱我"",""强她"",""弱她""]","","","","","","","","3","","","","","","","","","SRET","SRET_math_calculate","","key","3","16.668767857142875","640","356","","","","","3*1= ?","3","1","","","","","","","",""
"2052","","0","psychophysics","108","300871","0.0-7.0-5.0-0.5","6","5","6","4","2","4","4","5","5","5","4","0","-1","0","1","-2","2","2","0","4","5","5","5","5","4","4","3","4","5","5","6","7","5","7","8","7","8","8","5","5","3","6","2","3","3","3","6","5","1","5","2","6","3","6","3","6","5","4","6","5","5","3","1","3","6","5","5","2","7","7","3","6","1","3","7","3","3","2","5","741960766508503041","张","696","Female","[""好我"",""坏我"",""好她"",""坏她""]","[""强我"",""弱我"",""强她"",""弱她""]","","","","","","","","0","","","","","","","","","SRET","SRET_math_calculate","","key","0","16.667715447154595","640","356","","","","","6*0= ?","0","1","","","","","","","",""
"3650","","8","psychophysics","109","304528","0.0-7.0-5.0-0.6","6","5","6","4","2","4","4","5","5","5","4","0","-1","0","1","-2","2","2","0","4","5","5","5","5","4","4","3","4","5","5","6","7","5","7","8","7","8","8","5","5","3","6","2","3","3","3","6","5","1","5","2","6","3","6","3","6","5","4","6","5","5","3","1","3","6","5","5","2","7","7","3","6","1","3","7","3","3","2","5","741960766508503041","张","696","Female","[""好我"",""坏我"",""好她"",""坏她""]","[""强我"",""弱我"",""强她"",""弱她""]","","","","","","","","8","","","","","","","","","SRET","SRET_math_calculate","","key","8","16.66775688073393","640","356","","","","","72/9= ?","8","1","","","","","","","",""
"1845","","6","psychophysics","110","306388","0.0-7.0-5.0-0.7","6","5","6","4","2","4","4","5","5","5","4","0","-1","0","1","-2","2","2","0","4","5","5","5","5","4","4","3","4","5","5","6","7","5","7","8","7","8","8","5","5","3","6","2","3","3","3","6","5","1","5","2","6","3","6","3","6","5","4","6","5","5","3","1","3","6","5","5","2","7","7","3","6","1","3","7","3","3","2","5","741960766508503041","张","696","Female","[""好我"",""坏我"",""好她"",""坏她""]","[""强我"",""弱我"",""强她"",""弱她""]","","","","","","","","6","","","","","","","","","SRET","SRET_math_calculate","","key","6","16.667198198198275","640","356","","","","","11-5= ?","6","1","","","","","","","",""
"1785","","3","psychophysics","111","308181","0.0-7.0-5.0-0.8","6","5","6","4","2","4","4","5","5","5","4","0","-1","0","1","-2","2","2","0","4","5","5","5","5","4","4","3","4","5","5","6","7","5","7","8","7","8","8","5","5","3","6","2","3","3","3","6","5","1","5","2","6","3","6","3","6","5","4","6","5","5","3","1","3","6","5","5","2","7","7","3","6","1","3","7","3","3","2","5","741960766508503041","张","696","Female","[""好我"",""坏我"",""好她"",""坏她""]","[""强我"",""弱我"",""强她"",""弱她""]","","","","","","","","3","","","","","","","","","SRET","SRET_math_calculate","","key","3","16.668462264151113","640","356","","","","","9-6= ?","3","1","","","","","","","",""
"3431","","8","psychophysics","112","311623","0.0-7.0-5.0-0.9","6","5","6","4","2","4","4","5","5","5","4","0","-1","0","1","-2","2","2","0","4","5","5","5","5","4","4","3","4","5","5","6","7","5","7","8","7","8","8","5","5","3","6","2","3","3","3","6","5","1","5","2","6","3","6","3","6","5","4","6","5","5","3","1","3","6","5","5","2","7","7","3","6","1","3","7","3","3","2","5","741960766508503041","张","696","Female","[""好我"",""坏我"",""好她"",""坏她""]","[""强我"",""弱我"",""强她"",""弱她""]","","","","","","","","8","","","","","","","","","SRET","SRET_math_calculate","","key","8","16.667422330097093","640","356","","","","","13-5= ?","8","1","","","","","","","",""
"2054","","0","psychophysics","113","313684","0.0-7.0-5.0-0.10","6","5","6","4","2","4","4","5","5","5","4","0","-1","0","1","-2","2","2","0","4","5","5","5","5","4","4","3","4","5","5","6","7","5","7","8","7","8","8","5","5","3","6","2","3","3","3","6","5","1","5","2","6","3","6","3","6","5","4","6","5","5","3","1","3","6","5","5","2","7","7","3","6","1","3","7","3","3","2","5","741960766508503041","张","696","Female","[""好我"",""坏我"",""好她"",""坏她""]","[""强我"",""弱我"",""强她"",""弱她""]","","","","","","","","0","","","","","","","","","SRET","SRET_math_calculate","","key","0","16.6670813008133","640","356","","","","","22-22= ?","0","1","","","","","","","",""
"2194","","6","psychophysics","114","315885","0.0-7.0-5.0-0.11","6","5","6","4","2","4","4","5","5","5","4","0","-1","0","1","-2","2","2","0","4","5","5","5","5","4","4","3","4","5","5","6","7","5","7","8","7","8","8","5","5","3","6","2","3","3","3","6","5","1","5","2","6","3","6","3","6","5","4","6","5","5","3","1","3","6","5","5","2","7","7","3","6","1","3","7","3","3","2","5","741960766508503041","张","696","Female","[""好我"",""坏我"",""好她"",""坏她""]","[""强我"",""弱我"",""强她"",""弱她""]","","","","","","","","6","","","","","","","","","SRET","SRET_math_calculate","","key","6","16.667816793893106","640","356","","","","","3*2= ?","6","1","","","","","","","",""
"1997","","7","psychophysics","115","317888","0.0-7.0-5.0-0.12","6","5","6","4","2","4","4","5","5","5","4","0","-1","0","1","-2","2","2","0","4","5","5","5","5","4","4","3","4","5","5","6","7","5","7","8","7","8","8","5","5","3","6","2","3","3","3","6","5","1","5","2","6","3","6","3","6","5","4","6","5","5","3","1","3","6","5","5","2","7","7","3","6","1","3","7","3","3","2","5","741960766508503041","张","696","Female","[""好我"",""坏我"",""好她"",""坏她""]","[""强我"",""弱我"",""强她"",""弱她""]","","","","","","","","7","","","","","","","","","SRET","SRET_math_calculate","","key","7","16.668773109243475","640","356","","","","","4+3= ?","7","1","","","","","","","",""
"4091","","5","psychophysics","116","321986","0.0-7.0-5.0-0.13","6","5","6","4","2","4","4","5","5","5","4","0","-1","0","1","-2","2","2","0","4","5","5","5","5","4","4","3","4","5","5","6","7","5","7","8","7","8","8","5","5","3","6","2","3","3","3","6","5","1","5","2","6","3","6","3","6","5","4","6","5","5","3","1","3","6","5","5","2","7","7","3","6","1","3","7","3","3","2","5","741960766508503041","张","696","Female","[""好我"",""坏我"",""好她"",""坏她""]","[""强我"",""弱我"",""强她"",""弱她""]","","","","","","","","5","","","","","","","","","SRET","SRET_math_calculate","","key","5","16.66746530612237","640","356","","","","","5/1= ?","5","1","","","","","","","",""
"2005","","6","psychophysics","117","323999","0.0-7.0-5.0-0.14","6","5","6","4","2","4","4","5","5","5","4","0","-1","0","1","-2","2","2","0","4","5","5","5","5","4","4","3","4","5","5","6","7","5","7","8","7","8","8","5","5","3","6","2","3","3","3","6","5","1","5","2","6","3","6","3","6","5","4","6","5","5","3","1","3","6","5","5","2","7","7","3","6","1","3","7","3","3","2","5","741960766508503041","张","696","Female","[""好我"",""坏我"",""好她"",""坏她""]","[""强我"",""弱我"",""强她"",""弱她""]","","","","","","","","6","","","","","","","","","SRET","SRET_math_calculate","","key","6","16.667999999999786","640","356","","","","","9-3= ?","6","1","","","","","","","",""
"2411","","8","psychophysics","118","326418","0.0-7.0-5.0-0.15","6","5","6","4","2","4","4","5","5","5","4","0","-1","0","1","-2","2","2","0","4","5","5","5","5","4","4","3","4","5","5","6","7","5","7","8","7","8","8","5","5","3","6","2","3","3","3","6","5","1","5","2","6","3","6","3","6","5","4","6","5","5","3","1","3","6","5","5","2","7","7","3","6","1","3","7","3","3","2","5","741960766508503041","张","696","Female","[""好我"",""坏我"",""好她"",""坏她""]","[""强我"",""弱我"",""强她"",""弱她""]","","","","","","","","8","","","","","","","","","SRET","SRET_math_calculate","","key","8","16.667701388889125","640","356","","","","","56/7= ?","8","1","","","","","","","",""
"1911","","1","psychophysics","119","328333","0.0-7.0-5.0-0.16","6","5","6","4","2","4","4","5","5","5","4","0","-1","0","1","-2","2","2","0","4","5","5","5","5","4","4","3","4","5","5","6","7","5","7","8","7","8","8","5","5","3","6","2","3","3","3","6","5","1","5","2","6","3","6","3","6","5","4","6","5","5","3","1","3","6","5","5","2","7","7","3","6","1","3","7","3","3","2","5","741960766508503041","张","696","Female","[""好我"",""坏我"",""好她"",""坏她""]","[""强我"",""弱我"",""强她"",""弱她""]","","","","","","","","1","","","","","","","","","SRET","SRET_math_calculate","","key","1","16.668157894736698","640","356","","","","","4/4= ?","1","1","","","","","","","",""
"2424","","2","psychophysics","120","330763","0.0-7.0-5.0-0.17","6","5","6","4","2","4","4","5","5","5","4","0","-1","0","1","-2","2","2","0","4","5","5","5","5","4","4","3","4","5","5","6","7","5","7","8","7","8","8","5","5","3","6","2","3","3","3","6","5","1","5","2","6","3","6","3","6","5","4","6","5","5","3","1","3","6","5","5","2","7","7","3","6","1","3","7","3","3","2","5","741960766508503041","张","696","Female","[""好我"",""坏我"",""好她"",""坏她""]","[""强我"",""弱我"",""强她"",""弱她""]","","","","","","","","2","","","","","","","","","SRET","SRET_math_calculate","","key","2","16.66851388888891","640","356","","","","","9-7= ?","2","1","","","","","","","",""
"3323","","5","psychophysics","121","334096","0.0-7.0-5.0-0.18","6","5","6","4","2","4","4","5","5","5","4","0","-1","0","1","-2","2","2","0","4","5","5","5","5","4","4","3","4","5","5","6","7","5","7","8","7","8","8","5","5","3","6","2","3","3","3","6","5","1","5","2","6","3","6","3","6","5","4","6","5","5","3","1","3","6","5","5","2","7","7","3","6","1","3","7","3","3","2","5","741960766508503041","张","696","Female","[""好我"",""坏我"",""好她"",""坏她""]","[""强我"",""弱我"",""强她"",""弱她""]","","","","","","","","5","","","","","","","","","SRET","SRET_math_calculate","","key","5","16.667261306532534","640","356","","","","","14-9= ?","5","1","","","","","","","",""
"1946","","9","psychophysics","122","336058","0.0-7.0-5.0-0.19","6","5","6","4","2","4","4","5","5","5","4","0","-1","0","1","-2","2","2","0","4","5","5","5","5","4","4","3","4","5","5","6","7","5","7","8","7","8","8","5","5","3","6","2","3","3","3","6","5","1","5","2","6","3","6","3","6","5","4","6","5","5","3","1","3","6","5","5","2","7","7","3","6","1","3","7","3","3","2","5","741960766508503041","张","696","Female","[""好我"",""坏我"",""好她"",""坏她""]","[""强我"",""弱我"",""强她"",""弱她""]","","","","","","","","9","","","","","","","","","SRET","SRET_math_calculate","","key","9","16.667299145299335","640","356","","","","","2+7= ?","9","1","","","","","","","",""
"1824","","1","psychophysics","123","337891","0.0-7.0-5.0-0.20","6","5","6","4","2","4","4","5","5","5","4","0","-1","0","1","-2","2","2","0","4","5","5","5","5","4","4","3","4","5","5","6","7","5","7","8","7","8","8","5","5","3","6","2","3","3","3","6","5","1","5","2","6","3","6","3","6","5","4","6","5","5","3","1","3","6","5","5","2","7","7","3","6","1","3","7","3","3","2","5","741960766508503041","张","696","Female","[""好我"",""坏我"",""好她"",""坏她""]","[""强我"",""弱我"",""强她"",""弱她""]","","","","","","","","1","","","","","","","","","SRET","SRET_math_calculate","","key","1","16.66776146789011","640","356","","","","","10-9= ?","1","1","","","","","","","",""
"1797","","4","psychophysics","124","339695","0.0-7.0-5.0-0.21","6","5","6","4","2","4","4","5","5","5","4","0","-1","0","1","-2","2","2","0","4","5","5","5","5","4","4","3","4","5","5","6","7","5","7","8","7","8","8","5","5","3","6","2","3","3","3","6","5","1","5","2","6","3","6","3","6","5","4","6","5","5","3","1","3","6","5","5","2","7","7","3","6","1","3","7","3","3","2","5","741960766508503041","张","696","Female","[""好我"",""坏我"",""好她"",""坏她""]","[""强我"",""弱我"",""强她"",""弱她""]","","","","","","","","4","","","","","","","","","SRET","SRET_math_calculate","","key","4","16.66828037383172","640","356","","","","","2+2= ?","4","1","","","","","","","",""
"3683","","2","psychophysics","125","343390","0.0-7.0-5.0-0.22","6","5","6","4","2","4","4","5","5","5","4","0","-1","0","1","-2","2","2","0","4","5","5","5","5","4","4","3","4","5","5","6","7","5","7","8","7","8","8","5","5","3","6","2","3","3","3","6","5","1","5","2","6","3","6","3","6","5","4","6","5","5","3","1","3","6","5","5","2","7","7","3","6","1","3","7","3","3","2","5","741960766508503041","张","696","Female","[""好我"",""坏我"",""好她"",""坏她""]","[""强我"",""弱我"",""强她"",""弱她""]","","","","","","","","2","","","","","","","","","SRET","SRET_math_calculate","","key","2","16.66676018099544","640","356","","","","","90/45= ?","2","1","","","","","","","",""
"1937","","9","psychophysics","126","345329","0.0-7.0-5.0-0.23","6","5","6","4","2","4","4","5","5","5","4","0","-1","0","1","-2","2","2","0","4","5","5","5","5","4","4","3","4","5","5","6","7","5","7","8","7","8","8","5","5","3","6","2","3","3","3","6","5","1","5","2","6","3","6","3","6","5","4","6","5","5","3","1","3","6","5","5","2","7","7","3","6","1","3","7","3","3","2","5","741960766508503041","张","696","Female","[""好我"",""坏我"",""好她"",""坏她""]","[""强我"",""弱我"",""强她"",""弱她""]","","","","","","","","9","","","","","","","","","SRET","SRET_math_calculate","","key","9","16.6690869565218","640","356","","","","","7+2= ?","9","1","","","","","","","",""
"1929","","7","psychophysics","127","347276","0.0-7.0-5.0-0.24","6","5","6","4","2","4","4","5","5","5","4","0","-1","0","1","-2","2","2","0","4","5","5","5","5","4","4","3","4","5","5","6","7","5","7","8","7","8","8","5","5","3","6","2","3","3","3","6","5","1","5","2","6","3","6","3","6","5","4","6","5","5","3","1","3","6","5","5","2","7","7","3","6","1","3","7","3","3","2","5","741960766508503041","张","696","Female","[""好我"",""坏我"",""好她"",""坏她""]","[""强我"",""弱我"",""强她"",""弱她""]","","","","","","","","7","","","","","","","","","SRET","SRET_math_calculate","","key","7","16.66681896551745","640","356","","","","","7*1=  ?","7","1","","","","","","","",""
"2162","","9","psychophysics","128","349447","0.0-7.0-5.0-0.25","6","5","6","4","2","4","4","5","5","5","4","0","-1","0","1","-2","2","2","0","4","5","5","5","5","4","4","3","4","5","5","6","7","5","7","8","7","8","8","5","5","3","6","2","3","3","3","6","5","1","5","2","6","3","6","3","6","5","4","6","5","5","3","1","3","6","5","5","2","7","7","3","6","1","3","7","3","3","2","5","741960766508503041","张","696","Female","[""好我"",""坏我"",""好她"",""坏她""]","[""强我"",""弱我"",""强她"",""弱她""]","","","","","","","","9","","","","","","","","","SRET","SRET_math_calculate","","key","9","16.666844961240205","640","356","","","","","18/2= ?","9","1","","","","","","","",""
"1836","","5","psychophysics","129","351300","0.0-7.0-5.0-0.26","6","5","6","4","2","4","4","5","5","5","4","0","-1","0","1","-2","2","2","0","4","5","5","5","5","4","4","3","4","5","5","6","7","5","7","8","7","8","8","5","5","3","6","2","3","3","3","6","5","1","5","2","6","3","6","3","6","5","4","6","5","5","3","1","3","6","5","5","2","7","7","3","6","1","3","7","3","3","2","5","741960766508503041","张","696","Female","[""好我"",""坏我"",""好她"",""坏她""]","[""强我"",""弱我"",""强她"",""弱她""]","","","","","","","","5","","","","","","","","","SRET","SRET_math_calculate","","key","5","16.667405405405358","640","356","","","","","9-4= ?","5","1","","","","","","","",""
"3522","","2","psychophysics","130","354830","0.0-7.0-5.0-0.27","6","5","6","4","2","4","4","5","5","5","4","0","-1","0","1","-2","2","2","0","4","5","5","5","5","4","4","3","4","5","5","6","7","5","7","8","7","8","8","5","5","3","6","2","3","3","3","6","5","1","5","2","6","3","6","3","6","5","4","6","5","5","3","1","3","6","5","5","2","7","7","3","6","1","3","7","3","3","2","5","741960766508503041","张","696","Female","[""好我"",""坏我"",""好她"",""坏她""]","[""强我"",""弱我"",""强她"",""弱她""]","","","","","","","","2","","","","","","","","","SRET","SRET_math_calculate","","key","2","16.66790476190453","640","356","","","","","22/11= ?","2","1","","","","","","","",""
"1831","","7","psychophysics","131","356676","0.0-7.0-5.0-0.28","6","5","6","4","2","4","4","5","5","5","4","0","-1","0","1","-2","2","2","0","4","5","5","5","5","4","4","3","4","5","5","6","7","5","7","8","7","8","8","5","5","3","6","2","3","3","3","6","5","1","5","2","6","3","6","3","6","5","4","6","5","5","3","1","3","6","5","5","2","7","7","3","6","1","3","7","3","3","2","5","741960766508503041","张","696","Female","[""好我"",""坏我"",""好她"",""坏她""]","[""强我"",""弱我"",""强她"",""弱她""]","","","","","","","","7","","","","","","","","","SRET","SRET_math_calculate","","key","7","16.668390909090785","640","356","","","","","1+6= ?","7","1","","","","","","","",""
"1816","","5","psychophysics","132","358500","0.0-7.0-5.0-0.29","6","5","6","4","2","4","4","5","5","5","4","0","-1","0","1","-2","2","2","0","4","5","5","5","5","4","4","3","4","5","5","6","7","5","7","8","7","8","8","5","5","3","6","2","3","3","3","6","5","1","5","2","6","3","6","3","6","5","4","6","5","5","3","1","3","6","5","5","2","7","7","3","6","1","3","7","3","3","2","5","741960766508503041","张","696","Female","[""好我"",""坏我"",""好她"",""坏她""]","[""强我"",""弱我"",""强她"",""弱她""]","","","","","","","","5","","","","","","","","","SRET","SRET_math_calculate","","key","5","16.667201834862173","640","356","","","","","3+2= ?","5","1","","","","","","","",""
"1826","","4","psychophysics","133","360334","0.0-7.0-5.0-0.30","6","5","6","4","2","4","4","5","5","5","4","0","-1","0","1","-2","2","2","0","4","5","5","5","5","4","4","3","4","5","5","6","7","5","7","8","7","8","8","5","5","3","6","2","3","3","3","6","5","1","5","2","6","3","6","3","6","5","4","6","5","5","3","1","3","6","5","5","2","7","7","3","6","1","3","7","3","3","2","5","741960766508503041","张","696","Female","[""好我"",""坏我"",""好她"",""坏她""]","[""强我"",""弱我"",""强她"",""弱她""]","","","","","","","","4","","","","","","","","","SRET","SRET_math_calculate","","key","4","16.66833027522934","640","356","","","","","3+1= ?","4","1","","","","","","","",""
"1853","","5","psychophysics","134","362196","0.0-7.0-5.0-0.31","6","5","6","4","2","4","4","5","5","5","4","0","-1","0","1","-2","2","2","0","4","5","5","5","5","4","4","3","4","5","5","6","7","5","7","8","7","8","8","5","5","3","6","2","3","3","3","6","5","1","5","2","6","3","6","3","6","5","4","6","5","5","3","1","3","6","5","5","2","7","7","3","6","1","3","7","3","3","2","5","741960766508503041","张","696","Female","[""好我"",""坏我"",""好她"",""坏她""]","[""强我"",""弱我"",""强她"",""弱她""]","","","","","","","","5","","","","","","","","","SRET","SRET_math_calculate","","key","5","16.667499999999894","640","356","","","","","8-3= ? ","5","1","","","","","","","",""
"1931","","8","psychophysics","135","364140","0.0-7.0-5.0-0.32","6","5","6","4","2","4","4","5","5","5","4","0","-1","0","1","-2","2","2","0","4","5","5","5","5","4","4","3","4","5","5","6","7","5","7","8","7","8","8","5","5","3","6","2","3","3","3","6","5","1","5","2","6","3","6","3","6","5","4","6","5","5","3","1","3","6","5","5","2","7","7","3","6","1","3","7","3","3","2","5","741960766508503041","张","696","Female","[""好我"",""坏我"",""好她"",""坏她""]","[""强我"",""弱我"",""强她"",""弱她""]","","","","","","","","8","","","","","","","","","SRET","SRET_math_calculate","","key","8","16.667517241379567","640","356","","","","","2+6= ?","8","1","","","","","","","",""
"1813","","7","psychophysics","136","365962","0.0-7.0-5.0-0.33","6","5","6","4","2","4","4","5","5","5","4","0","-1","0","1","-2","2","2","0","4","5","5","5","5","4","4","3","4","5","5","6","7","5","7","8","7","8","8","5","5","3","6","2","3","3","3","6","5","1","5","2","6","3","6","3","6","5","4","6","5","5","3","1","3","6","5","5","2","7","7","3","6","1","3","7","3","3","2","5","741960766508503041","张","696","Female","[""好我"",""坏我"",""好她"",""坏她""]","[""强我"",""弱我"",""强她"",""弱她""]","","","","","","","","7","","","","","","","","","SRET","SRET_math_calculate","","key","7","16.66796296296309","640","356","","","","","3+4= ?","7","1","","","","","","","",""
"1781","","2","psychophysics","137","367756","0.0-7.0-5.0-0.34","6","5","6","4","2","4","4","5","5","5","4","0","-1","0","1","-2","2","2","0","4","5","5","5","5","4","4","3","4","5","5","6","7","5","7","8","7","8","8","5","5","3","6","2","3","3","3","6","5","1","5","2","6","3","6","3","6","5","4","6","5","5","3","1","3","6","5","5","2","7","7","3","6","1","3","7","3","3","2","5","741960766508503041","张","696","Female","[""好我"",""坏我"",""好她"",""坏她""]","[""强我"",""弱我"",""强她"",""弱她""]","","","","","","","","2","","","","","","","","","SRET","SRET_math_calculate","","key","2","16.6678691588785","640","356","","","","","8-6= ?","2","1","","","","","","","",""
"1977","","0","psychophysics","138","369741","0.0-7.0-5.0-0.35","6","5","6","4","2","4","4","5","5","5","4","0","-1","0","1","-2","2","2","0","4","5","5","5","5","4","4","3","4","5","5","6","7","5","7","8","7","8","8","5","5","3","6","2","3","3","3","6","5","1","5","2","6","3","6","3","6","5","4","6","5","5","3","1","3","6","5","5","2","7","7","3","6","1","3","7","3","3","2","5","741960766508503041","张","696","Female","[""好我"",""坏我"",""好她"",""坏她""]","[""强我"",""弱我"",""强她"",""弱她""]","","","","","","","","0","","","","","","","","","SRET","SRET_math_calculate","","key","0","16.667635593220485","640","356","","","","","12-12= ?","0","1","","","","","","","",""
"1842","","8","psychophysics","139","371591","0.0-7.0-5.0-0.36","6","5","6","4","2","4","4","5","5","5","4","0","-1","0","1","-2","2","2","0","4","5","5","5","5","4","4","3","4","5","5","6","7","5","7","8","7","8","8","5","5","3","6","2","3","3","3","6","5","1","5","2","6","3","6","3","6","5","4","6","5","5","3","1","3","6","5","5","2","7","7","3","6","1","3","7","3","3","2","5","741960766508503041","张","696","Female","[""好我"",""坏我"",""好她"",""坏她""]","[""强我"",""弱我"",""强她"",""弱她""]","","","","","","","","8","","","","","","","","","SRET","SRET_math_calculate","","key","8","16.667845454545354","640","356","","","","","8*1= ?","8","1","","","","","","","",""
"2267","","2","psychophysics","140","373866","0.0-7.0-5.0-0.37","6","5","6","4","2","4","4","5","5","5","4","0","-1","0","1","-2","2","2","0","4","5","5","5","5","4","4","3","4","5","5","6","7","5","7","8","7","8","8","5","5","3","6","2","3","3","3","6","5","1","5","2","6","3","6","3","6","5","4","6","5","5","3","1","3","6","5","5","2","7","7","3","6","1","3","7","3","3","2","5","741960766508503041","张","696","Female","[""好我"",""坏我"",""好她"",""坏她""]","[""强我"",""弱我"",""强她"",""弱她""]","","","","","","","","2","","","","","","","","","SRET","SRET_math_calculate","","key","2","16.66724264705879","640","356","","","","","18/9= ?","2","1","","","","","","","",""
"1884","","9","psychophysics","141","375757","0.0-7.0-5.0-0.38","6","5","6","4","2","4","4","5","5","5","4","0","-1","0","1","-2","2","2","0","4","5","5","5","5","4","4","3","4","5","5","6","7","5","7","8","7","8","8","5","5","3","6","2","3","3","3","6","5","1","5","2","6","3","6","3","6","5","4","6","5","5","3","1","3","6","5","5","2","7","7","3","6","1","3","7","3","3","2","5","741960766508503041","张","696","Female","[""好我"",""坏我"",""好她"",""坏她""]","[""强我"",""弱我"",""强她"",""弱她""]","","","","","","","","9","","","","","","","","","SRET","SRET_math_calculate","","key","9","16.66900892857146","640","356","","","","","5+4= ?","9","1","","","","","","","",""
"1786","","5","psychophysics","142","377554","0.0-7.0-5.0-0.39","6","5","6","4","2","4","4","5","5","5","4","0","-1","0","1","-2","2","2","0","4","5","5","5","5","4","4","3","4","5","5","6","7","5","7","8","7","8","8","5","5","3","6","2","3","3","3","6","5","1","5","2","6","3","6","3","6","5","4","6","5","5","3","1","3","6","5","5","2","7","7","3","6","1","3","7","3","3","2","5","741960766508503041","张","696","Female","[""好我"",""坏我"",""好她"",""坏她""]","[""强我"",""弱我"",""强她"",""弱她""]","","","","","","","","5","","","","","","","","","SRET","SRET_math_calculate","","key","5","16.66724299065438","640","356","","","","","2+3= ?","5","1","","","","","","","",""
