"rt","stimulus","response","trial_type","trial_index","time_elapsed","internal_node_id","swb_1","swb_2","swb_3","swb_4","swb_5","LOT_1","LOT_2","LOT_3","LOT_4","LOT_5","LOT_6","IPC_1","IPC_2","IPC_3","IPC_4","IPC_5","IPC_6","IPC_7","IPC_8","MorIden_1","MorIden_2","MorIden_3","MorIden_4","MorIden_5","MorIden_6","MorIden_7","MorIden_8","MorIden_9","MorIden_10","moralSeImag_1","moralSeImag_2","moralSeImag_3","moralSeImag_4","moralSeImag_5","moralSeImag_6","moralSeImag_7","moralSeImag_8","moralSeImag_9","sde_1","sde_2","sde_3","sde_4","sde_5","sde_6","sde_7","sde_8","sde_9","sde_10","trap2","sde_11","sde_12","sde_13","sde_14","sde_15","sde_16","sde_17","sde_18","sde_19","sde_20","IM_1","IM_2","IM_3","IM_4","IM_5","IM_6","IM_7","IM_8","IM_9","IM_10","IM_11","IM_12","IM_13","IM_14","IM_15","IM_16","IM_17","IM_18","IM_19","IM_20","subj_idx","friend_name","ParticipantID","Sex","Word","Word2","value","success","timeout","failed_images","failed_audio","failed_video","user_agent","responses","item_order","radio_event_ids","radio_event_times","key_event_times","mouse_event_times","straightlining","zigzagging","honeypot","view_history","response_type","key_press","avg_frame_time","center_x","center_y","correct_response","correct","identity","Image","word","condition","task_id","screen_id","time_stamp","person","valence","domain","math","status","duration","question_order","trap2_item"
"8739","
   <p><div style='color:white; font-size: 25px'>您好，欢迎参加本次实验。</div></p>
   <p><div style='color:white; font-size: 25px'>为充分保障您的权利，请确保您已经知晓并同意《参与实验同意书》以及《数据公开知情同意书》。</div></p>
   <p><div style='color:white; font-size: 25px'>如果您未见过上述内容，请咨询实验员。</div></p>
   <p style='color:white; font-size: 25px'>如果您选择继续实验，则表示您已经清楚两份知情同意书的内容并同意。</p>
   <p><div style = ""color: pink;font-size:30px;"">请确保您记得day0的实验编号，您将在本次实验输入该编号，若您忘记，请咨询实验员后作答。</div></p>
   <p><div style = ""color:lightblue;font-size:25px;"">请您尽可能认真地作答，我们将依据您在各问卷和按键任务中的作答质量发放报酬。</div></p>
   <p> <div style = ""color: green""><按空格键至下页></div> </p>
   "," ","html-keyboard-response","0","8741","0.0-0.0","5","5","5","3","1","4","4","4","5","5","4","1","2","0","0","1","0","1","0","5","5","5","5","5","4","4","4","5","4","4","5","6","6","4","4","4","7","7","3","6","5","3","5","2","6","1","5","5","1","2","3","3","3","3","5","2","7","3","6","3","3","3","2","3","5","3","7","7","7","7","2","7","3","2","7","7","7","3","3","726773976101027840","岳","281","Female","[""好她"",""坏她"",""坏我"",""好我""]","[""强她"",""弱她"",""弱我"",""强我""]","","","","","","","","","","","","","","","","","","","","","","","","","","","","","","","","","","","","","","",""
"","","","call-function","1","8742","0.0-1.0-0.0","5","5","5","3","1","4","4","4","5","5","4","1","2","0","0","1","0","1","0","5","5","5","5","5","4","4","4","5","4","4","5","6","6","4","4","4","7","7","3","6","5","3","5","2","6","1","5","5","1","2","3","3","3","3","5","2","7","3","6","3","3","3","2","3","5","3","7","7","7","7","2","7","3","2","7","7","7","3","3","726773976101027840","岳","281","Female","[""好她"",""坏她"",""坏我"",""好我""]","[""强她"",""弱她"",""弱我"",""强我""]","","","","","","","","","","","","","","","","","","","","","","","","","","","","","","","","","","","","","","",""
"21512","","[{""name"":""Sex"",""value"":""1""},{""name"":""friend_name"",""value"":""岳""},{""name"":""ParticipantID"",""value"":""281""}]","survey-html-form","2","30255","0.0-1.0-1.0","5","5","5","3","1","4","4","4","5","5","4","1","2","0","0","1","0","1","0","5","5","5","5","5","4","4","4","5","4","4","5","6","6","4","4","4","7","7","3","6","5","3","5","2","6","1","5","5","1","2","3","3","3","3","5","2","7","3","6","3","3","3","2","3","5","3","7","7","7","7","2","7","3","2","7","7","7","3","3","726773976101027840","岳","281","Female","[""好她"",""坏她"",""坏我"",""好我""]","[""强她"",""弱她"",""弱我"",""强我""]","","","","","","","","","","","","","","","","","","","","","","","","","","","","","","","","","","","","","","",""
"","","","preload","3","30747","0.0-2.0","5","5","5","3","1","4","4","4","5","5","4","1","2","0","0","1","0","1","0","5","5","5","5","5","4","4","4","5","4","4","5","6","6","4","4","4","7","7","3","6","5","3","5","2","6","1","5","5","1","2","3","3","3","3","5","2","7","3","6","3","3","3","2","3","5","3","7","7","7","7","2","7","3","2","7","7","7","3","3","726773976101027840","岳","281","Female","[""好她"",""坏她"",""坏我"",""好我""]","[""强她"",""弱她"",""弱我"",""强我""]","","true","false","[]","[]","[]","","","","","","","","","","","","","","","","","","","","","","","","","","","","","","","","",""
"","","","fullscreen","4","32472","0.0-3.0","5","5","5","3","1","4","4","4","5","5","4","1","2","0","0","1","0","1","0","5","5","5","5","5","4","4","4","5","4","4","5","6","6","4","4","4","7","7","3","6","5","3","5","2","6","1","5","5","1","2","3","3","3","3","5","2","7","3","6","3","3","3","2","3","5","3","7","7","7","7","2","7","3","2","7","7","7","3","3","726773976101027840","岳","281","Female","[""好她"",""坏她"",""坏我"",""好我""]","[""强她"",""弱她"",""弱我"",""强我""]","","true","","","","","{}","","","","","","","","","","","","","","","","","","","","","","","","","","","","","","","",""
"11445.399999999994","","{""Q01"":""5"",""Q02"":""5"",""Q03"":""5"",""Q04"":""3"",""Q05"":""1""}","survey-template","5","43919","0.0-4.0","5","5","5","3","1","4","4","4","5","5","4","1","2","0","0","1","0","1","0","5","5","5","5","5","4","4","4","5","4","4","5","6","6","4","4","4","7","7","3","6","5","3","5","2","6","1","5","5","1","2","3","3","3","3","5","2","7","3","6","3","3","3","2","3","5","3","7","7","7","7","2","7","3","2","7","7","7","3","3","726773976101027840","岳","281","Female","[""好她"",""坏她"",""坏我"",""好我""]","[""强她"",""弱她"",""弱我"",""强我""]","","","","","","","","{""Q01"":""5"",""Q02"":""5"",""Q03"":""5"",""Q04"":""3"",""Q05"":""1""}","[0,1,2,3,4]","[""Q01"",""Q02"",""Q03"",""Q04"",""Q05""]","[3654.399999999994,6842.200000000012,7962.5,9300.399999999994,10420.50000000003]","[]","[3654.399999999994,6842.200000000012,7962.5,9300.399999999994,10420.50000000003,11444.50000000003]","0.6","0","0","","","","","","","","","","","","","","","","","","","","","","",""
"31428.899999999965","","{""Q01"":""4"",""Q02"":""4"",""Q03"":""4"",""Q04"":""5"",""Q05"":""5"",""Q06"":""4""}","survey-template","6","75351","0.0-5.0","5","5","5","3","1","4","4","4","5","5","4","1","2","0","0","1","0","1","0","5","5","5","5","5","4","4","4","5","4","4","5","6","6","4","4","4","7","7","3","6","5","3","5","2","6","1","5","5","1","2","3","3","3","3","5","2","7","3","6","3","3","3","2","3","5","3","7","7","7","7","2","7","3","2","7","7","7","3","3","726773976101027840","岳","281","Female","[""好她"",""坏她"",""坏我"",""好我""]","[""强她"",""弱她"",""弱我"",""强我""]","","","","","","","","{""Q01"":""4"",""Q02"":""4"",""Q03"":""4"",""Q04"":""5"",""Q05"":""5"",""Q06"":""4""}","[0,1,2,3,4,5]","[""Q01"",""Q02"",""Q03"",""Q04"",""Q06"",""Q05""]","[2712,14831.899999999965,16212,19806,26408.099999999977,29417]","[]","[2712,14831.899999999965,16212,19806,21250.20000000001,26408.099999999977,27120.29999999999,29417,31428.399999999965]","0.5","0","0","","","","","","","","","","","","","","","","","","","","","","",""
"24965.79999999999","","{""Q01"":""1"",""Q02"":""2"",""Q03"":""0"",""Q04"":""0"",""Q05"":""1"",""Q06"":""0"",""Q07"":""1"",""Q08"":""0""}","survey-template","7","100319","0.0-6.0","5","5","5","3","1","4","4","4","5","5","4","1","2","0","0","1","0","1","0","5","5","5","5","5","4","4","4","5","4","4","5","6","6","4","4","4","7","7","3","6","5","3","5","2","6","1","5","5","1","2","3","3","3","3","5","2","7","3","6","3","3","3","2","3","5","3","7","7","7","7","2","7","3","2","7","7","7","3","3","726773976101027840","岳","281","Female","[""好她"",""坏她"",""坏我"",""好我""]","[""强她"",""弱她"",""弱我"",""强我""]","","","","","","","","{""Q01"":""1"",""Q02"":""2"",""Q03"":""0"",""Q04"":""0"",""Q05"":""1"",""Q06"":""0"",""Q07"":""1"",""Q08"":""0""}","[0,1,2,3,4,5,6,7]","[""Q01"",""Q02"",""Q03"",""Q04"",""Q05"",""Q06"",""Q07"",""Q08""]","[3766.4000000000233,6714.900000000023,9828.700000000012,12440.5,18050.599999999977,19258.599999999977,22256.900000000023,23932.70000000001]","[]","[3766.4000000000233,6714.900000000023,9828.700000000012,12440.5,18050.599999999977,19258.599999999977,22256.900000000023,23932.70000000001,24964.79999999999]","0.5","0.7142857142857143","0","","","","","","","","","","","","","","","","","","","","","","",""
"26461","","","instructions","8","126782","0.0-7.0","5","5","5","3","1","4","4","4","5","5","4","1","2","0","0","1","0","1","0","5","5","5","5","5","4","4","4","5","4","4","5","6","6","4","4","4","7","7","3","6","5","3","5","2","6","1","5","5","1","2","3","3","3","3","5","2","7","3","6","3","3","3","2","3","5","3","7","7","7","7","2","7","3","2","7","7","7","3","3","726773976101027840","岳","281","Female","[""好她"",""坏她"",""坏我"",""好我""]","[""强她"",""弱她"",""弱我"",""强我""]","","","","","","","","","","","","","","","","","[{""page_index"":0,""viewing_time"":26461}]","","","","","","","","","","","","","","","","","","","","","",""
"71759","","","instructions","9","198542","0.0-8.0-0.0-0.0","5","5","5","3","1","4","4","4","5","5","4","1","2","0","0","1","0","1","0","5","5","5","5","5","4","4","4","5","4","4","5","6","6","4","4","4","7","7","3","6","5","3","5","2","6","1","5","5","1","2","3","3","3","3","5","2","7","3","6","3","3","3","2","3","5","3","7","7","7","7","2","7","3","2","7","7","7","3","3","726773976101027840","岳","281","Female","[""好她"",""坏她"",""坏我"",""好我""]","[""强她"",""弱她"",""弱我"",""强我""]","","","","","","","","","","","","","","","","","[{""page_index"":0,""viewing_time"":18841},{""page_index"":1,""viewing_time"":43752},{""page_index"":2,""viewing_time"":7114},{""page_index"":3,""viewing_time"":2052}]","","","","","","","","","","","","","","","","","","","","","",""
"null","","null","psychophysics","10","200746","0.0-8.0-0.0-1.0-0.0-0.0","5","5","5","3","1","4","4","4","5","5","4","1","2","0","0","1","0","1","0","5","5","5","5","5","4","4","4","5","4","4","5","6","6","4","4","4","7","7","3","6","5","3","5","2","6","1","5","5","1","2","3","3","3","3","5","2","7","3","6","3","3","3","2","3","5","3","7","7","7","7","2","7","3","2","7","7","7","3","3","726773976101027840","岳","281","Female","[""好她"",""坏她"",""坏我"",""好我""]","[""强她"",""弱她"",""弱我"",""强我""]","","","","","","","","null","","","","","","","","","","key","null","16.582689393939233","731.4285714285714","453.42857142857144","j","false","match","img/triangle.png","好她","好她","prac_ALT2_moral","practice_moral","","","","","","","","",""
"null","<span class='add_' style='color:yellow; font-size: 70px;'> 太慢! </span>","null","html-keyboard-response","11","201247","0.0-8.0-0.0-1.0-0.0-1.0","5","5","5","3","1","4","4","4","5","5","4","1","2","0","0","1","0","1","0","5","5","5","5","5","4","4","4","5","4","4","5","6","6","4","4","4","7","7","3","6","5","3","5","2","6","1","5","5","1","2","3","3","3","3","5","2","7","3","6","3","3","3","2","3","5","3","7","7","7","7","2","7","3","2","7","7","7","3","3","726773976101027840","岳","281","Female","[""好她"",""坏她"",""坏我"",""好我""]","[""强她"",""弱她"",""弱我"",""强我""]","","","","","","","","","","","","","","","","","","","","","","","","","","","","","","feedback_test","","","","","","","","",""
"874","","f","psychophysics","12","203123","0.0-8.0-0.0-1.0-0.0-0.1","5","5","5","3","1","4","4","4","5","5","4","1","2","0","0","1","0","1","0","5","5","5","5","5","4","4","4","5","4","4","5","6","6","4","4","4","7","7","3","6","5","3","5","2","6","1","5","5","1","2","3","3","3","3","5","2","7","3","6","3","3","3","2","3","5","3","7","7","7","7","2","7","3","2","7","7","7","3","3","726773976101027840","岳","281","Female","[""好她"",""坏她"",""坏我"",""好我""]","[""强她"",""弱她"",""弱我"",""强我""]","","","","","","","","nonmatch","","","","","","","","","","key","f","16.667750000000005","731.4285714285714","453.42857142857144","f","true","nonmatch","img/pentagon.png","好她","坏我","prac_ALT2_moral","practice_moral","","","","","","","","",""
"null","<span style='color:GreenYellow; font-size: 70px;'>正确! </span>","null","html-keyboard-response","13","203624","0.0-8.0-0.0-1.0-0.0-1.1","5","5","5","3","1","4","4","4","5","5","4","1","2","0","0","1","0","1","0","5","5","5","5","5","4","4","4","5","4","4","5","6","6","4","4","4","7","7","3","6","5","3","5","2","6","1","5","5","1","2","3","3","3","3","5","2","7","3","6","3","3","3","2","3","5","3","7","7","7","7","2","7","3","2","7","7","7","3","3","726773976101027840","岳","281","Female","[""好她"",""坏她"",""坏我"",""好我""]","[""强她"",""弱她"",""弱我"",""强我""]","","","","","","","","","","","","","","","","","","","","","","","","","","","","","","feedback_test","","","","","","","","",""
"764","","j","psychophysics","14","205389","0.0-8.0-0.0-1.0-0.0-0.2","5","5","5","3","1","4","4","4","5","5","4","1","2","0","0","1","0","1","0","5","5","5","5","5","4","4","4","5","4","4","5","6","6","4","4","4","7","7","3","6","5","3","5","2","6","1","5","5","1","2","3","3","3","3","5","2","7","3","6","3","3","3","2","3","5","3","7","7","7","7","2","7","3","2","7","7","7","3","3","726773976101027840","岳","281","Female","[""好她"",""坏她"",""坏我"",""好我""]","[""强她"",""弱她"",""弱我"",""强我""]","","","","","","","","match","","","","","","","","","","key","j","16.67003809523802","731.4285714285714","453.42857142857144","j","true","match","img/ellipse.png","坏她","坏她","prac_ALT2_moral","practice_moral","","","","","","","","",""
"null","<span style='color:GreenYellow; font-size: 70px;'>正确! </span>","null","html-keyboard-response","15","205894","0.0-8.0-0.0-1.0-0.0-1.2","5","5","5","3","1","4","4","4","5","5","4","1","2","0","0","1","0","1","0","5","5","5","5","5","4","4","4","5","4","4","5","6","6","4","4","4","7","7","3","6","5","3","5","2","6","1","5","5","1","2","3","3","3","3","5","2","7","3","6","3","3","3","2","3","5","3","7","7","7","7","2","7","3","2","7","7","7","3","3","726773976101027840","岳","281","Female","[""好她"",""坏她"",""坏我"",""好我""]","[""强她"",""弱她"",""弱我"",""强我""]","","","","","","","","","","","","","","","","","","","","","","","","","","","","","","feedback_test","","","","","","","","",""
"815","","j","psychophysics","16","207710","0.0-8.0-0.0-1.0-0.0-0.3","5","5","5","3","1","4","4","4","5","5","4","1","2","0","0","1","0","1","0","5","5","5","5","5","4","4","4","5","4","4","5","6","6","4","4","4","7","7","3","6","5","3","5","2","6","1","5","5","1","2","3","3","3","3","5","2","7","3","6","3","3","3","2","3","5","3","7","7","7","7","2","7","3","2","7","7","7","3","3","726773976101027840","岳","281","Female","[""好她"",""坏她"",""坏我"",""好我""]","[""强她"",""弱她"",""弱我"",""强我""]","","","","","","","","match","","","","","","","","","","key","j","16.669685185185195","731.4285714285714","453.42857142857144","j","true","match","img/pentagon.png","坏我","坏我","prac_ALT2_moral","practice_moral","","","","","","","","",""
"null","<span style='color:GreenYellow; font-size: 70px;'>正确! </span>","null","html-keyboard-response","17","208211","0.0-8.0-0.0-1.0-0.0-1.3","5","5","5","3","1","4","4","4","5","5","4","1","2","0","0","1","0","1","0","5","5","5","5","5","4","4","4","5","4","4","5","6","6","4","4","4","7","7","3","6","5","3","5","2","6","1","5","5","1","2","3","3","3","3","5","2","7","3","6","3","3","3","2","3","5","3","7","7","7","7","2","7","3","2","7","7","7","3","3","726773976101027840","岳","281","Female","[""好她"",""坏她"",""坏我"",""好我""]","[""强她"",""弱她"",""弱我"",""强我""]","","","","","","","","","","","","","","","","","","","","","","","","","","","","","","feedback_test","","","","","","","","",""
"880","","j","psychophysics","18","210092","0.0-8.0-0.0-1.0-0.0-0.4","5","5","5","3","1","4","4","4","5","5","4","1","2","0","0","1","0","1","0","5","5","5","5","5","4","4","4","5","4","4","5","6","6","4","4","4","7","7","3","6","5","3","5","2","6","1","5","5","1","2","3","3","3","3","5","2","7","3","6","3","3","3","2","3","5","3","7","7","7","7","2","7","3","2","7","7","7","3","3","726773976101027840","岳","281","Female","[""好她"",""坏她"",""坏我"",""好我""]","[""强她"",""弱她"",""弱我"",""强我""]","","","","","","","","match","","","","","","","","","","key","j","16.666419642857104","731.4285714285714","453.42857142857144","f","false","nonmatch","img/triangle.png","坏她","好她","prac_ALT2_moral","practice_moral","","","","","","","","",""
"null","<span style='color:red; font-size: 70px;'>错误! </span>","null","html-keyboard-response","19","210593","0.0-8.0-0.0-1.0-0.0-1.4","5","5","5","3","1","4","4","4","5","5","4","1","2","0","0","1","0","1","0","5","5","5","5","5","4","4","4","5","4","4","5","6","6","4","4","4","7","7","3","6","5","3","5","2","6","1","5","5","1","2","3","3","3","3","5","2","7","3","6","3","3","3","2","3","5","3","7","7","7","7","2","7","3","2","7","7","7","3","3","726773976101027840","岳","281","Female","[""好她"",""坏她"",""坏我"",""好我""]","[""强她"",""弱她"",""弱我"",""强我""]","","","","","","","","","","","","","","","","","","","","","","","","","","","","","","feedback_test","","","","","","","","",""
"704","","j","psychophysics","20","212298","0.0-8.0-0.0-1.0-0.0-0.5","5","5","5","3","1","4","4","4","5","5","4","1","2","0","0","1","0","1","0","5","5","5","5","5","4","4","4","5","4","4","5","6","6","4","4","4","7","7","3","6","5","3","5","2","6","1","5","5","1","2","3","3","3","3","5","2","7","3","6","3","3","3","2","3","5","3","7","7","7","7","2","7","3","2","7","7","7","3","3","726773976101027840","岳","281","Female","[""好她"",""坏她"",""坏我"",""好我""]","[""强她"",""弱她"",""弱我"",""强我""]","","","","","","","","match","","","","","","","","","","key","j","16.667475247524834","731.4285714285714","453.42857142857144","j","true","match","img/triangle.png","好她","好她","prac_ALT2_moral","practice_moral","","","","","","","","",""
"null","<span style='color:GreenYellow; font-size: 70px;'>正确! </span>","null","html-keyboard-response","21","212799","0.0-8.0-0.0-1.0-0.0-1.5","5","5","5","3","1","4","4","4","5","5","4","1","2","0","0","1","0","1","0","5","5","5","5","5","4","4","4","5","4","4","5","6","6","4","4","4","7","7","3","6","5","3","5","2","6","1","5","5","1","2","3","3","3","3","5","2","7","3","6","3","3","3","2","3","5","3","7","7","7","7","2","7","3","2","7","7","7","3","3","726773976101027840","岳","281","Female","[""好她"",""坏她"",""坏我"",""好我""]","[""强她"",""弱她"",""弱我"",""强我""]","","","","","","","","","","","","","","","","","","","","","","","","","","","","","","feedback_test","","","","","","","","",""
"860","","f","psychophysics","22","214661","0.0-8.0-0.0-1.0-0.0-0.6","5","5","5","3","1","4","4","4","5","5","4","1","2","0","0","1","0","1","0","5","5","5","5","5","4","4","4","5","4","4","5","6","6","4","4","4","7","7","3","6","5","3","5","2","6","1","5","5","1","2","3","3","3","3","5","2","7","3","6","3","3","3","2","3","5","3","7","7","7","7","2","7","3","2","7","7","7","3","3","726773976101027840","岳","281","Female","[""好她"",""坏她"",""坏我"",""好我""]","[""强她"",""弱她"",""弱我"",""强我""]","","","","","","","","nonmatch","","","","","","","","","","key","f","16.6657297297298","731.4285714285714","453.42857142857144","j","false","match","img/trapezoid.png","好我","好我","prac_ALT2_moral","practice_moral","","","","","","","","",""
"null","<span style='color:red; font-size: 70px;'>错误! </span>","null","html-keyboard-response","23","215162","0.0-8.0-0.0-1.0-0.0-1.6","5","5","5","3","1","4","4","4","5","5","4","1","2","0","0","1","0","1","0","5","5","5","5","5","4","4","4","5","4","4","5","6","6","4","4","4","7","7","3","6","5","3","5","2","6","1","5","5","1","2","3","3","3","3","5","2","7","3","6","3","3","3","2","3","5","3","7","7","7","7","2","7","3","2","7","7","7","3","3","726773976101027840","岳","281","Female","[""好她"",""坏她"",""坏我"",""好我""]","[""强她"",""弱她"",""弱我"",""强我""]","","","","","","","","","","","","","","","","","","","","","","","","","","","","","","feedback_test","","","","","","","","",""
"793","","j","psychophysics","24","216956","0.0-8.0-0.0-1.0-0.0-0.7","5","5","5","3","1","4","4","4","5","5","4","1","2","0","0","1","0","1","0","5","5","5","5","5","4","4","4","5","4","4","5","6","6","4","4","4","7","7","3","6","5","3","5","2","6","1","5","5","1","2","3","3","3","3","5","2","7","3","6","3","3","3","2","3","5","3","7","7","7","7","2","7","3","2","7","7","7","3","3","726773976101027840","岳","281","Female","[""好她"",""坏她"",""坏我"",""好我""]","[""强她"",""弱她"",""弱我"",""强我""]","","","","","","","","match","","","","","","","","","","key","j","16.66712149532722","731.4285714285714","453.42857142857144","f","false","nonmatch","img/ellipse.png","好她","坏她","prac_ALT2_moral","practice_moral","","","","","","","","",""
"null","<span style='color:red; font-size: 70px;'>错误! </span>","null","html-keyboard-response","25","217458","0.0-8.0-0.0-1.0-0.0-1.7","5","5","5","3","1","4","4","4","5","5","4","1","2","0","0","1","0","1","0","5","5","5","5","5","4","4","4","5","4","4","5","6","6","4","4","4","7","7","3","6","5","3","5","2","6","1","5","5","1","2","3","3","3","3","5","2","7","3","6","3","3","3","2","3","5","3","7","7","7","7","2","7","3","2","7","7","7","3","3","726773976101027840","岳","281","Female","[""好她"",""坏她"",""坏我"",""好我""]","[""强她"",""弱她"",""弱我"",""强我""]","","","","","","","","","","","","","","","","","","","","","","","","","","","","","","feedback_test","","","","","","","","",""
"1071","","j","psychophysics","26","219530","0.0-8.0-0.0-1.0-0.0-0.8","5","5","5","3","1","4","4","4","5","5","4","1","2","0","0","1","0","1","0","5","5","5","5","5","4","4","4","5","4","4","5","6","6","4","4","4","7","7","3","6","5","3","5","2","6","1","5","5","1","2","3","3","3","3","5","2","7","3","6","3","3","3","2","3","5","3","7","7","7","7","2","7","3","2","7","7","7","3","3","726773976101027840","岳","281","Female","[""好她"",""坏她"",""坏我"",""好我""]","[""强她"",""弱她"",""弱我"",""强我""]","","","","","","","","match","","","","","","","","","","key","j","16.669089430894388","731.4285714285714","453.42857142857144","j","true","match","img/ellipse.png","坏她","坏她","prac_ALT2_moral","practice_moral","","","","","","","","",""
"null","<span style='color:GreenYellow; font-size: 70px;'>正确! </span>","null","html-keyboard-response","27","220031","0.0-8.0-0.0-1.0-0.0-1.8","5","5","5","3","1","4","4","4","5","5","4","1","2","0","0","1","0","1","0","5","5","5","5","5","4","4","4","5","4","4","5","6","6","4","4","4","7","7","3","6","5","3","5","2","6","1","5","5","1","2","3","3","3","3","5","2","7","3","6","3","3","3","2","3","5","3","7","7","7","7","2","7","3","2","7","7","7","3","3","726773976101027840","岳","281","Female","[""好她"",""坏她"",""坏我"",""好我""]","[""强她"",""弱她"",""弱我"",""强我""]","","","","","","","","","","","","","","","","","","","","","","","","","","","","","","feedback_test","","","","","","","","",""
"850","","j","psychophysics","28","221882","0.0-8.0-0.0-1.0-0.0-0.9","5","5","5","3","1","4","4","4","5","5","4","1","2","0","0","1","0","1","0","5","5","5","5","5","4","4","4","5","4","4","5","6","6","4","4","4","7","7","3","6","5","3","5","2","6","1","5","5","1","2","3","3","3","3","5","2","7","3","6","3","3","3","2","3","5","3","7","7","7","7","2","7","3","2","7","7","7","3","3","726773976101027840","岳","281","Female","[""好她"",""坏她"",""坏我"",""好我""]","[""强她"",""弱她"",""弱我"",""强我""]","","","","","","","","match","","","","","","","","","","key","j","16.667909090909102","731.4285714285714","453.42857142857144","j","true","match","img/pentagon.png","坏我","坏我","prac_ALT2_moral","practice_moral","","","","","","","","",""
"null","<span style='color:GreenYellow; font-size: 70px;'>正确! </span>","null","html-keyboard-response","29","222383","0.0-8.0-0.0-1.0-0.0-1.9","5","5","5","3","1","4","4","4","5","5","4","1","2","0","0","1","0","1","0","5","5","5","5","5","4","4","4","5","4","4","5","6","6","4","4","4","7","7","3","6","5","3","5","2","6","1","5","5","1","2","3","3","3","3","5","2","7","3","6","3","3","3","2","3","5","3","7","7","7","7","2","7","3","2","7","7","7","3","3","726773976101027840","岳","281","Female","[""好她"",""坏她"",""坏我"",""好我""]","[""强她"",""弱她"",""弱我"",""强我""]","","","","","","","","","","","","","","","","","","","","","","","","","","","","","","feedback_test","","","","","","","","",""
"828","","j","psychophysics","30","224213","0.0-8.0-0.0-1.0-0.0-0.10","5","5","5","3","1","4","4","4","5","5","4","1","2","0","0","1","0","1","0","5","5","5","5","5","4","4","4","5","4","4","5","6","6","4","4","4","7","7","3","6","5","3","5","2","6","1","5","5","1","2","3","3","3","3","5","2","7","3","6","3","3","3","2","3","5","3","7","7","7","7","2","7","3","2","7","7","7","3","3","726773976101027840","岳","281","Female","[""好她"",""坏她"",""坏我"",""好我""]","[""强她"",""弱她"",""弱我"",""强我""]","","","","","","","","match","","","","","","","","","","key","j","16.66977064220188","731.4285714285714","453.42857142857144","f","false","nonmatch","img/triangle.png","好我","好她","prac_ALT2_moral","practice_moral","","","","","","","","",""
"null","<span style='color:red; font-size: 70px;'>错误! </span>","null","html-keyboard-response","31","224714","0.0-8.0-0.0-1.0-0.0-1.10","5","5","5","3","1","4","4","4","5","5","4","1","2","0","0","1","0","1","0","5","5","5","5","5","4","4","4","5","4","4","5","6","6","4","4","4","7","7","3","6","5","3","5","2","6","1","5","5","1","2","3","3","3","3","5","2","7","3","6","3","3","3","2","3","5","3","7","7","7","7","2","7","3","2","7","7","7","3","3","726773976101027840","岳","281","Female","[""好她"",""坏她"",""坏我"",""好我""]","[""强她"",""弱她"",""弱我"",""强我""]","","","","","","","","","","","","","","","","","","","","","","","","","","","","","","feedback_test","","","","","","","","",""
"985","","j","psychophysics","32","226700","0.0-8.0-0.0-1.0-0.0-0.11","5","5","5","3","1","4","4","4","5","5","4","1","2","0","0","1","0","1","0","5","5","5","5","5","4","4","4","5","4","4","5","6","6","4","4","4","7","7","3","6","5","3","5","2","6","1","5","5","1","2","3","3","3","3","5","2","7","3","6","3","3","3","2","3","5","3","7","7","7","7","2","7","3","2","7","7","7","3","3","726773976101027840","岳","281","Female","[""好她"",""坏她"",""坏我"",""好我""]","[""强她"",""弱她"",""弱我"",""强我""]","","","","","","","","match","","","","","","","","","","key","j","16.668533898305228","731.4285714285714","453.42857142857144","f","false","nonmatch","img/trapezoid.png","坏她","好我","prac_ALT2_moral","practice_moral","","","","","","","","",""
"null","<span style='color:red; font-size: 70px;'>错误! </span>","null","html-keyboard-response","33","227200","0.0-8.0-0.0-1.0-0.0-1.11","5","5","5","3","1","4","4","4","5","5","4","1","2","0","0","1","0","1","0","5","5","5","5","5","4","4","4","5","4","4","5","6","6","4","4","4","7","7","3","6","5","3","5","2","6","1","5","5","1","2","3","3","3","3","5","2","7","3","6","3","3","3","2","3","5","3","7","7","7","7","2","7","3","2","7","7","7","3","3","726773976101027840","岳","281","Female","[""好她"",""坏她"",""坏我"",""好我""]","[""强她"",""弱她"",""弱我"",""强我""]","","","","","","","","","","","","","","","","","","","","","","","","","","","","","","feedback_test","","","","","","","","",""
"null","","null","psychophysics","34","229409","0.0-8.0-0.0-1.0-0.0-0.12","5","5","5","3","1","4","4","4","5","5","4","1","2","0","0","1","0","1","0","5","5","5","5","5","4","4","4","5","4","4","5","6","6","4","4","4","7","7","3","6","5","3","5","2","6","1","5","5","1","2","3","3","3","3","5","2","7","3","6","3","3","3","2","3","5","3","7","7","7","7","2","7","3","2","7","7","7","3","3","726773976101027840","岳","281","Female","[""好她"",""坏她"",""坏我"",""好我""]","[""强她"",""弱她"",""弱我"",""强我""]","","","","","","","","null","","","","","","","","","","key","null","16.668310606060636","731.4285714285714","453.42857142857144","f","false","nonmatch","img/trapezoid.png","坏我","好我","prac_ALT2_moral","practice_moral","","","","","","","","",""
"null","<span class='add_' style='color:yellow; font-size: 70px;'> 太慢! </span>","null","html-keyboard-response","35","229910","0.0-8.0-0.0-1.0-0.0-1.12","5","5","5","3","1","4","4","4","5","5","4","1","2","0","0","1","0","1","0","5","5","5","5","5","4","4","4","5","4","4","5","6","6","4","4","4","7","7","3","6","5","3","5","2","6","1","5","5","1","2","3","3","3","3","5","2","7","3","6","3","3","3","2","3","5","3","7","7","7","7","2","7","3","2","7","7","7","3","3","726773976101027840","岳","281","Female","[""好她"",""坏她"",""坏我"",""好我""]","[""强她"",""弱她"",""弱我"",""强我""]","","","","","","","","","","","","","","","","","","","","","","","","","","","","","","feedback_test","","","","","","","","",""
"1201","","j","psychophysics","36","232112","0.0-8.0-0.0-1.0-0.0-0.13","5","5","5","3","1","4","4","4","5","5","4","1","2","0","0","1","0","1","0","5","5","5","5","5","4","4","4","5","4","4","5","6","6","4","4","4","7","7","3","6","5","3","5","2","6","1","5","5","1","2","3","3","3","3","5","2","7","3","6","3","3","3","2","3","5","3","7","7","7","7","2","7","3","2","7","7","7","3","3","726773976101027840","岳","281","Female","[""好她"",""坏她"",""坏我"",""好我""]","[""强她"",""弱她"",""弱我"",""强我""]","","","","","","","","match","","","","","","","","","","key","j","16.668190839694624","731.4285714285714","453.42857142857144","j","true","match","img/trapezoid.png","好我","好我","prac_ALT2_moral","practice_moral","","","","","","","","",""
"null","<span class='add_' style='color:yellow; font-size: 70px;'> 太慢! </span>","null","html-keyboard-response","37","232613","0.0-8.0-0.0-1.0-0.0-1.13","5","5","5","3","1","4","4","4","5","5","4","1","2","0","0","1","0","1","0","5","5","5","5","5","4","4","4","5","4","4","5","6","6","4","4","4","7","7","3","6","5","3","5","2","6","1","5","5","1","2","3","3","3","3","5","2","7","3","6","3","3","3","2","3","5","3","7","7","7","7","2","7","3","2","7","7","7","3","3","726773976101027840","岳","281","Female","[""好她"",""坏她"",""坏我"",""好我""]","[""强她"",""弱她"",""弱我"",""强我""]","","","","","","","","","","","","","","","","","","","","","","","","","","","","","","feedback_test","","","","","","","","",""
"977","","f","psychophysics","38","234591","0.0-8.0-0.0-1.0-0.0-0.14","5","5","5","3","1","4","4","4","5","5","4","1","2","0","0","1","0","1","0","5","5","5","5","5","4","4","4","5","4","4","5","6","6","4","4","4","7","7","3","6","5","3","5","2","6","1","5","5","1","2","3","3","3","3","5","2","7","3","6","3","3","3","2","3","5","3","7","7","7","7","2","7","3","2","7","7","7","3","3","726773976101027840","岳","281","Female","[""好她"",""坏她"",""坏我"",""好我""]","[""强她"",""弱她"",""弱我"",""强我""]","","","","","","","","nonmatch","","","","","","","","","","key","f","16.667889830508365","731.4285714285714","453.42857142857144","j","false","match","img/triangle.png","好她","好她","prac_ALT2_moral","practice_moral","","","","","","","","",""
"null","<span style='color:red; font-size: 70px;'>错误! </span>","null","html-keyboard-response","39","235093","0.0-8.0-0.0-1.0-0.0-1.14","5","5","5","3","1","4","4","4","5","5","4","1","2","0","0","1","0","1","0","5","5","5","5","5","4","4","4","5","4","4","5","6","6","4","4","4","7","7","3","6","5","3","5","2","6","1","5","5","1","2","3","3","3","3","5","2","7","3","6","3","3","3","2","3","5","3","7","7","7","7","2","7","3","2","7","7","7","3","3","726773976101027840","岳","281","Female","[""好她"",""坏她"",""坏我"",""好我""]","[""强她"",""弱她"",""弱我"",""强我""]","","","","","","","","","","","","","","","","","","","","","","","","","","","","","","feedback_test","","","","","","","","",""
"674","","j","psychophysics","40","236768","0.0-8.0-0.0-1.0-0.0-0.15","5","5","5","3","1","4","4","4","5","5","4","1","2","0","0","1","0","1","0","5","5","5","5","5","4","4","4","5","4","4","5","6","6","4","4","4","7","7","3","6","5","3","5","2","6","1","5","5","1","2","3","3","3","3","5","2","7","3","6","3","3","3","2","3","5","3","7","7","7","7","2","7","3","2","7","7","7","3","3","726773976101027840","岳","281","Female","[""好她"",""坏她"",""坏我"",""好我""]","[""强她"",""弱她"",""弱我"",""强我""]","","","","","","","","match","","","","","","","","","","key","j","16.669960000000138","731.4285714285714","453.42857142857144","j","true","match","img/trapezoid.png","好我","好我","prac_ALT2_moral","practice_moral","","","","","","","","",""
"null","<span style='color:GreenYellow; font-size: 70px;'>正确! </span>","null","html-keyboard-response","41","237270","0.0-8.0-0.0-1.0-0.0-1.15","5","5","5","3","1","4","4","4","5","5","4","1","2","0","0","1","0","1","0","5","5","5","5","5","4","4","4","5","4","4","5","6","6","4","4","4","7","7","3","6","5","3","5","2","6","1","5","5","1","2","3","3","3","3","5","2","7","3","6","3","3","3","2","3","5","3","7","7","7","7","2","7","3","2","7","7","7","3","3","726773976101027840","岳","281","Female","[""好她"",""坏她"",""坏我"",""好我""]","[""强她"",""弱她"",""弱我"",""强我""]","","","","","","","","","","","","","","","","","","","","","","","","","","","","","","feedback_test","","","","","","","","",""
"1103","","j","psychophysics","42","239374","0.0-8.0-0.0-1.0-0.0-0.16","5","5","5","3","1","4","4","4","5","5","4","1","2","0","0","1","0","1","0","5","5","5","5","5","4","4","4","5","4","4","5","6","6","4","4","4","7","7","3","6","5","3","5","2","6","1","5","5","1","2","3","3","3","3","5","2","7","3","6","3","3","3","2","3","5","3","7","7","7","7","2","7","3","2","7","7","7","3","3","726773976101027840","岳","281","Female","[""好她"",""坏她"",""坏我"",""好我""]","[""强她"",""弱她"",""弱我"",""强我""]","","","","","","","","match","","","","","","","","","","key","j","16.669159999999916","731.4285714285714","453.42857142857144","f","false","nonmatch","img/ellipse.png","好我","坏她","prac_ALT2_moral","practice_moral","","","","","","","","",""
"null","<span style='color:red; font-size: 70px;'>错误! </span>","null","html-keyboard-response","43","239875","0.0-8.0-0.0-1.0-0.0-1.16","5","5","5","3","1","4","4","4","5","5","4","1","2","0","0","1","0","1","0","5","5","5","5","5","4","4","4","5","4","4","5","6","6","4","4","4","7","7","3","6","5","3","5","2","6","1","5","5","1","2","3","3","3","3","5","2","7","3","6","3","3","3","2","3","5","3","7","7","7","7","2","7","3","2","7","7","7","3","3","726773976101027840","岳","281","Female","[""好她"",""坏她"",""坏我"",""好我""]","[""强她"",""弱她"",""弱我"",""强我""]","","","","","","","","","","","","","","","","","","","","","","","","","","","","","","feedback_test","","","","","","","","",""
"966","","f","psychophysics","44","241842","0.0-8.0-0.0-1.0-0.0-0.17","5","5","5","3","1","4","4","4","5","5","4","1","2","0","0","1","0","1","0","5","5","5","5","5","4","4","4","5","4","4","5","6","6","4","4","4","7","7","3","6","5","3","5","2","6","1","5","5","1","2","3","3","3","3","5","2","7","3","6","3","3","3","2","3","5","3","7","7","7","7","2","7","3","2","7","7","7","3","3","726773976101027840","岳","281","Female","[""好她"",""坏她"",""坏我"",""好我""]","[""强她"",""弱她"",""弱我"",""强我""]","","","","","","","","nonmatch","","","","","","","","","","key","f","16.663732758620835","731.4285714285714","453.42857142857144","f","true","nonmatch","img/triangle.png","坏我","好她","prac_ALT2_moral","practice_moral","","","","","","","","",""
"null","<span style='color:GreenYellow; font-size: 70px;'>正确! </span>","null","html-keyboard-response","45","242343","0.0-8.0-0.0-1.0-0.0-1.17","5","5","5","3","1","4","4","4","5","5","4","1","2","0","0","1","0","1","0","5","5","5","5","5","4","4","4","5","4","4","5","6","6","4","4","4","7","7","3","6","5","3","5","2","6","1","5","5","1","2","3","3","3","3","5","2","7","3","6","3","3","3","2","3","5","3","7","7","7","7","2","7","3","2","7","7","7","3","3","726773976101027840","岳","281","Female","[""好她"",""坏她"",""坏我"",""好我""]","[""强她"",""弱她"",""弱我"",""强我""]","","","","","","","","","","","","","","","","","","","","","","","","","","","","","","feedback_test","","","","","","","","",""
"890","","f","psychophysics","46","244234","0.0-8.0-0.0-1.0-0.0-0.18","5","5","5","3","1","4","4","4","5","5","4","1","2","0","0","1","0","1","0","5","5","5","5","5","4","4","4","5","4","4","5","6","6","4","4","4","7","7","3","6","5","3","5","2","6","1","5","5","1","2","3","3","3","3","5","2","7","3","6","3","3","3","2","3","5","3","7","7","7","7","2","7","3","2","7","7","7","3","3","726773976101027840","岳","281","Female","[""好她"",""坏她"",""坏我"",""好我""]","[""强她"",""弱她"",""弱我"",""强我""]","","","","","","","","nonmatch","","","","","","","","","","key","f","16.657991071428633","731.4285714285714","453.42857142857144","f","true","nonmatch","img/ellipse.png","坏我","坏她","prac_ALT2_moral","practice_moral","","","","","","","","",""
"null","<span style='color:GreenYellow; font-size: 70px;'>正确! </span>","null","html-keyboard-response","47","244735","0.0-8.0-0.0-1.0-0.0-1.18","5","5","5","3","1","4","4","4","5","5","4","1","2","0","0","1","0","1","0","5","5","5","5","5","4","4","4","5","4","4","5","6","6","4","4","4","7","7","3","6","5","3","5","2","6","1","5","5","1","2","3","3","3","3","5","2","7","3","6","3","3","3","2","3","5","3","7","7","7","7","2","7","3","2","7","7","7","3","3","726773976101027840","岳","281","Female","[""好她"",""坏她"",""坏我"",""好我""]","[""强她"",""弱她"",""弱我"",""强我""]","","","","","","","","","","","","","","","","","","","","","","","","","","","","","","feedback_test","","","","","","","","",""
"841","","f","psychophysics","48","246579","0.0-8.0-0.0-1.0-0.0-0.19","5","5","5","3","1","4","4","4","5","5","4","1","2","0","0","1","0","1","0","5","5","5","5","5","4","4","4","5","4","4","5","6","6","4","4","4","7","7","3","6","5","3","5","2","6","1","5","5","1","2","3","3","3","3","5","2","7","3","6","3","3","3","2","3","5","3","7","7","7","7","2","7","3","2","7","7","7","3","3","726773976101027840","岳","281","Female","[""好她"",""坏她"",""坏我"",""好我""]","[""强她"",""弱她"",""弱我"",""强我""]","","","","","","","","nonmatch","","","","","","","","","","key","f","16.668809090908987","731.4285714285714","453.42857142857144","f","true","nonmatch","img/pentagon.png","坏她","坏我","prac_ALT2_moral","practice_moral","","","","","","","","",""
"null","<span style='color:GreenYellow; font-size: 70px;'>正确! </span>","null","html-keyboard-response","49","247080","0.0-8.0-0.0-1.0-0.0-1.19","5","5","5","3","1","4","4","4","5","5","4","1","2","0","0","1","0","1","0","5","5","5","5","5","4","4","4","5","4","4","5","6","6","4","4","4","7","7","3","6","5","3","5","2","6","1","5","5","1","2","3","3","3","3","5","2","7","3","6","3","3","3","2","3","5","3","7","7","7","7","2","7","3","2","7","7","7","3","3","726773976101027840","岳","281","Female","[""好她"",""坏她"",""坏我"",""好我""]","[""强她"",""弱她"",""弱我"",""强我""]","","","","","","","","","","","","","","","","","","","","","","","","","","","","","","feedback_test","","","","","","","","",""
"832","","j","psychophysics","50","248913","0.0-8.0-0.0-1.0-0.0-0.20","5","5","5","3","1","4","4","4","5","5","4","1","2","0","0","1","0","1","0","5","5","5","5","5","4","4","4","5","4","4","5","6","6","4","4","4","7","7","3","6","5","3","5","2","6","1","5","5","1","2","3","3","3","3","5","2","7","3","6","3","3","3","2","3","5","3","7","7","7","7","2","7","3","2","7","7","7","3","3","726773976101027840","岳","281","Female","[""好她"",""坏她"",""坏我"",""好我""]","[""强她"",""弱她"",""弱我"",""强我""]","","","","","","","","match","","","","","","","","","","key","j","16.670211009174444","731.4285714285714","453.42857142857144","j","true","match","img/pentagon.png","坏我","坏我","prac_ALT2_moral","practice_moral","","","","","","","","",""
"null","<span style='color:GreenYellow; font-size: 70px;'>正确! </span>","null","html-keyboard-response","51","249414","0.0-8.0-0.0-1.0-0.0-1.20","5","5","5","3","1","4","4","4","5","5","4","1","2","0","0","1","0","1","0","5","5","5","5","5","4","4","4","5","4","4","5","6","6","4","4","4","7","7","3","6","5","3","5","2","6","1","5","5","1","2","3","3","3","3","5","2","7","3","6","3","3","3","2","3","5","3","7","7","7","7","2","7","3","2","7","7","7","3","3","726773976101027840","岳","281","Female","[""好她"",""坏她"",""坏我"",""好我""]","[""强她"",""弱她"",""弱我"",""强我""]","","","","","","","","","","","","","","","","","","","","","","","","","","","","","","feedback_test","","","","","","","","",""
"1011","","j","psychophysics","52","251426","0.0-8.0-0.0-1.0-0.0-0.21","5","5","5","3","1","4","4","4","5","5","4","1","2","0","0","1","0","1","0","5","5","5","5","5","4","4","4","5","4","4","5","6","6","4","4","4","7","7","3","6","5","3","5","2","6","1","5","5","1","2","3","3","3","3","5","2","7","3","6","3","3","3","2","3","5","3","7","7","7","7","2","7","3","2","7","7","7","3","3","726773976101027840","岳","281","Female","[""好她"",""坏她"",""坏我"",""好我""]","[""强她"",""弱她"",""弱我"",""强我""]","","","","","","","","match","","","","","","","","","","key","j","16.667324999999984","731.4285714285714","453.42857142857144","f","false","nonmatch","img/trapezoid.png","好她","好我","prac_ALT2_moral","practice_moral","","","","","","","","",""
"null","<span style='color:red; font-size: 70px;'>错误! </span>","null","html-keyboard-response","53","251928","0.0-8.0-0.0-1.0-0.0-1.21","5","5","5","3","1","4","4","4","5","5","4","1","2","0","0","1","0","1","0","5","5","5","5","5","4","4","4","5","4","4","5","6","6","4","4","4","7","7","3","6","5","3","5","2","6","1","5","5","1","2","3","3","3","3","5","2","7","3","6","3","3","3","2","3","5","3","7","7","7","7","2","7","3","2","7","7","7","3","3","726773976101027840","岳","281","Female","[""好她"",""坏她"",""坏我"",""好我""]","[""强她"",""弱她"",""弱我"",""强我""]","","","","","","","","","","","","","","","","","","","","","","","","","","","","","","feedback_test","","","","","","","","",""
"null","","null","psychophysics","54","254136","0.0-8.0-0.0-1.0-0.0-0.22","5","5","5","3","1","4","4","4","5","5","4","1","2","0","0","1","0","1","0","5","5","5","5","5","4","4","4","5","4","4","5","6","6","4","4","4","7","7","3","6","5","3","5","2","6","1","5","5","1","2","3","3","3","3","5","2","7","3","6","3","3","3","2","3","5","3","7","7","7","7","2","7","3","2","7","7","7","3","3","726773976101027840","岳","281","Female","[""好她"",""坏她"",""坏我"",""好我""]","[""强她"",""弱她"",""弱我"",""强我""]","","","","","","","","null","","","","","","","","","","key","null","16.669128787878876","731.4285714285714","453.42857142857144","f","false","nonmatch","img/pentagon.png","好我","坏我","prac_ALT2_moral","practice_moral","","","","","","","","",""
"null","<span class='add_' style='color:yellow; font-size: 70px;'> 太慢! </span>","null","html-keyboard-response","55","254639","0.0-8.0-0.0-1.0-0.0-1.22","5","5","5","3","1","4","4","4","5","5","4","1","2","0","0","1","0","1","0","5","5","5","5","5","4","4","4","5","4","4","5","6","6","4","4","4","7","7","3","6","5","3","5","2","6","1","5","5","1","2","3","3","3","3","5","2","7","3","6","3","3","3","2","3","5","3","7","7","7","7","2","7","3","2","7","7","7","3","3","726773976101027840","岳","281","Female","[""好她"",""坏她"",""坏我"",""好我""]","[""强她"",""弱她"",""弱我"",""强我""]","","","","","","","","","","","","","","","","","","","","","","","","","","","","","","feedback_test","","","","","","","","",""
"1000","","f","psychophysics","56","256641","0.0-8.0-0.0-1.0-0.0-0.23","5","5","5","3","1","4","4","4","5","5","4","1","2","0","0","1","0","1","0","5","5","5","5","5","4","4","4","5","4","4","5","6","6","4","4","4","7","7","3","6","5","3","5","2","6","1","5","5","1","2","3","3","3","3","5","2","7","3","6","3","3","3","2","3","5","3","7","7","7","7","2","7","3","2","7","7","7","3","3","726773976101027840","岳","281","Female","[""好她"",""坏她"",""坏我"",""好我""]","[""强她"",""弱她"",""弱我"",""强我""]","","","","","","","","nonmatch","","","","","","","","","","key","f","16.66922689075611","731.4285714285714","453.42857142857144","j","false","match","img/ellipse.png","坏她","坏她","prac_ALT2_moral","practice_moral","","","","","","","","",""
"null","<span style='color:red; font-size: 70px;'>错误! </span>","null","html-keyboard-response","57","257142","0.0-8.0-0.0-1.0-0.0-1.23","5","5","5","3","1","4","4","4","5","5","4","1","2","0","0","1","0","1","0","5","5","5","5","5","4","4","4","5","4","4","5","6","6","4","4","4","7","7","3","6","5","3","5","2","6","1","5","5","1","2","3","3","3","3","5","2","7","3","6","3","3","3","2","3","5","3","7","7","7","7","2","7","3","2","7","7","7","3","3","726773976101027840","岳","281","Female","[""好她"",""坏她"",""坏我"",""好我""]","[""强她"",""弱她"",""弱我"",""强我""]","","","","","","","","","","","","","","","","","","","","","","","","","","","","","","feedback_test","","","","","","","","",""
"null","","null","psychophysics","58","259352","0.0-8.0-0.0-1.0-0.0-0.24","5","5","5","3","1","4","4","4","5","5","4","1","2","0","0","1","0","1","0","5","5","5","5","5","4","4","4","5","4","4","5","6","6","4","4","4","7","7","3","6","5","3","5","2","6","1","5","5","1","2","3","3","3","3","5","2","7","3","6","3","3","3","2","3","5","3","7","7","7","7","2","7","3","2","7","7","7","3","3","726773976101027840","岳","281","Female","[""好她"",""坏她"",""坏我"",""好我""]","[""强她"",""弱她"",""弱我"",""强我""]","","","","","","","","null","","","","","","","","","","key","null","16.668371212121258","731.4285714285714","453.42857142857144","f","false","nonmatch","img/triangle.png","好我","好她","prac_ALT2_moral","practice_moral","","","","","","","","",""
"null","<span class='add_' style='color:yellow; font-size: 70px;'> 太慢! </span>","null","html-keyboard-response","59","259853","0.0-8.0-0.0-1.0-0.0-1.24","5","5","5","3","1","4","4","4","5","5","4","1","2","0","0","1","0","1","0","5","5","5","5","5","4","4","4","5","4","4","5","6","6","4","4","4","7","7","3","6","5","3","5","2","6","1","5","5","1","2","3","3","3","3","5","2","7","3","6","3","3","3","2","3","5","3","7","7","7","7","2","7","3","2","7","7","7","3","3","726773976101027840","岳","281","Female","[""好她"",""坏她"",""坏我"",""好我""]","[""强她"",""弱她"",""弱我"",""强我""]","","","","","","","","","","","","","","","","","","","","","","","","","","","","","","feedback_test","","","","","","","","",""
"null","","null","psychophysics","60","262062","0.0-8.0-0.0-1.0-0.0-0.25","5","5","5","3","1","4","4","4","5","5","4","1","2","0","0","1","0","1","0","5","5","5","5","5","4","4","4","5","4","4","5","6","6","4","4","4","7","7","3","6","5","3","5","2","6","1","5","5","1","2","3","3","3","3","5","2","7","3","6","3","3","3","2","3","5","3","7","7","7","7","2","7","3","2","7","7","7","3","3","726773976101027840","岳","281","Female","[""好她"",""坏她"",""坏我"",""好我""]","[""强她"",""弱她"",""弱我"",""强我""]","","","","","","","","null","","","","","","","","","","key","null","16.668181818181907","731.4285714285714","453.42857142857144","j","false","match","img/ellipse.png","坏她","坏她","prac_ALT2_moral","practice_moral","","","","","","","","",""
"null","<span class='add_' style='color:yellow; font-size: 70px;'> 太慢! </span>","null","html-keyboard-response","61","262563","0.0-8.0-0.0-1.0-0.0-1.25","5","5","5","3","1","4","4","4","5","5","4","1","2","0","0","1","0","1","0","5","5","5","5","5","4","4","4","5","4","4","5","6","6","4","4","4","7","7","3","6","5","3","5","2","6","1","5","5","1","2","3","3","3","3","5","2","7","3","6","3","3","3","2","3","5","3","7","7","7","7","2","7","3","2","7","7","7","3","3","726773976101027840","岳","281","Female","[""好她"",""坏她"",""坏我"",""好我""]","[""强她"",""弱她"",""弱我"",""强我""]","","","","","","","","","","","","","","","","","","","","","","","","","","","","","","feedback_test","","","","","","","","",""
"656","","j","psychophysics","62","264220","0.0-8.0-0.0-1.0-0.0-0.26","5","5","5","3","1","4","4","4","5","5","4","1","2","0","0","1","0","1","0","5","5","5","5","5","4","4","4","5","4","4","5","6","6","4","4","4","7","7","3","6","5","3","5","2","6","1","5","5","1","2","3","3","3","3","5","2","7","3","6","3","3","3","2","3","5","3","7","7","7","7","2","7","3","2","7","7","7","3","3","726773976101027840","岳","281","Female","[""好她"",""坏她"",""坏我"",""好我""]","[""强她"",""弱她"",""弱我"",""强我""]","","","","","","","","match","","","","","","","","","","key","j","16.667111111111055","731.4285714285714","453.42857142857144","j","true","match","img/trapezoid.png","好我","好我","prac_ALT2_moral","practice_moral","","","","","","","","",""
"null","<span style='color:GreenYellow; font-size: 70px;'>正确! </span>","null","html-keyboard-response","63","264722","0.0-8.0-0.0-1.0-0.0-1.26","5","5","5","3","1","4","4","4","5","5","4","1","2","0","0","1","0","1","0","5","5","5","5","5","4","4","4","5","4","4","5","6","6","4","4","4","7","7","3","6","5","3","5","2","6","1","5","5","1","2","3","3","3","3","5","2","7","3","6","3","3","3","2","3","5","3","7","7","7","7","2","7","3","2","7","7","7","3","3","726773976101027840","岳","281","Female","[""好她"",""坏她"",""坏我"",""好我""]","[""强她"",""弱她"",""弱我"",""强我""]","","","","","","","","","","","","","","","","","","","","","","","","","","","","","","feedback_test","","","","","","","","",""
"661","","j","psychophysics","64","266385","0.0-8.0-0.0-1.0-0.0-0.27","5","5","5","3","1","4","4","4","5","5","4","1","2","0","0","1","0","1","0","5","5","5","5","5","4","4","4","5","4","4","5","6","6","4","4","4","7","7","3","6","5","3","5","2","6","1","5","5","1","2","3","3","3","3","5","2","7","3","6","3","3","3","2","3","5","3","7","7","7","7","2","7","3","2","7","7","7","3","3","726773976101027840","岳","281","Female","[""好她"",""坏她"",""坏我"",""好我""]","[""强她"",""弱她"",""弱我"",""强我""]","","","","","","","","match","","","","","","","","","","key","j","16.668808080808077","731.4285714285714","453.42857142857144","j","true","match","img/pentagon.png","坏我","坏我","prac_ALT2_moral","practice_moral","","","","","","","","",""
"null","<span style='color:GreenYellow; font-size: 70px;'>正确! </span>","null","html-keyboard-response","65","266886","0.0-8.0-0.0-1.0-0.0-1.27","5","5","5","3","1","4","4","4","5","5","4","1","2","0","0","1","0","1","0","5","5","5","5","5","4","4","4","5","4","4","5","6","6","4","4","4","7","7","3","6","5","3","5","2","6","1","5","5","1","2","3","3","3","3","5","2","7","3","6","3","3","3","2","3","5","3","7","7","7","7","2","7","3","2","7","7","7","3","3","726773976101027840","岳","281","Female","[""好她"",""坏她"",""坏我"",""好我""]","[""强她"",""弱她"",""弱我"",""强我""]","","","","","","","","","","","","","","","","","","","","","","","","","","","","","","feedback_test","","","","","","","","",""
"770","","j","psychophysics","66","268656","0.0-8.0-0.0-1.0-0.0-0.28","5","5","5","3","1","4","4","4","5","5","4","1","2","0","0","1","0","1","0","5","5","5","5","5","4","4","4","5","4","4","5","6","6","4","4","4","7","7","3","6","5","3","5","2","6","1","5","5","1","2","3","3","3","3","5","2","7","3","6","3","3","3","2","3","5","3","7","7","7","7","2","7","3","2","7","7","7","3","3","726773976101027840","岳","281","Female","[""好她"",""坏她"",""坏我"",""好我""]","[""强她"",""弱她"",""弱我"",""强我""]","","","","","","","","match","","","","","","","","","","key","j","16.665828571428676","731.4285714285714","453.42857142857144","j","true","match","img/trapezoid.png","好我","好我","prac_ALT2_moral","practice_moral","","","","","","","","",""
"null","<span style='color:GreenYellow; font-size: 70px;'>正确! </span>","null","html-keyboard-response","67","269157","0.0-8.0-0.0-1.0-0.0-1.28","5","5","5","3","1","4","4","4","5","5","4","1","2","0","0","1","0","1","0","5","5","5","5","5","4","4","4","5","4","4","5","6","6","4","4","4","7","7","3","6","5","3","5","2","6","1","5","5","1","2","3","3","3","3","5","2","7","3","6","3","3","3","2","3","5","3","7","7","7","7","2","7","3","2","7","7","7","3","3","726773976101027840","岳","281","Female","[""好她"",""坏她"",""坏我"",""好我""]","[""强她"",""弱她"",""弱我"",""强我""]","","","","","","","","","","","","","","","","","","","","","","","","","","","","","","feedback_test","","","","","","","","",""
"763","","j","psychophysics","68","270921","0.0-8.0-0.0-1.0-0.0-0.29","5","5","5","3","1","4","4","4","5","5","4","1","2","0","0","1","0","1","0","5","5","5","5","5","4","4","4","5","4","4","5","6","6","4","4","4","7","7","3","6","5","3","5","2","6","1","5","5","1","2","3","3","3","3","5","2","7","3","6","3","3","3","2","3","5","3","7","7","7","7","2","7","3","2","7","7","7","3","3","726773976101027840","岳","281","Female","[""好她"",""坏她"",""坏我"",""好我""]","[""强她"",""弱她"",""弱我"",""强我""]","","","","","","","","match","","","","","","","","","","key","j","16.668771428571613","731.4285714285714","453.42857142857144","j","true","match","img/pentagon.png","坏我","坏我","prac_ALT2_moral","practice_moral","","","","","","","","",""
"null","<span style='color:GreenYellow; font-size: 70px;'>正确! </span>","null","html-keyboard-response","69","271422","0.0-8.0-0.0-1.0-0.0-1.29","5","5","5","3","1","4","4","4","5","5","4","1","2","0","0","1","0","1","0","5","5","5","5","5","4","4","4","5","4","4","5","6","6","4","4","4","7","7","3","6","5","3","5","2","6","1","5","5","1","2","3","3","3","3","5","2","7","3","6","3","3","3","2","3","5","3","7","7","7","7","2","7","3","2","7","7","7","3","3","726773976101027840","岳","281","Female","[""好她"",""坏她"",""坏我"",""好我""]","[""强她"",""弱她"",""弱我"",""强我""]","","","","","","","","","","","","","","","","","","","","","","","","","","","","","","feedback_test","","","","","","","","",""
"840","","j","psychophysics","70","273263","0.0-8.0-0.0-1.0-0.0-0.30","5","5","5","3","1","4","4","4","5","5","4","1","2","0","0","1","0","1","0","5","5","5","5","5","4","4","4","5","4","4","5","6","6","4","4","4","7","7","3","6","5","3","5","2","6","1","5","5","1","2","3","3","3","3","5","2","7","3","6","3","3","3","2","3","5","3","7","7","7","7","2","7","3","2","7","7","7","3","3","726773976101027840","岳","281","Female","[""好她"",""坏她"",""坏我"",""好我""]","[""强她"",""弱她"",""弱我"",""强我""]","","","","","","","","match","","","","","","","","","","key","j","16.669681818182156","731.4285714285714","453.42857142857144","f","false","nonmatch","img/triangle.png","坏我","好她","prac_ALT2_moral","practice_moral","","","","","","","","",""
"null","<span style='color:red; font-size: 70px;'>错误! </span>","null","html-keyboard-response","71","273764","0.0-8.0-0.0-1.0-0.0-1.30","5","5","5","3","1","4","4","4","5","5","4","1","2","0","0","1","0","1","0","5","5","5","5","5","4","4","4","5","4","4","5","6","6","4","4","4","7","7","3","6","5","3","5","2","6","1","5","5","1","2","3","3","3","3","5","2","7","3","6","3","3","3","2","3","5","3","7","7","7","7","2","7","3","2","7","7","7","3","3","726773976101027840","岳","281","Female","[""好她"",""坏她"",""坏我"",""好我""]","[""强她"",""弱她"",""弱我"",""强我""]","","","","","","","","","","","","","","","","","","","","","","","","","","","","","","feedback_test","","","","","","","","",""
"885","","j","psychophysics","72","275650","0.0-8.0-0.0-1.0-0.0-0.31","5","5","5","3","1","4","4","4","5","5","4","1","2","0","0","1","0","1","0","5","5","5","5","5","4","4","4","5","4","4","5","6","6","4","4","4","7","7","3","6","5","3","5","2","6","1","5","5","1","2","3","3","3","3","5","2","7","3","6","3","3","3","2","3","5","3","7","7","7","7","2","7","3","2","7","7","7","3","3","726773976101027840","岳","281","Female","[""好她"",""坏她"",""坏我"",""好我""]","[""强她"",""弱她"",""弱我"",""强我""]","","","","","","","","match","","","","","","","","","","key","j","16.668455357142584","731.4285714285714","453.42857142857144","j","true","match","img/trapezoid.png","好我","好我","prac_ALT2_moral","practice_moral","","","","","","","","",""
"null","<span style='color:GreenYellow; font-size: 70px;'>正确! </span>","null","html-keyboard-response","73","276157","0.0-8.0-0.0-1.0-0.0-1.31","5","5","5","3","1","4","4","4","5","5","4","1","2","0","0","1","0","1","0","5","5","5","5","5","4","4","4","5","4","4","5","6","6","4","4","4","7","7","3","6","5","3","5","2","6","1","5","5","1","2","3","3","3","3","5","2","7","3","6","3","3","3","2","3","5","3","7","7","7","7","2","7","3","2","7","7","7","3","3","726773976101027840","岳","281","Female","[""好她"",""坏她"",""坏我"",""好我""]","[""强她"",""弱她"",""弱我"",""强我""]","","","","","","","","","","","","","","","","","","","","","","","","","","","","","","feedback_test","","","","","","","","",""
"1065","","f","psychophysics","74","278225","0.0-8.0-0.0-1.0-0.0-0.32","5","5","5","3","1","4","4","4","5","5","4","1","2","0","0","1","0","1","0","5","5","5","5","5","4","4","4","5","4","4","5","6","6","4","4","4","7","7","3","6","5","3","5","2","6","1","5","5","1","2","3","3","3","3","5","2","7","3","6","3","3","3","2","3","5","3","7","7","7","7","2","7","3","2","7","7","7","3","3","726773976101027840","岳","281","Female","[""好她"",""坏她"",""坏我"",""好我""]","[""强她"",""弱她"",""弱我"",""强我""]","","","","","","","","nonmatch","","","","","","","","","","key","f","16.6687317073172","731.4285714285714","453.42857142857144","j","false","match","img/ellipse.png","坏她","坏她","prac_ALT2_moral","practice_moral","","","","","","","","",""
"null","<span style='color:red; font-size: 70px;'>错误! </span>","null","html-keyboard-response","75","278726","0.0-8.0-0.0-1.0-0.0-1.32","5","5","5","3","1","4","4","4","5","5","4","1","2","0","0","1","0","1","0","5","5","5","5","5","4","4","4","5","4","4","5","6","6","4","4","4","7","7","3","6","5","3","5","2","6","1","5","5","1","2","3","3","3","3","5","2","7","3","6","3","3","3","2","3","5","3","7","7","7","7","2","7","3","2","7","7","7","3","3","726773976101027840","岳","281","Female","[""好她"",""坏她"",""坏我"",""好我""]","[""强她"",""弱她"",""弱我"",""强我""]","","","","","","","","","","","","","","","","","","","","","","","","","","","","","","feedback_test","","","","","","","","",""
"930","","j","psychophysics","76","280657","0.0-8.0-0.0-1.0-0.0-0.33","5","5","5","3","1","4","4","4","5","5","4","1","2","0","0","1","0","1","0","5","5","5","5","5","4","4","4","5","4","4","5","6","6","4","4","4","7","7","3","6","5","3","5","2","6","1","5","5","1","2","3","3","3","3","5","2","7","3","6","3","3","3","2","3","5","3","7","7","7","7","2","7","3","2","7","7","7","3","3","726773976101027840","岳","281","Female","[""好她"",""坏她"",""坏我"",""好我""]","[""强她"",""弱她"",""弱我"",""强我""]","","","","","","","","match","","","","","","","","","","key","j","16.669539130434554","731.4285714285714","453.42857142857144","f","false","nonmatch","img/triangle.png","坏她","好她","prac_ALT2_moral","practice_moral","","","","","","","","",""
"null","<span style='color:red; font-size: 70px;'>错误! </span>","null","html-keyboard-response","77","281158","0.0-8.0-0.0-1.0-0.0-1.33","5","5","5","3","1","4","4","4","5","5","4","1","2","0","0","1","0","1","0","5","5","5","5","5","4","4","4","5","4","4","5","6","6","4","4","4","7","7","3","6","5","3","5","2","6","1","5","5","1","2","3","3","3","3","5","2","7","3","6","3","3","3","2","3","5","3","7","7","7","7","2","7","3","2","7","7","7","3","3","726773976101027840","岳","281","Female","[""好她"",""坏她"",""坏我"",""好我""]","[""强她"",""弱她"",""弱我"",""强我""]","","","","","","","","","","","","","","","","","","","","","","","","","","","","","","feedback_test","","","","","","","","",""
"873","","j","psychophysics","78","283033","0.0-8.0-0.0-1.0-0.0-0.34","5","5","5","3","1","4","4","4","5","5","4","1","2","0","0","1","0","1","0","5","5","5","5","5","4","4","4","5","4","4","5","6","6","4","4","4","7","7","3","6","5","3","5","2","6","1","5","5","1","2","3","3","3","3","5","2","7","3","6","3","3","3","2","3","5","3","7","7","7","7","2","7","3","2","7","7","7","3","3","726773976101027840","岳","281","Female","[""好她"",""坏她"",""坏我"",""好我""]","[""强她"",""弱她"",""弱我"",""强我""]","","","","","","","","match","","","","","","","","","","key","j","16.66795535714274","731.4285714285714","453.42857142857144","j","true","match","img/triangle.png","好她","好她","prac_ALT2_moral","practice_moral","","","","","","","","",""
"null","<span style='color:GreenYellow; font-size: 70px;'>正确! </span>","null","html-keyboard-response","79","283535","0.0-8.0-0.0-1.0-0.0-1.34","5","5","5","3","1","4","4","4","5","5","4","1","2","0","0","1","0","1","0","5","5","5","5","5","4","4","4","5","4","4","5","6","6","4","4","4","7","7","3","6","5","3","5","2","6","1","5","5","1","2","3","3","3","3","5","2","7","3","6","3","3","3","2","3","5","3","7","7","7","7","2","7","3","2","7","7","7","3","3","726773976101027840","岳","281","Female","[""好她"",""坏她"",""坏我"",""好我""]","[""强她"",""弱她"",""弱我"",""强我""]","","","","","","","","","","","","","","","","","","","","","","","","","","","","","","feedback_test","","","","","","","","",""
"853","","f","psychophysics","80","285390","0.0-8.0-0.0-1.0-0.0-0.35","5","5","5","3","1","4","4","4","5","5","4","1","2","0","0","1","0","1","0","5","5","5","5","5","4","4","4","5","4","4","5","6","6","4","4","4","7","7","3","6","5","3","5","2","6","1","5","5","1","2","3","3","3","3","5","2","7","3","6","3","3","3","2","3","5","3","7","7","7","7","2","7","3","2","7","7","7","3","3","726773976101027840","岳","281","Female","[""好她"",""坏她"",""坏我"",""好我""]","[""强她"",""弱她"",""弱我"",""强我""]","","","","","","","","nonmatch","","","","","","","","","","key","f","16.6699636363636","731.4285714285714","453.42857142857144","f","true","nonmatch","img/trapezoid.png","好她","好我","prac_ALT2_moral","practice_moral","","","","","","","","",""
"null","<span style='color:GreenYellow; font-size: 70px;'>正确! </span>","null","html-keyboard-response","81","285891","0.0-8.0-0.0-1.0-0.0-1.35","5","5","5","3","1","4","4","4","5","5","4","1","2","0","0","1","0","1","0","5","5","5","5","5","4","4","4","5","4","4","5","6","6","4","4","4","7","7","3","6","5","3","5","2","6","1","5","5","1","2","3","3","3","3","5","2","7","3","6","3","3","3","2","3","5","3","7","7","7","7","2","7","3","2","7","7","7","3","3","726773976101027840","岳","281","Female","[""好她"",""坏她"",""坏我"",""好我""]","[""强她"",""弱她"",""弱我"",""强我""]","","","","","","","","","","","","","","","","","","","","","","","","","","","","","","feedback_test","","","","","","","","",""
"1012","","f","psychophysics","82","287904","0.0-8.0-0.0-1.0-0.0-0.36","5","5","5","3","1","4","4","4","5","5","4","1","2","0","0","1","0","1","0","5","5","5","5","5","4","4","4","5","4","4","5","6","6","4","4","4","7","7","3","6","5","3","5","2","6","1","5","5","1","2","3","3","3","3","5","2","7","3","6","3","3","3","2","3","5","3","7","7","7","7","2","7","3","2","7","7","7","3","3","726773976101027840","岳","281","Female","[""好她"",""坏她"",""坏我"",""好我""]","[""强她"",""弱她"",""弱我"",""强我""]","","","","","","","","nonmatch","","","","","","","","","","key","f","16.66958333333314","731.4285714285714","453.42857142857144","f","true","nonmatch","img/ellipse.png","坏我","坏她","prac_ALT2_moral","practice_moral","","","","","","","","",""
"null","<span style='color:GreenYellow; font-size: 70px;'>正确! </span>","null","html-keyboard-response","83","288406","0.0-8.0-0.0-1.0-0.0-1.36","5","5","5","3","1","4","4","4","5","5","4","1","2","0","0","1","0","1","0","5","5","5","5","5","4","4","4","5","4","4","5","6","6","4","4","4","7","7","3","6","5","3","5","2","6","1","5","5","1","2","3","3","3","3","5","2","7","3","6","3","3","3","2","3","5","3","7","7","7","7","2","7","3","2","7","7","7","3","3","726773976101027840","岳","281","Female","[""好她"",""坏她"",""坏我"",""好我""]","[""强她"",""弱她"",""弱我"",""强我""]","","","","","","","","","","","","","","","","","","","","","","","","","","","","","","feedback_test","","","","","","","","",""
"894","","j","psychophysics","84","290302","0.0-8.0-0.0-1.0-0.0-0.37","5","5","5","3","1","4","4","4","5","5","4","1","2","0","0","1","0","1","0","5","5","5","5","5","4","4","4","5","4","4","5","6","6","4","4","4","7","7","3","6","5","3","5","2","6","1","5","5","1","2","3","3","3","3","5","2","7","3","6","3","3","3","2","3","5","3","7","7","7","7","2","7","3","2","7","7","7","3","3","726773976101027840","岳","281","Female","[""好她"",""坏她"",""坏我"",""好我""]","[""强她"",""弱她"",""弱我"",""强我""]","","","","","","","","match","","","","","","","","","","key","j","16.666318584070748","731.4285714285714","453.42857142857144","f","false","nonmatch","img/ellipse.png","好她","坏她","prac_ALT2_moral","practice_moral","","","","","","","","",""
"null","<span style='color:red; font-size: 70px;'>错误! </span>","null","html-keyboard-response","85","290803","0.0-8.0-0.0-1.0-0.0-1.37","5","5","5","3","1","4","4","4","5","5","4","1","2","0","0","1","0","1","0","5","5","5","5","5","4","4","4","5","4","4","5","6","6","4","4","4","7","7","3","6","5","3","5","2","6","1","5","5","1","2","3","3","3","3","5","2","7","3","6","3","3","3","2","3","5","3","7","7","7","7","2","7","3","2","7","7","7","3","3","726773976101027840","岳","281","Female","[""好她"",""坏她"",""坏我"",""好我""]","[""强她"",""弱她"",""弱我"",""强我""]","","","","","","","","","","","","","","","","","","","","","","","","","","","","","","feedback_test","","","","","","","","",""
"872","","j","psychophysics","86","292683","0.0-8.0-0.0-1.0-0.0-0.38","5","5","5","3","1","4","4","4","5","5","4","1","2","0","0","1","0","1","0","5","5","5","5","5","4","4","4","5","4","4","5","6","6","4","4","4","7","7","3","6","5","3","5","2","6","1","5","5","1","2","3","3","3","3","5","2","7","3","6","3","3","3","2","3","5","3","7","7","7","7","2","7","3","2","7","7","7","3","3","726773976101027840","岳","281","Female","[""好她"",""坏她"",""坏我"",""好我""]","[""强她"",""弱她"",""弱我"",""强我""]","","","","","","","","match","","","","","","","","","","key","j","16.66968750000004","731.4285714285714","453.42857142857144","j","true","match","img/ellipse.png","坏她","坏她","prac_ALT2_moral","practice_moral","","","","","","","","",""
"null","<span style='color:GreenYellow; font-size: 70px;'>正确! </span>","null","html-keyboard-response","87","293184","0.0-8.0-0.0-1.0-0.0-1.38","5","5","5","3","1","4","4","4","5","5","4","1","2","0","0","1","0","1","0","5","5","5","5","5","4","4","4","5","4","4","5","6","6","4","4","4","7","7","3","6","5","3","5","2","6","1","5","5","1","2","3","3","3","3","5","2","7","3","6","3","3","3","2","3","5","3","7","7","7","7","2","7","3","2","7","7","7","3","3","726773976101027840","岳","281","Female","[""好她"",""坏她"",""坏我"",""好我""]","[""强她"",""弱她"",""弱我"",""强我""]","","","","","","","","","","","","","","","","","","","","","","","","","","","","","","feedback_test","","","","","","","","",""
"1067","","f","psychophysics","88","295252","0.0-8.0-0.0-1.0-0.0-0.39","5","5","5","3","1","4","4","4","5","5","4","1","2","0","0","1","0","1","0","5","5","5","5","5","4","4","4","5","4","4","5","6","6","4","4","4","7","7","3","6","5","3","5","2","6","1","5","5","1","2","3","3","3","3","5","2","7","3","6","3","3","3","2","3","5","3","7","7","7","7","2","7","3","2","7","7","7","3","3","726773976101027840","岳","281","Female","[""好她"",""坏她"",""坏我"",""好我""]","[""强她"",""弱她"",""弱我"",""强我""]","","","","","","","","nonmatch","","","","","","","","","","key","f","16.666813008129935","731.4285714285714","453.42857142857144","f","true","nonmatch","img/pentagon.png","好她","坏我","prac_ALT2_moral","practice_moral","","","","","","","","",""
"null","<span style='color:GreenYellow; font-size: 70px;'>正确! </span>","null","html-keyboard-response","89","295752","0.0-8.0-0.0-1.0-0.0-1.39","5","5","5","3","1","4","4","4","5","5","4","1","2","0","0","1","0","1","0","5","5","5","5","5","4","4","4","5","4","4","5","6","6","4","4","4","7","7","3","6","5","3","5","2","6","1","5","5","1","2","3","3","3","3","5","2","7","3","6","3","3","3","2","3","5","3","7","7","7","7","2","7","3","2","7","7","7","3","3","726773976101027840","岳","281","Female","[""好她"",""坏她"",""坏我"",""好我""]","[""强她"",""弱她"",""弱我"",""强我""]","","","","","","","","","","","","","","","","","","","","","","","","","","","","","","feedback_test","","","","","","","","",""
"909","","f","psychophysics","90","297664","0.0-8.0-0.0-1.0-0.0-0.40","5","5","5","3","1","4","4","4","5","5","4","1","2","0","0","1","0","1","0","5","5","5","5","5","4","4","4","5","4","4","5","6","6","4","4","4","7","7","3","6","5","3","5","2","6","1","5","5","1","2","3","3","3","3","5","2","7","3","6","3","3","3","2","3","5","3","7","7","7","7","2","7","3","2","7","7","7","3","3","726773976101027840","岳","281","Female","[""好她"",""坏她"",""坏我"",""好我""]","[""强她"",""弱她"",""弱我"",""强我""]","","","","","","","","nonmatch","","","","","","","","","","key","f","16.669526315789483","731.4285714285714","453.42857142857144","f","true","nonmatch","img/trapezoid.png","坏她","好我","prac_ALT2_moral","practice_moral","","","","","","","","",""
"null","<span style='color:GreenYellow; font-size: 70px;'>正确! </span>","null","html-keyboard-response","91","298165","0.0-8.0-0.0-1.0-0.0-1.40","5","5","5","3","1","4","4","4","5","5","4","1","2","0","0","1","0","1","0","5","5","5","5","5","4","4","4","5","4","4","5","6","6","4","4","4","7","7","3","6","5","3","5","2","6","1","5","5","1","2","3","3","3","3","5","2","7","3","6","3","3","3","2","3","5","3","7","7","7","7","2","7","3","2","7","7","7","3","3","726773976101027840","岳","281","Female","[""好她"",""坏她"",""坏我"",""好我""]","[""强她"",""弱她"",""弱我"",""强我""]","","","","","","","","","","","","","","","","","","","","","","","","","","","","","","feedback_test","","","","","","","","",""
"1148","","j","psychophysics","92","300314","0.0-8.0-0.0-1.0-0.0-0.41","5","5","5","3","1","4","4","4","5","5","4","1","2","0","0","1","0","1","0","5","5","5","5","5","4","4","4","5","4","4","5","6","6","4","4","4","7","7","3","6","5","3","5","2","6","1","5","5","1","2","3","3","3","3","5","2","7","3","6","3","3","3","2","3","5","3","7","7","7","7","2","7","3","2","7","7","7","3","3","726773976101027840","岳","281","Female","[""好她"",""坏她"",""坏我"",""好我""]","[""强她"",""弱她"",""弱我"",""强我""]","","","","","","","","match","","","","","","","","","","key","j","16.668351562499993","731.4285714285714","453.42857142857144","f","false","nonmatch","img/trapezoid.png","坏我","好我","prac_ALT2_moral","practice_moral","","","","","","","","",""
"null","<span style='color:red; font-size: 70px;'>错误! </span>","null","html-keyboard-response","93","300815","0.0-8.0-0.0-1.0-0.0-1.41","5","5","5","3","1","4","4","4","5","5","4","1","2","0","0","1","0","1","0","5","5","5","5","5","4","4","4","5","4","4","5","6","6","4","4","4","7","7","3","6","5","3","5","2","6","1","5","5","1","2","3","3","3","3","5","2","7","3","6","3","3","3","2","3","5","3","7","7","7","7","2","7","3","2","7","7","7","3","3","726773976101027840","岳","281","Female","[""好她"",""坏她"",""坏我"",""好我""]","[""强她"",""弱她"",""弱我"",""强我""]","","","","","","","","","","","","","","","","","","","","","","","","","","","","","","feedback_test","","","","","","","","",""
"1056","","f","psychophysics","94","302873","0.0-8.0-0.0-1.0-0.0-0.42","5","5","5","3","1","4","4","4","5","5","4","1","2","0","0","1","0","1","0","5","5","5","5","5","4","4","4","5","4","4","5","6","6","4","4","4","7","7","3","6","5","3","5","2","6","1","5","5","1","2","3","3","3","3","5","2","7","3","6","3","3","3","2","3","5","3","7","7","7","7","2","7","3","2","7","7","7","3","3","726773976101027840","岳","281","Female","[""好她"",""坏她"",""坏我"",""好我""]","[""强她"",""弱她"",""弱我"",""强我""]","","","","","","","","nonmatch","","","","","","","","","","key","f","16.666853658536475","731.4285714285714","453.42857142857144","j","false","match","img/pentagon.png","坏我","坏我","prac_ALT2_moral","practice_moral","","","","","","","","",""
"null","<span style='color:red; font-size: 70px;'>错误! </span>","null","html-keyboard-response","95","303375","0.0-8.0-0.0-1.0-0.0-1.42","5","5","5","3","1","4","4","4","5","5","4","1","2","0","0","1","0","1","0","5","5","5","5","5","4","4","4","5","4","4","5","6","6","4","4","4","7","7","3","6","5","3","5","2","6","1","5","5","1","2","3","3","3","3","5","2","7","3","6","3","3","3","2","3","5","3","7","7","7","7","2","7","3","2","7","7","7","3","3","726773976101027840","岳","281","Female","[""好她"",""坏她"",""坏我"",""好我""]","[""强她"",""弱她"",""弱我"",""强我""]","","","","","","","","","","","","","","","","","","","","","","","","","","","","","","feedback_test","","","","","","","","",""
"926","","j","psychophysics","96","305303","0.0-8.0-0.0-1.0-0.0-0.43","5","5","5","3","1","4","4","4","5","5","4","1","2","0","0","1","0","1","0","5","5","5","5","5","4","4","4","5","4","4","5","6","6","4","4","4","7","7","3","6","5","3","5","2","6","1","5","5","1","2","3","3","3","3","5","2","7","3","6","3","3","3","2","3","5","3","7","7","7","7","2","7","3","2","7","7","7","3","3","726773976101027840","岳","281","Female","[""好她"",""坏她"",""坏我"",""好我""]","[""强她"",""弱她"",""弱我"",""强我""]","","","","","","","","match","","","","","","","","","","key","j","16.668139130434366","731.4285714285714","453.42857142857144","f","false","nonmatch","img/pentagon.png","坏她","坏我","prac_ALT2_moral","practice_moral","","","","","","","","",""
"null","<span style='color:red; font-size: 70px;'>错误! </span>","null","html-keyboard-response","97","305804","0.0-8.0-0.0-1.0-0.0-1.43","5","5","5","3","1","4","4","4","5","5","4","1","2","0","0","1","0","1","0","5","5","5","5","5","4","4","4","5","4","4","5","6","6","4","4","4","7","7","3","6","5","3","5","2","6","1","5","5","1","2","3","3","3","3","5","2","7","3","6","3","3","3","2","3","5","3","7","7","7","7","2","7","3","2","7","7","7","3","3","726773976101027840","岳","281","Female","[""好她"",""坏她"",""坏我"",""好我""]","[""强她"",""弱她"",""弱我"",""强我""]","","","","","","","","","","","","","","","","","","","","","","","","","","","","","","feedback_test","","","","","","","","",""
"1094","","j","psychophysics","98","307900","0.0-8.0-0.0-1.0-0.0-0.44","5","5","5","3","1","4","4","4","5","5","4","1","2","0","0","1","0","1","0","5","5","5","5","5","4","4","4","5","4","4","5","6","6","4","4","4","7","7","3","6","5","3","5","2","6","1","5","5","1","2","3","3","3","3","5","2","7","3","6","3","3","3","2","3","5","3","7","7","7","7","2","7","3","2","7","7","7","3","3","726773976101027840","岳","281","Female","[""好她"",""坏她"",""坏我"",""好我""]","[""强她"",""弱她"",""弱我"",""强我""]","","","","","","","","match","","","","","","","","","","key","j","16.66870399999991","731.4285714285714","453.42857142857144","f","false","nonmatch","img/pentagon.png","好我","坏我","prac_ALT2_moral","practice_moral","","","","","","","","",""
"null","<span style='color:red; font-size: 70px;'>错误! </span>","null","html-keyboard-response","99","308400","0.0-8.0-0.0-1.0-0.0-1.44","5","5","5","3","1","4","4","4","5","5","4","1","2","0","0","1","0","1","0","5","5","5","5","5","4","4","4","5","4","4","5","6","6","4","4","4","7","7","3","6","5","3","5","2","6","1","5","5","1","2","3","3","3","3","5","2","7","3","6","3","3","3","2","3","5","3","7","7","7","7","2","7","3","2","7","7","7","3","3","726773976101027840","岳","281","Female","[""好她"",""坏她"",""坏我"",""好我""]","[""强她"",""弱她"",""弱我"",""强我""]","","","","","","","","","","","","","","","","","","","","","","","","","","","","","","feedback_test","","","","","","","","",""
"888","","j","psychophysics","100","310290","0.0-8.0-0.0-1.0-0.0-0.45","5","5","5","3","1","4","4","4","5","5","4","1","2","0","0","1","0","1","0","5","5","5","5","5","4","4","4","5","4","4","5","6","6","4","4","4","7","7","3","6","5","3","5","2","6","1","5","5","1","2","3","3","3","3","5","2","7","3","6","3","3","3","2","3","5","3","7","7","7","7","2","7","3","2","7","7","7","3","3","726773976101027840","岳","281","Female","[""好她"",""坏她"",""坏我"",""好我""]","[""强她"",""弱她"",""弱我"",""强我""]","","","","","","","","match","","","","","","","","","","key","j","16.667495575220947","731.4285714285714","453.42857142857144","j","true","match","img/triangle.png","好她","好她","prac_ALT2_moral","practice_moral","","","","","","","","",""
"null","<span style='color:GreenYellow; font-size: 70px;'>正确! </span>","null","html-keyboard-response","101","310793","0.0-8.0-0.0-1.0-0.0-1.45","5","5","5","3","1","4","4","4","5","5","4","1","2","0","0","1","0","1","0","5","5","5","5","5","4","4","4","5","4","4","5","6","6","4","4","4","7","7","3","6","5","3","5","2","6","1","5","5","1","2","3","3","3","3","5","2","7","3","6","3","3","3","2","3","5","3","7","7","7","7","2","7","3","2","7","7","7","3","3","726773976101027840","岳","281","Female","[""好她"",""坏她"",""坏我"",""好我""]","[""强她"",""弱她"",""弱我"",""强我""]","","","","","","","","","","","","","","","","","","","","","","","","","","","","","","feedback_test","","","","","","","","",""
"754","","j","psychophysics","102","312548","0.0-8.0-0.0-1.0-0.0-0.46","5","5","5","3","1","4","4","4","5","5","4","1","2","0","0","1","0","1","0","5","5","5","5","5","4","4","4","5","4","4","5","6","6","4","4","4","7","7","3","6","5","3","5","2","6","1","5","5","1","2","3","3","3","3","5","2","7","3","6","3","3","3","2","3","5","3","7","7","7","7","2","7","3","2","7","7","7","3","3","726773976101027840","岳","281","Female","[""好她"",""坏她"",""坏我"",""好我""]","[""强她"",""弱她"",""弱我"",""强我""]","","","","","","","","match","","","","","","","","","","key","j","16.669759615384326","731.4285714285714","453.42857142857144","j","true","match","img/triangle.png","好她","好她","prac_ALT2_moral","practice_moral","","","","","","","","",""
"null","<span style='color:GreenYellow; font-size: 70px;'>正确! </span>","null","html-keyboard-response","103","313048","0.0-8.0-0.0-1.0-0.0-1.46","5","5","5","3","1","4","4","4","5","5","4","1","2","0","0","1","0","1","0","5","5","5","5","5","4","4","4","5","4","4","5","6","6","4","4","4","7","7","3","6","5","3","5","2","6","1","5","5","1","2","3","3","3","3","5","2","7","3","6","3","3","3","2","3","5","3","7","7","7","7","2","7","3","2","7","7","7","3","3","726773976101027840","岳","281","Female","[""好她"",""坏她"",""坏我"",""好我""]","[""强她"",""弱她"",""弱我"",""强我""]","","","","","","","","","","","","","","","","","","","","","","","","","","","","","","feedback_test","","","","","","","","",""
"863","","f","psychophysics","104","314913","0.0-8.0-0.0-1.0-0.0-0.47","5","5","5","3","1","4","4","4","5","5","4","1","2","0","0","1","0","1","0","5","5","5","5","5","4","4","4","5","4","4","5","6","6","4","4","4","7","7","3","6","5","3","5","2","6","1","5","5","1","2","3","3","3","3","5","2","7","3","6","3","3","3","2","3","5","3","7","7","7","7","2","7","3","2","7","7","7","3","3","726773976101027840","岳","281","Female","[""好她"",""坏她"",""坏我"",""好我""]","[""强她"",""弱她"",""弱我"",""强我""]","","","","","","","","nonmatch","","","","","","","","","","key","f","16.66860360360331","731.4285714285714","453.42857142857144","f","true","nonmatch","img/ellipse.png","好我","坏她","prac_ALT2_moral","practice_moral","","","","","","","","",""
"null","<span style='color:GreenYellow; font-size: 70px;'>正确! </span>","null","html-keyboard-response","105","315415","0.0-8.0-0.0-1.0-0.0-1.47","5","5","5","3","1","4","4","4","5","5","4","1","2","0","0","1","0","1","0","5","5","5","5","5","4","4","4","5","4","4","5","6","6","4","4","4","7","7","3","6","5","3","5","2","6","1","5","5","1","2","3","3","3","3","5","2","7","3","6","3","3","3","2","3","5","3","7","7","7","7","2","7","3","2","7","7","7","3","3","726773976101027840","岳","281","Female","[""好她"",""坏她"",""坏我"",""好我""]","[""强她"",""弱她"",""弱我"",""强我""]","","","","","","","","","","","","","","","","","","","","","","","","","","","","","","feedback_test","","","","","","","","",""
"4823","<style>.context{color:white; font-size: 35px; line-height:40px}</style>                            <div><p class='context'>您正确回答了54% 的试次。</p><p class='context'>您的平均反应时为858毫秒。</p><p class='context'>按空格键继续。</p></div>"," ","html-keyboard-response","106","320240","0.0-8.0-0.0-1.0-1.0-0.0","5","5","5","3","1","4","4","4","5","5","4","1","2","0","0","1","0","1","0","5","5","5","5","5","4","4","4","5","4","4","5","6","6","4","4","4","7","7","3","6","5","3","5","2","6","1","5","5","1","2","3","3","3","3","5","2","7","3","6","3","3","3","2","3","5","3","7","7","7","7","2","7","3","2","7","7","7","3","3","726773976101027840","岳","281","Female","[""好她"",""坏她"",""坏我"",""好我""]","[""强她"",""弱她"",""弱我"",""强我""]","","","","","","","","","","","","","","","","","","","","","","","","","","","","","","","","","","","","","","",""
"66118","","","instructions","107","386360","0.0-8.0-0.0-1.0-1.0-1.0","5","5","5","3","1","4","4","4","5","5","4","1","2","0","0","1","0","1","0","5","5","5","5","5","4","4","4","5","4","4","5","6","6","4","4","4","7","7","3","6","5","3","5","2","6","1","5","5","1","2","3","3","3","3","5","2","7","3","6","3","3","3","2","3","5","3","7","7","7","7","2","7","3","2","7","7","7","3","3","726773976101027840","岳","281","Female","[""好她"",""坏她"",""坏我"",""好我""]","[""强她"",""弱她"",""弱我"",""强我""]","","","","","","","","","","","","","","","","","[{""page_index"":0,""viewing_time"":41864},{""page_index"":1,""viewing_time"":22878},{""page_index"":2,""viewing_time"":1376}]","","","","","","","","","","","","","","","","","","","","","",""
"991","","f","psychophysics","108","388353","0.0-8.0-0.0-1.1-0.1-0.48","5","5","5","3","1","4","4","4","5","5","4","1","2","0","0","1","0","1","0","5","5","5","5","5","4","4","4","5","4","4","5","6","6","4","4","4","7","7","3","6","5","3","5","2","6","1","5","5","1","2","3","3","3","3","5","2","7","3","6","3","3","3","2","3","5","3","7","7","7","7","2","7","3","2","7","7","7","3","3","726773976101027840","岳","281","Female","[""好她"",""坏她"",""坏我"",""好我""]","[""强她"",""弱她"",""弱我"",""强我""]","","","","","","","","nonmatch","","","","","","","","","","key","f","16.66793220338976","731.4285714285714","453.42857142857144","j","false","match","img/pentagon.png","坏我","坏我","prac_ALT2_moral","practice_moral","","","","","","","","",""
"null","<span style='color:red; font-size: 70px;'>错误! </span>","null","html-keyboard-response","109","388854","0.0-8.0-0.0-1.1-0.1-1.48","5","5","5","3","1","4","4","4","5","5","4","1","2","0","0","1","0","1","0","5","5","5","5","5","4","4","4","5","4","4","5","6","6","4","4","4","7","7","3","6","5","3","5","2","6","1","5","5","1","2","3","3","3","3","5","2","7","3","6","3","3","3","2","3","5","3","7","7","7","7","2","7","3","2","7","7","7","3","3","726773976101027840","岳","281","Female","[""好她"",""坏她"",""坏我"",""好我""]","[""强她"",""弱她"",""弱我"",""强我""]","","","","","","","","","","","","","","","","","","","","","","","","","","","","","","feedback_test","","","","","","","","",""
"1162","","j","psychophysics","110","391017","0.0-8.0-0.0-1.1-0.1-0.49","5","5","5","3","1","4","4","4","5","5","4","1","2","0","0","1","0","1","0","5","5","5","5","5","4","4","4","5","4","4","5","6","6","4","4","4","7","7","3","6","5","3","5","2","6","1","5","5","1","2","3","3","3","3","5","2","7","3","6","3","3","3","2","3","5","3","7","7","7","7","2","7","3","2","7","7","7","3","3","726773976101027840","岳","281","Female","[""好她"",""坏她"",""坏我"",""好我""]","[""强她"",""弱她"",""弱我"",""强我""]","","","","","","","","match","","","","","","","","","","key","j","16.665844961240538","731.4285714285714","453.42857142857144","j","true","match","img/pentagon.png","坏我","坏我","prac_ALT2_moral","practice_moral","","","","","","","","",""
"null","<span style='color:GreenYellow; font-size: 70px;'>正确! </span>","null","html-keyboard-response","111","391517","0.0-8.0-0.0-1.1-0.1-1.49","5","5","5","3","1","4","4","4","5","5","4","1","2","0","0","1","0","1","0","5","5","5","5","5","4","4","4","5","4","4","5","6","6","4","4","4","7","7","3","6","5","3","5","2","6","1","5","5","1","2","3","3","3","3","5","2","7","3","6","3","3","3","2","3","5","3","7","7","7","7","2","7","3","2","7","7","7","3","3","726773976101027840","岳","281","Female","[""好她"",""坏她"",""坏我"",""好我""]","[""强她"",""弱她"",""弱我"",""强我""]","","","","","","","","","","","","","","","","","","","","","","","","","","","","","","feedback_test","","","","","","","","",""
"814","","j","psychophysics","112","393332","0.0-8.0-0.0-1.1-0.1-0.50","5","5","5","3","1","4","4","4","5","5","4","1","2","0","0","1","0","1","0","5","5","5","5","5","4","4","4","5","4","4","5","6","6","4","4","4","7","7","3","6","5","3","5","2","6","1","5","5","1","2","3","3","3","3","5","2","7","3","6","3","3","3","2","3","5","3","7","7","7","7","2","7","3","2","7","7","7","3","3","726773976101027840","岳","281","Female","[""好她"",""坏她"",""坏我"",""好我""]","[""强她"",""弱她"",""弱我"",""强我""]","","","","","","","","match","","","","","","","","","","key","j","16.666972222222185","731.4285714285714","453.42857142857144","f","false","nonmatch","img/trapezoid.png","好她","好我","prac_ALT2_moral","practice_moral","","","","","","","","",""
"null","<span style='color:red; font-size: 70px;'>错误! </span>","null","html-keyboard-response","113","393834","0.0-8.0-0.0-1.1-0.1-1.50","5","5","5","3","1","4","4","4","5","5","4","1","2","0","0","1","0","1","0","5","5","5","5","5","4","4","4","5","4","4","5","6","6","4","4","4","7","7","3","6","5","3","5","2","6","1","5","5","1","2","3","3","3","3","5","2","7","3","6","3","3","3","2","3","5","3","7","7","7","7","2","7","3","2","7","7","7","3","3","726773976101027840","岳","281","Female","[""好她"",""坏她"",""坏我"",""好我""]","[""强她"",""弱她"",""弱我"",""强我""]","","","","","","","","","","","","","","","","","","","","","","","","","","","","","","feedback_test","","","","","","","","",""
"938","","j","psychophysics","114","395773","0.0-8.0-0.0-1.1-0.1-0.51","5","5","5","3","1","4","4","4","5","5","4","1","2","0","0","1","0","1","0","5","5","5","5","5","4","4","4","5","4","4","5","6","6","4","4","4","7","7","3","6","5","3","5","2","6","1","5","5","1","2","3","3","3","3","5","2","7","3","6","3","3","3","2","3","5","3","7","7","7","7","2","7","3","2","7","7","7","3","3","726773976101027840","岳","281","Female","[""好她"",""坏她"",""坏我"",""好我""]","[""强她"",""弱她"",""弱我"",""强我""]","","","","","","","","match","","","","","","","","","","key","j","16.66849565217373","731.4285714285714","453.42857142857144","f","false","nonmatch","img/triangle.png","坏她","好她","prac_ALT2_moral","practice_moral","","","","","","","","",""
"null","<span style='color:red; font-size: 70px;'>错误! </span>","null","html-keyboard-response","115","396274","0.0-8.0-0.0-1.1-0.1-1.51","5","5","5","3","1","4","4","4","5","5","4","1","2","0","0","1","0","1","0","5","5","5","5","5","4","4","4","5","4","4","5","6","6","4","4","4","7","7","3","6","5","3","5","2","6","1","5","5","1","2","3","3","3","3","5","2","7","3","6","3","3","3","2","3","5","3","7","7","7","7","2","7","3","2","7","7","7","3","3","726773976101027840","岳","281","Female","[""好她"",""坏她"",""坏我"",""好我""]","[""强她"",""弱她"",""弱我"",""强我""]","","","","","","","","","","","","","","","","","","","","","","","","","","","","","","feedback_test","","","","","","","","",""
"899","","j","psychophysics","116","398175","0.0-8.0-0.0-1.1-0.1-0.52","5","5","5","3","1","4","4","4","5","5","4","1","2","0","0","1","0","1","0","5","5","5","5","5","4","4","4","5","4","4","5","6","6","4","4","4","7","7","3","6","5","3","5","2","6","1","5","5","1","2","3","3","3","3","5","2","7","3","6","3","3","3","2","3","5","3","7","7","7","7","2","7","3","2","7","7","7","3","3","726773976101027840","岳","281","Female","[""好她"",""坏她"",""坏我"",""好我""]","[""强她"",""弱她"",""弱我"",""强我""]","","","","","","","","match","","","","","","","","","","key","j","16.668575221238928","731.4285714285714","453.42857142857144","j","true","match","img/pentagon.png","坏我","坏我","prac_ALT2_moral","practice_moral","","","","","","","","",""
"null","<span style='color:GreenYellow; font-size: 70px;'>正确! </span>","null","html-keyboard-response","117","398676","0.0-8.0-0.0-1.1-0.1-1.52","5","5","5","3","1","4","4","4","5","5","4","1","2","0","0","1","0","1","0","5","5","5","5","5","4","4","4","5","4","4","5","6","6","4","4","4","7","7","3","6","5","3","5","2","6","1","5","5","1","2","3","3","3","3","5","2","7","3","6","3","3","3","2","3","5","3","7","7","7","7","2","7","3","2","7","7","7","3","3","726773976101027840","岳","281","Female","[""好她"",""坏她"",""坏我"",""好我""]","[""强她"",""弱她"",""弱我"",""强我""]","","","","","","","","","","","","","","","","","","","","","","","","","","","","","","feedback_test","","","","","","","","",""
"684","","j","psychophysics","118","400362","0.0-8.0-0.0-1.1-0.1-0.53","5","5","5","3","1","4","4","4","5","5","4","1","2","0","0","1","0","1","0","5","5","5","5","5","4","4","4","5","4","4","5","6","6","4","4","4","7","7","3","6","5","3","5","2","6","1","5","5","1","2","3","3","3","3","5","2","7","3","6","3","3","3","2","3","5","3","7","7","7","7","2","7","3","2","7","7","7","3","3","726773976101027840","岳","281","Female","[""好她"",""坏她"",""坏我"",""好我""]","[""强她"",""弱她"",""弱我"",""强我""]","","","","","","","","match","","","","","","","","","","key","j","16.666359999999987","731.4285714285714","453.42857142857144","j","true","match","img/triangle.png","好她","好她","prac_ALT2_moral","practice_moral","","","","","","","","",""
"null","<span style='color:GreenYellow; font-size: 70px;'>正确! </span>","null","html-keyboard-response","119","400863","0.0-8.0-0.0-1.1-0.1-1.53","5","5","5","3","1","4","4","4","5","5","4","1","2","0","0","1","0","1","0","5","5","5","5","5","4","4","4","5","4","4","5","6","6","4","4","4","7","7","3","6","5","3","5","2","6","1","5","5","1","2","3","3","3","3","5","2","7","3","6","3","3","3","2","3","5","3","7","7","7","7","2","7","3","2","7","7","7","3","3","726773976101027840","岳","281","Female","[""好她"",""坏她"",""坏我"",""好我""]","[""强她"",""弱她"",""弱我"",""强我""]","","","","","","","","","","","","","","","","","","","","","","","","","","","","","","feedback_test","","","","","","","","",""
"643","","f","psychophysics","120","402508","0.0-8.0-0.0-1.1-0.1-0.54","5","5","5","3","1","4","4","4","5","5","4","1","2","0","0","1","0","1","0","5","5","5","5","5","4","4","4","5","4","4","5","6","6","4","4","4","7","7","3","6","5","3","5","2","6","1","5","5","1","2","3","3","3","3","5","2","7","3","6","3","3","3","2","3","5","3","7","7","7","7","2","7","3","2","7","7","7","3","3","726773976101027840","岳","281","Female","[""好她"",""坏她"",""坏我"",""好我""]","[""强她"",""弱她"",""弱我"",""强我""]","","","","","","","","nonmatch","","","","","","","","","","key","f","16.66925510204081","731.4285714285714","453.42857142857144","f","true","nonmatch","img/pentagon.png","坏她","坏我","prac_ALT2_moral","practice_moral","","","","","","","","",""
"null","<span style='color:GreenYellow; font-size: 70px;'>正确! </span>","null","html-keyboard-response","121","403008","0.0-8.0-0.0-1.1-0.1-1.54","5","5","5","3","1","4","4","4","5","5","4","1","2","0","0","1","0","1","0","5","5","5","5","5","4","4","4","5","4","4","5","6","6","4","4","4","7","7","3","6","5","3","5","2","6","1","5","5","1","2","3","3","3","3","5","2","7","3","6","3","3","3","2","3","5","3","7","7","7","7","2","7","3","2","7","7","7","3","3","726773976101027840","岳","281","Female","[""好她"",""坏她"",""坏我"",""好我""]","[""强她"",""弱她"",""弱我"",""强我""]","","","","","","","","","","","","","","","","","","","","","","","","","","","","","","feedback_test","","","","","","","","",""
"773","","f","psychophysics","122","404783","0.0-8.0-0.0-1.1-0.1-0.55","5","5","5","3","1","4","4","4","5","5","4","1","2","0","0","1","0","1","0","5","5","5","5","5","4","4","4","5","4","4","5","6","6","4","4","4","7","7","3","6","5","3","5","2","6","1","5","5","1","2","3","3","3","3","5","2","7","3","6","3","3","3","2","3","5","3","7","7","7","7","2","7","3","2","7","7","7","3","3","726773976101027840","岳","281","Female","[""好她"",""坏她"",""坏我"",""好我""]","[""强她"",""弱她"",""弱我"",""强我""]","","","","","","","","nonmatch","","","","","","","","","","key","f","16.66378301886824","731.4285714285714","453.42857142857144","f","true","nonmatch","img/pentagon.png","好她","坏我","prac_ALT2_moral","practice_moral","","","","","","","","",""
"null","<span style='color:GreenYellow; font-size: 70px;'>正确! </span>","null","html-keyboard-response","123","405285","0.0-8.0-0.0-1.1-0.1-1.55","5","5","5","3","1","4","4","4","5","5","4","1","2","0","0","1","0","1","0","5","5","5","5","5","4","4","4","5","4","4","5","6","6","4","4","4","7","7","3","6","5","3","5","2","6","1","5","5","1","2","3","3","3","3","5","2","7","3","6","3","3","3","2","3","5","3","7","7","7","7","2","7","3","2","7","7","7","3","3","726773976101027840","岳","281","Female","[""好她"",""坏她"",""坏我"",""好我""]","[""强她"",""弱她"",""弱我"",""强我""]","","","","","","","","","","","","","","","","","","","","","","","","","","","","","","feedback_test","","","","","","","","",""
"983","","j","psychophysics","124","407269","0.0-8.0-0.0-1.1-0.1-0.56","5","5","5","3","1","4","4","4","5","5","4","1","2","0","0","1","0","1","0","5","5","5","5","5","4","4","4","5","4","4","5","6","6","4","4","4","7","7","3","6","5","3","5","2","6","1","5","5","1","2","3","3","3","3","5","2","7","3","6","3","3","3","2","3","5","3","7","7","7","7","2","7","3","2","7","7","7","3","3","726773976101027840","岳","281","Female","[""好她"",""坏她"",""坏我"",""好我""]","[""强她"",""弱她"",""弱我"",""强我""]","","","","","","","","match","","","","","","","","","","key","j","16.66844915254219","731.4285714285714","453.42857142857144","j","true","match","img/trapezoid.png","好我","好我","prac_ALT2_moral","practice_moral","","","","","","","","",""
"null","<span style='color:GreenYellow; font-size: 70px;'>正确! </span>","null","html-keyboard-response","125","407770","0.0-8.0-0.0-1.1-0.1-1.56","5","5","5","3","1","4","4","4","5","5","4","1","2","0","0","1","0","1","0","5","5","5","5","5","4","4","4","5","4","4","5","6","6","4","4","4","7","7","3","6","5","3","5","2","6","1","5","5","1","2","3","3","3","3","5","2","7","3","6","3","3","3","2","3","5","3","7","7","7","7","2","7","3","2","7","7","7","3","3","726773976101027840","岳","281","Female","[""好她"",""坏她"",""坏我"",""好我""]","[""强她"",""弱她"",""弱我"",""强我""]","","","","","","","","","","","","","","","","","","","","","","","","","","","","","","feedback_test","","","","","","","","",""
"760","","f","psychophysics","126","409533","0.0-8.0-0.0-1.1-0.1-0.57","5","5","5","3","1","4","4","4","5","5","4","1","2","0","0","1","0","1","0","5","5","5","5","5","4","4","4","5","4","4","5","6","6","4","4","4","7","7","3","6","5","3","5","2","6","1","5","5","1","2","3","3","3","3","5","2","7","3","6","3","3","3","2","3","5","3","7","7","7","7","2","7","3","2","7","7","7","3","3","726773976101027840","岳","281","Female","[""好她"",""坏她"",""坏我"",""好我""]","[""强她"",""弱她"",""弱我"",""强我""]","","","","","","","","nonmatch","","","","","","","","","","key","f","16.66845714285737","731.4285714285714","453.42857142857144","f","true","nonmatch","img/trapezoid.png","坏她","好我","prac_ALT2_moral","practice_moral","","","","","","","","",""
"null","<span style='color:GreenYellow; font-size: 70px;'>正确! </span>","null","html-keyboard-response","127","410034","0.0-8.0-0.0-1.1-0.1-1.57","5","5","5","3","1","4","4","4","5","5","4","1","2","0","0","1","0","1","0","5","5","5","5","5","4","4","4","5","4","4","5","6","6","4","4","4","7","7","3","6","5","3","5","2","6","1","5","5","1","2","3","3","3","3","5","2","7","3","6","3","3","3","2","3","5","3","7","7","7","7","2","7","3","2","7","7","7","3","3","726773976101027840","岳","281","Female","[""好她"",""坏她"",""坏我"",""好我""]","[""强她"",""弱她"",""弱我"",""强我""]","","","","","","","","","","","","","","","","","","","","","","","","","","","","","","feedback_test","","","","","","","","",""
"651","","j","psychophysics","128","411686","0.0-8.0-0.0-1.1-0.1-0.58","5","5","5","3","1","4","4","4","5","5","4","1","2","0","0","1","0","1","0","5","5","5","5","5","4","4","4","5","4","4","5","6","6","4","4","4","7","7","3","6","5","3","5","2","6","1","5","5","1","2","3","3","3","3","5","2","7","3","6","3","3","3","2","3","5","3","7","7","7","7","2","7","3","2","7","7","7","3","3","726773976101027840","岳","281","Female","[""好她"",""坏她"",""坏我"",""好我""]","[""强她"",""弱她"",""弱我"",""强我""]","","","","","","","","match","","","","","","","","","","key","j","16.670081632653112","731.4285714285714","453.42857142857144","f","false","nonmatch","img/ellipse.png","好她","坏她","prac_ALT2_moral","practice_moral","","","","","","","","",""
"null","<span style='color:red; font-size: 70px;'>错误! </span>","null","html-keyboard-response","129","412187","0.0-8.0-0.0-1.1-0.1-1.58","5","5","5","3","1","4","4","4","5","5","4","1","2","0","0","1","0","1","0","5","5","5","5","5","4","4","4","5","4","4","5","6","6","4","4","4","7","7","3","6","5","3","5","2","6","1","5","5","1","2","3","3","3","3","5","2","7","3","6","3","3","3","2","3","5","3","7","7","7","7","2","7","3","2","7","7","7","3","3","726773976101027840","岳","281","Female","[""好她"",""坏她"",""坏我"",""好我""]","[""强她"",""弱她"",""弱我"",""强我""]","","","","","","","","","","","","","","","","","","","","","","","","","","","","","","feedback_test","","","","","","","","",""
"586","","j","psychophysics","130","413775","0.0-8.0-0.0-1.1-0.1-0.59","5","5","5","3","1","4","4","4","5","5","4","1","2","0","0","1","0","1","0","5","5","5","5","5","4","4","4","5","4","4","5","6","6","4","4","4","7","7","3","6","5","3","5","2","6","1","5","5","1","2","3","3","3","3","5","2","7","3","6","3","3","3","2","3","5","3","7","7","7","7","2","7","3","2","7","7","7","3","3","726773976101027840","岳","281","Female","[""好她"",""坏她"",""坏我"",""好我""]","[""强她"",""弱她"",""弱我"",""强我""]","","","","","","","","match","","","","","","","","","","key","j","16.669872340425464","731.4285714285714","453.42857142857144","f","false","nonmatch","img/triangle.png","好我","好她","prac_ALT2_moral","practice_moral","","","","","","","","",""
"null","<span style='color:red; font-size: 70px;'>错误! </span>","null","html-keyboard-response","131","414276","0.0-8.0-0.0-1.1-0.1-1.59","5","5","5","3","1","4","4","4","5","5","4","1","2","0","0","1","0","1","0","5","5","5","5","5","4","4","4","5","4","4","5","6","6","4","4","4","7","7","3","6","5","3","5","2","6","1","5","5","1","2","3","3","3","3","5","2","7","3","6","3","3","3","2","3","5","3","7","7","7","7","2","7","3","2","7","7","7","3","3","726773976101027840","岳","281","Female","[""好她"",""坏她"",""坏我"",""好我""]","[""强她"",""弱她"",""弱我"",""强我""]","","","","","","","","","","","","","","","","","","","","","","","","","","","","","","feedback_test","","","","","","","","",""
"1045","","j","psychophysics","132","416322","0.0-8.0-0.0-1.1-0.1-0.60","5","5","5","3","1","4","4","4","5","5","4","1","2","0","0","1","0","1","0","5","5","5","5","5","4","4","4","5","4","4","5","6","6","4","4","4","7","7","3","6","5","3","5","2","6","1","5","5","1","2","3","3","3","3","5","2","7","3","6","3","3","3","2","3","5","3","7","7","7","7","2","7","3","2","7","7","7","3","3","726773976101027840","岳","281","Female","[""好她"",""坏她"",""坏我"",""好我""]","[""强她"",""弱她"",""弱我"",""强我""]","","","","","","","","match","","","","","","","","","","key","j","16.666721311475143","731.4285714285714","453.42857142857144","j","true","match","img/ellipse.png","坏她","坏她","prac_ALT2_moral","practice_moral","","","","","","","","",""
"null","<span style='color:GreenYellow; font-size: 70px;'>正确! </span>","null","html-keyboard-response","133","416823","0.0-8.0-0.0-1.1-0.1-1.60","5","5","5","3","1","4","4","4","5","5","4","1","2","0","0","1","0","1","0","5","5","5","5","5","4","4","4","5","4","4","5","6","6","4","4","4","7","7","3","6","5","3","5","2","6","1","5","5","1","2","3","3","3","3","5","2","7","3","6","3","3","3","2","3","5","3","7","7","7","7","2","7","3","2","7","7","7","3","3","726773976101027840","岳","281","Female","[""好她"",""坏她"",""坏我"",""好我""]","[""强她"",""弱她"",""弱我"",""强我""]","","","","","","","","","","","","","","","","","","","","","","","","","","","","","","feedback_test","","","","","","","","",""
"762","","f","psychophysics","134","418586","0.0-8.0-0.0-1.1-0.1-0.61","5","5","5","3","1","4","4","4","5","5","4","1","2","0","0","1","0","1","0","5","5","5","5","5","4","4","4","5","4","4","5","6","6","4","4","4","7","7","3","6","5","3","5","2","6","1","5","5","1","2","3","3","3","3","5","2","7","3","6","3","3","3","2","3","5","3","7","7","7","7","2","7","3","2","7","7","7","3","3","726773976101027840","岳","281","Female","[""好她"",""坏她"",""坏我"",""好我""]","[""强她"",""弱她"",""弱我"",""强我""]","","","","","","","","nonmatch","","","","","","","","","","key","f","16.670752380952415","731.4285714285714","453.42857142857144","f","true","nonmatch","img/triangle.png","坏我","好她","prac_ALT2_moral","practice_moral","","","","","","","","",""
"null","<span style='color:GreenYellow; font-size: 70px;'>正确! </span>","null","html-keyboard-response","135","419088","0.0-8.0-0.0-1.1-0.1-1.61","5","5","5","3","1","4","4","4","5","5","4","1","2","0","0","1","0","1","0","5","5","5","5","5","4","4","4","5","4","4","5","6","6","4","4","4","7","7","3","6","5","3","5","2","6","1","5","5","1","2","3","3","3","3","5","2","7","3","6","3","3","3","2","3","5","3","7","7","7","7","2","7","3","2","7","7","7","3","3","726773976101027840","岳","281","Female","[""好她"",""坏她"",""坏我"",""好我""]","[""强她"",""弱她"",""弱我"",""强我""]","","","","","","","","","","","","","","","","","","","","","","","","","","","","","","feedback_test","","","","","","","","",""
