"rt","stimulus","response","trial_type","trial_index","time_elapsed","internal_node_id","swb_1","swb_2","swb_3","swb_4","swb_5","LOT_1","LOT_2","LOT_3","LOT_4","LOT_5","LOT_6","IPC_1","IPC_2","IPC_3","IPC_4","IPC_5","IPC_6","IPC_7","IPC_8","MorIden_1","MorIden_2","MorIden_3","MorIden_4","MorIden_5","MorIden_6","MorIden_7","MorIden_8","MorIden_9","MorIden_10","moralSeImag_1","moralSeImag_2","moralSeImag_3","moralSeImag_4","moralSeImag_5","moralSeImag_6","moralSeImag_7","moralSeImag_8","moralSeImag_9","sde_1","sde_2","sde_3","sde_4","sde_5","sde_6","sde_7","sde_8","sde_9","sde_10","trap2","sde_11","sde_12","sde_13","sde_14","sde_15","sde_16","sde_17","sde_18","sde_19","sde_20","IM_1","IM_2","IM_3","IM_4","IM_5","IM_6","IM_7","IM_8","IM_9","IM_10","IM_11","IM_12","IM_13","IM_14","IM_15","IM_16","IM_17","IM_18","IM_19","IM_20","subj_idx","friend_name","ParticipantID","Sex","Word","Word2","value","success","timeout","failed_images","failed_audio","failed_video","user_agent","responses","item_order","radio_event_ids","radio_event_times","key_event_times","mouse_event_times","straightlining","zigzagging","honeypot","view_history","response_type","key_press","avg_frame_time","center_x","center_y","correct_response","correct","identity","Image","word","condition","task_id","screen_id","time_stamp","person","valence","domain","math","status","duration","question_order","trap2_item"
"3120","
   <p><div style='color:white; font-size: 25px'>您好，欢迎参加本次实验。</div></p>
   <p><div style='color:white; font-size: 25px'>为充分保障您的权利，请确保您已经知晓并同意《参与实验同意书》以及《数据公开知情同意书》。</div></p>
   <p><div style='color:white; font-size: 25px'>如果您未见过上述内容，请咨询实验员。</div></p>
   <p style='color:white; font-size: 25px'>如果您选择继续实验，则表示您已经清楚两份知情同意书的内容并同意。</p>
   <p><div style = ""color: pink;font-size:30px;"">请确保您记得day0的实验编号，您将在本次实验输入该编号，若您忘记，请咨询实验员后作答。</div></p>
   <p><div style = ""color:lightblue;font-size:25px;"">请您尽可能认真地作答，我们将依据您在各问卷和按键任务中的作答质量发放报酬。</div></p>
   <p> <div style = ""color: green""><按空格键至下页></div> </p>
   "," ","html-keyboard-response","0","3126","0.0-0.0","6","6","7","5","5","4","3","5","4","5","4","0","0","1","1","0","1","2","1","5","4","5","4","5","3","4","4","5","4","6","5","5","6","5","6","5","6","6","5","5","4","6","5","5","5","6","5","6","1","5","4","4","3","6","6","5","3","3","5","6","5","6","6","4","5","4","5","5","5","6","2","3","1","4","4","3","2","3","5","775504684868964354","黄","416","Male","[""坏我"",""好他"",""好我"",""坏他""]","[""弱我"",""强他"",""强我"",""弱他""]","","","","","","","","","","","","","","","","","","","","","","","","","","","","","","","","","","","","","","",""
"","","","call-function","1","3129","0.0-1.0-0.0","6","6","7","5","5","4","3","5","4","5","4","0","0","1","1","0","1","2","1","5","4","5","4","5","3","4","4","5","4","6","5","5","6","5","6","5","6","6","5","5","4","6","5","5","5","6","5","6","1","5","4","4","3","6","6","5","3","3","5","6","5","6","6","4","5","4","5","5","5","6","2","3","1","4","4","3","2","3","5","775504684868964354","黄","416","Male","[""坏我"",""好他"",""好我"",""坏他""]","[""弱我"",""强他"",""强我"",""弱他""]","","","","","","","","","","","","","","","","","","","","","","","","","","","","","","","","","","","","","","",""
"11786","","[{""name"":""friend_name"",""value"":""黄""},{""name"":""ParticipantID"",""value"":""416""}]","survey-html-form","2","14917","0.0-1.0-1.0","6","6","7","5","5","4","3","5","4","5","4","0","0","1","1","0","1","2","1","5","4","5","4","5","3","4","4","5","4","6","5","5","6","5","6","5","6","6","5","5","4","6","5","5","5","6","5","6","1","5","4","4","3","6","6","5","3","3","5","6","5","6","6","4","5","4","5","5","5","6","2","3","1","4","4","3","2","3","5","775504684868964354","黄","416","Male","[""坏我"",""好他"",""好我"",""坏他""]","[""弱我"",""强他"",""强我"",""弱他""]","","","","","","","","","","","","","","","","","","","","","","","","","","","","","","","","","","","","","","",""
"","","","preload","3","15301","0.0-2.0","6","6","7","5","5","4","3","5","4","5","4","0","0","1","1","0","1","2","1","5","4","5","4","5","3","4","4","5","4","6","5","5","6","5","6","5","6","6","5","5","4","6","5","5","5","6","5","6","1","5","4","4","3","6","6","5","3","3","5","6","5","6","6","4","5","4","5","5","5","6","2","3","1","4","4","3","2","3","5","775504684868964354","黄","416","Male","[""坏我"",""好他"",""好我"",""坏他""]","[""弱我"",""强他"",""强我"",""弱他""]","","true","false","[]","[]","[]","","","","","","","","","","","","","","","","","","","","","","","","","","","","","","","","",""
"","","","fullscreen","4","17548","0.0-3.0","6","6","7","5","5","4","3","5","4","5","4","0","0","1","1","0","1","2","1","5","4","5","4","5","3","4","4","5","4","6","5","5","6","5","6","5","6","6","5","5","4","6","5","5","5","6","5","6","1","5","4","4","3","6","6","5","3","3","5","6","5","6","6","4","5","4","5","5","5","6","2","3","1","4","4","3","2","3","5","775504684868964354","黄","416","Male","[""坏我"",""好他"",""好我"",""坏他""]","[""弱我"",""强他"",""强我"",""弱他""]","","true","","","","","{}","","","","","","","","","","","","","","","","","","","","","","","","","","","","","","","",""
"12382.399999976158","","{""Q01"":""6"",""Q02"":""6"",""Q03"":""7"",""Q04"":""5"",""Q05"":""5""}","survey-template","5","29935","0.0-4.0","6","6","7","5","5","4","3","5","4","5","4","0","0","1","1","0","1","2","1","5","4","5","4","5","3","4","4","5","4","6","5","5","6","5","6","5","6","6","5","5","4","6","5","5","5","6","5","6","1","5","4","4","3","6","6","5","3","3","5","6","5","6","6","4","5","4","5","5","5","6","2","3","1","4","4","3","2","3","5","775504684868964354","黄","416","Male","[""坏我"",""好他"",""好我"",""坏他""]","[""弱我"",""强他"",""强我"",""弱他""]","","","","","","","","{""Q01"":""6"",""Q02"":""6"",""Q03"":""7"",""Q04"":""5"",""Q05"":""5""}","[0,1,2,3,4]","[""Q01"",""Q02"",""Q03"",""Q04"",""Q05""]","[3908.5,5291.800000011921,7404.599999964237,10419.699999988079,11516.199999988079]","[]","[2980.099999964237,3908.5,5291.800000011921,7404.599999964237,10419.699999988079,11516.199999988079,12379.899999976158]","0.4","0.25","0","","","","","","","","","","","","","","","","","","","","","","",""
"15668.599999964237","","{""Q01"":""4"",""Q02"":""3"",""Q03"":""5"",""Q04"":""4"",""Q05"":""5"",""Q06"":""4""}","survey-template","6","45615","0.0-5.0","6","6","7","5","5","4","3","5","4","5","4","0","0","1","1","0","1","2","1","5","4","5","4","5","3","4","4","5","4","6","5","5","6","5","6","5","6","6","5","5","4","6","5","5","5","6","5","6","1","5","4","4","3","6","6","5","3","3","5","6","5","6","6","4","5","4","5","5","5","6","2","3","1","4","4","3","2","3","5","775504684868964354","黄","416","Male","[""坏我"",""好他"",""好我"",""坏他""]","[""弱我"",""强他"",""强我"",""弱他""]","","","","","","","","{""Q01"":""4"",""Q02"":""3"",""Q03"":""5"",""Q04"":""4"",""Q05"":""5"",""Q06"":""4""}","[0,1,2,3,4,5]","[""Q01"",""Q02"",""Q03"",""Q04"",""Q05"",""Q06""]","[2443,5971,7505.699999988079,10577.899999976158,11986.599999964237,14803.300000011921]","[]","[2443,5971,7505.699999988079,10577.899999976158,11986.599999964237,14803.300000011921,15666.699999988079]","0.3333333333333333","0.4","0","","","","","","","","","","","","","","","","","","","","","","",""
"16001.100000023842","","{""Q01"":""0"",""Q02"":""0"",""Q03"":""1"",""Q04"":""1"",""Q05"":""0"",""Q06"":""1"",""Q07"":""2"",""Q08"":""1""}","survey-template","7","61626","0.0-6.0","6","6","7","5","5","4","3","5","4","5","4","0","0","1","1","0","1","2","1","5","4","5","4","5","3","4","4","5","4","6","5","5","6","5","6","5","6","6","5","5","4","6","5","5","5","6","5","6","1","5","4","4","3","6","6","5","3","3","5","6","5","6","6","4","5","4","5","5","5","6","2","3","1","4","4","3","2","3","5","775504684868964354","黄","416","Male","[""坏我"",""好他"",""好我"",""坏他""]","[""弱我"",""强他"",""强我"",""弱他""]","","","","","","","","{""Q01"":""0"",""Q02"":""0"",""Q03"":""1"",""Q04"":""1"",""Q05"":""0"",""Q06"":""1"",""Q07"":""2"",""Q08"":""1""}","[0,1,2,3,4,5,6,7]","[""Q01"",""Q02"",""Q03"",""Q04"",""Q05"",""Q06"",""Q07"",""Q08""]","[3757.600000023842,5709.5,8420.399999976158,10669.199999988079,11588.899999976158,13077.699999988079,14437.699999988079,15558.300000011921]","[]","[3757.600000023842,5709.5,8420.399999976158,10669.199999988079,11588.899999976158,13077.699999988079,14437.699999988079,15558.300000011921,15998.5]","0.5","0.7142857142857143","0","","","","","","","","","","","","","","","","","","","","","","",""
"3004","","","instructions","8","64637","0.0-7.0","6","6","7","5","5","4","3","5","4","5","4","0","0","1","1","0","1","2","1","5","4","5","4","5","3","4","4","5","4","6","5","5","6","5","6","5","6","6","5","5","4","6","5","5","5","6","5","6","1","5","4","4","3","6","6","5","3","3","5","6","5","6","6","4","5","4","5","5","5","6","2","3","1","4","4","3","2","3","5","775504684868964354","黄","416","Male","[""坏我"",""好他"",""好我"",""坏他""]","[""弱我"",""强他"",""强我"",""弱他""]","","","","","","","","","","","","","","","","","[{""page_index"":0,""viewing_time"":3003}]","","","","","","","","","","","","","","","","","","","","","",""
"57270","","","instructions","9","121909","0.0-8.0-0.0-0.0","6","6","7","5","5","4","3","5","4","5","4","0","0","1","1","0","1","2","1","5","4","5","4","5","3","4","4","5","4","6","5","5","6","5","6","5","6","6","5","5","4","6","5","5","5","6","5","6","1","5","4","4","3","6","6","5","3","3","5","6","5","6","6","4","5","4","5","5","5","6","2","3","1","4","4","3","2","3","5","775504684868964354","黄","416","Male","[""坏我"",""好他"",""好我"",""坏他""]","[""弱我"",""强他"",""强我"",""弱他""]","","","","","","","","","","","","","","","","","[{""page_index"":0,""viewing_time"":2461},{""page_index"":1,""viewing_time"":49448},{""page_index"":2,""viewing_time"":3449},{""page_index"":3,""viewing_time"":1912}]","","","","","","","","","","","","","","","","","","","","","",""
"1001","","j","psychophysics","10","123919","0.0-8.0-0.0-1.0-0.0-0.0","6","6","7","5","5","4","3","5","4","5","4","0","0","1","1","0","1","2","1","5","4","5","4","5","3","4","4","5","4","6","5","5","6","5","6","5","6","6","5","5","4","6","5","5","5","6","5","6","1","5","4","4","3","6","6","5","3","3","5","6","5","6","6","4","5","4","5","5","5","6","2","3","1","4","4","3","2","3","5","775504684868964354","黄","416","Male","[""坏我"",""好他"",""好我"",""坏他""]","[""弱我"",""强他"",""强我"",""弱他""]","","","","","","","","nonmatch","","","","","","","","","","key","j","16.957413793103427","768","428","j","true","nonmatch","img/square.png","好我","坏他","prac_ALT2_moral","practice_moral","","","","","","","","",""
"null","<span style='color:GreenYellow; font-size: 70px;'>正确! </span>","null","html-keyboard-response","11","124423","0.0-8.0-0.0-1.0-0.0-1.0","6","6","7","5","5","4","3","5","4","5","4","0","0","1","1","0","1","2","1","5","4","5","4","5","3","4","4","5","4","6","5","5","6","5","6","5","6","6","5","5","4","6","5","5","5","6","5","6","1","5","4","4","3","6","6","5","3","3","5","6","5","6","6","4","5","4","5","5","5","6","2","3","1","4","4","3","2","3","5","775504684868964354","黄","416","Male","[""坏我"",""好他"",""好我"",""坏他""]","[""弱我"",""强他"",""强我"",""弱他""]","","","","","","","","","","","","","","","","","","","","","","","","","","","","","","feedback_test","","","","","","","","",""
"782","","f","psychophysics","12","126209","0.0-8.0-0.0-1.0-0.0-0.1","6","6","7","5","5","4","3","5","4","5","4","0","0","1","1","0","1","2","1","5","4","5","4","5","3","4","4","5","4","6","5","5","6","5","6","5","6","6","5","5","4","6","5","5","5","6","5","6","1","5","4","4","3","6","6","5","3","3","5","6","5","6","6","4","5","4","5","5","5","6","2","3","1","4","4","3","2","3","5","775504684868964354","黄","416","Male","[""坏我"",""好他"",""好我"",""坏他""]","[""弱我"",""强他"",""强我"",""弱他""]","","","","","","","","match","","","","","","","","","","key","f","16.67113333333331","768","428","j","false","nonmatch","img/circle.png","好我","坏我","prac_ALT2_moral","practice_moral","","","","","","","","",""
"null","<span style='color:red; font-size: 70px;'>错误! </span>","null","html-keyboard-response","13","126718","0.0-8.0-0.0-1.0-0.0-1.1","6","6","7","5","5","4","3","5","4","5","4","0","0","1","1","0","1","2","1","5","4","5","4","5","3","4","4","5","4","6","5","5","6","5","6","5","6","6","5","5","4","6","5","5","5","6","5","6","1","5","4","4","3","6","6","5","3","3","5","6","5","6","6","4","5","4","5","5","5","6","2","3","1","4","4","3","2","3","5","775504684868964354","黄","416","Male","[""坏我"",""好他"",""好我"",""坏他""]","[""弱我"",""强他"",""强我"",""弱他""]","","","","","","","","","","","","","","","","","","","","","","","","","","","","","","feedback_test","","","","","","","","",""
"1041","","j","psychophysics","14","128763","0.0-8.0-0.0-1.0-0.0-0.2","6","6","7","5","5","4","3","5","4","5","4","0","0","1","1","0","1","2","1","5","4","5","4","5","3","4","4","5","4","6","5","5","6","5","6","5","6","6","5","5","4","6","5","5","5","6","5","6","1","5","4","4","3","6","6","5","3","3","5","6","5","6","6","4","5","4","5","5","5","6","2","3","1","4","4","3","2","3","5","775504684868964354","黄","416","Male","[""坏我"",""好他"",""好我"",""坏他""]","[""弱我"",""强他"",""强我"",""弱他""]","","","","","","","","nonmatch","","","","","","","","","","key","j","16.668231404958675","768","428","j","true","nonmatch","img/diamond.png","坏我","好他","prac_ALT2_moral","practice_moral","","","","","","","","",""
"null","<span style='color:GreenYellow; font-size: 70px;'>正确! </span>","null","html-keyboard-response","15","129267","0.0-8.0-0.0-1.0-0.0-1.2","6","6","7","5","5","4","3","5","4","5","4","0","0","1","1","0","1","2","1","5","4","5","4","5","3","4","4","5","4","6","5","5","6","5","6","5","6","6","5","5","4","6","5","5","5","6","5","6","1","5","4","4","3","6","6","5","3","3","5","6","5","6","6","4","5","4","5","5","5","6","2","3","1","4","4","3","2","3","5","775504684868964354","黄","416","Male","[""坏我"",""好他"",""好我"",""坏他""]","[""弱我"",""强他"",""强我"",""弱他""]","","","","","","","","","","","","","","","","","","","","","","","","","","","","","","feedback_test","","","","","","","","",""
"1022","","j","psychophysics","16","131294","0.0-8.0-0.0-1.0-0.0-0.3","6","6","7","5","5","4","3","5","4","5","4","0","0","1","1","0","1","2","1","5","4","5","4","5","3","4","4","5","4","6","5","5","6","5","6","5","6","6","5","5","4","6","5","5","5","6","5","6","1","5","4","4","3","6","6","5","3","3","5","6","5","6","6","4","5","4","5","5","5","6","2","3","1","4","4","3","2","3","5","775504684868964354","黄","416","Male","[""坏我"",""好他"",""好我"",""坏他""]","[""弱我"",""强他"",""强我"",""弱他""]","","","","","","","","nonmatch","","","","","","","","","","key","j","16.632691666666748","768","428","j","true","nonmatch","img/pentagon.png","好他","好我","prac_ALT2_moral","practice_moral","","","","","","","","",""
"null","<span style='color:GreenYellow; font-size: 70px;'>正确! </span>","null","html-keyboard-response","17","131796","0.0-8.0-0.0-1.0-0.0-1.3","6","6","7","5","5","4","3","5","4","5","4","0","0","1","1","0","1","2","1","5","4","5","4","5","3","4","4","5","4","6","5","5","6","5","6","5","6","6","5","5","4","6","5","5","5","6","5","6","1","5","4","4","3","6","6","5","3","3","5","6","5","6","6","4","5","4","5","5","5","6","2","3","1","4","4","3","2","3","5","775504684868964354","黄","416","Male","[""坏我"",""好他"",""好我"",""坏他""]","[""弱我"",""强他"",""强我"",""弱他""]","","","","","","","","","","","","","","","","","","","","","","","","","","","","","","feedback_test","","","","","","","","",""
"917","","f","psychophysics","18","133717","0.0-8.0-0.0-1.0-0.0-0.4","6","6","7","5","5","4","3","5","4","5","4","0","0","1","1","0","1","2","1","5","4","5","4","5","3","4","4","5","4","6","5","5","6","5","6","5","6","6","5","5","4","6","5","5","5","6","5","6","1","5","4","4","3","6","6","5","3","3","5","6","5","6","6","4","5","4","5","5","5","6","2","3","1","4","4","3","2","3","5","775504684868964354","黄","416","Male","[""坏我"",""好他"",""好我"",""坏他""]","[""弱我"",""强他"",""强我"",""弱他""]","","","","","","","","match","","","","","","","","","","key","f","16.667831858407048","768","428","f","true","match","img/diamond.png","好他","好他","prac_ALT2_moral","practice_moral","","","","","","","","",""
"null","<span style='color:GreenYellow; font-size: 70px;'>正确! </span>","null","html-keyboard-response","19","134219","0.0-8.0-0.0-1.0-0.0-1.4","6","6","7","5","5","4","3","5","4","5","4","0","0","1","1","0","1","2","1","5","4","5","4","5","3","4","4","5","4","6","5","5","6","5","6","5","6","6","5","5","4","6","5","5","5","6","5","6","1","5","4","4","3","6","6","5","3","3","5","6","5","6","6","4","5","4","5","5","5","6","2","3","1","4","4","3","2","3","5","775504684868964354","黄","416","Male","[""坏我"",""好他"",""好我"",""坏他""]","[""弱我"",""强他"",""强我"",""弱他""]","","","","","","","","","","","","","","","","","","","","","","","","","","","","","","feedback_test","","","","","","","","",""
"950","","f","psychophysics","20","136174","0.0-8.0-0.0-1.0-0.0-0.5","6","6","7","5","5","4","3","5","4","5","4","0","0","1","1","0","1","2","1","5","4","5","4","5","3","4","4","5","4","6","5","5","6","5","6","5","6","6","5","5","4","6","5","5","5","6","5","6","1","5","4","4","3","6","6","5","3","3","5","6","5","6","6","4","5","4","5","5","5","6","2","3","1","4","4","3","2","3","5","775504684868964354","黄","416","Male","[""坏我"",""好他"",""好我"",""坏他""]","[""弱我"",""强他"",""强我"",""弱他""]","","","","","","","","match","","","","","","","","","","key","f","16.67312931034494","768","428","f","true","match","img/pentagon.png","好我","好我","prac_ALT2_moral","practice_moral","","","","","","","","",""
"null","<span style='color:GreenYellow; font-size: 70px;'>正确! </span>","null","html-keyboard-response","21","136677","0.0-8.0-0.0-1.0-0.0-1.5","6","6","7","5","5","4","3","5","4","5","4","0","0","1","1","0","1","2","1","5","4","5","4","5","3","4","4","5","4","6","5","5","6","5","6","5","6","6","5","5","4","6","5","5","5","6","5","6","1","5","4","4","3","6","6","5","3","3","5","6","5","6","6","4","5","4","5","5","5","6","2","3","1","4","4","3","2","3","5","775504684868964354","黄","416","Male","[""坏我"",""好他"",""好我"",""坏他""]","[""弱我"",""强他"",""强我"",""弱他""]","","","","","","","","","","","","","","","","","","","","","","","","","","","","","","feedback_test","","","","","","","","",""
"739","","j","psychophysics","22","138421","0.0-8.0-0.0-1.0-0.0-0.6","6","6","7","5","5","4","3","5","4","5","4","0","0","1","1","0","1","2","1","5","4","5","4","5","3","4","4","5","4","6","5","5","6","5","6","5","6","6","5","5","4","6","5","5","5","6","5","6","1","5","4","4","3","6","6","5","3","3","5","6","5","6","6","4","5","4","5","5","5","6","2","3","1","4","4","3","2","3","5","775504684868964354","黄","416","Male","[""坏我"",""好他"",""好我"",""坏他""]","[""弱我"",""强他"",""强我"",""弱他""]","","","","","","","","nonmatch","","","","","","","","","","key","j","16.667815533980615","768","428","f","false","match","img/square.png","坏他","坏他","prac_ALT2_moral","practice_moral","","","","","","","","",""
"null","<span style='color:red; font-size: 70px;'>错误! </span>","null","html-keyboard-response","23","138933","0.0-8.0-0.0-1.0-0.0-1.6","6","6","7","5","5","4","3","5","4","5","4","0","0","1","1","0","1","2","1","5","4","5","4","5","3","4","4","5","4","6","5","5","6","5","6","5","6","6","5","5","4","6","5","5","5","6","5","6","1","5","4","4","3","6","6","5","3","3","5","6","5","6","6","4","5","4","5","5","5","6","2","3","1","4","4","3","2","3","5","775504684868964354","黄","416","Male","[""坏我"",""好他"",""好我"",""坏他""]","[""弱我"",""强他"",""强我"",""弱他""]","","","","","","","","","","","","","","","","","","","","","","","","","","","","","","feedback_test","","","","","","","","",""
"960","","j","psychophysics","24","140897","0.0-8.0-0.0-1.0-0.0-0.7","6","6","7","5","5","4","3","5","4","5","4","0","0","1","1","0","1","2","1","5","4","5","4","5","3","4","4","5","4","6","5","5","6","5","6","5","6","6","5","5","4","6","5","5","5","6","5","6","1","5","4","4","3","6","6","5","3","3","5","6","5","6","6","4","5","4","5","5","5","6","2","3","1","4","4","3","2","3","5","775504684868964354","黄","416","Male","[""坏我"",""好他"",""好我"",""坏他""]","[""弱我"",""强他"",""强我"",""弱他""]","","","","","","","","nonmatch","","","","","","","","","","key","j","16.672136752136623","768","428","j","true","nonmatch","img/pentagon.png","坏他","好我","prac_ALT2_moral","practice_moral","","","","","","","","",""
"null","<span style='color:GreenYellow; font-size: 70px;'>正确! </span>","null","html-keyboard-response","25","141401","0.0-8.0-0.0-1.0-0.0-1.7","6","6","7","5","5","4","3","5","4","5","4","0","0","1","1","0","1","2","1","5","4","5","4","5","3","4","4","5","4","6","5","5","6","5","6","5","6","6","5","5","4","6","5","5","5","6","5","6","1","5","4","4","3","6","6","5","3","3","5","6","5","6","6","4","5","4","5","5","5","6","2","3","1","4","4","3","2","3","5","775504684868964354","黄","416","Male","[""坏我"",""好他"",""好我"",""坏他""]","[""弱我"",""强他"",""强我"",""弱他""]","","","","","","","","","","","","","","","","","","","","","","","","","","","","","","feedback_test","","","","","","","","",""
"804","","f","psychophysics","26","143211","0.0-8.0-0.0-1.0-0.0-0.8","6","6","7","5","5","4","3","5","4","5","4","0","0","1","1","0","1","2","1","5","4","5","4","5","3","4","4","5","4","6","5","5","6","5","6","5","6","6","5","5","4","6","5","5","5","6","5","6","1","5","4","4","3","6","6","5","3","3","5","6","5","6","6","4","5","4","5","5","5","6","2","3","1","4","4","3","2","3","5","775504684868964354","黄","416","Male","[""坏我"",""好他"",""好我"",""坏他""]","[""弱我"",""强他"",""强我"",""弱他""]","","","","","","","","match","","","","","","","","","","key","f","16.667416666666718","768","428","f","true","match","img/diamond.png","好他","好他","prac_ALT2_moral","practice_moral","","","","","","","","",""
"null","<span style='color:GreenYellow; font-size: 70px;'>正确! </span>","null","html-keyboard-response","27","143726","0.0-8.0-0.0-1.0-0.0-1.8","6","6","7","5","5","4","3","5","4","5","4","0","0","1","1","0","1","2","1","5","4","5","4","5","3","4","4","5","4","6","5","5","6","5","6","5","6","6","5","5","4","6","5","5","5","6","5","6","1","5","4","4","3","6","6","5","3","3","5","6","5","6","6","4","5","4","5","5","5","6","2","3","1","4","4","3","2","3","5","775504684868964354","黄","416","Male","[""坏我"",""好他"",""好我"",""坏他""]","[""弱我"",""强他"",""强我"",""弱他""]","","","","","","","","","","","","","","","","","","","","","","","","","","","","","","feedback_test","","","","","","","","",""
"883","","f","psychophysics","28","145613","0.0-8.0-0.0-1.0-0.0-0.9","6","6","7","5","5","4","3","5","4","5","4","0","0","1","1","0","1","2","1","5","4","5","4","5","3","4","4","5","4","6","5","5","6","5","6","5","6","6","5","5","4","6","5","5","5","6","5","6","1","5","4","4","3","6","6","5","3","3","5","6","5","6","6","4","5","4","5","5","5","6","2","3","1","4","4","3","2","3","5","775504684868964354","黄","416","Male","[""坏我"",""好他"",""好我"",""坏他""]","[""弱我"",""强他"",""强我"",""弱他""]","","","","","","","","match","","","","","","","","","","key","f","16.670535714285766","768","428","f","true","match","img/circle.png","坏我","坏我","prac_ALT2_moral","practice_moral","","","","","","","","",""
"null","<span style='color:GreenYellow; font-size: 70px;'>正确! </span>","null","html-keyboard-response","29","146116","0.0-8.0-0.0-1.0-0.0-1.9","6","6","7","5","5","4","3","5","4","5","4","0","0","1","1","0","1","2","1","5","4","5","4","5","3","4","4","5","4","6","5","5","6","5","6","5","6","6","5","5","4","6","5","5","5","6","5","6","1","5","4","4","3","6","6","5","3","3","5","6","5","6","6","4","5","4","5","5","5","6","2","3","1","4","4","3","2","3","5","775504684868964354","黄","416","Male","[""坏我"",""好他"",""好我"",""坏他""]","[""弱我"",""强他"",""强我"",""弱他""]","","","","","","","","","","","","","","","","","","","","","","","","","","","","","","feedback_test","","","","","","","","",""
"675","","f","psychophysics","30","147794","0.0-8.0-0.0-1.0-0.0-0.10","6","6","7","5","5","4","3","5","4","5","4","0","0","1","1","0","1","2","1","5","4","5","4","5","3","4","4","5","4","6","5","5","6","5","6","5","6","6","5","5","4","6","5","5","5","6","5","6","1","5","4","4","3","6","6","5","3","3","5","6","5","6","6","4","5","4","5","5","5","6","2","3","1","4","4","3","2","3","5","775504684868964354","黄","416","Male","[""坏我"",""好他"",""好我"",""坏他""]","[""弱我"",""强他"",""强我"",""弱他""]","","","","","","","","match","","","","","","","","","","key","f","16.668979999999866","768","428","f","true","match","img/circle.png","坏我","坏我","prac_ALT2_moral","practice_moral","","","","","","","","",""
"null","<span style='color:GreenYellow; font-size: 70px;'>正确! </span>","null","html-keyboard-response","31","148297","0.0-8.0-0.0-1.0-0.0-1.10","6","6","7","5","5","4","3","5","4","5","4","0","0","1","1","0","1","2","1","5","4","5","4","5","3","4","4","5","4","6","5","5","6","5","6","5","6","6","5","5","4","6","5","5","5","6","5","6","1","5","4","4","3","6","6","5","3","3","5","6","5","6","6","4","5","4","5","5","5","6","2","3","1","4","4","3","2","3","5","775504684868964354","黄","416","Male","[""坏我"",""好他"",""好我"",""坏他""]","[""弱我"",""强他"",""强我"",""弱他""]","","","","","","","","","","","","","","","","","","","","","","","","","","","","","","feedback_test","","","","","","","","",""
"933","","j","psychophysics","32","150233","0.0-8.0-0.0-1.0-0.0-0.11","6","6","7","5","5","4","3","5","4","5","4","0","0","1","1","0","1","2","1","5","4","5","4","5","3","4","4","5","4","6","5","5","6","5","6","5","6","6","5","5","4","6","5","5","5","6","5","6","1","5","4","4","3","6","6","5","3","3","5","6","5","6","6","4","5","4","5","5","5","6","2","3","1","4","4","3","2","3","5","775504684868964354","黄","416","Male","[""坏我"",""好他"",""好我"",""坏他""]","[""弱我"",""强他"",""强我"",""弱他""]","","","","","","","","nonmatch","","","","","","","","","","key","j","16.67273684210535","768","428","j","true","nonmatch","img/square.png","坏我","坏他","prac_ALT2_moral","practice_moral","","","","","","","","",""
"null","<span style='color:GreenYellow; font-size: 70px;'>正确! </span>","null","html-keyboard-response","33","150736","0.0-8.0-0.0-1.0-0.0-1.11","6","6","7","5","5","4","3","5","4","5","4","0","0","1","1","0","1","2","1","5","4","5","4","5","3","4","4","5","4","6","5","5","6","5","6","5","6","6","5","5","4","6","5","5","5","6","5","6","1","5","4","4","3","6","6","5","3","3","5","6","5","6","6","4","5","4","5","5","5","6","2","3","1","4","4","3","2","3","5","775504684868964354","黄","416","Male","[""坏我"",""好他"",""好我"",""坏他""]","[""弱我"",""强他"",""强我"",""弱他""]","","","","","","","","","","","","","","","","","","","","","","","","","","","","","","feedback_test","","","","","","","","",""
"700","","f","psychophysics","34","152439","0.0-8.0-0.0-1.0-0.0-0.12","6","6","7","5","5","4","3","5","4","5","4","0","0","1","1","0","1","2","1","5","4","5","4","5","3","4","4","5","4","6","5","5","6","5","6","5","6","6","5","5","4","6","5","5","5","6","5","6","1","5","4","4","3","6","6","5","3","3","5","6","5","6","6","4","5","4","5","5","5","6","2","3","1","4","4","3","2","3","5","775504684868964354","黄","416","Male","[""坏我"",""好他"",""好我"",""坏他""]","[""弱我"",""强他"",""强我"",""弱他""]","","","","","","","","match","","","","","","","","","","key","f","16.671188118811962","768","428","j","false","nonmatch","img/square.png","好他","坏他","prac_ALT2_moral","practice_moral","","","","","","","","",""
"null","<span style='color:red; font-size: 70px;'>错误! </span>","null","html-keyboard-response","35","152949","0.0-8.0-0.0-1.0-0.0-1.12","6","6","7","5","5","4","3","5","4","5","4","0","0","1","1","0","1","2","1","5","4","5","4","5","3","4","4","5","4","6","5","5","6","5","6","5","6","6","5","5","4","6","5","5","5","6","5","6","1","5","4","4","3","6","6","5","3","3","5","6","5","6","6","4","5","4","5","5","5","6","2","3","1","4","4","3","2","3","5","775504684868964354","黄","416","Male","[""坏我"",""好他"",""好我"",""坏他""]","[""弱我"",""强他"",""强我"",""弱他""]","","","","","","","","","","","","","","","","","","","","","","","","","","","","","","feedback_test","","","","","","","","",""
"965","","f","psychophysics","36","154918","0.0-8.0-0.0-1.0-0.0-0.13","6","6","7","5","5","4","3","5","4","5","4","0","0","1","1","0","1","2","1","5","4","5","4","5","3","4","4","5","4","6","5","5","6","5","6","5","6","6","5","5","4","6","5","5","5","6","5","6","1","5","4","4","3","6","6","5","3","3","5","6","5","6","6","4","5","4","5","5","5","6","2","3","1","4","4","3","2","3","5","775504684868964354","黄","416","Male","[""坏我"",""好他"",""好我"",""坏他""]","[""弱我"",""强他"",""强我"",""弱他""]","","","","","","","","match","","","","","","","","","","key","f","16.66796581196583","768","428","f","true","match","img/pentagon.png","好我","好我","prac_ALT2_moral","practice_moral","","","","","","","","",""
"null","<span style='color:GreenYellow; font-size: 70px;'>正确! </span>","null","html-keyboard-response","37","155421","0.0-8.0-0.0-1.0-0.0-1.13","6","6","7","5","5","4","3","5","4","5","4","0","0","1","1","0","1","2","1","5","4","5","4","5","3","4","4","5","4","6","5","5","6","5","6","5","6","6","5","5","4","6","5","5","5","6","5","6","1","5","4","4","3","6","6","5","3","3","5","6","5","6","6","4","5","4","5","5","5","6","2","3","1","4","4","3","2","3","5","775504684868964354","黄","416","Male","[""坏我"",""好他"",""好我"",""坏他""]","[""弱我"",""强他"",""强我"",""弱他""]","","","","","","","","","","","","","","","","","","","","","","","","","","","","","","feedback_test","","","","","","","","",""
"748","","f","psychophysics","38","157173","0.0-8.0-0.0-1.0-0.0-0.14","6","6","7","5","5","4","3","5","4","5","4","0","0","1","1","0","1","2","1","5","4","5","4","5","3","4","4","5","4","6","5","5","6","5","6","5","6","6","5","5","4","6","5","5","5","6","5","6","1","5","4","4","3","6","6","5","3","3","5","6","5","6","6","4","5","4","5","5","5","6","2","3","1","4","4","3","2","3","5","775504684868964354","黄","416","Male","[""坏我"",""好他"",""好我"",""坏他""]","[""弱我"",""强他"",""强我"",""弱他""]","","","","","","","","match","","","","","","","","","","key","f","16.668644230769132","768","428","f","true","match","img/diamond.png","好他","好他","prac_ALT2_moral","practice_moral","","","","","","","","",""
"null","<span style='color:GreenYellow; font-size: 70px;'>正确! </span>","null","html-keyboard-response","39","157676","0.0-8.0-0.0-1.0-0.0-1.14","6","6","7","5","5","4","3","5","4","5","4","0","0","1","1","0","1","2","1","5","4","5","4","5","3","4","4","5","4","6","5","5","6","5","6","5","6","6","5","5","4","6","5","5","5","6","5","6","1","5","4","4","3","6","6","5","3","3","5","6","5","6","6","4","5","4","5","5","5","6","2","3","1","4","4","3","2","3","5","775504684868964354","黄","416","Male","[""坏我"",""好他"",""好我"",""坏他""]","[""弱我"",""强他"",""强我"",""弱他""]","","","","","","","","","","","","","","","","","","","","","","","","","","","","","","feedback_test","","","","","","","","",""
"742","","f","psychophysics","40","159421","0.0-8.0-0.0-1.0-0.0-0.15","6","6","7","5","5","4","3","5","4","5","4","0","0","1","1","0","1","2","1","5","4","5","4","5","3","4","4","5","4","6","5","5","6","5","6","5","6","6","5","5","4","6","5","5","5","6","5","6","1","5","4","4","3","6","6","5","3","3","5","6","5","6","6","4","5","4","5","5","5","6","2","3","1","4","4","3","2","3","5","775504684868964354","黄","416","Male","[""坏我"",""好他"",""好我"",""坏他""]","[""弱我"",""强他"",""强我"",""弱他""]","","","","","","","","match","","","","","","","","","","key","f","16.66990291262136","768","428","j","false","nonmatch","img/pentagon.png","坏我","好我","prac_ALT2_moral","practice_moral","","","","","","","","",""
"null","<span style='color:red; font-size: 70px;'>错误! </span>","null","html-keyboard-response","41","159934","0.0-8.0-0.0-1.0-0.0-1.15","6","6","7","5","5","4","3","5","4","5","4","0","0","1","1","0","1","2","1","5","4","5","4","5","3","4","4","5","4","6","5","5","6","5","6","5","6","6","5","5","4","6","5","5","5","6","5","6","1","5","4","4","3","6","6","5","3","3","5","6","5","6","6","4","5","4","5","5","5","6","2","3","1","4","4","3","2","3","5","775504684868964354","黄","416","Male","[""坏我"",""好他"",""好我"",""坏他""]","[""弱我"",""强他"",""强我"",""弱他""]","","","","","","","","","","","","","","","","","","","","","","","","","","","","","","feedback_test","","","","","","","","",""
"770","","j","psychophysics","42","161709","0.0-8.0-0.0-1.0-0.0-0.16","6","6","7","5","5","4","3","5","4","5","4","0","0","1","1","0","1","2","1","5","4","5","4","5","3","4","4","5","4","6","5","5","6","5","6","5","6","6","5","5","4","6","5","5","5","6","5","6","1","5","4","4","3","6","6","5","3","3","5","6","5","6","6","4","5","4","5","5","5","6","2","3","1","4","4","3","2","3","5","775504684868964354","黄","416","Male","[""坏我"",""好他"",""好我"",""坏他""]","[""弱我"",""强他"",""强我"",""弱他""]","","","","","","","","nonmatch","","","","","","","","","","key","j","16.66736792452811","768","428","j","true","nonmatch","img/circle.png","坏他","坏我","prac_ALT2_moral","practice_moral","","","","","","","","",""
"null","<span style='color:GreenYellow; font-size: 70px;'>正确! </span>","null","html-keyboard-response","43","162212","0.0-8.0-0.0-1.0-0.0-1.16","6","6","7","5","5","4","3","5","4","5","4","0","0","1","1","0","1","2","1","5","4","5","4","5","3","4","4","5","4","6","5","5","6","5","6","5","6","6","5","5","4","6","5","5","5","6","5","6","1","5","4","4","3","6","6","5","3","3","5","6","5","6","6","4","5","4","5","5","5","6","2","3","1","4","4","3","2","3","5","775504684868964354","黄","416","Male","[""坏我"",""好他"",""好我"",""坏他""]","[""弱我"",""强他"",""强我"",""弱他""]","","","","","","","","","","","","","","","","","","","","","","","","","","","","","","feedback_test","","","","","","","","",""
"829","","j","psychophysics","44","164044","0.0-8.0-0.0-1.0-0.0-0.17","6","6","7","5","5","4","3","5","4","5","4","0","0","1","1","0","1","2","1","5","4","5","4","5","3","4","4","5","4","6","5","5","6","5","6","5","6","6","5","5","4","6","5","5","5","6","5","6","1","5","4","4","3","6","6","5","3","3","5","6","5","6","6","4","5","4","5","5","5","6","2","3","1","4","4","3","2","3","5","775504684868964354","黄","416","Male","[""坏我"",""好他"",""好我"",""坏他""]","[""弱我"",""强他"",""强我"",""弱他""]","","","","","","","","nonmatch","","","","","","","","","","key","j","16.672981651375977","768","428","j","true","nonmatch","img/circle.png","好他","坏我","prac_ALT2_moral","practice_moral","","","","","","","","",""
"null","<span style='color:GreenYellow; font-size: 70px;'>正确! </span>","null","html-keyboard-response","45","164546","0.0-8.0-0.0-1.0-0.0-1.17","6","6","7","5","5","4","3","5","4","5","4","0","0","1","1","0","1","2","1","5","4","5","4","5","3","4","4","5","4","6","5","5","6","5","6","5","6","6","5","5","4","6","5","5","5","6","5","6","1","5","4","4","3","6","6","5","3","3","5","6","5","6","6","4","5","4","5","5","5","6","2","3","1","4","4","3","2","3","5","775504684868964354","黄","416","Male","[""坏我"",""好他"",""好我"",""坏他""]","[""弱我"",""强他"",""强我"",""弱他""]","","","","","","","","","","","","","","","","","","","","","","","","","","","","","","feedback_test","","","","","","","","",""
"935","","j","psychophysics","46","166486","0.0-8.0-0.0-1.0-0.0-0.18","6","6","7","5","5","4","3","5","4","5","4","0","0","1","1","0","1","2","1","5","4","5","4","5","3","4","4","5","4","6","5","5","6","5","6","5","6","6","5","5","4","6","5","5","5","6","5","6","1","5","4","4","3","6","6","5","3","3","5","6","5","6","6","4","5","4","5","5","5","6","2","3","1","4","4","3","2","3","5","775504684868964354","黄","416","Male","[""坏我"",""好他"",""好我"",""坏他""]","[""弱我"",""强他"",""强我"",""弱他""]","","","","","","","","nonmatch","","","","","","","","","","key","j","16.67321739130446","768","428","j","true","nonmatch","img/diamond.png","坏他","好他","prac_ALT2_moral","practice_moral","","","","","","","","",""
"null","<span style='color:GreenYellow; font-size: 70px;'>正确! </span>","null","html-keyboard-response","47","166989","0.0-8.0-0.0-1.0-0.0-1.18","6","6","7","5","5","4","3","5","4","5","4","0","0","1","1","0","1","2","1","5","4","5","4","5","3","4","4","5","4","6","5","5","6","5","6","5","6","6","5","5","4","6","5","5","5","6","5","6","1","5","4","4","3","6","6","5","3","3","5","6","5","6","6","4","5","4","5","5","5","6","2","3","1","4","4","3","2","3","5","775504684868964354","黄","416","Male","[""坏我"",""好他"",""好我"",""坏他""]","[""弱我"",""强他"",""强我"",""弱他""]","","","","","","","","","","","","","","","","","","","","","","","","","","","","","","feedback_test","","","","","","","","",""
"812","","j","psychophysics","48","168805","0.0-8.0-0.0-1.0-0.0-0.19","6","6","7","5","5","4","3","5","4","5","4","0","0","1","1","0","1","2","1","5","4","5","4","5","3","4","4","5","4","6","5","5","6","5","6","5","6","6","5","5","4","6","5","5","5","6","5","6","1","5","4","4","3","6","6","5","3","3","5","6","5","6","6","4","5","4","5","5","5","6","2","3","1","4","4","3","2","3","5","775504684868964354","黄","416","Male","[""坏我"",""好他"",""好我"",""坏他""]","[""弱我"",""强他"",""强我"",""弱他""]","","","","","","","","nonmatch","","","","","","","","","","key","j","16.673261682242895","768","428","f","false","match","img/circle.png","坏我","坏我","prac_ALT2_moral","practice_moral","","","","","","","","",""
"null","<span style='color:red; font-size: 70px;'>错误! </span>","null","html-keyboard-response","49","169308","0.0-8.0-0.0-1.0-0.0-1.19","6","6","7","5","5","4","3","5","4","5","4","0","0","1","1","0","1","2","1","5","4","5","4","5","3","4","4","5","4","6","5","5","6","5","6","5","6","6","5","5","4","6","5","5","5","6","5","6","1","5","4","4","3","6","6","5","3","3","5","6","5","6","6","4","5","4","5","5","5","6","2","3","1","4","4","3","2","3","5","775504684868964354","黄","416","Male","[""坏我"",""好他"",""好我"",""坏他""]","[""弱我"",""强他"",""强我"",""弱他""]","","","","","","","","","","","","","","","","","","","","","","","","","","","","","","feedback_test","","","","","","","","",""
"667","","f","psychophysics","50","170979","0.0-8.0-0.0-1.0-0.0-0.20","6","6","7","5","5","4","3","5","4","5","4","0","0","1","1","0","1","2","1","5","4","5","4","5","3","4","4","5","4","6","5","5","6","5","6","5","6","6","5","5","4","6","5","5","5","6","5","6","1","5","4","4","3","6","6","5","3","3","5","6","5","6","6","4","5","4","5","5","5","6","2","3","1","4","4","3","2","3","5","775504684868964354","黄","416","Male","[""坏我"",""好他"",""好我"",""坏他""]","[""弱我"",""强他"",""强我"",""弱他""]","","","","","","","","match","","","","","","","","","","key","f","16.668383838383967","768","428","f","true","match","img/pentagon.png","好我","好我","prac_ALT2_moral","practice_moral","","","","","","","","",""
"null","<span style='color:GreenYellow; font-size: 70px;'>正确! </span>","null","html-keyboard-response","51","171482","0.0-8.0-0.0-1.0-0.0-1.20","6","6","7","5","5","4","3","5","4","5","4","0","0","1","1","0","1","2","1","5","4","5","4","5","3","4","4","5","4","6","5","5","6","5","6","5","6","6","5","5","4","6","5","5","5","6","5","6","1","5","4","4","3","6","6","5","3","3","5","6","5","6","6","4","5","4","5","5","5","6","2","3","1","4","4","3","2","3","5","775504684868964354","黄","416","Male","[""坏我"",""好他"",""好我"",""坏他""]","[""弱我"",""强他"",""强我"",""弱他""]","","","","","","","","","","","","","","","","","","","","","","","","","","","","","","feedback_test","","","","","","","","",""
"818","","f","psychophysics","52","173303","0.0-8.0-0.0-1.0-0.0-0.21","6","6","7","5","5","4","3","5","4","5","4","0","0","1","1","0","1","2","1","5","4","5","4","5","3","4","4","5","4","6","5","5","6","5","6","5","6","6","5","5","4","6","5","5","5","6","5","6","1","5","4","4","3","6","6","5","3","3","5","6","5","6","6","4","5","4","5","5","5","6","2","3","1","4","4","3","2","3","5","775504684868964354","黄","416","Male","[""坏我"",""好他"",""好我"",""坏他""]","[""弱我"",""强他"",""强我"",""弱他""]","","","","","","","","match","","","","","","","","","","key","f","16.673129629629667","768","428","f","true","match","img/square.png","坏他","坏他","prac_ALT2_moral","practice_moral","","","","","","","","",""
"null","<span style='color:GreenYellow; font-size: 70px;'>正确! </span>","null","html-keyboard-response","53","173806","0.0-8.0-0.0-1.0-0.0-1.21","6","6","7","5","5","4","3","5","4","5","4","0","0","1","1","0","1","2","1","5","4","5","4","5","3","4","4","5","4","6","5","5","6","5","6","5","6","6","5","5","4","6","5","5","5","6","5","6","1","5","4","4","3","6","6","5","3","3","5","6","5","6","6","4","5","4","5","5","5","6","2","3","1","4","4","3","2","3","5","775504684868964354","黄","416","Male","[""坏我"",""好他"",""好我"",""坏他""]","[""弱我"",""强他"",""强我"",""弱他""]","","","","","","","","","","","","","","","","","","","","","","","","","","","","","","feedback_test","","","","","","","","",""
"768","","f","psychophysics","54","175579","0.0-8.0-0.0-1.0-0.0-0.22","6","6","7","5","5","4","3","5","4","5","4","0","0","1","1","0","1","2","1","5","4","5","4","5","3","4","4","5","4","6","5","5","6","5","6","5","6","6","5","5","4","6","5","5","5","6","5","6","1","5","4","4","3","6","6","5","3","3","5","6","5","6","6","4","5","4","5","5","5","6","2","3","1","4","4","3","2","3","5","775504684868964354","黄","416","Male","[""坏我"",""好他"",""好我"",""坏他""]","[""弱我"",""强他"",""强我"",""弱他""]","","","","","","","","match","","","","","","","","","","key","f","16.66807619047606","768","428","f","true","match","img/square.png","坏他","坏他","prac_ALT2_moral","practice_moral","","","","","","","","",""
"null","<span style='color:GreenYellow; font-size: 70px;'>正确! </span>","null","html-keyboard-response","55","176081","0.0-8.0-0.0-1.0-0.0-1.22","6","6","7","5","5","4","3","5","4","5","4","0","0","1","1","0","1","2","1","5","4","5","4","5","3","4","4","5","4","6","5","5","6","5","6","5","6","6","5","5","4","6","5","5","5","6","5","6","1","5","4","4","3","6","6","5","3","3","5","6","5","6","6","4","5","4","5","5","5","6","2","3","1","4","4","3","2","3","5","775504684868964354","黄","416","Male","[""坏我"",""好他"",""好我"",""坏他""]","[""弱我"",""强他"",""强我"",""弱他""]","","","","","","","","","","","","","","","","","","","","","","","","","","","","","","feedback_test","","","","","","","","",""
"822","","f","psychophysics","56","177907","0.0-8.0-0.0-1.0-0.0-0.23","6","6","7","5","5","4","3","5","4","5","4","0","0","1","1","0","1","2","1","5","4","5","4","5","3","4","4","5","4","6","5","5","6","5","6","5","6","6","5","5","4","6","5","5","5","6","5","6","1","5","4","4","3","6","6","5","3","3","5","6","5","6","6","4","5","4","5","5","5","6","2","3","1","4","4","3","2","3","5","775504684868964354","黄","416","Male","[""坏我"",""好他"",""好我"",""坏他""]","[""弱我"",""强他"",""强我"",""弱他""]","","","","","","","","match","","","","","","","","","","key","f","16.667853211009195","768","428","j","false","nonmatch","img/diamond.png","好我","好他","prac_ALT2_moral","practice_moral","","","","","","","","",""
"null","<span style='color:red; font-size: 70px;'>错误! </span>","null","html-keyboard-response","57","178410","0.0-8.0-0.0-1.0-0.0-1.23","6","6","7","5","5","4","3","5","4","5","4","0","0","1","1","0","1","2","1","5","4","5","4","5","3","4","4","5","4","6","5","5","6","5","6","5","6","6","5","5","4","6","5","5","5","6","5","6","1","5","4","4","3","6","6","5","3","3","5","6","5","6","6","4","5","4","5","5","5","6","2","3","1","4","4","3","2","3","5","775504684868964354","黄","416","Male","[""坏我"",""好他"",""好我"",""坏他""]","[""弱我"",""强他"",""强我"",""弱他""]","","","","","","","","","","","","","","","","","","","","","","","","","","","","","","feedback_test","","","","","","","","",""
"874","","f","psychophysics","58","180290","0.0-8.0-0.0-1.0-0.0-0.24","6","6","7","5","5","4","3","5","4","5","4","0","0","1","1","0","1","2","1","5","4","5","4","5","3","4","4","5","4","6","5","5","6","5","6","5","6","6","5","5","4","6","5","5","5","6","5","6","1","5","4","4","3","6","6","5","3","3","5","6","5","6","6","4","5","4","5","5","5","6","2","3","1","4","4","3","2","3","5","775504684868964354","黄","416","Male","[""坏我"",""好他"",""好我"",""坏他""]","[""弱我"",""强他"",""强我"",""弱他""]","","","","","","","","match","","","","","","","","","","key","f","16.668026785714442","768","428","f","true","match","img/circle.png","坏我","坏我","prac_ALT2_moral","practice_moral","","","","","","","","",""
"null","<span style='color:GreenYellow; font-size: 70px;'>正确! </span>","null","html-keyboard-response","59","180792","0.0-8.0-0.0-1.0-0.0-1.24","6","6","7","5","5","4","3","5","4","5","4","0","0","1","1","0","1","2","1","5","4","5","4","5","3","4","4","5","4","6","5","5","6","5","6","5","6","6","5","5","4","6","5","5","5","6","5","6","1","5","4","4","3","6","6","5","3","3","5","6","5","6","6","4","5","4","5","5","5","6","2","3","1","4","4","3","2","3","5","775504684868964354","黄","416","Male","[""坏我"",""好他"",""好我"",""坏他""]","[""弱我"",""强他"",""强我"",""弱他""]","","","","","","","","","","","","","","","","","","","","","","","","","","","","","","feedback_test","","","","","","","","",""
"917","","f","psychophysics","60","182713","0.0-8.0-0.0-1.0-0.0-0.25","6","6","7","5","5","4","3","5","4","5","4","0","0","1","1","0","1","2","1","5","4","5","4","5","3","4","4","5","4","6","5","5","6","5","6","5","6","6","5","5","4","6","5","5","5","6","5","6","1","5","4","4","3","6","6","5","3","3","5","6","5","6","6","4","5","4","5","5","5","6","2","3","1","4","4","3","2","3","5","775504684868964354","黄","416","Male","[""坏我"",""好他"",""好我"",""坏他""]","[""弱我"",""强他"",""强我"",""弱他""]","","","","","","","","match","","","","","","","","","","key","f","16.672517543859534","768","428","f","true","match","img/diamond.png","好他","好他","prac_ALT2_moral","practice_moral","","","","","","","","",""
"null","<span style='color:GreenYellow; font-size: 70px;'>正确! </span>","null","html-keyboard-response","61","183216","0.0-8.0-0.0-1.0-0.0-1.25","6","6","7","5","5","4","3","5","4","5","4","0","0","1","1","0","1","2","1","5","4","5","4","5","3","4","4","5","4","6","5","5","6","5","6","5","6","6","5","5","4","6","5","5","5","6","5","6","1","5","4","4","3","6","6","5","3","3","5","6","5","6","6","4","5","4","5","5","5","6","2","3","1","4","4","3","2","3","5","775504684868964354","黄","416","Male","[""坏我"",""好他"",""好我"",""坏他""]","[""弱我"",""强他"",""强我"",""弱他""]","","","","","","","","","","","","","","","","","","","","","","","","","","","","","","feedback_test","","","","","","","","",""
"829","","f","psychophysics","62","185047","0.0-8.0-0.0-1.0-0.0-0.26","6","6","7","5","5","4","3","5","4","5","4","0","0","1","1","0","1","2","1","5","4","5","4","5","3","4","4","5","4","6","5","5","6","5","6","5","6","6","5","5","4","6","5","5","5","6","5","6","1","5","4","4","3","6","6","5","3","3","5","6","5","6","6","4","5","4","5","5","5","6","2","3","1","4","4","3","2","3","5","775504684868964354","黄","416","Male","[""坏我"",""好他"",""好我"",""坏他""]","[""弱我"",""强他"",""强我"",""弱他""]","","","","","","","","match","","","","","","","","","","key","f","16.67111111111094","768","428","f","true","match","img/circle.png","坏我","坏我","prac_ALT2_moral","practice_moral","","","","","","","","",""
"null","<span style='color:GreenYellow; font-size: 70px;'>正确! </span>","null","html-keyboard-response","63","185550","0.0-8.0-0.0-1.0-0.0-1.26","6","6","7","5","5","4","3","5","4","5","4","0","0","1","1","0","1","2","1","5","4","5","4","5","3","4","4","5","4","6","5","5","6","5","6","5","6","6","5","5","4","6","5","5","5","6","5","6","1","5","4","4","3","6","6","5","3","3","5","6","5","6","6","4","5","4","5","5","5","6","2","3","1","4","4","3","2","3","5","775504684868964354","黄","416","Male","[""坏我"",""好他"",""好我"",""坏他""]","[""弱我"",""强他"",""强我"",""弱他""]","","","","","","","","","","","","","","","","","","","","","","","","","","","","","","feedback_test","","","","","","","","",""
"688","","f","psychophysics","64","187242","0.0-8.0-0.0-1.0-0.0-0.27","6","6","7","5","5","4","3","5","4","5","4","0","0","1","1","0","1","2","1","5","4","5","4","5","3","4","4","5","4","6","5","5","6","5","6","5","6","6","5","5","4","6","5","5","5","6","5","6","1","5","4","4","3","6","6","5","3","3","5","6","5","6","6","4","5","4","5","5","5","6","2","3","1","4","4","3","2","3","5","775504684868964354","黄","416","Male","[""坏我"",""好他"",""好我"",""坏他""]","[""弱我"",""强他"",""强我"",""弱他""]","","","","","","","","match","","","","","","","","","","key","f","16.66810891089101","768","428","j","false","nonmatch","img/diamond.png","坏他","好他","prac_ALT2_moral","practice_moral","","","","","","","","",""
"null","<span style='color:red; font-size: 70px;'>错误! </span>","null","html-keyboard-response","65","187744","0.0-8.0-0.0-1.0-0.0-1.27","6","6","7","5","5","4","3","5","4","5","4","0","0","1","1","0","1","2","1","5","4","5","4","5","3","4","4","5","4","6","5","5","6","5","6","5","6","6","5","5","4","6","5","5","5","6","5","6","1","5","4","4","3","6","6","5","3","3","5","6","5","6","6","4","5","4","5","5","5","6","2","3","1","4","4","3","2","3","5","775504684868964354","黄","416","Male","[""坏我"",""好他"",""好我"",""坏他""]","[""弱我"",""强他"",""强我"",""弱他""]","","","","","","","","","","","","","","","","","","","","","","","","","","","","","","feedback_test","","","","","","","","",""
"734","","f","psychophysics","66","189483","0.0-8.0-0.0-1.0-0.0-0.28","6","6","7","5","5","4","3","5","4","5","4","0","0","1","1","0","1","2","1","5","4","5","4","5","3","4","4","5","4","6","5","5","6","5","6","5","6","6","5","5","4","6","5","5","5","6","5","6","1","5","4","4","3","6","6","5","3","3","5","6","5","6","6","4","5","4","5","5","5","6","2","3","1","4","4","3","2","3","5","775504684868964354","黄","416","Male","[""坏我"",""好他"",""好我"",""坏他""]","[""弱我"",""强他"",""强我"",""弱他""]","","","","","","","","match","","","","","","","","","","key","f","16.670543689320308","768","428","j","false","nonmatch","img/pentagon.png","坏我","好我","prac_ALT2_moral","practice_moral","","","","","","","","",""
"null","<span style='color:red; font-size: 70px;'>错误! </span>","null","html-keyboard-response","67","189985","0.0-8.0-0.0-1.0-0.0-1.28","6","6","7","5","5","4","3","5","4","5","4","0","0","1","1","0","1","2","1","5","4","5","4","5","3","4","4","5","4","6","5","5","6","5","6","5","6","6","5","5","4","6","5","5","5","6","5","6","1","5","4","4","3","6","6","5","3","3","5","6","5","6","6","4","5","4","5","5","5","6","2","3","1","4","4","3","2","3","5","775504684868964354","黄","416","Male","[""坏我"",""好他"",""好我"",""坏他""]","[""弱我"",""强他"",""强我"",""弱他""]","","","","","","","","","","","","","","","","","","","","","","","","","","","","","","feedback_test","","","","","","","","",""
"643","","f","psychophysics","68","191632","0.0-8.0-0.0-1.0-0.0-0.29","6","6","7","5","5","4","3","5","4","5","4","0","0","1","1","0","1","2","1","5","4","5","4","5","3","4","4","5","4","6","5","5","6","5","6","5","6","6","5","5","4","6","5","5","5","6","5","6","1","5","4","4","3","6","6","5","3","3","5","6","5","6","6","4","5","4","5","5","5","6","2","3","1","4","4","3","2","3","5","775504684868964354","黄","416","Male","[""坏我"",""好他"",""好我"",""坏他""]","[""弱我"",""强他"",""强我"",""弱他""]","","","","","","","","match","","","","","","","","","","key","f","16.66987755102027","768","428","j","false","nonmatch","img/circle.png","好我","坏我","prac_ALT2_moral","practice_moral","","","","","","","","",""
"null","<span style='color:red; font-size: 70px;'>错误! </span>","null","html-keyboard-response","69","192146","0.0-8.0-0.0-1.0-0.0-1.29","6","6","7","5","5","4","3","5","4","5","4","0","0","1","1","0","1","2","1","5","4","5","4","5","3","4","4","5","4","6","5","5","6","5","6","5","6","6","5","5","4","6","5","5","5","6","5","6","1","5","4","4","3","6","6","5","3","3","5","6","5","6","6","4","5","4","5","5","5","6","2","3","1","4","4","3","2","3","5","775504684868964354","黄","416","Male","[""坏我"",""好他"",""好我"",""坏他""]","[""弱我"",""强他"",""强我"",""弱他""]","","","","","","","","","","","","","","","","","","","","","","","","","","","","","","feedback_test","","","","","","","","",""
"1116","","j","psychophysics","70","194266","0.0-8.0-0.0-1.0-0.0-0.30","6","6","7","5","5","4","3","5","4","5","4","0","0","1","1","0","1","2","1","5","4","5","4","5","3","4","4","5","4","6","5","5","6","5","6","5","6","6","5","5","4","6","5","5","5","6","5","6","1","5","4","4","3","6","6","5","3","3","5","6","5","6","6","4","5","4","5","5","5","6","2","3","1","4","4","3","2","3","5","775504684868964354","黄","416","Male","[""坏我"",""好他"",""好我"",""坏他""]","[""弱我"",""强他"",""强我"",""弱他""]","","","","","","","","nonmatch","","","","","","","","","","key","j","16.671634920635068","768","428","j","true","nonmatch","img/square.png","好他","坏他","prac_ALT2_moral","practice_moral","","","","","","","","",""
"null","<span style='color:GreenYellow; font-size: 70px;'>正确! </span>","null","html-keyboard-response","71","194768","0.0-8.0-0.0-1.0-0.0-1.30","6","6","7","5","5","4","3","5","4","5","4","0","0","1","1","0","1","2","1","5","4","5","4","5","3","4","4","5","4","6","5","5","6","5","6","5","6","6","5","5","4","6","5","5","5","6","5","6","1","5","4","4","3","6","6","5","3","3","5","6","5","6","6","4","5","4","5","5","5","6","2","3","1","4","4","3","2","3","5","775504684868964354","黄","416","Male","[""坏我"",""好他"",""好我"",""坏他""]","[""弱我"",""强他"",""强我"",""弱他""]","","","","","","","","","","","","","","","","","","","","","","","","","","","","","","feedback_test","","","","","","","","",""
"1042","","j","psychophysics","72","196814","0.0-8.0-0.0-1.0-0.0-0.31","6","6","7","5","5","4","3","5","4","5","4","0","0","1","1","0","1","2","1","5","4","5","4","5","3","4","4","5","4","6","5","5","6","5","6","5","6","6","5","5","4","6","5","5","5","6","5","6","1","5","4","4","3","6","6","5","3","3","5","6","5","6","6","4","5","4","5","5","5","6","2","3","1","4","4","3","2","3","5","775504684868964354","黄","416","Male","[""坏我"",""好他"",""好我"",""坏他""]","[""弱我"",""强他"",""强我"",""弱他""]","","","","","","","","nonmatch","","","","","","","","","","key","j","16.672578512396797","768","428","j","true","nonmatch","img/diamond.png","坏我","好他","prac_ALT2_moral","practice_moral","","","","","","","","",""
"null","<span style='color:GreenYellow; font-size: 70px;'>正确! </span>","null","html-keyboard-response","73","197317","0.0-8.0-0.0-1.0-0.0-1.31","6","6","7","5","5","4","3","5","4","5","4","0","0","1","1","0","1","2","1","5","4","5","4","5","3","4","4","5","4","6","5","5","6","5","6","5","6","6","5","5","4","6","5","5","5","6","5","6","1","5","4","4","3","6","6","5","3","3","5","6","5","6","6","4","5","4","5","5","5","6","2","3","1","4","4","3","2","3","5","775504684868964354","黄","416","Male","[""坏我"",""好他"",""好我"",""坏他""]","[""弱我"",""强他"",""强我"",""弱他""]","","","","","","","","","","","","","","","","","","","","","","","","","","","","","","feedback_test","","","","","","","","",""
"940","","f","psychophysics","74","199261","0.0-8.0-0.0-1.0-0.0-0.32","6","6","7","5","5","4","3","5","4","5","4","0","0","1","1","0","1","2","1","5","4","5","4","5","3","4","4","5","4","6","5","5","6","5","6","5","6","6","5","5","4","6","5","5","5","6","5","6","1","5","4","4","3","6","6","5","3","3","5","6","5","6","6","4","5","4","5","5","5","6","2","3","1","4","4","3","2","3","5","775504684868964354","黄","416","Male","[""坏我"",""好他"",""好我"",""坏他""]","[""弱我"",""强他"",""强我"",""弱他""]","","","","","","","","match","","","","","","","","","","key","f","16.66779310344834","768","428","f","true","match","img/square.png","坏他","坏他","prac_ALT2_moral","practice_moral","","","","","","","","",""
"null","<span style='color:GreenYellow; font-size: 70px;'>正确! </span>","null","html-keyboard-response","75","199763","0.0-8.0-0.0-1.0-0.0-1.32","6","6","7","5","5","4","3","5","4","5","4","0","0","1","1","0","1","2","1","5","4","5","4","5","3","4","4","5","4","6","5","5","6","5","6","5","6","6","5","5","4","6","5","5","5","6","5","6","1","5","4","4","3","6","6","5","3","3","5","6","5","6","6","4","5","4","5","5","5","6","2","3","1","4","4","3","2","3","5","775504684868964354","黄","416","Male","[""坏我"",""好他"",""好我"",""坏他""]","[""弱我"",""强他"",""强我"",""弱他""]","","","","","","","","","","","","","","","","","","","","","","","","","","","","","","feedback_test","","","","","","","","",""
"760","","f","psychophysics","76","201527","0.0-8.0-0.0-1.0-0.0-0.33","6","6","7","5","5","4","3","5","4","5","4","0","0","1","1","0","1","2","1","5","4","5","4","5","3","4","4","5","4","6","5","5","6","5","6","5","6","6","5","5","4","6","5","5","5","6","5","6","1","5","4","4","3","6","6","5","3","3","5","6","5","6","6","4","5","4","5","5","5","6","2","3","1","4","4","3","2","3","5","775504684868964354","黄","416","Male","[""坏我"",""好他"",""好我"",""坏他""]","[""弱我"",""强他"",""强我"",""弱他""]","","","","","","","","match","","","","","","","","","","key","f","16.668171428571387","768","428","f","true","match","img/pentagon.png","好我","好我","prac_ALT2_moral","practice_moral","","","","","","","","",""
"null","<span style='color:GreenYellow; font-size: 70px;'>正确! </span>","null","html-keyboard-response","77","202031","0.0-8.0-0.0-1.0-0.0-1.33","6","6","7","5","5","4","3","5","4","5","4","0","0","1","1","0","1","2","1","5","4","5","4","5","3","4","4","5","4","6","5","5","6","5","6","5","6","6","5","5","4","6","5","5","5","6","5","6","1","5","4","4","3","6","6","5","3","3","5","6","5","6","6","4","5","4","5","5","5","6","2","3","1","4","4","3","2","3","5","775504684868964354","黄","416","Male","[""坏我"",""好他"",""好我"",""坏他""]","[""弱我"",""强他"",""强我"",""弱他""]","","","","","","","","","","","","","","","","","","","","","","","","","","","","","","feedback_test","","","","","","","","",""
"754","","f","psychophysics","78","203789","0.0-8.0-0.0-1.0-0.0-0.34","6","6","7","5","5","4","3","5","4","5","4","0","0","1","1","0","1","2","1","5","4","5","4","5","3","4","4","5","4","6","5","5","6","5","6","5","6","6","5","5","4","6","5","5","5","6","5","6","1","5","4","4","3","6","6","5","3","3","5","6","5","6","6","4","5","4","5","5","5","6","2","3","1","4","4","3","2","3","5","775504684868964354","黄","416","Male","[""坏我"",""好他"",""好我"",""坏他""]","[""弱我"",""强他"",""强我"",""弱他""]","","","","","","","","match","","","","","","","","","","key","f","16.667961538461476","768","428","f","true","match","img/diamond.png","好他","好他","prac_ALT2_moral","practice_moral","","","","","","","","",""
"null","<span style='color:GreenYellow; font-size: 70px;'>正确! </span>","null","html-keyboard-response","79","204299","0.0-8.0-0.0-1.0-0.0-1.34","6","6","7","5","5","4","3","5","4","5","4","0","0","1","1","0","1","2","1","5","4","5","4","5","3","4","4","5","4","6","5","5","6","5","6","5","6","6","5","5","4","6","5","5","5","6","5","6","1","5","4","4","3","6","6","5","3","3","5","6","5","6","6","4","5","4","5","5","5","6","2","3","1","4","4","3","2","3","5","775504684868964354","黄","416","Male","[""坏我"",""好他"",""好我"",""坏他""]","[""弱我"",""强他"",""强我"",""弱他""]","","","","","","","","","","","","","","","","","","","","","","","","","","","","","","feedback_test","","","","","","","","",""
"813","","j","psychophysics","80","206118","0.0-8.0-0.0-1.0-0.0-0.35","6","6","7","5","5","4","3","5","4","5","4","0","0","1","1","0","1","2","1","5","4","5","4","5","3","4","4","5","4","6","5","5","6","5","6","5","6","6","5","5","4","6","5","5","5","6","5","6","1","5","4","4","3","6","6","5","3","3","5","6","5","6","6","4","5","4","5","5","5","6","2","3","1","4","4","3","2","3","5","775504684868964354","黄","416","Male","[""坏我"",""好他"",""好我"",""坏他""]","[""弱我"",""强他"",""强我"",""弱他""]","","","","","","","","nonmatch","","","","","","","","","","key","j","16.672027777777757","768","428","j","true","nonmatch","img/circle.png","好他","坏我","prac_ALT2_moral","practice_moral","","","","","","","","",""
"null","<span style='color:GreenYellow; font-size: 70px;'>正确! </span>","null","html-keyboard-response","81","206620","0.0-8.0-0.0-1.0-0.0-1.35","6","6","7","5","5","4","3","5","4","5","4","0","0","1","1","0","1","2","1","5","4","5","4","5","3","4","4","5","4","6","5","5","6","5","6","5","6","6","5","5","4","6","5","5","5","6","5","6","1","5","4","4","3","6","6","5","3","3","5","6","5","6","6","4","5","4","5","5","5","6","2","3","1","4","4","3","2","3","5","775504684868964354","黄","416","Male","[""坏我"",""好他"",""好我"",""坏他""]","[""弱我"",""强他"",""强我"",""弱他""]","","","","","","","","","","","","","","","","","","","","","","","","","","","","","","feedback_test","","","","","","","","",""
"960","","j","psychophysics","82","208585","0.0-8.0-0.0-1.0-0.0-0.36","6","6","7","5","5","4","3","5","4","5","4","0","0","1","1","0","1","2","1","5","4","5","4","5","3","4","4","5","4","6","5","5","6","5","6","5","6","6","5","5","4","6","5","5","5","6","5","6","1","5","4","4","3","6","6","5","3","3","5","6","5","6","6","4","5","4","5","5","5","6","2","3","1","4","4","3","2","3","5","775504684868964354","黄","416","Male","[""坏我"",""好他"",""好我"",""坏他""]","[""弱我"",""强他"",""强我"",""弱他""]","","","","","","","","nonmatch","","","","","","","","","","key","j","16.606887931034525","768","428","j","true","nonmatch","img/pentagon.png","好他","好我","prac_ALT2_moral","practice_moral","","","","","","","","",""
"null","<span style='color:GreenYellow; font-size: 70px;'>正确! </span>","null","html-keyboard-response","83","209088","0.0-8.0-0.0-1.0-0.0-1.36","6","6","7","5","5","4","3","5","4","5","4","0","0","1","1","0","1","2","1","5","4","5","4","5","3","4","4","5","4","6","5","5","6","5","6","5","6","6","5","5","4","6","5","5","5","6","5","6","1","5","4","4","3","6","6","5","3","3","5","6","5","6","6","4","5","4","5","5","5","6","2","3","1","4","4","3","2","3","5","775504684868964354","黄","416","Male","[""坏我"",""好他"",""好我"",""坏他""]","[""弱我"",""强他"",""强我"",""弱他""]","","","","","","","","","","","","","","","","","","","","","","","","","","","","","","feedback_test","","","","","","","","",""
"891","","f","psychophysics","84","210983","0.0-8.0-0.0-1.0-0.0-0.37","6","6","7","5","5","4","3","5","4","5","4","0","0","1","1","0","1","2","1","5","4","5","4","5","3","4","4","5","4","6","5","5","6","5","6","5","6","6","5","5","4","6","5","5","5","6","5","6","1","5","4","4","3","6","6","5","3","3","5","6","5","6","6","4","5","4","5","5","5","6","2","3","1","4","4","3","2","3","5","775504684868964354","黄","416","Male","[""坏我"",""好他"",""好我"",""坏他""]","[""弱我"",""强他"",""强我"",""弱他""]","","","","","","","","match","","","","","","","","","","key","f","16.668214285714253","768","428","f","true","match","img/diamond.png","好他","好他","prac_ALT2_moral","practice_moral","","","","","","","","",""
"null","<span style='color:GreenYellow; font-size: 70px;'>正确! </span>","null","html-keyboard-response","85","211486","0.0-8.0-0.0-1.0-0.0-1.37","6","6","7","5","5","4","3","5","4","5","4","0","0","1","1","0","1","2","1","5","4","5","4","5","3","4","4","5","4","6","5","5","6","5","6","5","6","6","5","5","4","6","5","5","5","6","5","6","1","5","4","4","3","6","6","5","3","3","5","6","5","6","6","4","5","4","5","5","5","6","2","3","1","4","4","3","2","3","5","775504684868964354","黄","416","Male","[""坏我"",""好他"",""好我"",""坏他""]","[""弱我"",""强他"",""强我"",""弱他""]","","","","","","","","","","","","","","","","","","","","","","","","","","","","","","feedback_test","","","","","","","","",""
"670","","f","psychophysics","86","213159","0.0-8.0-0.0-1.0-0.0-0.38","6","6","7","5","5","4","3","5","4","5","4","0","0","1","1","0","1","2","1","5","4","5","4","5","3","4","4","5","4","6","5","5","6","5","6","5","6","6","5","5","4","6","5","5","5","6","5","6","1","5","4","4","3","6","6","5","3","3","5","6","5","6","6","4","5","4","5","5","5","6","2","3","1","4","4","3","2","3","5","775504684868964354","黄","416","Male","[""坏我"",""好他"",""好我"",""坏他""]","[""弱我"",""强他"",""强我"",""弱他""]","","","","","","","","match","","","","","","","","","","key","f","16.671659999999974","768","428","f","true","match","img/pentagon.png","好我","好我","prac_ALT2_moral","practice_moral","","","","","","","","",""
"null","<span style='color:GreenYellow; font-size: 70px;'>正确! </span>","null","html-keyboard-response","87","213667","0.0-8.0-0.0-1.0-0.0-1.38","6","6","7","5","5","4","3","5","4","5","4","0","0","1","1","0","1","2","1","5","4","5","4","5","3","4","4","5","4","6","5","5","6","5","6","5","6","6","5","5","4","6","5","5","5","6","5","6","1","5","4","4","3","6","6","5","3","3","5","6","5","6","6","4","5","4","5","5","5","6","2","3","1","4","4","3","2","3","5","775504684868964354","黄","416","Male","[""坏我"",""好他"",""好我"",""坏他""]","[""弱我"",""强他"",""强我"",""弱他""]","","","","","","","","","","","","","","","","","","","","","","","","","","","","","","feedback_test","","","","","","","","",""
"830","","f","psychophysics","88","215503","0.0-8.0-0.0-1.0-0.0-0.39","6","6","7","5","5","4","3","5","4","5","4","0","0","1","1","0","1","2","1","5","4","5","4","5","3","4","4","5","4","6","5","5","6","5","6","5","6","6","5","5","4","6","5","5","5","6","5","6","1","5","4","4","3","6","6","5","3","3","5","6","5","6","6","4","5","4","5","5","5","6","2","3","1","4","4","3","2","3","5","775504684868964354","黄","416","Male","[""坏我"",""好他"",""好我"",""坏他""]","[""弱我"",""强他"",""强我"",""弱他""]","","","","","","","","match","","","","","","","","","","key","f","16.672277777777776","768","428","f","true","match","img/pentagon.png","好我","好我","prac_ALT2_moral","practice_moral","","","","","","","","",""
"null","<span style='color:GreenYellow; font-size: 70px;'>正确! </span>","null","html-keyboard-response","89","216006","0.0-8.0-0.0-1.0-0.0-1.39","6","6","7","5","5","4","3","5","4","5","4","0","0","1","1","0","1","2","1","5","4","5","4","5","3","4","4","5","4","6","5","5","6","5","6","5","6","6","5","5","4","6","5","5","5","6","5","6","1","5","4","4","3","6","6","5","3","3","5","6","5","6","6","4","5","4","5","5","5","6","2","3","1","4","4","3","2","3","5","775504684868964354","黄","416","Male","[""坏我"",""好他"",""好我"",""坏他""]","[""弱我"",""强他"",""强我"",""弱他""]","","","","","","","","","","","","","","","","","","","","","","","","","","","","","","feedback_test","","","","","","","","",""
"815","","f","psychophysics","90","217825","0.0-8.0-0.0-1.0-0.0-0.40","6","6","7","5","5","4","3","5","4","5","4","0","0","1","1","0","1","2","1","5","4","5","4","5","3","4","4","5","4","6","5","5","6","5","6","5","6","6","5","5","4","6","5","5","5","6","5","6","1","5","4","4","3","6","6","5","3","3","5","6","5","6","6","4","5","4","5","5","5","6","2","3","1","4","4","3","2","3","5","775504684868964354","黄","416","Male","[""坏我"",""好他"",""好我"",""坏他""]","[""弱我"",""强他"",""强我"",""弱他""]","","","","","","","","match","","","","","","","","","","key","f","16.673084112149436","768","428","f","true","match","img/square.png","坏他","坏他","prac_ALT2_moral","practice_moral","","","","","","","","",""
"null","<span style='color:GreenYellow; font-size: 70px;'>正确! </span>","null","html-keyboard-response","91","218328","0.0-8.0-0.0-1.0-0.0-1.40","6","6","7","5","5","4","3","5","4","5","4","0","0","1","1","0","1","2","1","5","4","5","4","5","3","4","4","5","4","6","5","5","6","5","6","5","6","6","5","5","4","6","5","5","5","6","5","6","1","5","4","4","3","6","6","5","3","3","5","6","5","6","6","4","5","4","5","5","5","6","2","3","1","4","4","3","2","3","5","775504684868964354","黄","416","Male","[""坏我"",""好他"",""好我"",""坏他""]","[""弱我"",""强他"",""强我"",""弱他""]","","","","","","","","","","","","","","","","","","","","","","","","","","","","","","feedback_test","","","","","","","","",""
"773","","j","psychophysics","92","220105","0.0-8.0-0.0-1.0-0.0-0.41","6","6","7","5","5","4","3","5","4","5","4","0","0","1","1","0","1","2","1","5","4","5","4","5","3","4","4","5","4","6","5","5","6","5","6","5","6","6","5","5","4","6","5","5","5","6","5","6","1","5","4","4","3","6","6","5","3","3","5","6","5","6","6","4","5","4","5","5","5","6","2","3","1","4","4","3","2","3","5","775504684868964354","黄","416","Male","[""坏我"",""好他"",""好我"",""坏他""]","[""弱我"",""强他"",""强我"",""弱他""]","","","","","","","","nonmatch","","","","","","","","","","key","j","16.673142857143066","768","428","j","true","nonmatch","img/pentagon.png","坏他","好我","prac_ALT2_moral","practice_moral","","","","","","","","",""
"null","<span style='color:GreenYellow; font-size: 70px;'>正确! </span>","null","html-keyboard-response","93","220608","0.0-8.0-0.0-1.0-0.0-1.41","6","6","7","5","5","4","3","5","4","5","4","0","0","1","1","0","1","2","1","5","4","5","4","5","3","4","4","5","4","6","5","5","6","5","6","5","6","6","5","5","4","6","5","5","5","6","5","6","1","5","4","4","3","6","6","5","3","3","5","6","5","6","6","4","5","4","5","5","5","6","2","3","1","4","4","3","2","3","5","775504684868964354","黄","416","Male","[""坏我"",""好他"",""好我"",""坏他""]","[""弱我"",""强他"",""强我"",""弱他""]","","","","","","","","","","","","","","","","","","","","","","","","","","","","","","feedback_test","","","","","","","","",""
"887","","f","psychophysics","94","222498","0.0-8.0-0.0-1.0-0.0-0.42","6","6","7","5","5","4","3","5","4","5","4","0","0","1","1","0","1","2","1","5","4","5","4","5","3","4","4","5","4","6","5","5","6","5","6","5","6","6","5","5","4","6","5","5","5","6","5","6","1","5","4","4","3","6","6","5","3","3","5","6","5","6","6","4","5","4","5","5","5","6","2","3","1","4","4","3","2","3","5","775504684868964354","黄","416","Male","[""坏我"",""好他"",""好我"",""坏他""]","[""弱我"",""强他"",""强我"",""弱他""]","","","","","","","","match","","","","","","","","","","key","f","16.67292857142872","768","428","f","true","match","img/square.png","坏他","坏他","prac_ALT2_moral","practice_moral","","","","","","","","",""
"null","<span style='color:GreenYellow; font-size: 70px;'>正确! </span>","null","html-keyboard-response","95","223009","0.0-8.0-0.0-1.0-0.0-1.42","6","6","7","5","5","4","3","5","4","5","4","0","0","1","1","0","1","2","1","5","4","5","4","5","3","4","4","5","4","6","5","5","6","5","6","5","6","6","5","5","4","6","5","5","5","6","5","6","1","5","4","4","3","6","6","5","3","3","5","6","5","6","6","4","5","4","5","5","5","6","2","3","1","4","4","3","2","3","5","775504684868964354","黄","416","Male","[""坏我"",""好他"",""好我"",""坏他""]","[""弱我"",""强他"",""强我"",""弱他""]","","","","","","","","","","","","","","","","","","","","","","","","","","","","","","feedback_test","","","","","","","","",""
"842","","f","psychophysics","96","224854","0.0-8.0-0.0-1.0-0.0-0.43","6","6","7","5","5","4","3","5","4","5","4","0","0","1","1","0","1","2","1","5","4","5","4","5","3","4","4","5","4","6","5","5","6","5","6","5","6","6","5","5","4","6","5","5","5","6","5","6","1","5","4","4","3","6","6","5","3","3","5","6","5","6","6","4","5","4","5","5","5","6","2","3","1","4","4","3","2","3","5","775504684868964354","黄","416","Male","[""坏我"",""好他"",""好我"",""坏他""]","[""弱我"",""强他"",""强我"",""弱他""]","","","","","","","","match","","","","","","","","","","key","f","16.672467889908248","768","428","f","true","match","img/circle.png","坏我","坏我","prac_ALT2_moral","practice_moral","","","","","","","","",""
"null","<span style='color:GreenYellow; font-size: 70px;'>正确! </span>","null","html-keyboard-response","97","225357","0.0-8.0-0.0-1.0-0.0-1.43","6","6","7","5","5","4","3","5","4","5","4","0","0","1","1","0","1","2","1","5","4","5","4","5","3","4","4","5","4","6","5","5","6","5","6","5","6","6","5","5","4","6","5","5","5","6","5","6","1","5","4","4","3","6","6","5","3","3","5","6","5","6","6","4","5","4","5","5","5","6","2","3","1","4","4","3","2","3","5","775504684868964354","黄","416","Male","[""坏我"",""好他"",""好我"",""坏他""]","[""弱我"",""强他"",""强我"",""弱他""]","","","","","","","","","","","","","","","","","","","","","","","","","","","","","","feedback_test","","","","","","","","",""
"880","","j","psychophysics","98","227240","0.0-8.0-0.0-1.0-0.0-0.44","6","6","7","5","5","4","3","5","4","5","4","0","0","1","1","0","1","2","1","5","4","5","4","5","3","4","4","5","4","6","5","5","6","5","6","5","6","6","5","5","4","6","5","5","5","6","5","6","1","5","4","4","3","6","6","5","3","3","5","6","5","6","6","4","5","4","5","5","5","6","2","3","1","4","4","3","2","3","5","775504684868964354","黄","416","Male","[""坏我"",""好他"",""好我"",""坏他""]","[""弱我"",""强他"",""强我"",""弱他""]","","","","","","","","nonmatch","","","","","","","","","","key","j","16.667657657657795","768","428","j","true","nonmatch","img/circle.png","坏他","坏我","prac_ALT2_moral","practice_moral","","","","","","","","",""
"null","<span style='color:GreenYellow; font-size: 70px;'>正确! </span>","null","html-keyboard-response","99","227757","0.0-8.0-0.0-1.0-0.0-1.44","6","6","7","5","5","4","3","5","4","5","4","0","0","1","1","0","1","2","1","5","4","5","4","5","3","4","4","5","4","6","5","5","6","5","6","5","6","6","5","5","4","6","5","5","5","6","5","6","1","5","4","4","3","6","6","5","3","3","5","6","5","6","6","4","5","4","5","5","5","6","2","3","1","4","4","3","2","3","5","775504684868964354","黄","416","Male","[""坏我"",""好他"",""好我"",""坏他""]","[""弱我"",""强他"",""强我"",""弱他""]","","","","","","","","","","","","","","","","","","","","","","","","","","","","","","feedback_test","","","","","","","","",""
"938","","j","psychophysics","100","229699","0.0-8.0-0.0-1.0-0.0-0.45","6","6","7","5","5","4","3","5","4","5","4","0","0","1","1","0","1","2","1","5","4","5","4","5","3","4","4","5","4","6","5","5","6","5","6","5","6","6","5","5","4","6","5","5","5","6","5","6","1","5","4","4","3","6","6","5","3","3","5","6","5","6","6","4","5","4","5","5","5","6","2","3","1","4","4","3","2","3","5","775504684868964354","黄","416","Male","[""坏我"",""好他"",""好我"",""坏他""]","[""弱我"",""强他"",""强我"",""弱他""]","","","","","","","","nonmatch","","","","","","","","","","key","j","16.667504347826142","768","428","j","true","nonmatch","img/diamond.png","好我","好他","prac_ALT2_moral","practice_moral","","","","","","","","",""
"null","<span style='color:GreenYellow; font-size: 70px;'>正确! </span>","null","html-keyboard-response","101","230201","0.0-8.0-0.0-1.0-0.0-1.45","6","6","7","5","5","4","3","5","4","5","4","0","0","1","1","0","1","2","1","5","4","5","4","5","3","4","4","5","4","6","5","5","6","5","6","5","6","6","5","5","4","6","5","5","5","6","5","6","1","5","4","4","3","6","6","5","3","3","5","6","5","6","6","4","5","4","5","5","5","6","2","3","1","4","4","3","2","3","5","775504684868964354","黄","416","Male","[""坏我"",""好他"",""好我"",""坏他""]","[""弱我"",""强他"",""强我"",""弱他""]","","","","","","","","","","","","","","","","","","","","","","","","","","","","","","feedback_test","","","","","","","","",""
"1047","","j","psychophysics","102","232252","0.0-8.0-0.0-1.0-0.0-0.46","6","6","7","5","5","4","3","5","4","5","4","0","0","1","1","0","1","2","1","5","4","5","4","5","3","4","4","5","4","6","5","5","6","5","6","5","6","6","5","5","4","6","5","5","5","6","5","6","1","5","4","4","3","6","6","5","3","3","5","6","5","6","6","4","5","4","5","5","5","6","2","3","1","4","4","3","2","3","5","775504684868964354","黄","416","Male","[""坏我"",""好他"",""好我"",""坏他""]","[""弱我"",""强他"",""强我"",""弱他""]","","","","","","","","nonmatch","","","","","","","","","","key","j","16.67074380165292","768","428","j","true","nonmatch","img/square.png","好我","坏他","prac_ALT2_moral","practice_moral","","","","","","","","",""
"null","<span style='color:GreenYellow; font-size: 70px;'>正确! </span>","null","html-keyboard-response","103","232755","0.0-8.0-0.0-1.0-0.0-1.46","6","6","7","5","5","4","3","5","4","5","4","0","0","1","1","0","1","2","1","5","4","5","4","5","3","4","4","5","4","6","5","5","6","5","6","5","6","6","5","5","4","6","5","5","5","6","5","6","1","5","4","4","3","6","6","5","3","3","5","6","5","6","6","4","5","4","5","5","5","6","2","3","1","4","4","3","2","3","5","775504684868964354","黄","416","Male","[""坏我"",""好他"",""好我"",""坏他""]","[""弱我"",""强他"",""强我"",""弱他""]","","","","","","","","","","","","","","","","","","","","","","","","","","","","","","feedback_test","","","","","","","","",""
"977","","j","psychophysics","104","234735","0.0-8.0-0.0-1.0-0.0-0.47","6","6","7","5","5","4","3","5","4","5","4","0","0","1","1","0","1","2","1","5","4","5","4","5","3","4","4","5","4","6","5","5","6","5","6","5","6","6","5","5","4","6","5","5","5","6","5","6","1","5","4","4","3","6","6","5","3","3","5","6","5","6","6","4","5","4","5","5","5","6","2","3","1","4","4","3","2","3","5","775504684868964354","黄","416","Male","[""坏我"",""好他"",""好我"",""坏他""]","[""弱我"",""强他"",""强我"",""弱他""]","","","","","","","","nonmatch","","","","","","","","","","key","j","16.608743589743575","768","428","j","true","nonmatch","img/square.png","坏我","坏他","prac_ALT2_moral","practice_moral","","","","","","","","",""
"null","<span style='color:GreenYellow; font-size: 70px;'>正确! </span>","null","html-keyboard-response","105","235237","0.0-8.0-0.0-1.0-0.0-1.47","6","6","7","5","5","4","3","5","4","5","4","0","0","1","1","0","1","2","1","5","4","5","4","5","3","4","4","5","4","6","5","5","6","5","6","5","6","6","5","5","4","6","5","5","5","6","5","6","1","5","4","4","3","6","6","5","3","3","5","6","5","6","6","4","5","4","5","5","5","6","2","3","1","4","4","3","2","3","5","775504684868964354","黄","416","Male","[""坏我"",""好他"",""好我"",""坏他""]","[""弱我"",""强他"",""强我"",""弱他""]","","","","","","","","","","","","","","","","","","","","","","","","","","","","","","feedback_test","","","","","","","","",""
"3726","<style>.context{color:white; font-size: 35px; line-height:40px}</style>                            <div><p class='context'>您正确回答了81% 的试次。</p><p class='context'>您的平均反应时为878毫秒。</p><p class='context'>恭喜您完成练习。按空格键进入正式实验。</p><p class='footer' style='font-size: 35px; line-height:40px;'>请在进入正式实验实验之前将您的<span style='color: lightgreen;'>食指</span>放在电脑键盘的相应键位上进行按键。</p>"," ","html-keyboard-response","106","238975","0.0-8.0-0.0-2.0","6","6","7","5","5","4","3","5","4","5","4","0","0","1","1","0","1","2","1","5","4","5","4","5","3","4","4","5","4","6","5","5","6","5","6","5","6","6","5","5","4","6","5","5","5","6","5","6","1","5","4","4","3","6","6","5","3","3","5","6","5","6","6","4","5","4","5","5","5","6","2","3","1","4","4","3","2","3","5","775504684868964354","黄","416","Male","[""坏我"",""好他"",""好我"",""坏他""]","[""弱我"",""强他"",""强我"",""弱他""]","","","","","","","","","","","","","","","","","","","","","","","","","","","","","","","","","","","","","","",""
"2173","
    <p style='color: white; font-size: 22px'>请您将手指放在按键上，准备进入正式的匹配任务。</p>
    <p> <div style = ""color: green""><按空格键进入下一阶段的匹配任务></div></p>
    "," ","html-keyboard-response","107","241160","0.0-8.0-0.0-3.0","6","6","7","5","5","4","3","5","4","5","4","0","0","1","1","0","1","2","1","5","4","5","4","5","3","4","4","5","4","6","5","5","6","5","6","5","6","6","5","5","4","6","5","5","5","6","5","6","1","5","4","4","3","6","6","5","3","3","5","6","5","6","6","4","5","4","5","5","5","6","2","3","1","4","4","3","2","3","5","775504684868964354","黄","416","Male","[""坏我"",""好他"",""好我"",""坏他""]","[""弱我"",""强他"",""强我"",""弱他""]","","","","","","","","","","","","","","","","","","","","","","","","","","","","","","","","","","","","","","",""
"906","","j","psychophysics","108","243069","0.0-8.0-0.0-4.0-0.0-0.0","6","6","7","5","5","4","3","5","4","5","4","0","0","1","1","0","1","2","1","5","4","5","4","5","3","4","4","5","4","6","5","5","6","5","6","5","6","6","5","5","4","6","5","5","5","6","5","6","1","5","4","4","3","6","6","5","3","3","5","6","5","6","6","4","5","4","5","5","5","6","2","3","1","4","4","3","2","3","5","775504684868964354","黄","416","Male","[""坏我"",""好他"",""好我"",""坏他""]","[""弱我"",""强他"",""强我"",""弱他""]","","","","","","","","nonmatch","","","","","","","","","","key","j","16.672831858407328","768","428","f","false","match","img/square.png","坏他","坏他","ALT2","moral","","","","","","","","",""
"null","<span style='color:red; font-size: 70px;'>错误! </span>","null","html-keyboard-response","109","243571","0.0-8.0-0.0-4.0-0.0-1.0","6","6","7","5","5","4","3","5","4","5","4","0","0","1","1","0","1","2","1","5","4","5","4","5","3","4","4","5","4","6","5","5","6","5","6","5","6","6","5","5","4","6","5","5","5","6","5","6","1","5","4","4","3","6","6","5","3","3","5","6","5","6","6","4","5","4","5","5","5","6","2","3","1","4","4","3","2","3","5","775504684868964354","黄","416","Male","[""坏我"",""好他"",""好我"",""坏他""]","[""弱我"",""强他"",""强我"",""弱他""]","","","","","","","","","","","","","","","","","","","","","","","","","","","","","","feedback_test","","","","","","","","",""
"1024","","f","psychophysics","110","245599","0.0-8.0-0.0-4.0-0.0-0.1","6","6","7","5","5","4","3","5","4","5","4","0","0","1","1","0","1","2","1","5","4","5","4","5","3","4","4","5","4","6","5","5","6","5","6","5","6","6","5","5","4","6","5","5","5","6","5","6","1","5","4","4","3","6","6","5","3","3","5","6","5","6","6","4","5","4","5","5","5","6","2","3","1","4","4","3","2","3","5","775504684868964354","黄","416","Male","[""坏我"",""好他"",""好我"",""坏他""]","[""弱我"",""强他"",""强我"",""弱他""]","","","","","","","","match","","","","","","","","","","key","f","16.667983471074386","768","428","f","true","match","img/diamond.png","好他","好他","ALT2","moral","","","","","","","","",""
"null","<span style='color:GreenYellow; font-size: 70px;'>正确! </span>","null","html-keyboard-response","111","246102","0.0-8.0-0.0-4.0-0.0-1.1","6","6","7","5","5","4","3","5","4","5","4","0","0","1","1","0","1","2","1","5","4","5","4","5","3","4","4","5","4","6","5","5","6","5","6","5","6","6","5","5","4","6","5","5","5","6","5","6","1","5","4","4","3","6","6","5","3","3","5","6","5","6","6","4","5","4","5","5","5","6","2","3","1","4","4","3","2","3","5","775504684868964354","黄","416","Male","[""坏我"",""好他"",""好我"",""坏他""]","[""弱我"",""强他"",""强我"",""弱他""]","","","","","","","","","","","","","","","","","","","","","","","","","","","","","","feedback_test","","","","","","","","",""
"724","","f","psychophysics","112","247830","0.0-8.0-0.0-4.0-0.0-0.2","6","6","7","5","5","4","3","5","4","5","4","0","0","1","1","0","1","2","1","5","4","5","4","5","3","4","4","5","4","6","5","5","6","5","6","5","6","6","5","5","4","6","5","5","5","6","5","6","1","5","4","4","3","6","6","5","3","3","5","6","5","6","6","4","5","4","5","5","5","6","2","3","1","4","4","3","2","3","5","775504684868964354","黄","416","Male","[""坏我"",""好他"",""好我"",""坏他""]","[""弱我"",""强他"",""强我"",""弱他""]","","","","","","","","match","","","","","","","","","","key","f","16.668077669902964","768","428","f","true","match","img/circle.png","坏我","坏我","ALT2","moral","","","","","","","","",""
"null","<span style='color:GreenYellow; font-size: 70px;'>正确! </span>","null","html-keyboard-response","113","248333","0.0-8.0-0.0-4.0-0.0-1.2","6","6","7","5","5","4","3","5","4","5","4","0","0","1","1","0","1","2","1","5","4","5","4","5","3","4","4","5","4","6","5","5","6","5","6","5","6","6","5","5","4","6","5","5","5","6","5","6","1","5","4","4","3","6","6","5","3","3","5","6","5","6","6","4","5","4","5","5","5","6","2","3","1","4","4","3","2","3","5","775504684868964354","黄","416","Male","[""坏我"",""好他"",""好我"",""坏他""]","[""弱我"",""强他"",""强我"",""弱他""]","","","","","","","","","","","","","","","","","","","","","","","","","","","","","","feedback_test","","","","","","","","",""
"826","","f","psychophysics","114","250163","0.0-8.0-0.0-4.0-0.0-0.3","6","6","7","5","5","4","3","5","4","5","4","0","0","1","1","0","1","2","1","5","4","5","4","5","3","4","4","5","4","6","5","5","6","5","6","5","6","6","5","5","4","6","5","5","5","6","5","6","1","5","4","4","3","6","6","5","3","3","5","6","5","6","6","4","5","4","5","5","5","6","2","3","1","4","4","3","2","3","5","775504684868964354","黄","416","Male","[""坏我"",""好他"",""好我"",""坏他""]","[""弱我"",""强他"",""强我"",""弱他""]","","","","","","","","match","","","","","","","","","","key","f","16.673073394495596","768","428","f","true","match","img/diamond.png","好他","好他","ALT2","moral","","","","","","","","",""
"null","<span style='color:GreenYellow; font-size: 70px;'>正确! </span>","null","html-keyboard-response","115","250666","0.0-8.0-0.0-4.0-0.0-1.3","6","6","7","5","5","4","3","5","4","5","4","0","0","1","1","0","1","2","1","5","4","5","4","5","3","4","4","5","4","6","5","5","6","5","6","5","6","6","5","5","4","6","5","5","5","6","5","6","1","5","4","4","3","6","6","5","3","3","5","6","5","6","6","4","5","4","5","5","5","6","2","3","1","4","4","3","2","3","5","775504684868964354","黄","416","Male","[""坏我"",""好他"",""好我"",""坏他""]","[""弱我"",""强他"",""强我"",""弱他""]","","","","","","","","","","","","","","","","","","","","","","","","","","","","","","feedback_test","","","","","","","","",""
"936","","j","psychophysics","116","252611","0.0-8.0-0.0-4.0-0.0-0.4","6","6","7","5","5","4","3","5","4","5","4","0","0","1","1","0","1","2","1","5","4","5","4","5","3","4","4","5","4","6","5","5","6","5","6","5","6","6","5","5","4","6","5","5","5","6","5","6","1","5","4","4","3","6","6","5","3","3","5","6","5","6","6","4","5","4","5","5","5","6","2","3","1","4","4","3","2","3","5","775504684868964354","黄","416","Male","[""坏我"",""好他"",""好我"",""坏他""]","[""弱我"",""强他"",""强我"",""弱他""]","","","","","","","","nonmatch","","","","","","","","","","key","j","16.66804310344842","768","428","j","true","nonmatch","img/square.png","好他","坏他","ALT2","moral","","","","","","","","",""
"null","<span style='color:GreenYellow; font-size: 70px;'>正确! </span>","null","html-keyboard-response","117","253114","0.0-8.0-0.0-4.0-0.0-1.4","6","6","7","5","5","4","3","5","4","5","4","0","0","1","1","0","1","2","1","5","4","5","4","5","3","4","4","5","4","6","5","5","6","5","6","5","6","6","5","5","4","6","5","5","5","6","5","6","1","5","4","4","3","6","6","5","3","3","5","6","5","6","6","4","5","4","5","5","5","6","2","3","1","4","4","3","2","3","5","775504684868964354","黄","416","Male","[""坏我"",""好他"",""好我"",""坏他""]","[""弱我"",""强他"",""强我"",""弱他""]","","","","","","","","","","","","","","","","","","","","","","","","","","","","","","feedback_test","","","","","","","","",""
"660","","f","psychophysics","118","254777","0.0-8.0-0.0-4.0-0.0-0.5","6","6","7","5","5","4","3","5","4","5","4","0","0","1","1","0","1","2","1","5","4","5","4","5","3","4","4","5","4","6","5","5","6","5","6","5","6","6","5","5","4","6","5","5","5","6","5","6","1","5","4","4","3","6","6","5","3","3","5","6","5","6","6","4","5","4","5","5","5","6","2","3","1","4","4","3","2","3","5","775504684868964354","黄","416","Male","[""坏我"",""好他"",""好我"",""坏他""]","[""弱我"",""强他"",""强我"",""弱他""]","","","","","","","","match","","","","","","","","","","key","f","16.66855555555561","768","428","f","true","match","img/circle.png","坏我","坏我","ALT2","moral","","","","","","","","",""
"null","<span style='color:GreenYellow; font-size: 70px;'>正确! </span>","null","html-keyboard-response","119","255280","0.0-8.0-0.0-4.0-0.0-1.5","6","6","7","5","5","4","3","5","4","5","4","0","0","1","1","0","1","2","1","5","4","5","4","5","3","4","4","5","4","6","5","5","6","5","6","5","6","6","5","5","4","6","5","5","5","6","5","6","1","5","4","4","3","6","6","5","3","3","5","6","5","6","6","4","5","4","5","5","5","6","2","3","1","4","4","3","2","3","5","775504684868964354","黄","416","Male","[""坏我"",""好他"",""好我"",""坏他""]","[""弱我"",""强他"",""强我"",""弱他""]","","","","","","","","","","","","","","","","","","","","","","","","","","","","","","feedback_test","","","","","","","","",""
"1026","","j","psychophysics","120","257310","0.0-8.0-0.0-4.0-0.0-0.6","6","6","7","5","5","4","3","5","4","5","4","0","0","1","1","0","1","2","1","5","4","5","4","5","3","4","4","5","4","6","5","5","6","5","6","5","6","6","5","5","4","6","5","5","5","6","5","6","1","5","4","4","3","6","6","5","3","3","5","6","5","6","6","4","5","4","5","5","5","6","2","3","1","4","4","3","2","3","5","775504684868964354","黄","416","Male","[""坏我"",""好他"",""好我"",""坏他""]","[""弱我"",""强他"",""强我"",""弱他""]","","","","","","","","nonmatch","","","","","","","","","","key","j","16.667874999999913","768","428","j","true","nonmatch","img/square.png","好我","坏他","ALT2","moral","","","","","","","","",""
"null","<span style='color:GreenYellow; font-size: 70px;'>正确! </span>","null","html-keyboard-response","121","257824","0.0-8.0-0.0-4.0-0.0-1.6","6","6","7","5","5","4","3","5","4","5","4","0","0","1","1","0","1","2","1","5","4","5","4","5","3","4","4","5","4","6","5","5","6","5","6","5","6","6","5","5","4","6","5","5","5","6","5","6","1","5","4","4","3","6","6","5","3","3","5","6","5","6","6","4","5","4","5","5","5","6","2","3","1","4","4","3","2","3","5","775504684868964354","黄","416","Male","[""坏我"",""好他"",""好我"",""坏他""]","[""弱我"",""强他"",""强我"",""弱他""]","","","","","","","","","","","","","","","","","","","","","","","","","","","","","","feedback_test","","","","","","","","",""
"657","","f","psychophysics","122","259484","0.0-8.0-0.0-4.0-0.0-0.7","6","6","7","5","5","4","3","5","4","5","4","0","0","1","1","0","1","2","1","5","4","5","4","5","3","4","4","5","4","6","5","5","6","5","6","5","6","6","5","5","4","6","5","5","5","6","5","6","1","5","4","4","3","6","6","5","3","3","5","6","5","6","6","4","5","4","5","5","5","6","2","3","1","4","4","3","2","3","5","775504684868964354","黄","416","Male","[""坏我"",""好他"",""好我"",""坏他""]","[""弱我"",""强他"",""强我"",""弱他""]","","","","","","","","match","","","","","","","","","","key","f","16.668346938775432","768","428","j","false","nonmatch","img/circle.png","好我","坏我","ALT2","moral","","","","","","","","",""
"null","<span style='color:red; font-size: 70px;'>错误! </span>","null","html-keyboard-response","123","259987","0.0-8.0-0.0-4.0-0.0-1.7","6","6","7","5","5","4","3","5","4","5","4","0","0","1","1","0","1","2","1","5","4","5","4","5","3","4","4","5","4","6","5","5","6","5","6","5","6","6","5","5","4","6","5","5","5","6","5","6","1","5","4","4","3","6","6","5","3","3","5","6","5","6","6","4","5","4","5","5","5","6","2","3","1","4","4","3","2","3","5","775504684868964354","黄","416","Male","[""坏我"",""好他"",""好我"",""坏他""]","[""弱我"",""强他"",""强我"",""弱他""]","","","","","","","","","","","","","","","","","","","","","","","","","","","","","","feedback_test","","","","","","","","",""
"803","","f","psychophysics","124","261794","0.0-8.0-0.0-4.0-0.0-0.8","6","6","7","5","5","4","3","5","4","5","4","0","0","1","1","0","1","2","1","5","4","5","4","5","3","4","4","5","4","6","5","5","6","5","6","5","6","6","5","5","4","6","5","5","5","6","5","6","1","5","4","4","3","6","6","5","3","3","5","6","5","6","6","4","5","4","5","5","5","6","2","3","1","4","4","3","2","3","5","775504684868964354","黄","416","Male","[""坏我"",""好他"",""好我"",""坏他""]","[""弱我"",""强他"",""强我"",""弱他""]","","","","","","","","match","","","","","","","","","","key","f","16.669175925925728","768","428","j","false","nonmatch","img/diamond.png","好我","好他","ALT2","moral","","","","","","","","",""
"null","<span style='color:red; font-size: 70px;'>错误! </span>","null","html-keyboard-response","125","262299","0.0-8.0-0.0-4.0-0.0-1.8","6","6","7","5","5","4","3","5","4","5","4","0","0","1","1","0","1","2","1","5","4","5","4","5","3","4","4","5","4","6","5","5","6","5","6","5","6","6","5","5","4","6","5","5","5","6","5","6","1","5","4","4","3","6","6","5","3","3","5","6","5","6","6","4","5","4","5","5","5","6","2","3","1","4","4","3","2","3","5","775504684868964354","黄","416","Male","[""坏我"",""好他"",""好我"",""坏他""]","[""弱我"",""强他"",""强我"",""弱他""]","","","","","","","","","","","","","","","","","","","","","","","","","","","","","","feedback_test","","","","","","","","",""
"785","","f","psychophysics","126","264087","0.0-8.0-0.0-4.0-0.0-0.9","6","6","7","5","5","4","3","5","4","5","4","0","0","1","1","0","1","2","1","5","4","5","4","5","3","4","4","5","4","6","5","5","6","5","6","5","6","6","5","5","4","6","5","5","5","6","5","6","1","5","4","4","3","6","6","5","3","3","5","6","5","6","6","4","5","4","5","5","5","6","2","3","1","4","4","3","2","3","5","775504684868964354","黄","416","Male","[""坏我"",""好他"",""好我"",""坏他""]","[""弱我"",""强他"",""强我"",""弱他""]","","","","","","","","match","","","","","","","","","","key","f","16.667716981131992","768","428","j","false","nonmatch","img/pentagon.png","坏我","好我","ALT2","moral","","","","","","","","",""
"null","<span style='color:red; font-size: 70px;'>错误! </span>","null","html-keyboard-response","127","264590","0.0-8.0-0.0-4.0-0.0-1.9","6","6","7","5","5","4","3","5","4","5","4","0","0","1","1","0","1","2","1","5","4","5","4","5","3","4","4","5","4","6","5","5","6","5","6","5","6","6","5","5","4","6","5","5","5","6","5","6","1","5","4","4","3","6","6","5","3","3","5","6","5","6","6","4","5","4","5","5","5","6","2","3","1","4","4","3","2","3","5","775504684868964354","黄","416","Male","[""坏我"",""好他"",""好我"",""坏他""]","[""弱我"",""强他"",""强我"",""弱他""]","","","","","","","","","","","","","","","","","","","","","","","","","","","","","","feedback_test","","","","","","","","",""
"743","","f","psychophysics","128","266337","0.0-8.0-0.0-4.0-0.0-0.10","6","6","7","5","5","4","3","5","4","5","4","0","0","1","1","0","1","2","1","5","4","5","4","5","3","4","4","5","4","6","5","5","6","5","6","5","6","6","5","5","4","6","5","5","5","6","5","6","1","5","4","4","3","6","6","5","3","3","5","6","5","6","6","4","5","4","5","5","5","6","2","3","1","4","4","3","2","3","5","775504684868964354","黄","416","Male","[""坏我"",""好他"",""好我"",""坏他""]","[""弱我"",""强他"",""强我"",""弱他""]","","","","","","","","match","","","","","","","","","","key","f","16.572757281553457","768","428","j","false","nonmatch","img/circle.png","好他","坏我","ALT2","moral","","","","","","","","",""
"null","<span style='color:red; font-size: 70px;'>错误! </span>","null","html-keyboard-response","129","266840","0.0-8.0-0.0-4.0-0.0-1.10","6","6","7","5","5","4","3","5","4","5","4","0","0","1","1","0","1","2","1","5","4","5","4","5","3","4","4","5","4","6","5","5","6","5","6","5","6","6","5","5","4","6","5","5","5","6","5","6","1","5","4","4","3","6","6","5","3","3","5","6","5","6","6","4","5","4","5","5","5","6","2","3","1","4","4","3","2","3","5","775504684868964354","黄","416","Male","[""坏我"",""好他"",""好我"",""坏他""]","[""弱我"",""强他"",""强我"",""弱他""]","","","","","","","","","","","","","","","","","","","","","","","","","","","","","","feedback_test","","","","","","","","",""
"1196","","j","psychophysics","130","269041","0.0-8.0-0.0-4.0-0.0-0.11","6","6","7","5","5","4","3","5","4","5","4","0","0","1","1","0","1","2","1","5","4","5","4","5","3","4","4","5","4","6","5","5","6","5","6","5","6","6","5","5","4","6","5","5","5","6","5","6","1","5","4","4","3","6","6","5","3","3","5","6","5","6","6","4","5","4","5","5","5","6","2","3","1","4","4","3","2","3","5","775504684868964354","黄","416","Male","[""坏我"",""好他"",""好我"",""坏他""]","[""弱我"",""强他"",""强我"",""弱他""]","","","","","","","","nonmatch","","","","","","","","","","key","j","16.590415384615504","768","428","j","true","nonmatch","img/square.png","坏我","坏他","ALT2","moral","","","","","","","","",""
"null","<span style='color:GreenYellow; font-size: 70px;'>正确! </span>","null","html-keyboard-response","131","269543","0.0-8.0-0.0-4.0-0.0-1.11","6","6","7","5","5","4","3","5","4","5","4","0","0","1","1","0","1","2","1","5","4","5","4","5","3","4","4","5","4","6","5","5","6","5","6","5","6","6","5","5","4","6","5","5","5","6","5","6","1","5","4","4","3","6","6","5","3","3","5","6","5","6","6","4","5","4","5","5","5","6","2","3","1","4","4","3","2","3","5","775504684868964354","黄","416","Male","[""坏我"",""好他"",""好我"",""坏他""]","[""弱我"",""强他"",""强我"",""弱他""]","","","","","","","","","","","","","","","","","","","","","","","","","","","","","","feedback_test","","","","","","","","",""
"700","","f","psychophysics","132","271248","0.0-8.0-0.0-4.0-0.0-0.12","6","6","7","5","5","4","3","5","4","5","4","0","0","1","1","0","1","2","1","5","4","5","4","5","3","4","4","5","4","6","5","5","6","5","6","5","6","6","5","5","4","6","5","5","5","6","5","6","1","5","4","4","3","6","6","5","3","3","5","6","5","6","6","4","5","4","5","5","5","6","2","3","1","4","4","3","2","3","5","775504684868964354","黄","416","Male","[""坏我"",""好他"",""好我"",""坏他""]","[""弱我"",""强他"",""强我"",""弱他""]","","","","","","","","match","","","","","","","","","","key","f","16.668485148514776","768","428","f","true","match","img/diamond.png","好他","好他","ALT2","moral","","","","","","","","",""
"null","<span style='color:GreenYellow; font-size: 70px;'>正确! </span>","null","html-keyboard-response","133","271751","0.0-8.0-0.0-4.0-0.0-1.12","6","6","7","5","5","4","3","5","4","5","4","0","0","1","1","0","1","2","1","5","4","5","4","5","3","4","4","5","4","6","5","5","6","5","6","5","6","6","5","5","4","6","5","5","5","6","5","6","1","5","4","4","3","6","6","5","3","3","5","6","5","6","6","4","5","4","5","5","5","6","2","3","1","4","4","3","2","3","5","775504684868964354","黄","416","Male","[""坏我"",""好他"",""好我"",""坏他""]","[""弱我"",""强他"",""强我"",""弱他""]","","","","","","","","","","","","","","","","","","","","","","","","","","","","","","feedback_test","","","","","","","","",""
"830","","f","psychophysics","134","273585","0.0-8.0-0.0-4.0-0.0-0.13","6","6","7","5","5","4","3","5","4","5","4","0","0","1","1","0","1","2","1","5","4","5","4","5","3","4","4","5","4","6","5","5","6","5","6","5","6","6","5","5","4","6","5","5","5","6","5","6","1","5","4","4","3","6","6","5","3","3","5","6","5","6","6","4","5","4","5","5","5","6","2","3","1","4","4","3","2","3","5","775504684868964354","黄","416","Male","[""坏我"",""好他"",""好我"",""坏他""]","[""弱我"",""强他"",""强我"",""弱他""]","","","","","","","","match","","","","","","","","","","key","f","16.67044036697229","768","428","f","true","match","img/circle.png","坏我","坏我","ALT2","moral","","","","","","","","",""
"null","<span style='color:GreenYellow; font-size: 70px;'>正确! </span>","null","html-keyboard-response","135","274087","0.0-8.0-0.0-4.0-0.0-1.13","6","6","7","5","5","4","3","5","4","5","4","0","0","1","1","0","1","2","1","5","4","5","4","5","3","4","4","5","4","6","5","5","6","5","6","5","6","6","5","5","4","6","5","5","5","6","5","6","1","5","4","4","3","6","6","5","3","3","5","6","5","6","6","4","5","4","5","5","5","6","2","3","1","4","4","3","2","3","5","775504684868964354","黄","416","Male","[""坏我"",""好他"",""好我"",""坏他""]","[""弱我"",""强他"",""强我"",""弱他""]","","","","","","","","","","","","","","","","","","","","","","","","","","","","","","feedback_test","","","","","","","","",""
"792","","j","psychophysics","136","275882","0.0-8.0-0.0-4.0-0.0-0.14","6","6","7","5","5","4","3","5","4","5","4","0","0","1","1","0","1","2","1","5","4","5","4","5","3","4","4","5","4","6","5","5","6","5","6","5","6","6","5","5","4","6","5","5","5","6","5","6","1","5","4","4","3","6","6","5","3","3","5","6","5","6","6","4","5","4","5","5","5","6","2","3","1","4","4","3","2","3","5","775504684868964354","黄","416","Male","[""坏我"",""好他"",""好我"",""坏他""]","[""弱我"",""强他"",""强我"",""弱他""]","","","","","","","","nonmatch","","","","","","","","","","key","j","16.669224299065046","768","428","j","true","nonmatch","img/pentagon.png","坏他","好我","ALT2","moral","","","","","","","","",""
"null","<span style='color:GreenYellow; font-size: 70px;'>正确! </span>","null","html-keyboard-response","137","276386","0.0-8.0-0.0-4.0-0.0-1.14","6","6","7","5","5","4","3","5","4","5","4","0","0","1","1","0","1","2","1","5","4","5","4","5","3","4","4","5","4","6","5","5","6","5","6","5","6","6","5","5","4","6","5","5","5","6","5","6","1","5","4","4","3","6","6","5","3","3","5","6","5","6","6","4","5","4","5","5","5","6","2","3","1","4","4","3","2","3","5","775504684868964354","黄","416","Male","[""坏我"",""好他"",""好我"",""坏他""]","[""弱我"",""强他"",""强我"",""弱他""]","","","","","","","","","","","","","","","","","","","","","","","","","","","","","","feedback_test","","","","","","","","",""
"769","","j","psychophysics","138","278159","0.0-8.0-0.0-4.0-0.0-0.15","6","6","7","5","5","4","3","5","4","5","4","0","0","1","1","0","1","2","1","5","4","5","4","5","3","4","4","5","4","6","5","5","6","5","6","5","6","6","5","5","4","6","5","5","5","6","5","6","1","5","4","4","3","6","6","5","3","3","5","6","5","6","6","4","5","4","5","5","5","6","2","3","1","4","4","3","2","3","5","775504684868964354","黄","416","Male","[""坏我"",""好他"",""好我"",""坏他""]","[""弱我"",""强他"",""强我"",""弱他""]","","","","","","","","nonmatch","","","","","","","","","","key","j","16.669799999999704","768","428","j","true","nonmatch","img/diamond.png","坏他","好他","ALT2","moral","","","","","","","","",""
"null","<span style='color:GreenYellow; font-size: 70px;'>正确! </span>","null","html-keyboard-response","139","278663","0.0-8.0-0.0-4.0-0.0-1.15","6","6","7","5","5","4","3","5","4","5","4","0","0","1","1","0","1","2","1","5","4","5","4","5","3","4","4","5","4","6","5","5","6","5","6","5","6","6","5","5","4","6","5","5","5","6","5","6","1","5","4","4","3","6","6","5","3","3","5","6","5","6","6","4","5","4","5","5","5","6","2","3","1","4","4","3","2","3","5","775504684868964354","黄","416","Male","[""坏我"",""好他"",""好我"",""坏他""]","[""弱我"",""强他"",""强我"",""弱他""]","","","","","","","","","","","","","","","","","","","","","","","","","","","","","","feedback_test","","","","","","","","",""
