"rt","stimulus","response","trial_type","trial_index","time_elapsed","internal_node_id","swb_1","swb_2","swb_3","swb_4","swb_5","LOT_1","LOT_2","LOT_3","LOT_4","LOT_5","LOT_6","IPC_1","IPC_2","IPC_3","IPC_4","IPC_5","IPC_6","IPC_7","IPC_8","MorIden_1","MorIden_2","MorIden_3","MorIden_4","MorIden_5","MorIden_6","MorIden_7","MorIden_8","MorIden_9","MorIden_10","moralSeImag_1","moralSeImag_2","moralSeImag_3","moralSeImag_4","moralSeImag_5","moralSeImag_6","moralSeImag_7","moralSeImag_8","moralSeImag_9","sde_1","sde_2","sde_3","sde_4","sde_5","sde_6","sde_7","sde_8","sde_9","sde_10","trap2","sde_11","sde_12","sde_13","sde_14","sde_15","sde_16","sde_17","sde_18","sde_19","sde_20","IM_1","IM_2","IM_3","IM_4","IM_5","IM_6","IM_7","IM_8","IM_9","IM_10","IM_11","IM_12","IM_13","IM_14","IM_15","IM_16","IM_17","IM_18","IM_19","IM_20","subj_idx","friend_name","ParticipantID","Sex","Word","Word2","value","success","timeout","failed_images","failed_audio","failed_video","user_agent","responses","item_order","radio_event_ids","radio_event_times","key_event_times","mouse_event_times","straightlining","zigzagging","honeypot","view_history","response_type","key_press","avg_frame_time","center_x","center_y","correct_response","correct","identity","Image","word","condition","task_id","screen_id","time_stamp","person","valence","domain","math","status","duration","question_order","trap2_item"
"6485","
   <p><div style='color:white; font-size: 25px'>您好，欢迎参加本次实验。</div></p>
   <p><div style='color:white; font-size: 25px'>为充分保障您的权利，请确保您已经知晓并同意《参与实验同意书》以及《数据公开知情同意书》。</div></p>
   <p><div style='color:white; font-size: 25px'>如果您未见过上述内容，请咨询实验员。</div></p>
   <p style='color:white; font-size: 25px'>如果您选择继续实验，则表示您已经清楚两份知情同意书的内容并同意。</p>
   <p><div style = ""color: pink;font-size:30px;"">请确保您记得day0的实验编号，您将在本次实验输入该编号，若您忘记，请咨询实验员后作答。</div></p>
   <p><div style = ""color:lightblue;font-size:25px;"">请您尽可能认真地作答，我们将依据您在各问卷和按键任务中的作答质量发放报酬。</div></p>
   <p> <div style = ""color: green""><按空格键至下页></div> </p>
   "," ","html-keyboard-response","0","6490","0.0-0.0","4","3","4","3","3","4","3","3","4","4","4","0","-1","0","0","-1","0","1","1","5","4","5","4","4","3","4","3","4","4","4","7","6","6","5","5","5","7","7","4","5","3","3","6","3","5","2","5","3","1","4","3","4","2","3","3","4","4","3","2","3","4","3","2","2","5","4","5","5","6","4","3","5","3","3","4","2","4","3","6","763058594613825537","徐","581","Female","[""好我"",""坏她"",""好她"",""坏我""]","[""强我"",""弱她"",""强她"",""弱我""]","","","","","","","","","","","","","","","","","","","","","","","","","","","","","","","","","","","","","","",""
"","","","call-function","1","6495","0.0-1.0-0.0","4","3","4","3","3","4","3","3","4","4","4","0","-1","0","0","-1","0","1","1","5","4","5","4","4","3","4","3","4","4","4","7","6","6","5","5","5","7","7","4","5","3","3","6","3","5","2","5","3","1","4","3","4","2","3","3","4","4","3","2","3","4","3","2","2","5","4","5","5","6","4","3","5","3","3","4","2","4","3","6","763058594613825537","徐","581","Female","[""好我"",""坏她"",""好她"",""坏我""]","[""强我"",""弱她"",""强她"",""弱我""]","","","","","","","","","","","","","","","","","","","","","","","","","","","","","","","","","","","","","","",""
"41051","","[{""name"":""Sex"",""value"":""1""},{""name"":""friend_name"",""value"":""徐""},{""name"":""ParticipantID"",""value"":""581""}]","survey-html-form","2","47548","0.0-1.0-1.0","4","3","4","3","3","4","3","3","4","4","4","0","-1","0","0","-1","0","1","1","5","4","5","4","4","3","4","3","4","4","4","7","6","6","5","5","5","7","7","4","5","3","3","6","3","5","2","5","3","1","4","3","4","2","3","3","4","4","3","2","3","4","3","2","2","5","4","5","5","6","4","3","5","3","3","4","2","4","3","6","763058594613825537","徐","581","Female","[""好我"",""坏她"",""好她"",""坏我""]","[""强我"",""弱她"",""强她"",""弱我""]","","","","","","","","","","","","","","","","","","","","","","","","","","","","","","","","","","","","","","",""
"","","","preload","3","47950","0.0-2.0","4","3","4","3","3","4","3","3","4","4","4","0","-1","0","0","-1","0","1","1","5","4","5","4","4","3","4","3","4","4","4","7","6","6","5","5","5","7","7","4","5","3","3","6","3","5","2","5","3","1","4","3","4","2","3","3","4","4","3","2","3","4","3","2","2","5","4","5","5","6","4","3","5","3","3","4","2","4","3","6","763058594613825537","徐","581","Female","[""好我"",""坏她"",""好她"",""坏我""]","[""强我"",""弱她"",""强她"",""弱我""]","","true","false","[]","[]","[]","","","","","","","","","","","","","","","","","","","","","","","","","","","","","","","","",""
"","","","fullscreen","4","51003","0.0-3.0","4","3","4","3","3","4","3","3","4","4","4","0","-1","0","0","-1","0","1","1","5","4","5","4","4","3","4","3","4","4","4","7","6","6","5","5","5","7","7","4","5","3","3","6","3","5","2","5","3","1","4","3","4","2","3","3","4","4","3","2","3","4","3","2","2","5","4","5","5","6","4","3","5","3","3","4","2","4","3","6","763058594613825537","徐","581","Female","[""好我"",""坏她"",""好她"",""坏我""]","[""强我"",""弱她"",""强她"",""弱我""]","","true","","","","","{}","","","","","","","","","","","","","","","","","","","","","","","","","","","","","","","",""
"58047.19999998808","","{""Q01"":""4"",""Q02"":""3"",""Q03"":""4"",""Q04"":""3"",""Q05"":""3""}","survey-template","5","109054","0.0-4.0","4","3","4","3","3","4","3","3","4","4","4","0","-1","0","0","-1","0","1","1","5","4","5","4","4","3","4","3","4","4","4","7","6","6","5","5","5","7","7","4","5","3","3","6","3","5","2","5","3","1","4","3","4","2","3","3","4","4","3","2","3","4","3","2","2","5","4","5","5","6","4","3","5","3","3","4","2","4","3","6","763058594613825537","徐","581","Female","[""好我"",""坏她"",""好她"",""坏我""]","[""强我"",""弱她"",""强她"",""弱我""]","","","","","","","","{""Q01"":""4"",""Q02"":""3"",""Q03"":""4"",""Q04"":""3"",""Q05"":""3""}","[0,1,2,3,4]","[""Q01"",""Q04"",""Q05"",""Q02"",""Q03"",""Q05""]","[6301.5,16957,19524.5,27838,36436.19999998808,41525.40000000596]","[]","[6301.5,15652.59999999404,16957,18373.09999999404,19524.5,27838,36436.19999998808,41525.40000000596,58045.79999998212]","0.6","0.75","0","","","","","","","","","","","","","","","","","","","","","","",""
"40050.09999999404","","{""Q01"":""4"",""Q02"":""3"",""Q03"":""3"",""Q04"":""4"",""Q05"":""4"",""Q06"":""4""}","survey-template","6","149110","0.0-5.0","4","3","4","3","3","4","3","3","4","4","4","0","-1","0","0","-1","0","1","1","5","4","5","4","4","3","4","3","4","4","4","7","6","6","5","5","5","7","7","4","5","3","3","6","3","5","2","5","3","1","4","3","4","2","3","3","4","4","3","2","3","4","3","2","2","5","4","5","5","6","4","3","5","3","3","4","2","4","3","6","763058594613825537","徐","581","Female","[""好我"",""坏她"",""好她"",""坏我""]","[""强我"",""弱她"",""强她"",""弱我""]","","","","","","","","{""Q01"":""4"",""Q02"":""3"",""Q03"":""3"",""Q04"":""4"",""Q05"":""4"",""Q06"":""4""}","[0,1,2,3,4,5]","[""Q01"",""Q02"",""Q03"",""Q04"",""Q05"",""Q06""]","[5112,11665.199999988079,13248.09999999404,17225,28224.5,30936.90000000596]","[]","[5112,11665.199999988079,13248.09999999404,17225,28224.5,30936.90000000596,40049]","0.3333333333333333","0.4","0","","","","","","","","","","","","","","","","","","","","","","",""
"44603.90000000596","","{""Q01"":""0"",""Q02"":""-1"",""Q03"":""0"",""Q04"":""0"",""Q05"":""-1"",""Q06"":""0"",""Q07"":""1"",""Q08"":""1""}","survey-template","7","193719","0.0-6.0","4","3","4","3","3","4","3","3","4","4","4","0","-1","0","0","-1","0","1","1","5","4","5","4","4","3","4","3","4","4","4","7","6","6","5","5","5","7","7","4","5","3","3","6","3","5","2","5","3","1","4","3","4","2","3","3","4","4","3","2","3","4","3","2","2","5","4","5","5","6","4","3","5","3","3","4","2","4","3","6","763058594613825537","徐","581","Female","[""好我"",""坏她"",""好她"",""坏我""]","[""强我"",""弱她"",""强她"",""弱我""]","","","","","","","","{""Q01"":""0"",""Q02"":""-1"",""Q03"":""0"",""Q04"":""0"",""Q05"":""-1"",""Q06"":""0"",""Q07"":""1"",""Q08"":""1""}","[0,1,2,3,4,5,6,7]","[""Q01"",""Q02"",""Q03"",""Q04"",""Q05"",""Q06"",""Q07"",""Q08"",""Q07""]","[3761.100000023842,7105.4000000059605,12521.700000017881,17201.5,20881.20000001788,25529.40000000596,31778.100000023842,33937.90000000596,39513.20000001788]","[]","[3761.100000023842,7105.4000000059605,12521.700000017881,17201.5,20881.20000001788,25529.40000000596,31778.100000023842,33937.90000000596,39513.20000001788,44602]","0.5","0.7142857142857143","0","","","","","","","","","","","","","","","","","","","","","","",""
"15978","","","instructions","8","209701","0.0-7.0","4","3","4","3","3","4","3","3","4","4","4","0","-1","0","0","-1","0","1","1","5","4","5","4","4","3","4","3","4","4","4","7","6","6","5","5","5","7","7","4","5","3","3","6","3","5","2","5","3","1","4","3","4","2","3","3","4","4","3","2","3","4","3","2","2","5","4","5","5","6","4","3","5","3","3","4","2","4","3","6","763058594613825537","徐","581","Female","[""好我"",""坏她"",""好她"",""坏我""]","[""强我"",""弱她"",""强她"",""弱我""]","","","","","","","","","","","","","","","","","[{""page_index"":0,""viewing_time"":15977}]","","","","","","","","","","","","","","","","","","","","","",""
"72214","","","instructions","9","281916","0.0-8.0-1.0-0.0","4","3","4","3","3","4","3","3","4","4","4","0","-1","0","0","-1","0","1","1","5","4","5","4","4","3","4","3","4","4","4","7","6","6","5","5","5","7","7","4","5","3","3","6","3","5","2","5","3","1","4","3","4","2","3","3","4","4","3","2","3","4","3","2","2","5","4","5","5","6","4","3","5","3","3","4","2","4","3","6","763058594613825537","徐","581","Female","[""好我"",""坏她"",""好她"",""坏我""]","[""强我"",""弱她"",""强她"",""弱我""]","","","","","","","","","","","","","","","","","[{""page_index"":0,""viewing_time"":12564},{""page_index"":1,""viewing_time"":52329},{""page_index"":2,""viewing_time"":4024},{""page_index"":3,""viewing_time"":3296}]","","","","","","","","","","","","","","","","","","","","","",""
"955","","j","psychophysics","10","283879","0.0-8.0-1.0-1.0-0.0-0.0","4","3","4","3","3","4","3","3","4","4","4","0","-1","0","0","-1","0","1","1","5","4","5","4","4","3","4","3","4","4","4","7","6","6","5","5","5","7","7","4","5","3","3","6","3","5","2","5","3","1","4","3","4","2","3","3","4","4","3","2","3","4","3","2","2","5","4","5","5","6","4","3","5","3","3","4","2","4","3","6","763058594613825537","徐","581","Female","[""好我"",""坏她"",""好她"",""坏我""]","[""强我"",""弱她"",""强她"",""弱我""]","","","","","","","","match","","","","","","","","","","key","j","16.652658119657907","768","428","f","false","nonmatch","img/hexagon.png","弱我","弱她","prac_ALT2_ability","practice_ability","","","","","","","","",""
"null","<span style='color:red; font-size: 70px;'>错误! </span>","null","html-keyboard-response","11","284386","0.0-8.0-1.0-1.0-0.0-1.0","4","3","4","3","3","4","3","3","4","4","4","0","-1","0","0","-1","0","1","1","5","4","5","4","4","3","4","3","4","4","4","7","6","6","5","5","5","7","7","4","5","3","3","6","3","5","2","5","3","1","4","3","4","2","3","3","4","4","3","2","3","4","3","2","2","5","4","5","5","6","4","3","5","3","3","4","2","4","3","6","763058594613825537","徐","581","Female","[""好我"",""坏她"",""好她"",""坏我""]","[""强我"",""弱她"",""强她"",""弱我""]","","","","","","","","","","","","","","","","","","","","","","","","","","","","","","feedback_test","","","","","","","","",""
"null","","null","psychophysics","12","286597","0.0-8.0-1.0-1.0-0.0-0.1","4","3","4","3","3","4","3","3","4","4","4","0","-1","0","0","-1","0","1","1","5","4","5","4","4","3","4","3","4","4","4","7","6","6","5","5","5","7","7","4","5","3","3","6","3","5","2","5","3","1","4","3","4","2","3","3","4","4","3","2","3","4","3","2","2","5","4","5","5","6","4","3","5","3","3","4","2","4","3","6","763058594613825537","徐","581","Female","[""好我"",""坏她"",""好她"",""坏我""]","[""强我"",""弱她"",""强她"",""弱我""]","","","","","","","","null","","","","","","","","","","key","null","16.651030534351396","768","428","j","false","match","img/hexagon.png","弱她","弱她","prac_ALT2_ability","practice_ability","","","","","","","","",""
"null","<span class='add_' style='color:yellow; font-size: 70px;'> 太慢! </span>","null","html-keyboard-response","13","287099","0.0-8.0-1.0-1.0-0.0-1.1","4","3","4","3","3","4","3","3","4","4","4","0","-1","0","0","-1","0","1","1","5","4","5","4","4","3","4","3","4","4","4","7","6","6","5","5","5","7","7","4","5","3","3","6","3","5","2","5","3","1","4","3","4","2","3","3","4","4","3","2","3","4","3","2","2","5","4","5","5","6","4","3","5","3","3","4","2","4","3","6","763058594613825537","徐","581","Female","[""好我"",""坏她"",""好她"",""坏我""]","[""强我"",""弱她"",""强她"",""弱我""]","","","","","","","","","","","","","","","","","","","","","","","","","","","","","","feedback_test","","","","","","","","",""
"968","","f","psychophysics","14","289072","0.0-8.0-1.0-1.0-0.0-0.2","4","3","4","3","3","4","3","3","4","4","4","0","-1","0","0","-1","0","1","1","5","4","5","4","4","3","4","3","4","4","4","7","6","6","5","5","5","7","7","4","5","3","3","6","3","5","2","5","3","1","4","3","4","2","3","3","4","4","3","2","3","4","3","2","2","5","4","5","5","6","4","3","5","3","3","4","2","4","3","6","763058594613825537","徐","581","Female","[""好我"",""坏她"",""好她"",""坏我""]","[""强我"",""弱她"",""强她"",""弱我""]","","","","","","","","nonmatch","","","","","","","","","","key","f","16.650829059829036","768","428","f","true","nonmatch","img/circle.png","强她","弱我","prac_ALT2_ability","practice_ability","","","","","","","","",""
"null","<span style='color:GreenYellow; font-size: 70px;'>正确! </span>","null","html-keyboard-response","15","289575","0.0-8.0-1.0-1.0-0.0-1.2","4","3","4","3","3","4","3","3","4","4","4","0","-1","0","0","-1","0","1","1","5","4","5","4","4","3","4","3","4","4","4","7","6","6","5","5","5","7","7","4","5","3","3","6","3","5","2","5","3","1","4","3","4","2","3","3","4","4","3","2","3","4","3","2","2","5","4","5","5","6","4","3","5","3","3","4","2","4","3","6","763058594613825537","徐","581","Female","[""好我"",""坏她"",""好她"",""坏我""]","[""强我"",""弱她"",""强她"",""弱我""]","","","","","","","","","","","","","","","","","","","","","","","","","","","","","","feedback_test","","","","","","","","",""
"825","","j","psychophysics","16","291405","0.0-8.0-1.0-1.0-0.0-0.3","4","3","4","3","3","4","3","3","4","4","4","0","-1","0","0","-1","0","1","1","5","4","5","4","4","3","4","3","4","4","4","7","6","6","5","5","5","7","7","4","5","3","3","6","3","5","2","5","3","1","4","3","4","2","3","3","4","4","3","2","3","4","3","2","2","5","4","5","5","6","4","3","5","3","3","4","2","4","3","6","763058594613825537","徐","581","Female","[""好我"",""坏她"",""好她"",""坏我""]","[""强我"",""弱她"",""强她"",""弱我""]","","","","","","","","match","","","","","","","","","","key","j","16.651752293578227","768","428","j","true","match","img/trapezoid.png","强我","强我","prac_ALT2_ability","practice_ability","","","","","","","","",""
"null","<span style='color:GreenYellow; font-size: 70px;'>正确! </span>","null","html-keyboard-response","17","291909","0.0-8.0-1.0-1.0-0.0-1.3","4","3","4","3","3","4","3","3","4","4","4","0","-1","0","0","-1","0","1","1","5","4","5","4","4","3","4","3","4","4","4","7","6","6","5","5","5","7","7","4","5","3","3","6","3","5","2","5","3","1","4","3","4","2","3","3","4","4","3","2","3","4","3","2","2","5","4","5","5","6","4","3","5","3","3","4","2","4","3","6","763058594613825537","徐","581","Female","[""好我"",""坏她"",""好她"",""坏我""]","[""强我"",""弱她"",""强她"",""弱我""]","","","","","","","","","","","","","","","","","","","","","","","","","","","","","","feedback_test","","","","","","","","",""
"659","","f","psychophysics","18","293573","0.0-8.0-1.0-1.0-0.0-0.4","4","3","4","3","3","4","3","3","4","4","4","0","-1","0","0","-1","0","1","1","5","4","5","4","4","3","4","3","4","4","4","7","6","6","5","5","5","7","7","4","5","3","3","6","3","5","2","5","3","1","4","3","4","2","3","3","4","4","3","2","3","4","3","2","2","5","4","5","5","6","4","3","5","3","3","4","2","4","3","6","763058594613825537","徐","581","Female","[""好我"",""坏她"",""好她"",""坏我""]","[""强我"",""弱她"",""强她"",""弱我""]","","","","","","","","nonmatch","","","","","","","","","","key","f","16.823530612244955","768","428","j","false","match","img/hexagon.png","弱她","弱她","prac_ALT2_ability","practice_ability","","","","","","","","",""
"null","<span style='color:red; font-size: 70px;'>错误! </span>","null","html-keyboard-response","19","294075","0.0-8.0-1.0-1.0-0.0-1.4","4","3","4","3","3","4","3","3","4","4","4","0","-1","0","0","-1","0","1","1","5","4","5","4","4","3","4","3","4","4","4","7","6","6","5","5","5","7","7","4","5","3","3","6","3","5","2","5","3","1","4","3","4","2","3","3","4","4","3","2","3","4","3","2","2","5","4","5","5","6","4","3","5","3","3","4","2","4","3","6","763058594613825537","徐","581","Female","[""好我"",""坏她"",""好她"",""坏我""]","[""强我"",""弱她"",""强她"",""弱我""]","","","","","","","","","","","","","","","","","","","","","","","","","","","","","","feedback_test","","","","","","","","",""
"987","","j","psychophysics","20","296067","0.0-8.0-1.0-1.0-0.0-0.5","4","3","4","3","3","4","3","3","4","4","4","0","-1","0","0","-1","0","1","1","5","4","5","4","4","3","4","3","4","4","4","7","6","6","5","5","5","7","7","4","5","3","3","6","3","5","2","5","3","1","4","3","4","2","3","3","4","4","3","2","3","4","3","2","2","5","4","5","5","6","4","3","5","3","3","4","2","4","3","6","763058594613825537","徐","581","Female","[""好我"",""坏她"",""好她"",""坏我""]","[""强我"",""弱她"",""强她"",""弱我""]","","","","","","","","match","","","","","","","","","","key","j","16.64070338983053","768","428","f","false","nonmatch","img/hexagon.png","强我","弱她","prac_ALT2_ability","practice_ability","","","","","","","","",""
"null","<span style='color:red; font-size: 70px;'>错误! </span>","null","html-keyboard-response","21","296568","0.0-8.0-1.0-1.0-0.0-1.5","4","3","4","3","3","4","3","3","4","4","4","0","-1","0","0","-1","0","1","1","5","4","5","4","4","3","4","3","4","4","4","7","6","6","5","5","5","7","7","4","5","3","3","6","3","5","2","5","3","1","4","3","4","2","3","3","4","4","3","2","3","4","3","2","2","5","4","5","5","6","4","3","5","3","3","4","2","4","3","6","763058594613825537","徐","581","Female","[""好我"",""坏她"",""好她"",""坏我""]","[""强我"",""弱她"",""强她"",""弱我""]","","","","","","","","","","","","","","","","","","","","","","","","","","","","","","feedback_test","","","","","","","","",""
"898","","j","psychophysics","22","298470","0.0-8.0-1.0-1.0-0.0-0.6","4","3","4","3","3","4","3","3","4","4","4","0","-1","0","0","-1","0","1","1","5","4","5","4","4","3","4","3","4","4","4","7","6","6","5","5","5","7","7","4","5","3","3","6","3","5","2","5","3","1","4","3","4","2","3","3","4","4","3","2","3","4","3","2","2","5","4","5","5","6","4","3","5","3","3","4","2","4","3","6","763058594613825537","徐","581","Female","[""好我"",""坏她"",""好她"",""坏我""]","[""强我"",""弱她"",""强她"",""弱我""]","","","","","","","","match","","","","","","","","","","key","j","16.651168141592876","768","428","f","false","nonmatch","img/hexagon.png","强她","弱她","prac_ALT2_ability","practice_ability","","","","","","","","",""
"null","<span style='color:red; font-size: 70px;'>错误! </span>","null","html-keyboard-response","23","298975","0.0-8.0-1.0-1.0-0.0-1.6","4","3","4","3","3","4","3","3","4","4","4","0","-1","0","0","-1","0","1","1","5","4","5","4","4","3","4","3","4","4","4","7","6","6","5","5","5","7","7","4","5","3","3","6","3","5","2","5","3","1","4","3","4","2","3","3","4","4","3","2","3","4","3","2","2","5","4","5","5","6","4","3","5","3","3","4","2","4","3","6","763058594613825537","徐","581","Female","[""好我"",""坏她"",""好她"",""坏我""]","[""强我"",""弱她"",""强她"",""弱我""]","","","","","","","","","","","","","","","","","","","","","","","","","","","","","","feedback_test","","","","","","","","",""
"839","","j","psychophysics","24","300818","0.0-8.0-1.0-1.0-0.0-0.7","4","3","4","3","3","4","3","3","4","4","4","0","-1","0","0","-1","0","1","1","5","4","5","4","4","3","4","3","4","4","4","7","6","6","5","5","5","7","7","4","5","3","3","6","3","5","2","5","3","1","4","3","4","2","3","3","4","4","3","2","3","4","3","2","2","5","4","5","5","6","4","3","5","3","3","4","2","4","3","6","763058594613825537","徐","581","Female","[""好我"",""坏她"",""好她"",""坏我""]","[""强我"",""弱她"",""强她"",""弱我""]","","","","","","","","match","","","","","","","","","","key","j","16.653449541284626","768","428","j","true","match","img/circle.png","弱我","弱我","prac_ALT2_ability","practice_ability","","","","","","","","",""
"null","<span style='color:GreenYellow; font-size: 70px;'>正确! </span>","null","html-keyboard-response","25","301322","0.0-8.0-1.0-1.0-0.0-1.7","4","3","4","3","3","4","3","3","4","4","4","0","-1","0","0","-1","0","1","1","5","4","5","4","4","3","4","3","4","4","4","7","6","6","5","5","5","7","7","4","5","3","3","6","3","5","2","5","3","1","4","3","4","2","3","3","4","4","3","2","3","4","3","2","2","5","4","5","5","6","4","3","5","3","3","4","2","4","3","6","763058594613825537","徐","581","Female","[""好我"",""坏她"",""好她"",""坏我""]","[""强我"",""弱她"",""强她"",""弱我""]","","","","","","","","","","","","","","","","","","","","","","","","","","","","","","feedback_test","","","","","","","","",""
"741","","f","psychophysics","26","303068","0.0-8.0-1.0-1.0-0.0-0.8","4","3","4","3","3","4","3","3","4","4","4","0","-1","0","0","-1","0","1","1","5","4","5","4","4","3","4","3","4","4","4","7","6","6","5","5","5","7","7","4","5","3","3","6","3","5","2","5","3","1","4","3","4","2","3","3","4","4","3","2","3","4","3","2","2","5","4","5","5","6","4","3","5","3","3","4","2","4","3","6","763058594613825537","徐","581","Female","[""好我"",""坏她"",""好她"",""坏我""]","[""强我"",""弱她"",""强她"",""弱我""]","","","","","","","","nonmatch","","","","","","","","","","key","f","16.650718446601708","768","428","f","true","nonmatch","img/circle.png","强我","弱我","prac_ALT2_ability","practice_ability","","","","","","","","",""
"null","<span style='color:GreenYellow; font-size: 70px;'>正确! </span>","null","html-keyboard-response","27","303570","0.0-8.0-1.0-1.0-0.0-1.8","4","3","4","3","3","4","3","3","4","4","4","0","-1","0","0","-1","0","1","1","5","4","5","4","4","3","4","3","4","4","4","7","6","6","5","5","5","7","7","4","5","3","3","6","3","5","2","5","3","1","4","3","4","2","3","3","4","4","3","2","3","4","3","2","2","5","4","5","5","6","4","3","5","3","3","4","2","4","3","6","763058594613825537","徐","581","Female","[""好我"",""坏她"",""好她"",""坏我""]","[""强我"",""弱她"",""强她"",""弱我""]","","","","","","","","","","","","","","","","","","","","","","","","","","","","","","feedback_test","","","","","","","","",""
"940","","j","psychophysics","28","305514","0.0-8.0-1.0-1.0-0.0-0.9","4","3","4","3","3","4","3","3","4","4","4","0","-1","0","0","-1","0","1","1","5","4","5","4","4","3","4","3","4","4","4","7","6","6","5","5","5","7","7","4","5","3","3","6","3","5","2","5","3","1","4","3","4","2","3","3","4","4","3","2","3","4","3","2","2","5","4","5","5","6","4","3","5","3","3","4","2","4","3","6","763058594613825537","徐","581","Female","[""好我"",""坏她"",""好她"",""坏我""]","[""强我"",""弱她"",""强她"",""弱我""]","","","","","","","","match","","","","","","","","","","key","j","16.650730434782883","768","428","f","false","nonmatch","img/trapezoid.png","弱我","强我","prac_ALT2_ability","practice_ability","","","","","","","","",""
"null","<span style='color:red; font-size: 70px;'>错误! </span>","null","html-keyboard-response","29","306025","0.0-8.0-1.0-1.0-0.0-1.9","4","3","4","3","3","4","3","3","4","4","4","0","-1","0","0","-1","0","1","1","5","4","5","4","4","3","4","3","4","4","4","7","6","6","5","5","5","7","7","4","5","3","3","6","3","5","2","5","3","1","4","3","4","2","3","3","4","4","3","2","3","4","3","2","2","5","4","5","5","6","4","3","5","3","3","4","2","4","3","6","763058594613825537","徐","581","Female","[""好我"",""坏她"",""好她"",""坏我""]","[""强我"",""弱她"",""强她"",""弱我""]","","","","","","","","","","","","","","","","","","","","","","","","","","","","","","feedback_test","","","","","","","","",""
"1151","","f","psychophysics","30","308180","0.0-8.0-1.0-1.0-0.0-0.10","4","3","4","3","3","4","3","3","4","4","4","0","-1","0","0","-1","0","1","1","5","4","5","4","4","3","4","3","4","4","4","7","6","6","5","5","5","7","7","4","5","3","3","6","3","5","2","5","3","1","4","3","4","2","3","3","4","4","3","2","3","4","3","2","2","5","4","5","5","6","4","3","5","3","3","4","2","4","3","6","763058594613825537","徐","581","Female","[""好我"",""坏她"",""好她"",""坏我""]","[""强我"",""弱她"",""强她"",""弱我""]","","","","","","","","nonmatch","","","","","","","","","","key","f","16.652015624999876","768","428","f","true","nonmatch","img/trapezoid.png","强她","强我","prac_ALT2_ability","practice_ability","","","","","","","","",""
"null","<span style='color:GreenYellow; font-size: 70px;'>正确! </span>","null","html-keyboard-response","31","308686","0.0-8.0-1.0-1.0-0.0-1.10","4","3","4","3","3","4","3","3","4","4","4","0","-1","0","0","-1","0","1","1","5","4","5","4","4","3","4","3","4","4","4","7","6","6","5","5","5","7","7","4","5","3","3","6","3","5","2","5","3","1","4","3","4","2","3","3","4","4","3","2","3","4","3","2","2","5","4","5","5","6","4","3","5","3","3","4","2","4","3","6","763058594613825537","徐","581","Female","[""好我"",""坏她"",""好她"",""坏我""]","[""强我"",""弱她"",""强她"",""弱我""]","","","","","","","","","","","","","","","","","","","","","","","","","","","","","","feedback_test","","","","","","","","",""
"999","","f","psychophysics","32","310688","0.0-8.0-1.0-1.0-0.0-0.11","4","3","4","3","3","4","3","3","4","4","4","0","-1","0","0","-1","0","1","1","5","4","5","4","4","3","4","3","4","4","4","7","6","6","5","5","5","7","7","4","5","3","3","6","3","5","2","5","3","1","4","3","4","2","3","3","4","4","3","2","3","4","3","2","2","5","4","5","5","6","4","3","5","3","3","4","2","4","3","6","763058594613825537","徐","581","Female","[""好我"",""坏她"",""好她"",""坏我""]","[""强我"",""弱她"",""强她"",""弱我""]","","","","","","","","nonmatch","","","","","","","","","","key","f","16.651848739495367","768","428","f","true","nonmatch","img/circle.png","弱她","弱我","prac_ALT2_ability","practice_ability","","","","","","","","",""
"null","<span style='color:GreenYellow; font-size: 70px;'>正确! </span>","null","html-keyboard-response","33","311190","0.0-8.0-1.0-1.0-0.0-1.11","4","3","4","3","3","4","3","3","4","4","4","0","-1","0","0","-1","0","1","1","5","4","5","4","4","3","4","3","4","4","4","7","6","6","5","5","5","7","7","4","5","3","3","6","3","5","2","5","3","1","4","3","4","2","3","3","4","4","3","2","3","4","3","2","2","5","4","5","5","6","4","3","5","3","3","4","2","4","3","6","763058594613825537","徐","581","Female","[""好我"",""坏她"",""好她"",""坏我""]","[""强我"",""弱她"",""强她"",""弱我""]","","","","","","","","","","","","","","","","","","","","","","","","","","","","","","feedback_test","","","","","","","","",""
"831","","j","psychophysics","34","313026","0.0-8.0-1.0-1.0-0.0-0.12","4","3","4","3","3","4","3","3","4","4","4","0","-1","0","0","-1","0","1","1","5","4","5","4","4","3","4","3","4","4","4","7","6","6","5","5","5","7","7","4","5","3","3","6","3","5","2","5","3","1","4","3","4","2","3","3","4","4","3","2","3","4","3","2","2","5","4","5","5","6","4","3","5","3","3","4","2","4","3","6","763058594613825537","徐","581","Female","[""好我"",""坏她"",""好她"",""坏我""]","[""强我"",""弱她"",""强她"",""弱我""]","","","","","","","","match","","","","","","","","","","key","j","16.651422018348665","768","428","j","true","match","img/triangle.png","强她","强她","prac_ALT2_ability","practice_ability","","","","","","","","",""
"null","<span style='color:GreenYellow; font-size: 70px;'>正确! </span>","null","html-keyboard-response","35","313529","0.0-8.0-1.0-1.0-0.0-1.12","4","3","4","3","3","4","3","3","4","4","4","0","-1","0","0","-1","0","1","1","5","4","5","4","4","3","4","3","4","4","4","7","6","6","5","5","5","7","7","4","5","3","3","6","3","5","2","5","3","1","4","3","4","2","3","3","4","4","3","2","3","4","3","2","2","5","4","5","5","6","4","3","5","3","3","4","2","4","3","6","763058594613825537","徐","581","Female","[""好我"",""坏她"",""好她"",""坏我""]","[""强我"",""弱她"",""强她"",""弱我""]","","","","","","","","","","","","","","","","","","","","","","","","","","","","","","feedback_test","","","","","","","","",""
"674","","f","psychophysics","36","315208","0.0-8.0-1.0-1.0-0.0-0.13","4","3","4","3","3","4","3","3","4","4","4","0","-1","0","0","-1","0","1","1","5","4","5","4","4","3","4","3","4","4","4","7","6","6","5","5","5","7","7","4","5","3","3","6","3","5","2","5","3","1","4","3","4","2","3","3","4","4","3","2","3","4","3","2","2","5","4","5","5","6","4","3","5","3","3","4","2","4","3","6","763058594613825537","徐","581","Female","[""好我"",""坏她"",""好她"",""坏我""]","[""强我"",""弱她"",""强她"",""弱我""]","","","","","","","","nonmatch","","","","","","","","","","key","f","16.652080808081216","768","428","f","true","nonmatch","img/triangle.png","弱我","强她","prac_ALT2_ability","practice_ability","","","","","","","","",""
"null","<span style='color:GreenYellow; font-size: 70px;'>正确! </span>","null","html-keyboard-response","37","315710","0.0-8.0-1.0-1.0-0.0-1.13","4","3","4","3","3","4","3","3","4","4","4","0","-1","0","0","-1","0","1","1","5","4","5","4","4","3","4","3","4","4","4","7","6","6","5","5","5","7","7","4","5","3","3","6","3","5","2","5","3","1","4","3","4","2","3","3","4","4","3","2","3","4","3","2","2","5","4","5","5","6","4","3","5","3","3","4","2","4","3","6","763058594613825537","徐","581","Female","[""好我"",""坏她"",""好她"",""坏我""]","[""强我"",""弱她"",""强她"",""弱我""]","","","","","","","","","","","","","","","","","","","","","","","","","","","","","","feedback_test","","","","","","","","",""
"919","","j","psychophysics","38","317633","0.0-8.0-1.0-1.0-0.0-0.14","4","3","4","3","3","4","3","3","4","4","4","0","-1","0","0","-1","0","1","1","5","4","5","4","4","3","4","3","4","4","4","7","6","6","5","5","5","7","7","4","5","3","3","6","3","5","2","5","3","1","4","3","4","2","3","3","4","4","3","2","3","4","3","2","2","5","4","5","5","6","4","3","5","3","3","4","2","4","3","6","763058594613825537","徐","581","Female","[""好我"",""坏她"",""好她"",""坏我""]","[""强我"",""弱她"",""强她"",""弱我""]","","","","","","","","match","","","","","","","","","","key","j","16.65244736842119","768","428","j","true","match","img/trapezoid.png","强我","强我","prac_ALT2_ability","practice_ability","","","","","","","","",""
"null","<span style='color:GreenYellow; font-size: 70px;'>正确! </span>","null","html-keyboard-response","39","318138","0.0-8.0-1.0-1.0-0.0-1.14","4","3","4","3","3","4","3","3","4","4","4","0","-1","0","0","-1","0","1","1","5","4","5","4","4","3","4","3","4","4","4","7","6","6","5","5","5","7","7","4","5","3","3","6","3","5","2","5","3","1","4","3","4","2","3","3","4","4","3","2","3","4","3","2","2","5","4","5","5","6","4","3","5","3","3","4","2","4","3","6","763058594613825537","徐","581","Female","[""好我"",""坏她"",""好她"",""坏我""]","[""强我"",""弱她"",""强她"",""弱我""]","","","","","","","","","","","","","","","","","","","","","","","","","","","","","","feedback_test","","","","","","","","",""
"757","","j","psychophysics","40","319900","0.0-8.0-1.0-1.0-0.0-0.15","4","3","4","3","3","4","3","3","4","4","4","0","-1","0","0","-1","0","1","1","5","4","5","4","4","3","4","3","4","4","4","7","6","6","5","5","5","7","7","4","5","3","3","6","3","5","2","5","3","1","4","3","4","2","3","3","4","4","3","2","3","4","3","2","2","5","4","5","5","6","4","3","5","3","3","4","2","4","3","6","763058594613825537","徐","581","Female","[""好我"",""坏她"",""好她"",""坏我""]","[""强我"",""弱她"",""强她"",""弱我""]","","","","","","","","match","","","","","","","","","","key","j","16.65165384615382","768","428","j","true","match","img/circle.png","弱我","弱我","prac_ALT2_ability","practice_ability","","","","","","","","",""
"null","<span style='color:GreenYellow; font-size: 70px;'>正确! </span>","null","html-keyboard-response","41","320405","0.0-8.0-1.0-1.0-0.0-1.15","4","3","4","3","3","4","3","3","4","4","4","0","-1","0","0","-1","0","1","1","5","4","5","4","4","3","4","3","4","4","4","7","6","6","5","5","5","7","7","4","5","3","3","6","3","5","2","5","3","1","4","3","4","2","3","3","4","4","3","2","3","4","3","2","2","5","4","5","5","6","4","3","5","3","3","4","2","4","3","6","763058594613825537","徐","581","Female","[""好我"",""坏她"",""好她"",""坏我""]","[""强我"",""弱她"",""强她"",""弱我""]","","","","","","","","","","","","","","","","","","","","","","","","","","","","","","feedback_test","","","","","","","","",""
"848","","f","psychophysics","42","322257","0.0-8.0-1.0-1.0-0.0-0.16","4","3","4","3","3","4","3","3","4","4","4","0","-1","0","0","-1","0","1","1","5","4","5","4","4","3","4","3","4","4","4","7","6","6","5","5","5","7","7","4","5","3","3","6","3","5","2","5","3","1","4","3","4","2","3","3","4","4","3","2","3","4","3","2","2","5","4","5","5","6","4","3","5","3","3","4","2","4","3","6","763058594613825537","徐","581","Female","[""好我"",""坏她"",""好她"",""坏我""]","[""强我"",""弱她"",""强她"",""弱我""]","","","","","","","","nonmatch","","","","","","","","","","key","f","16.650881818181897","768","428","f","true","nonmatch","img/trapezoid.png","弱她","强我","prac_ALT2_ability","practice_ability","","","","","","","","",""
"null","<span style='color:GreenYellow; font-size: 70px;'>正确! </span>","null","html-keyboard-response","43","322759","0.0-8.0-1.0-1.0-0.0-1.16","4","3","4","3","3","4","3","3","4","4","4","0","-1","0","0","-1","0","1","1","5","4","5","4","4","3","4","3","4","4","4","7","6","6","5","5","5","7","7","4","5","3","3","6","3","5","2","5","3","1","4","3","4","2","3","3","4","4","3","2","3","4","3","2","2","5","4","5","5","6","4","3","5","3","3","4","2","4","3","6","763058594613825537","徐","581","Female","[""好我"",""坏她"",""好她"",""坏我""]","[""强我"",""弱她"",""强她"",""弱我""]","","","","","","","","","","","","","","","","","","","","","","","","","","","","","","feedback_test","","","","","","","","",""
"907","","j","psychophysics","44","324672","0.0-8.0-1.0-1.0-0.0-0.17","4","3","4","3","3","4","3","3","4","4","4","0","-1","0","0","-1","0","1","1","5","4","5","4","4","3","4","3","4","4","4","7","6","6","5","5","5","7","7","4","5","3","3","6","3","5","2","5","3","1","4","3","4","2","3","3","4","4","3","2","3","4","3","2","2","5","4","5","5","6","4","3","5","3","3","4","2","4","3","6","763058594613825537","徐","581","Female","[""好我"",""坏她"",""好她"",""坏我""]","[""强我"",""弱她"",""强她"",""弱我""]","","","","","","","","match","","","","","","","","","","key","j","16.65247368421089","768","428","j","true","match","img/circle.png","弱我","弱我","prac_ALT2_ability","practice_ability","","","","","","","","",""
"null","<span style='color:GreenYellow; font-size: 70px;'>正确! </span>","null","html-keyboard-response","45","325177","0.0-8.0-1.0-1.0-0.0-1.17","4","3","4","3","3","4","3","3","4","4","4","0","-1","0","0","-1","0","1","1","5","4","5","4","4","3","4","3","4","4","4","7","6","6","5","5","5","7","7","4","5","3","3","6","3","5","2","5","3","1","4","3","4","2","3","3","4","4","3","2","3","4","3","2","2","5","4","5","5","6","4","3","5","3","3","4","2","4","3","6","763058594613825537","徐","581","Female","[""好我"",""坏她"",""好她"",""坏我""]","[""强我"",""弱她"",""强她"",""弱我""]","","","","","","","","","","","","","","","","","","","","","","","","","","","","","","feedback_test","","","","","","","","",""
"879","","j","psychophysics","46","327058","0.0-8.0-1.0-1.0-0.0-0.18","4","3","4","3","3","4","3","3","4","4","4","0","-1","0","0","-1","0","1","1","5","4","5","4","4","3","4","3","4","4","4","7","6","6","5","5","5","7","7","4","5","3","3","6","3","5","2","5","3","1","4","3","4","2","3","3","4","4","3","2","3","4","3","2","2","5","4","5","5","6","4","3","5","3","3","4","2","4","3","6","763058594613825537","徐","581","Female","[""好我"",""坏她"",""好她"",""坏我""]","[""强我"",""弱她"",""强她"",""弱我""]","","","","","","","","match","","","","","","","","","","key","j","16.651169642856985","768","428","j","true","match","img/trapezoid.png","强我","强我","prac_ALT2_ability","practice_ability","","","","","","","","",""
"null","<span style='color:GreenYellow; font-size: 70px;'>正确! </span>","null","html-keyboard-response","47","327561","0.0-8.0-1.0-1.0-0.0-1.18","4","3","4","3","3","4","3","3","4","4","4","0","-1","0","0","-1","0","1","1","5","4","5","4","4","3","4","3","4","4","4","7","6","6","5","5","5","7","7","4","5","3","3","6","3","5","2","5","3","1","4","3","4","2","3","3","4","4","3","2","3","4","3","2","2","5","4","5","5","6","4","3","5","3","3","4","2","4","3","6","763058594613825537","徐","581","Female","[""好我"",""坏她"",""好她"",""坏我""]","[""强我"",""弱她"",""强她"",""弱我""]","","","","","","","","","","","","","","","","","","","","","","","","","","","","","","feedback_test","","","","","","","","",""
"927","","f","psychophysics","48","329491","0.0-8.0-1.0-1.0-0.0-0.19","4","3","4","3","3","4","3","3","4","4","4","0","-1","0","0","-1","0","1","1","5","4","5","4","4","3","4","3","4","4","4","7","6","6","5","5","5","7","7","4","5","3","3","6","3","5","2","5","3","1","4","3","4","2","3","3","4","4","3","2","3","4","3","2","2","5","4","5","5","6","4","3","5","3","3","4","2","4","3","6","763058594613825537","徐","581","Female","[""好我"",""坏她"",""好她"",""坏我""]","[""强我"",""弱她"",""强她"",""弱我""]","","","","","","","","nonmatch","","","","","","","","","","key","f","16.647543859649183","768","428","f","true","nonmatch","img/triangle.png","强我","强她","prac_ALT2_ability","practice_ability","","","","","","","","",""
"null","<span style='color:GreenYellow; font-size: 70px;'>正确! </span>","null","html-keyboard-response","49","329994","0.0-8.0-1.0-1.0-0.0-1.19","4","3","4","3","3","4","3","3","4","4","4","0","-1","0","0","-1","0","1","1","5","4","5","4","4","3","4","3","4","4","4","7","6","6","5","5","5","7","7","4","5","3","3","6","3","5","2","5","3","1","4","3","4","2","3","3","4","4","3","2","3","4","3","2","2","5","4","5","5","6","4","3","5","3","3","4","2","4","3","6","763058594613825537","徐","581","Female","[""好我"",""坏她"",""好她"",""坏我""]","[""强我"",""弱她"",""强她"",""弱我""]","","","","","","","","","","","","","","","","","","","","","","","","","","","","","","feedback_test","","","","","","","","",""
"1065","","j","psychophysics","50","332065","0.0-8.0-1.0-1.0-0.0-0.20","4","3","4","3","3","4","3","3","4","4","4","0","-1","0","0","-1","0","1","1","5","4","5","4","4","3","4","3","4","4","4","7","6","6","5","5","5","7","7","4","5","3","3","6","3","5","2","5","3","1","4","3","4","2","3","3","4","4","3","2","3","4","3","2","2","5","4","5","5","6","4","3","5","3","3","4","2","4","3","6","763058594613825537","徐","581","Female","[""好我"",""坏她"",""好她"",""坏我""]","[""强我"",""弱她"",""强她"",""弱我""]","","","","","","","","match","","","","","","","","","","key","j","16.651601626016237","768","428","j","true","match","img/triangle.png","强她","强她","prac_ALT2_ability","practice_ability","","","","","","","","",""
"null","<span style='color:GreenYellow; font-size: 70px;'>正确! </span>","null","html-keyboard-response","51","332570","0.0-8.0-1.0-1.0-0.0-1.20","4","3","4","3","3","4","3","3","4","4","4","0","-1","0","0","-1","0","1","1","5","4","5","4","4","3","4","3","4","4","4","7","6","6","5","5","5","7","7","4","5","3","3","6","3","5","2","5","3","1","4","3","4","2","3","3","4","4","3","2","3","4","3","2","2","5","4","5","5","6","4","3","5","3","3","4","2","4","3","6","763058594613825537","徐","581","Female","[""好我"",""坏她"",""好她"",""坏我""]","[""强我"",""弱她"",""强她"",""弱我""]","","","","","","","","","","","","","","","","","","","","","","","","","","","","","","feedback_test","","","","","","","","",""
"966","","j","psychophysics","52","334546","0.0-8.0-1.0-1.0-0.0-0.21","4","3","4","3","3","4","3","3","4","4","4","0","-1","0","0","-1","0","1","1","5","4","5","4","4","3","4","3","4","4","4","7","6","6","5","5","5","7","7","4","5","3","3","6","3","5","2","5","3","1","4","3","4","2","3","3","4","4","3","2","3","4","3","2","2","5","4","5","5","6","4","3","5","3","3","4","2","4","3","6","763058594613825537","徐","581","Female","[""好我"",""坏她"",""好她"",""坏我""]","[""强我"",""弱她"",""强她"",""弱我""]","","","","","","","","match","","","","","","","","","","key","j","16.651313559321878","768","428","j","true","match","img/triangle.png","强她","强她","prac_ALT2_ability","practice_ability","","","","","","","","",""
"null","<span style='color:GreenYellow; font-size: 70px;'>正确! </span>","null","html-keyboard-response","53","335050","0.0-8.0-1.0-1.0-0.0-1.21","4","3","4","3","3","4","3","3","4","4","4","0","-1","0","0","-1","0","1","1","5","4","5","4","4","3","4","3","4","4","4","7","6","6","5","5","5","7","7","4","5","3","3","6","3","5","2","5","3","1","4","3","4","2","3","3","4","4","3","2","3","4","3","2","2","5","4","5","5","6","4","3","5","3","3","4","2","4","3","6","763058594613825537","徐","581","Female","[""好我"",""坏她"",""好她"",""坏我""]","[""强我"",""弱她"",""强她"",""弱我""]","","","","","","","","","","","","","","","","","","","","","","","","","","","","","","feedback_test","","","","","","","","",""
"634","","j","psychophysics","54","336688","0.0-8.0-1.0-1.0-0.0-0.22","4","3","4","3","3","4","3","3","4","4","4","0","-1","0","0","-1","0","1","1","5","4","5","4","4","3","4","3","4","4","4","7","6","6","5","5","5","7","7","4","5","3","3","6","3","5","2","5","3","1","4","3","4","2","3","3","4","4","3","2","3","4","3","2","2","5","4","5","5","6","4","3","5","3","3","4","2","4","3","6","763058594613825537","徐","581","Female","[""好我"",""坏她"",""好她"",""坏我""]","[""强我"",""弱她"",""强她"",""弱我""]","","","","","","","","match","","","","","","","","","","key","j","16.652742268041152","768","428","f","false","nonmatch","img/triangle.png","弱她","强她","prac_ALT2_ability","practice_ability","","","","","","","","",""
"null","<span style='color:red; font-size: 70px;'>错误! </span>","null","html-keyboard-response","55","337193","0.0-8.0-1.0-1.0-0.0-1.22","4","3","4","3","3","4","3","3","4","4","4","0","-1","0","0","-1","0","1","1","5","4","5","4","4","3","4","3","4","4","4","7","6","6","5","5","5","7","7","4","5","3","3","6","3","5","2","5","3","1","4","3","4","2","3","3","4","4","3","2","3","4","3","2","2","5","4","5","5","6","4","3","5","3","3","4","2","4","3","6","763058594613825537","徐","581","Female","[""好我"",""坏她"",""好她"",""坏我""]","[""强我"",""弱她"",""强她"",""弱我""]","","","","","","","","","","","","","","","","","","","","","","","","","","","","","","feedback_test","","","","","","","","",""
"883","","j","psychophysics","56","339080","0.0-8.0-1.0-1.0-0.0-0.23","4","3","4","3","3","4","3","3","4","4","4","0","-1","0","0","-1","0","1","1","5","4","5","4","4","3","4","3","4","4","4","7","6","6","5","5","5","7","7","4","5","3","3","6","3","5","2","5","3","1","4","3","4","2","3","3","4","4","3","2","3","4","3","2","2","5","4","5","5","6","4","3","5","3","3","4","2","4","3","6","763058594613825537","徐","581","Female","[""好我"",""坏她"",""好她"",""坏我""]","[""强我"",""弱她"",""强她"",""弱我""]","","","","","","","","match","","","","","","","","","","key","j","16.652276785714225","768","428","j","true","match","img/hexagon.png","弱她","弱她","prac_ALT2_ability","practice_ability","","","","","","","","",""
"null","<span style='color:GreenYellow; font-size: 70px;'>正确! </span>","null","html-keyboard-response","57","339590","0.0-8.0-1.0-1.0-0.0-1.23","4","3","4","3","3","4","3","3","4","4","4","0","-1","0","0","-1","0","1","1","5","4","5","4","4","3","4","3","4","4","4","7","6","6","5","5","5","7","7","4","5","3","3","6","3","5","2","5","3","1","4","3","4","2","3","3","4","4","3","2","3","4","3","2","2","5","4","5","5","6","4","3","5","3","3","4","2","4","3","6","763058594613825537","徐","581","Female","[""好我"",""坏她"",""好她"",""坏我""]","[""强我"",""弱她"",""强她"",""弱我""]","","","","","","","","","","","","","","","","","","","","","","","","","","","","","","feedback_test","","","","","","","","",""
"659","","j","psychophysics","58","341257","0.0-8.0-1.0-1.0-0.0-0.24","4","3","4","3","3","4","3","3","4","4","4","0","-1","0","0","-1","0","1","1","5","4","5","4","4","3","4","3","4","4","4","7","6","6","5","5","5","7","7","4","5","3","3","6","3","5","2","5","3","1","4","3","4","2","3","3","4","4","3","2","3","4","3","2","2","5","4","5","5","6","4","3","5","3","3","4","2","4","3","6","763058594613825537","徐","581","Female","[""好我"",""坏她"",""好她"",""坏我""]","[""强我"",""弱她"",""强她"",""弱我""]","","","","","","","","match","","","","","","","","","","key","j","16.82136734693884","768","428","j","true","match","img/triangle.png","强她","强她","prac_ALT2_ability","practice_ability","","","","","","","","",""
"null","<span style='color:GreenYellow; font-size: 70px;'>正确! </span>","null","html-keyboard-response","59","341759","0.0-8.0-1.0-1.0-0.0-1.24","4","3","4","3","3","4","3","3","4","4","4","0","-1","0","0","-1","0","1","1","5","4","5","4","4","3","4","3","4","4","4","7","6","6","5","5","5","7","7","4","5","3","3","6","3","5","2","5","3","1","4","3","4","2","3","3","4","4","3","2","3","4","3","2","2","5","4","5","5","6","4","3","5","3","3","4","2","4","3","6","763058594613825537","徐","581","Female","[""好我"",""坏她"",""好她"",""坏我""]","[""强我"",""弱她"",""强她"",""弱我""]","","","","","","","","","","","","","","","","","","","","","","","","","","","","","","feedback_test","","","","","","","","",""
"729","","f","psychophysics","60","343490","0.0-8.0-1.0-1.0-0.0-0.25","4","3","4","3","3","4","3","3","4","4","4","0","-1","0","0","-1","0","1","1","5","4","5","4","4","3","4","3","4","4","4","7","6","6","5","5","5","7","7","4","5","3","3","6","3","5","2","5","3","1","4","3","4","2","3","3","4","4","3","2","3","4","3","2","2","5","4","5","5","6","4","3","5","3","3","4","2","4","3","6","763058594613825537","徐","581","Female","[""好我"",""坏她"",""好她"",""坏我""]","[""强我"",""弱她"",""强她"",""弱我""]","","","","","","","","nonmatch","","","","","","","","","","key","f","16.651553398058116","768","428","f","true","nonmatch","img/circle.png","强她","弱我","prac_ALT2_ability","practice_ability","","","","","","","","",""
"null","<span style='color:GreenYellow; font-size: 70px;'>正确! </span>","null","html-keyboard-response","61","343993","0.0-8.0-1.0-1.0-0.0-1.25","4","3","4","3","3","4","3","3","4","4","4","0","-1","0","0","-1","0","1","1","5","4","5","4","4","3","4","3","4","4","4","7","6","6","5","5","5","7","7","4","5","3","3","6","3","5","2","5","3","1","4","3","4","2","3","3","4","4","3","2","3","4","3","2","2","5","4","5","5","6","4","3","5","3","3","4","2","4","3","6","763058594613825537","徐","581","Female","[""好我"",""坏她"",""好她"",""坏我""]","[""强我"",""弱她"",""强她"",""弱我""]","","","","","","","","","","","","","","","","","","","","","","","","","","","","","","feedback_test","","","","","","","","",""
"841","","j","psychophysics","62","345839","0.0-8.0-1.0-1.0-0.0-0.26","4","3","4","3","3","4","3","3","4","4","4","0","-1","0","0","-1","0","1","1","5","4","5","4","4","3","4","3","4","4","4","7","6","6","5","5","5","7","7","4","5","3","3","6","3","5","2","5","3","1","4","3","4","2","3","3","4","4","3","2","3","4","3","2","2","5","4","5","5","6","4","3","5","3","3","4","2","4","3","6","763058594613825537","徐","581","Female","[""好我"",""坏她"",""好她"",""坏我""]","[""强我"",""弱她"",""强她"",""弱我""]","","","","","","","","match","","","","","","","","","","key","j","16.651618181817785","768","428","j","true","match","img/trapezoid.png","强我","强我","prac_ALT2_ability","practice_ability","","","","","","","","",""
"null","<span style='color:GreenYellow; font-size: 70px;'>正确! </span>","null","html-keyboard-response","63","346341","0.0-8.0-1.0-1.0-0.0-1.26","4","3","4","3","3","4","3","3","4","4","4","0","-1","0","0","-1","0","1","1","5","4","5","4","4","3","4","3","4","4","4","7","6","6","5","5","5","7","7","4","5","3","3","6","3","5","2","5","3","1","4","3","4","2","3","3","4","4","3","2","3","4","3","2","2","5","4","5","5","6","4","3","5","3","3","4","2","4","3","6","763058594613825537","徐","581","Female","[""好我"",""坏她"",""好她"",""坏我""]","[""强我"",""弱她"",""强她"",""弱我""]","","","","","","","","","","","","","","","","","","","","","","","","","","","","","","feedback_test","","","","","","","","",""
"null","","null","psychophysics","64","348552","0.0-8.0-1.0-1.0-0.0-0.27","4","3","4","3","3","4","3","3","4","4","4","0","-1","0","0","-1","0","1","1","5","4","5","4","4","3","4","3","4","4","4","7","6","6","5","5","5","7","7","4","5","3","3","6","3","5","2","5","3","1","4","3","4","2","3","3","4","4","3","2","3","4","3","2","2","5","4","5","5","6","4","3","5","3","3","4","2","4","3","6","763058594613825537","徐","581","Female","[""好我"",""坏她"",""好她"",""坏我""]","[""强我"",""弱她"",""强她"",""弱我""]","","","","","","","","null","","","","","","","","","","key","null","16.651295454545604","768","428","j","false","match","img/hexagon.png","弱她","弱她","prac_ALT2_ability","practice_ability","","","","","","","","",""
"null","<span class='add_' style='color:yellow; font-size: 70px;'> 太慢! </span>","null","html-keyboard-response","65","349054","0.0-8.0-1.0-1.0-0.0-1.27","4","3","4","3","3","4","3","3","4","4","4","0","-1","0","0","-1","0","1","1","5","4","5","4","4","3","4","3","4","4","4","7","6","6","5","5","5","7","7","4","5","3","3","6","3","5","2","5","3","1","4","3","4","2","3","3","4","4","3","2","3","4","3","2","2","5","4","5","5","6","4","3","5","3","3","4","2","4","3","6","763058594613825537","徐","581","Female","[""好我"",""坏她"",""好她"",""坏我""]","[""强我"",""弱她"",""强她"",""弱我""]","","","","","","","","","","","","","","","","","","","","","","","","","","","","","","feedback_test","","","","","","","","",""
"1057","","j","psychophysics","66","351116","0.0-8.0-1.0-1.0-0.0-0.28","4","3","4","3","3","4","3","3","4","4","4","0","-1","0","0","-1","0","1","1","5","4","5","4","4","3","4","3","4","4","4","7","6","6","5","5","5","7","7","4","5","3","3","6","3","5","2","5","3","1","4","3","4","2","3","3","4","4","3","2","3","4","3","2","2","5","4","5","5","6","4","3","5","3","3","4","2","4","3","6","763058594613825537","徐","581","Female","[""好我"",""坏她"",""好她"",""坏我""]","[""强我"",""弱她"",""强她"",""弱我""]","","","","","","","","match","","","","","","","","","","key","j","16.650552845528306","768","428","f","false","nonmatch","img/circle.png","强我","弱我","prac_ALT2_ability","practice_ability","","","","","","","","",""
"null","<span style='color:red; font-size: 70px;'>错误! </span>","null","html-keyboard-response","67","351621","0.0-8.0-1.0-1.0-0.0-1.28","4","3","4","3","3","4","3","3","4","4","4","0","-1","0","0","-1","0","1","1","5","4","5","4","4","3","4","3","4","4","4","7","6","6","5","5","5","7","7","4","5","3","3","6","3","5","2","5","3","1","4","3","4","2","3","3","4","4","3","2","3","4","3","2","2","5","4","5","5","6","4","3","5","3","3","4","2","4","3","6","763058594613825537","徐","581","Female","[""好我"",""坏她"",""好她"",""坏我""]","[""强我"",""弱她"",""强她"",""弱我""]","","","","","","","","","","","","","","","","","","","","","","","","","","","","","","feedback_test","","","","","","","","",""
"841","","j","psychophysics","68","353465","0.0-8.0-1.0-1.0-0.0-0.29","4","3","4","3","3","4","3","3","4","4","4","0","-1","0","0","-1","0","1","1","5","4","5","4","4","3","4","3","4","4","4","7","6","6","5","5","5","7","7","4","5","3","3","6","3","5","2","5","3","1","4","3","4","2","3","3","4","4","3","2","3","4","3","2","2","5","4","5","5","6","4","3","5","3","3","4","2","4","3","6","763058594613825537","徐","581","Female","[""好我"",""坏她"",""好她"",""坏我""]","[""强我"",""弱她"",""强她"",""弱我""]","","","","","","","","match","","","","","","","","","","key","j","16.80459633027524","768","428","f","false","nonmatch","img/hexagon.png","弱我","弱她","prac_ALT2_ability","practice_ability","","","","","","","","",""
"null","<span style='color:red; font-size: 70px;'>错误! </span>","null","html-keyboard-response","69","353967","0.0-8.0-1.0-1.0-0.0-1.29","4","3","4","3","3","4","3","3","4","4","4","0","-1","0","0","-1","0","1","1","5","4","5","4","4","3","4","3","4","4","4","7","6","6","5","5","5","7","7","4","5","3","3","6","3","5","2","5","3","1","4","3","4","2","3","3","4","4","3","2","3","4","3","2","2","5","4","5","5","6","4","3","5","3","3","4","2","4","3","6","763058594613825537","徐","581","Female","[""好我"",""坏她"",""好她"",""坏我""]","[""强我"",""弱她"",""强她"",""弱我""]","","","","","","","","","","","","","","","","","","","","","","","","","","","","","","feedback_test","","","","","","","","",""
"699","","j","psychophysics","70","355671","0.0-8.0-1.0-1.0-0.0-0.30","4","3","4","3","3","4","3","3","4","4","4","0","-1","0","0","-1","0","1","1","5","4","5","4","4","3","4","3","4","4","4","7","6","6","5","5","5","7","7","4","5","3","3","6","3","5","2","5","3","1","4","3","4","2","3","3","4","4","3","2","3","4","3","2","2","5","4","5","5","6","4","3","5","3","3","4","2","4","3","6","763058594613825537","徐","581","Female","[""好我"",""坏她"",""好她"",""坏我""]","[""强我"",""弱她"",""强她"",""弱我""]","","","","","","","","match","","","","","","","","","","key","j","16.653257425742495","768","428","j","true","match","img/trapezoid.png","强我","强我","prac_ALT2_ability","practice_ability","","","","","","","","",""
"null","<span style='color:GreenYellow; font-size: 70px;'>正确! </span>","null","html-keyboard-response","71","356179","0.0-8.0-1.0-1.0-0.0-1.30","4","3","4","3","3","4","3","3","4","4","4","0","-1","0","0","-1","0","1","1","5","4","5","4","4","3","4","3","4","4","4","7","6","6","5","5","5","7","7","4","5","3","3","6","3","5","2","5","3","1","4","3","4","2","3","3","4","4","3","2","3","4","3","2","2","5","4","5","5","6","4","3","5","3","3","4","2","4","3","6","763058594613825537","徐","581","Female","[""好我"",""坏她"",""好她"",""坏我""]","[""强我"",""弱她"",""强她"",""弱我""]","","","","","","","","","","","","","","","","","","","","","","","","","","","","","","feedback_test","","","","","","","","",""
"740","","j","psychophysics","72","357923","0.0-8.0-1.0-1.0-0.0-0.31","4","3","4","3","3","4","3","3","4","4","4","0","-1","0","0","-1","0","1","1","5","4","5","4","4","3","4","3","4","4","4","7","6","6","5","5","5","7","7","4","5","3","3","6","3","5","2","5","3","1","4","3","4","2","3","3","4","4","3","2","3","4","3","2","2","5","4","5","5","6","4","3","5","3","3","4","2","4","3","6","763058594613825537","徐","581","Female","[""好我"",""坏她"",""好她"",""坏我""]","[""强我"",""弱她"",""强她"",""弱我""]","","","","","","","","match","","","","","","","","","","key","j","16.8119805825239","768","428","f","false","nonmatch","img/trapezoid.png","弱我","强我","prac_ALT2_ability","practice_ability","","","","","","","","",""
"null","<span style='color:red; font-size: 70px;'>错误! </span>","null","html-keyboard-response","73","358425","0.0-8.0-1.0-1.0-0.0-1.31","4","3","4","3","3","4","3","3","4","4","4","0","-1","0","0","-1","0","1","1","5","4","5","4","4","3","4","3","4","4","4","7","6","6","5","5","5","7","7","4","5","3","3","6","3","5","2","5","3","1","4","3","4","2","3","3","4","4","3","2","3","4","3","2","2","5","4","5","5","6","4","3","5","3","3","4","2","4","3","6","763058594613825537","徐","581","Female","[""好我"",""坏她"",""好她"",""坏我""]","[""强我"",""弱她"",""强她"",""弱我""]","","","","","","","","","","","","","","","","","","","","","","","","","","","","","","feedback_test","","","","","","","","",""
"659","","j","psychophysics","74","360088","0.0-8.0-1.0-1.0-0.0-0.32","4","3","4","3","3","4","3","3","4","4","4","0","-1","0","0","-1","0","1","1","5","4","5","4","4","3","4","3","4","4","4","7","6","6","5","5","5","7","7","4","5","3","3","6","3","5","2","5","3","1","4","3","4","2","3","3","4","4","3","2","3","4","3","2","2","5","4","5","5","6","4","3","5","3","3","4","2","4","3","6","763058594613825537","徐","581","Female","[""好我"",""坏她"",""好她"",""坏我""]","[""强我"",""弱她"",""强她"",""弱我""]","","","","","","","","match","","","","","","","","","","key","j","16.652343434343383","768","428","j","true","match","img/circle.png","弱我","弱我","prac_ALT2_ability","practice_ability","","","","","","","","",""
"null","<span style='color:GreenYellow; font-size: 70px;'>正确! </span>","null","html-keyboard-response","75","360593","0.0-8.0-1.0-1.0-0.0-1.32","4","3","4","3","3","4","3","3","4","4","4","0","-1","0","0","-1","0","1","1","5","4","5","4","4","3","4","3","4","4","4","7","6","6","5","5","5","7","7","4","5","3","3","6","3","5","2","5","3","1","4","3","4","2","3","3","4","4","3","2","3","4","3","2","2","5","4","5","5","6","4","3","5","3","3","4","2","4","3","6","763058594613825537","徐","581","Female","[""好我"",""坏她"",""好她"",""坏我""]","[""强我"",""弱她"",""强她"",""弱我""]","","","","","","","","","","","","","","","","","","","","","","","","","","","","","","feedback_test","","","","","","","","",""
"540","","j","psychophysics","76","362137","0.0-8.0-1.0-1.0-0.0-0.33","4","3","4","3","3","4","3","3","4","4","4","0","-1","0","0","-1","0","1","1","5","4","5","4","4","3","4","3","4","4","4","7","6","6","5","5","5","7","7","4","5","3","3","6","3","5","2","5","3","1","4","3","4","2","3","3","4","4","3","2","3","4","3","2","2","5","4","5","5","6","4","3","5","3","3","4","2","4","3","6","763058594613825537","徐","581","Female","[""好我"",""坏她"",""好她"",""坏我""]","[""强我"",""弱她"",""强她"",""弱我""]","","","","","","","","match","","","","","","","","","","key","j","16.65076086956517","768","428","f","false","nonmatch","img/trapezoid.png","弱她","强我","prac_ALT2_ability","practice_ability","","","","","","","","",""
"null","<span style='color:red; font-size: 70px;'>错误! </span>","null","html-keyboard-response","77","362639","0.0-8.0-1.0-1.0-0.0-1.33","4","3","4","3","3","4","3","3","4","4","4","0","-1","0","0","-1","0","1","1","5","4","5","4","4","3","4","3","4","4","4","7","6","6","5","5","5","7","7","4","5","3","3","6","3","5","2","5","3","1","4","3","4","2","3","3","4","4","3","2","3","4","3","2","2","5","4","5","5","6","4","3","5","3","3","4","2","4","3","6","763058594613825537","徐","581","Female","[""好我"",""坏她"",""好她"",""坏我""]","[""强我"",""弱她"",""强她"",""弱我""]","","","","","","","","","","","","","","","","","","","","","","","","","","","","","","feedback_test","","","","","","","","",""
"950","","j","psychophysics","78","364593","0.0-8.0-1.0-1.0-0.0-0.34","4","3","4","3","3","4","3","3","4","4","4","0","-1","0","0","-1","0","1","1","5","4","5","4","4","3","4","3","4","4","4","7","6","6","5","5","5","7","7","4","5","3","3","6","3","5","2","5","3","1","4","3","4","2","3","3","4","4","3","2","3","4","3","2","2","5","4","5","5","6","4","3","5","3","3","4","2","4","3","6","763058594613825537","徐","581","Female","[""好我"",""坏她"",""好她"",""坏我""]","[""强我"",""弱她"",""强她"",""弱我""]","","","","","","","","match","","","","","","","","","","key","j","16.651482758620567","768","428","j","true","match","img/hexagon.png","弱她","弱她","prac_ALT2_ability","practice_ability","","","","","","","","",""
"null","<span style='color:GreenYellow; font-size: 70px;'>正确! </span>","null","html-keyboard-response","79","365097","0.0-8.0-1.0-1.0-0.0-1.34","4","3","4","3","3","4","3","3","4","4","4","0","-1","0","0","-1","0","1","1","5","4","5","4","4","3","4","3","4","4","4","7","6","6","5","5","5","7","7","4","5","3","3","6","3","5","2","5","3","1","4","3","4","2","3","3","4","4","3","2","3","4","3","2","2","5","4","5","5","6","4","3","5","3","3","4","2","4","3","6","763058594613825537","徐","581","Female","[""好我"",""坏她"",""好她"",""坏我""]","[""强我"",""弱她"",""强她"",""弱我""]","","","","","","","","","","","","","","","","","","","","","","","","","","","","","","feedback_test","","","","","","","","",""
"859","","j","psychophysics","80","366961","0.0-8.0-1.0-1.0-0.0-0.35","4","3","4","3","3","4","3","3","4","4","4","0","-1","0","0","-1","0","1","1","5","4","5","4","4","3","4","3","4","4","4","7","6","6","5","5","5","7","7","4","5","3","3","6","3","5","2","5","3","1","4","3","4","2","3","3","4","4","3","2","3","4","3","2","2","5","4","5","5","6","4","3","5","3","3","4","2","4","3","6","763058594613825537","徐","581","Female","[""好我"",""坏她"",""好她"",""坏我""]","[""强我"",""弱她"",""强她"",""弱我""]","","","","","","","","match","","","","","","","","","","key","j","16.652327272727216","768","428","j","true","match","img/circle.png","弱我","弱我","prac_ALT2_ability","practice_ability","","","","","","","","",""
"null","<span style='color:GreenYellow; font-size: 70px;'>正确! </span>","null","html-keyboard-response","81","367466","0.0-8.0-1.0-1.0-0.0-1.35","4","3","4","3","3","4","3","3","4","4","4","0","-1","0","0","-1","0","1","1","5","4","5","4","4","3","4","3","4","4","4","7","6","6","5","5","5","7","7","4","5","3","3","6","3","5","2","5","3","1","4","3","4","2","3","3","4","4","3","2","3","4","3","2","2","5","4","5","5","6","4","3","5","3","3","4","2","4","3","6","763058594613825537","徐","581","Female","[""好我"",""坏她"",""好她"",""坏我""]","[""强我"",""弱她"",""强她"",""弱我""]","","","","","","","","","","","","","","","","","","","","","","","","","","","","","","feedback_test","","","","","","","","",""
"1040","","f","psychophysics","82","369509","0.0-8.0-1.0-1.0-0.0-0.36","4","3","4","3","3","4","3","3","4","4","4","0","-1","0","0","-1","0","1","1","5","4","5","4","4","3","4","3","4","4","4","7","6","6","5","5","5","7","7","4","5","3","3","6","3","5","2","5","3","1","4","3","4","2","3","3","4","4","3","2","3","4","3","2","2","5","4","5","5","6","4","3","5","3","3","4","2","4","3","6","763058594613825537","徐","581","Female","[""好我"",""坏她"",""好她"",""坏我""]","[""强我"",""弱她"",""强她"",""弱我""]","","","","","","","","nonmatch","","","","","","","","","","key","f","16.649836065574","768","428","f","true","nonmatch","img/hexagon.png","强我","弱她","prac_ALT2_ability","practice_ability","","","","","","","","",""
"null","<span style='color:GreenYellow; font-size: 70px;'>正确! </span>","null","html-keyboard-response","83","370013","0.0-8.0-1.0-1.0-0.0-1.36","4","3","4","3","3","4","3","3","4","4","4","0","-1","0","0","-1","0","1","1","5","4","5","4","4","3","4","3","4","4","4","7","6","6","5","5","5","7","7","4","5","3","3","6","3","5","2","5","3","1","4","3","4","2","3","3","4","4","3","2","3","4","3","2","2","5","4","5","5","6","4","3","5","3","3","4","2","4","3","6","763058594613825537","徐","581","Female","[""好我"",""坏她"",""好她"",""坏我""]","[""强我"",""弱她"",""强她"",""弱我""]","","","","","","","","","","","","","","","","","","","","","","","","","","","","","","feedback_test","","","","","","","","",""
"826","","j","psychophysics","84","371844","0.0-8.0-1.0-1.0-0.0-0.37","4","3","4","3","3","4","3","3","4","4","4","0","-1","0","0","-1","0","1","1","5","4","5","4","4","3","4","3","4","4","4","7","6","6","5","5","5","7","7","4","5","3","3","6","3","5","2","5","3","1","4","3","4","2","3","3","4","4","3","2","3","4","3","2","2","5","4","5","5","6","4","3","5","3","3","4","2","4","3","6","763058594613825537","徐","581","Female","[""好我"",""坏她"",""好她"",""坏我""]","[""强我"",""弱她"",""强她"",""弱我""]","","","","","","","","match","","","","","","","","","","key","j","16.651623853211028","768","428","j","true","match","img/triangle.png","强她","强她","prac_ALT2_ability","practice_ability","","","","","","","","",""
"null","<span style='color:GreenYellow; font-size: 70px;'>正确! </span>","null","html-keyboard-response","85","372348","0.0-8.0-1.0-1.0-0.0-1.37","4","3","4","3","3","4","3","3","4","4","4","0","-1","0","0","-1","0","1","1","5","4","5","4","4","3","4","3","4","4","4","7","6","6","5","5","5","7","7","4","5","3","3","6","3","5","2","5","3","1","4","3","4","2","3","3","4","4","3","2","3","4","3","2","2","5","4","5","5","6","4","3","5","3","3","4","2","4","3","6","763058594613825537","徐","581","Female","[""好我"",""坏她"",""好她"",""坏我""]","[""强我"",""弱她"",""强她"",""弱我""]","","","","","","","","","","","","","","","","","","","","","","","","","","","","","","feedback_test","","","","","","","","",""
"633","","j","psychophysics","86","373987","0.0-8.0-1.0-1.0-0.0-0.38","4","3","4","3","3","4","3","3","4","4","4","0","-1","0","0","-1","0","1","1","5","4","5","4","4","3","4","3","4","4","4","7","6","6","5","5","5","7","7","4","5","3","3","6","3","5","2","5","3","1","4","3","4","2","3","3","4","4","3","2","3","4","3","2","2","5","4","5","5","6","4","3","5","3","3","4","2","4","3","6","763058594613825537","徐","581","Female","[""好我"",""坏她"",""好她"",""坏我""]","[""强我"",""弱她"",""强她"",""弱我""]","","","","","","","","match","","","","","","","","","","key","j","16.65171134020574","768","428","f","false","nonmatch","img/triangle.png","强我","强她","prac_ALT2_ability","practice_ability","","","","","","","","",""
"null","<span style='color:red; font-size: 70px;'>错误! </span>","null","html-keyboard-response","87","374507","0.0-8.0-1.0-1.0-0.0-1.38","4","3","4","3","3","4","3","3","4","4","4","0","-1","0","0","-1","0","1","1","5","4","5","4","4","3","4","3","4","4","4","7","6","6","5","5","5","7","7","4","5","3","3","6","3","5","2","5","3","1","4","3","4","2","3","3","4","4","3","2","3","4","3","2","2","5","4","5","5","6","4","3","5","3","3","4","2","4","3","6","763058594613825537","徐","581","Female","[""好我"",""坏她"",""好她"",""坏我""]","[""强我"",""弱她"",""强她"",""弱我""]","","","","","","","","","","","","","","","","","","","","","","","","","","","","","","feedback_test","","","","","","","","",""
"881","","f","psychophysics","88","376392","0.0-8.0-1.0-1.0-0.0-0.39","4","3","4","3","3","4","3","3","4","4","4","0","-1","0","0","-1","0","1","1","5","4","5","4","4","3","4","3","4","4","4","7","6","6","5","5","5","7","7","4","5","3","3","6","3","5","2","5","3","1","4","3","4","2","3","3","4","4","3","2","3","4","3","2","2","5","4","5","5","6","4","3","5","3","3","4","2","4","3","6","763058594613825537","徐","581","Female","[""好我"",""坏她"",""好她"",""坏我""]","[""强我"",""弱她"",""强她"",""弱我""]","","","","","","","","nonmatch","","","","","","","","","","key","f","16.65053571428559","768","428","j","false","match","img/hexagon.png","弱她","弱她","prac_ALT2_ability","practice_ability","","","","","","","","",""
"null","<span style='color:red; font-size: 70px;'>错误! </span>","null","html-keyboard-response","89","376894","0.0-8.0-1.0-1.0-0.0-1.39","4","3","4","3","3","4","3","3","4","4","4","0","-1","0","0","-1","0","1","1","5","4","5","4","4","3","4","3","4","4","4","7","6","6","5","5","5","7","7","4","5","3","3","6","3","5","2","5","3","1","4","3","4","2","3","3","4","4","3","2","3","4","3","2","2","5","4","5","5","6","4","3","5","3","3","4","2","4","3","6","763058594613825537","徐","581","Female","[""好我"",""坏她"",""好她"",""坏我""]","[""强我"",""弱她"",""强她"",""弱我""]","","","","","","","","","","","","","","","","","","","","","","","","","","","","","","feedback_test","","","","","","","","",""
"null","","null","psychophysics","90","379100","0.0-8.0-1.0-1.0-0.0-0.40","4","3","4","3","3","4","3","3","4","4","4","0","-1","0","0","-1","0","1","1","5","4","5","4","4","3","4","3","4","4","4","7","6","6","5","5","5","7","7","4","5","3","3","6","3","5","2","5","3","1","4","3","4","2","3","3","4","4","3","2","3","4","3","2","2","5","4","5","5","6","4","3","5","3","3","4","2","4","3","6","763058594613825537","徐","581","Female","[""好我"",""坏她"",""好她"",""坏我""]","[""强我"",""弱她"",""强她"",""弱我""]","","","","","","","","null","","","","","","","","","","key","null","16.65046564885504","768","428","f","false","nonmatch","img/circle.png","弱她","弱我","prac_ALT2_ability","practice_ability","","","","","","","","",""
"null","<span class='add_' style='color:yellow; font-size: 70px;'> 太慢! </span>","null","html-keyboard-response","91","379603","0.0-8.0-1.0-1.0-0.0-1.40","4","3","4","3","3","4","3","3","4","4","4","0","-1","0","0","-1","0","1","1","5","4","5","4","4","3","4","3","4","4","4","7","6","6","5","5","5","7","7","4","5","3","3","6","3","5","2","5","3","1","4","3","4","2","3","3","4","4","3","2","3","4","3","2","2","5","4","5","5","6","4","3","5","3","3","4","2","4","3","6","763058594613825537","徐","581","Female","[""好我"",""坏她"",""好她"",""坏我""]","[""强我"",""弱她"",""强她"",""弱我""]","","","","","","","","","","","","","","","","","","","","","","","","","","","","","","feedback_test","","","","","","","","",""
"900","","f","psychophysics","92","381506","0.0-8.0-1.0-1.0-0.0-0.41","4","3","4","3","3","4","3","3","4","4","4","0","-1","0","0","-1","0","1","1","5","4","5","4","4","3","4","3","4","4","4","7","6","6","5","5","5","7","7","4","5","3","3","6","3","5","2","5","3","1","4","3","4","2","3","3","4","4","3","2","3","4","3","2","2","5","4","5","5","6","4","3","5","3","3","4","2","4","3","6","763058594613825537","徐","581","Female","[""好我"",""坏她"",""好她"",""坏我""]","[""强我"",""弱她"",""强她"",""弱我""]","","","","","","","","nonmatch","","","","","","","","","","key","f","16.6508495575224","768","428","f","true","nonmatch","img/triangle.png","弱我","强她","prac_ALT2_ability","practice_ability","","","","","","","","",""
"null","<span style='color:GreenYellow; font-size: 70px;'>正确! </span>","null","html-keyboard-response","93","382008","0.0-8.0-1.0-1.0-0.0-1.41","4","3","4","3","3","4","3","3","4","4","4","0","-1","0","0","-1","0","1","1","5","4","5","4","4","3","4","3","4","4","4","7","6","6","5","5","5","7","7","4","5","3","3","6","3","5","2","5","3","1","4","3","4","2","3","3","4","4","3","2","3","4","3","2","2","5","4","5","5","6","4","3","5","3","3","4","2","4","3","6","763058594613825537","徐","581","Female","[""好我"",""坏她"",""好她"",""坏我""]","[""强我"",""弱她"",""强她"",""弱我""]","","","","","","","","","","","","","","","","","","","","","","","","","","","","","","feedback_test","","","","","","","","",""
"893","","f","psychophysics","94","383909","0.0-8.0-1.0-1.0-0.0-0.42","4","3","4","3","3","4","3","3","4","4","4","0","-1","0","0","-1","0","1","1","5","4","5","4","4","3","4","3","4","4","4","7","6","6","5","5","5","7","7","4","5","3","3","6","3","5","2","5","3","1","4","3","4","2","3","3","4","4","3","2","3","4","3","2","2","5","4","5","5","6","4","3","5","3","3","4","2","4","3","6","763058594613825537","徐","581","Female","[""好我"",""坏她"",""好她"",""坏我""]","[""强我"",""弱她"",""强她"",""弱我""]","","","","","","","","nonmatch","","","","","","","","","","key","f","16.652495575220886","768","428","f","true","nonmatch","img/hexagon.png","强她","弱她","prac_ALT2_ability","practice_ability","","","","","","","","",""
"null","<span style='color:GreenYellow; font-size: 70px;'>正确! </span>","null","html-keyboard-response","95","384413","0.0-8.0-1.0-1.0-0.0-1.42","4","3","4","3","3","4","3","3","4","4","4","0","-1","0","0","-1","0","1","1","5","4","5","4","4","3","4","3","4","4","4","7","6","6","5","5","5","7","7","4","5","3","3","6","3","5","2","5","3","1","4","3","4","2","3","3","4","4","3","2","3","4","3","2","2","5","4","5","5","6","4","3","5","3","3","4","2","4","3","6","763058594613825537","徐","581","Female","[""好我"",""坏她"",""好她"",""坏我""]","[""强我"",""弱她"",""强她"",""弱我""]","","","","","","","","","","","","","","","","","","","","","","","","","","","","","","feedback_test","","","","","","","","",""
"781","","f","psychophysics","96","386198","0.0-8.0-1.0-1.0-0.0-0.43","4","3","4","3","3","4","3","3","4","4","4","0","-1","0","0","-1","0","1","1","5","4","5","4","4","3","4","3","4","4","4","7","6","6","5","5","5","7","7","4","5","3","3","6","3","5","2","5","3","1","4","3","4","2","3","3","4","4","3","2","3","4","3","2","2","5","4","5","5","6","4","3","5","3","3","4","2","4","3","6","763058594613825537","徐","581","Female","[""好我"",""坏她"",""好她"",""坏我""]","[""强我"",""弱她"",""强她"",""弱我""]","","","","","","","","nonmatch","","","","","","","","","","key","f","16.653415094339508","768","428","f","true","nonmatch","img/triangle.png","弱她","强她","prac_ALT2_ability","practice_ability","","","","","","","","",""
"null","<span style='color:GreenYellow; font-size: 70px;'>正确! </span>","null","html-keyboard-response","97","386703","0.0-8.0-1.0-1.0-0.0-1.43","4","3","4","3","3","4","3","3","4","4","4","0","-1","0","0","-1","0","1","1","5","4","5","4","4","3","4","3","4","4","4","7","6","6","5","5","5","7","7","4","5","3","3","6","3","5","2","5","3","1","4","3","4","2","3","3","4","4","3","2","3","4","3","2","2","5","4","5","5","6","4","3","5","3","3","4","2","4","3","6","763058594613825537","徐","581","Female","[""好我"",""坏她"",""好她"",""坏我""]","[""强我"",""弱她"",""强她"",""弱我""]","","","","","","","","","","","","","","","","","","","","","","","","","","","","","","feedback_test","","","","","","","","",""
"686","","j","psychophysics","98","388394","0.0-8.0-1.0-1.0-0.0-0.44","4","3","4","3","3","4","3","3","4","4","4","0","-1","0","0","-1","0","1","1","5","4","5","4","4","3","4","3","4","4","4","7","6","6","5","5","5","7","7","4","5","3","3","6","3","5","2","5","3","1","4","3","4","2","3","3","4","4","3","2","3","4","3","2","2","5","4","5","5","6","4","3","5","3","3","4","2","4","3","6","763058594613825537","徐","581","Female","[""好我"",""坏她"",""好她"",""坏我""]","[""强我"",""弱她"",""强她"",""弱我""]","","","","","","","","match","","","","","","","","","","key","j","16.65084158415828","768","428","f","false","nonmatch","img/trapezoid.png","强她","强我","prac_ALT2_ability","practice_ability","","","","","","","","",""
"null","<span style='color:red; font-size: 70px;'>错误! </span>","null","html-keyboard-response","99","388900","0.0-8.0-1.0-1.0-0.0-1.44","4","3","4","3","3","4","3","3","4","4","4","0","-1","0","0","-1","0","1","1","5","4","5","4","4","3","4","3","4","4","4","7","6","6","5","5","5","7","7","4","5","3","3","6","3","5","2","5","3","1","4","3","4","2","3","3","4","4","3","2","3","4","3","2","2","5","4","5","5","6","4","3","5","3","3","4","2","4","3","6","763058594613825537","徐","581","Female","[""好我"",""坏她"",""好她"",""坏我""]","[""强我"",""弱她"",""强她"",""弱我""]","","","","","","","","","","","","","","","","","","","","","","","","","","","","","","feedback_test","","","","","","","","",""
"799","","j","psychophysics","100","390714","0.0-8.0-1.0-1.0-0.0-0.45","4","3","4","3","3","4","3","3","4","4","4","0","-1","0","0","-1","0","1","1","5","4","5","4","4","3","4","3","4","4","4","7","6","6","5","5","5","7","7","4","5","3","3","6","3","5","2","5","3","1","4","3","4","2","3","3","4","4","3","2","3","4","3","2","2","5","4","5","5","6","4","3","5","3","3","4","2","4","3","6","763058594613825537","徐","581","Female","[""好我"",""坏她"",""好她"",""坏我""]","[""强我"",""弱她"",""强她"",""弱我""]","","","","","","","","match","","","","","","","","","","key","j","16.651897196261928","768","428","j","true","match","img/trapezoid.png","强我","强我","prac_ALT2_ability","practice_ability","","","","","","","","",""
"null","<span style='color:GreenYellow; font-size: 70px;'>正确! </span>","null","html-keyboard-response","101","391217","0.0-8.0-1.0-1.0-0.0-1.45","4","3","4","3","3","4","3","3","4","4","4","0","-1","0","0","-1","0","1","1","5","4","5","4","4","3","4","3","4","4","4","7","6","6","5","5","5","7","7","4","5","3","3","6","3","5","2","5","3","1","4","3","4","2","3","3","4","4","3","2","3","4","3","2","2","5","4","5","5","6","4","3","5","3","3","4","2","4","3","6","763058594613825537","徐","581","Female","[""好我"",""坏她"",""好她"",""坏我""]","[""强我"",""弱她"",""强她"",""弱我""]","","","","","","","","","","","","","","","","","","","","","","","","","","","","","","feedback_test","","","","","","","","",""
"676","","j","psychophysics","102","392899","0.0-8.0-1.0-1.0-0.0-0.46","4","3","4","3","3","4","3","3","4","4","4","0","-1","0","0","-1","0","1","1","5","4","5","4","4","3","4","3","4","4","4","7","6","6","5","5","5","7","7","4","5","3","3","6","3","5","2","5","3","1","4","3","4","2","3","3","4","4","3","2","3","4","3","2","2","5","4","5","5","6","4","3","5","3","3","4","2","4","3","6","763058594613825537","徐","581","Female","[""好我"",""坏她"",""好她"",""坏我""]","[""强我"",""弱她"",""强她"",""弱我""]","","","","","","","","match","","","","","","","","","","key","j","16.651449999999603","768","428","j","true","match","img/circle.png","弱我","弱我","prac_ALT2_ability","practice_ability","","","","","","","","",""
"null","<span style='color:GreenYellow; font-size: 70px;'>正确! </span>","null","html-keyboard-response","103","393402","0.0-8.0-1.0-1.0-0.0-1.46","4","3","4","3","3","4","3","3","4","4","4","0","-1","0","0","-1","0","1","1","5","4","5","4","4","3","4","3","4","4","4","7","6","6","5","5","5","7","7","4","5","3","3","6","3","5","2","5","3","1","4","3","4","2","3","3","4","4","3","2","3","4","3","2","2","5","4","5","5","6","4","3","5","3","3","4","2","4","3","6","763058594613825537","徐","581","Female","[""好我"",""坏她"",""好她"",""坏我""]","[""强我"",""弱她"",""强她"",""弱我""]","","","","","","","","","","","","","","","","","","","","","","","","","","","","","","feedback_test","","","","","","","","",""
"677","","j","psychophysics","104","395082","0.0-8.0-1.0-1.0-0.0-0.47","4","3","4","3","3","4","3","3","4","4","4","0","-1","0","0","-1","0","1","1","5","4","5","4","4","3","4","3","4","4","4","7","6","6","5","5","5","7","7","4","5","3","3","6","3","5","2","5","3","1","4","3","4","2","3","3","4","4","3","2","3","4","3","2","2","5","4","5","5","6","4","3","5","3","3","4","2","4","3","6","763058594613825537","徐","581","Female","[""好我"",""坏她"",""好她"",""坏我""]","[""强我"",""弱她"",""强她"",""弱我""]","","","","","","","","match","","","","","","","","","","key","j","16.653050505050523","768","428","j","true","match","img/triangle.png","强她","强她","prac_ALT2_ability","practice_ability","","","","","","","","",""
"null","<span style='color:GreenYellow; font-size: 70px;'>正确! </span>","null","html-keyboard-response","105","395586","0.0-8.0-1.0-1.0-0.0-1.47","4","3","4","3","3","4","3","3","4","4","4","0","-1","0","0","-1","0","1","1","5","4","5","4","4","3","4","3","4","4","4","7","6","6","5","5","5","7","7","4","5","3","3","6","3","5","2","5","3","1","4","3","4","2","3","3","4","4","3","2","3","4","3","2","2","5","4","5","5","6","4","3","5","3","3","4","2","4","3","6","763058594613825537","徐","581","Female","[""好我"",""坏她"",""好她"",""坏我""]","[""强我"",""弱她"",""强她"",""弱我""]","","","","","","","","","","","","","","","","","","","","","","","","","","","","","","feedback_test","","","","","","","","",""
"20906","<style>.context{color:white; font-size: 35px; line-height:40px}</style>                          <div><p class='context'>您正确回答了67% 的试次。</p><p class='context'>您的平均反应时为849毫秒。</p><p class='context'>恭喜您完成练习。按空格键进入正式实验。</p><p class='footer' style='color:white;font-size: 35px; line-height:40px;'>请在进入正式实验实验之前将您的<span style='color: lightgreen;'>食指</span>放在电脑键盘的相应键位上进行按键。</p>"," ","html-keyboard-response","106","416504","0.0-8.0-1.0-2.0","4","3","4","3","3","4","3","3","4","4","4","0","-1","0","0","-1","0","1","1","5","4","5","4","4","3","4","3","4","4","4","7","6","6","5","5","5","7","7","4","5","3","3","6","3","5","2","5","3","1","4","3","4","2","3","3","4","4","3","2","3","4","3","2","2","5","4","5","5","6","4","3","5","3","3","4","2","4","3","6","763058594613825537","徐","581","Female","[""好我"",""坏她"",""好她"",""坏我""]","[""强我"",""弱她"",""强她"",""弱我""]","","","","","","","","","","","","","","","","","","","","","","","","","","","","","","","","","","","","","","",""
"1985","
  <p style='color: white; font-size: 22px'>请您将手指放在按键上，准备进入正式的匹配任务。</p>
  <p> <div style = ""color: green""><按空格键进入下一阶段的匹配任务></div></p>
  "," ","html-keyboard-response","107","418509","0.0-8.0-1.0-3.0","4","3","4","3","3","4","3","3","4","4","4","0","-1","0","0","-1","0","1","1","5","4","5","4","4","3","4","3","4","4","4","7","6","6","5","5","5","7","7","4","5","3","3","6","3","5","2","5","3","1","4","3","4","2","3","3","4","4","3","2","3","4","3","2","2","5","4","5","5","6","4","3","5","3","3","4","2","4","3","6","763058594613825537","徐","581","Female","[""好我"",""坏她"",""好她"",""坏我""]","[""强我"",""弱她"",""强她"",""弱我""]","","","","","","","","","","","","","","","","","","","","","","","","","","","","","","","","","","","","","","",""
"null","","null","psychophysics","108","420721","0.0-8.0-1.0-4.0-0.0-0.0","4","3","4","3","3","4","3","3","4","4","4","0","-1","0","0","-1","0","1","1","5","4","5","4","4","3","4","3","4","4","4","7","6","6","5","5","5","7","7","4","5","3","3","6","3","5","2","5","3","1","4","3","4","2","3","3","4","4","3","2","3","4","3","2","2","5","4","5","5","6","4","3","5","3","3","4","2","4","3","6","763058594613825537","徐","581","Female","[""好我"",""坏她"",""好她"",""坏我""]","[""强我"",""弱她"",""强她"",""弱我""]","","","","","","","","null","","","","","","","","","","key","null","16.65190909090884","768","428","f","false","nonmatch","img/hexagon.png","强她","弱她","ALT2","ability","","","","","","","","",""
"null","<span class='add_' style='color:yellow; font-size: 70px;'> 太慢! </span>","null","html-keyboard-response","109","421225","0.0-8.0-1.0-4.0-0.0-1.0","4","3","4","3","3","4","3","3","4","4","4","0","-1","0","0","-1","0","1","1","5","4","5","4","4","3","4","3","4","4","4","7","6","6","5","5","5","7","7","4","5","3","3","6","3","5","2","5","3","1","4","3","4","2","3","3","4","4","3","2","3","4","3","2","2","5","4","5","5","6","4","3","5","3","3","4","2","4","3","6","763058594613825537","徐","581","Female","[""好我"",""坏她"",""好她"",""坏我""]","[""强我"",""弱她"",""强她"",""弱我""]","","","","","","","","","","","","","","","","","","","","","","","","","","","","","","feedback_test","","","","","","","","",""
"805","","f","psychophysics","110","423034","0.0-8.0-1.0-4.0-0.0-0.1","4","3","4","3","3","4","3","3","4","4","4","0","-1","0","0","-1","0","1","1","5","4","5","4","4","3","4","3","4","4","4","7","6","6","5","5","5","7","7","4","5","3","3","6","3","5","2","5","3","1","4","3","4","2","3","3","4","4","3","2","3","4","3","2","2","5","4","5","5","6","4","3","5","3","3","4","2","4","3","6","763058594613825537","徐","581","Female","[""好我"",""坏她"",""好她"",""坏我""]","[""强我"",""弱她"",""强她"",""弱我""]","","","","","","","","nonmatch","","","","","","","","","","key","f","16.651280373832098","768","428","j","false","match","img/hexagon.png","弱她","弱她","ALT2","ability","","","","","","","","",""
"null","<span style='color:red; font-size: 70px;'>错误! </span>","null","html-keyboard-response","111","423537","0.0-8.0-1.0-4.0-0.0-1.1","4","3","4","3","3","4","3","3","4","4","4","0","-1","0","0","-1","0","1","1","5","4","5","4","4","3","4","3","4","4","4","7","6","6","5","5","5","7","7","4","5","3","3","6","3","5","2","5","3","1","4","3","4","2","3","3","4","4","3","2","3","4","3","2","2","5","4","5","5","6","4","3","5","3","3","4","2","4","3","6","763058594613825537","徐","581","Female","[""好我"",""坏她"",""好她"",""坏我""]","[""强我"",""弱她"",""强她"",""弱我""]","","","","","","","","","","","","","","","","","","","","","","","","","","","","","","feedback_test","","","","","","","","",""
"608","","j","psychophysics","112","425149","0.0-8.0-1.0-4.0-0.0-0.2","4","3","4","3","3","4","3","3","4","4","4","0","-1","0","0","-1","0","1","1","5","4","5","4","4","3","4","3","4","4","4","7","6","6","5","5","5","7","7","4","5","3","3","6","3","5","2","5","3","1","4","3","4","2","3","3","4","4","3","2","3","4","3","2","2","5","4","5","5","6","4","3","5","3","3","4","2","4","3","6","763058594613825537","徐","581","Female","[""好我"",""坏她"",""好她"",""坏我""]","[""强我"",""弱她"",""强她"",""弱我""]","","","","","","","","match","","","","","","","","","","key","j","16.651031249999505","768","428","j","true","match","img/triangle.png","强她","强她","ALT2","ability","","","","","","","","",""
"null","<span style='color:GreenYellow; font-size: 70px;'>正确! </span>","null","html-keyboard-response","113","425652","0.0-8.0-1.0-4.0-0.0-1.2","4","3","4","3","3","4","3","3","4","4","4","0","-1","0","0","-1","0","1","1","5","4","5","4","4","3","4","3","4","4","4","7","6","6","5","5","5","7","7","4","5","3","3","6","3","5","2","5","3","1","4","3","4","2","3","3","4","4","3","2","3","4","3","2","2","5","4","5","5","6","4","3","5","3","3","4","2","4","3","6","763058594613825537","徐","581","Female","[""好我"",""坏她"",""好她"",""坏我""]","[""强我"",""弱她"",""强她"",""弱我""]","","","","","","","","","","","","","","","","","","","","","","","","","","","","","","feedback_test","","","","","","","","",""
"966","","f","psychophysics","114","427623","0.0-8.0-1.0-4.0-0.0-0.3","4","3","4","3","3","4","3","3","4","4","4","0","-1","0","0","-1","0","1","1","5","4","5","4","4","3","4","3","4","4","4","7","6","6","5","5","5","7","7","4","5","3","3","6","3","5","2","5","3","1","4","3","4","2","3","3","4","4","3","2","3","4","3","2","2","5","4","5","5","6","4","3","5","3","3","4","2","4","3","6","763058594613825537","徐","581","Female","[""好我"",""坏她"",""好她"",""坏我""]","[""强我"",""弱她"",""强她"",""弱我""]","","","","","","","","nonmatch","","","","","","","","","","key","f","16.644504273504328","768","428","f","true","nonmatch","img/hexagon.png","强我","弱她","ALT2","ability","","","","","","","","",""
"null","<span style='color:GreenYellow; font-size: 70px;'>正确! </span>","null","html-keyboard-response","115","428127","0.0-8.0-1.0-4.0-0.0-1.3","4","3","4","3","3","4","3","3","4","4","4","0","-1","0","0","-1","0","1","1","5","4","5","4","4","3","4","3","4","4","4","7","6","6","5","5","5","7","7","4","5","3","3","6","3","5","2","5","3","1","4","3","4","2","3","3","4","4","3","2","3","4","3","2","2","5","4","5","5","6","4","3","5","3","3","4","2","4","3","6","763058594613825537","徐","581","Female","[""好我"",""坏她"",""好她"",""坏我""]","[""强我"",""弱她"",""强她"",""弱我""]","","","","","","","","","","","","","","","","","","","","","","","","","","","","","","feedback_test","","","","","","","","",""
"565","","j","psychophysics","116","429696","0.0-8.0-1.0-4.0-0.0-0.4","4","3","4","3","3","4","3","3","4","4","4","0","-1","0","0","-1","0","1","1","5","4","5","4","4","3","4","3","4","4","4","7","6","6","5","5","5","7","7","4","5","3","3","6","3","5","2","5","3","1","4","3","4","2","3","3","4","4","3","2","3","4","3","2","2","5","4","5","5","6","4","3","5","3","3","4","2","4","3","6","763058594613825537","徐","581","Female","[""好我"",""坏她"",""好她"",""坏我""]","[""强我"",""弱她"",""强她"",""弱我""]","","","","","","","","match","","","","","","","","","","key","j","16.652225806451682","768","428","j","true","match","img/trapezoid.png","强我","强我","ALT2","ability","","","","","","","","",""
"null","<span style='color:GreenYellow; font-size: 70px;'>正确! </span>","null","html-keyboard-response","117","430202","0.0-8.0-1.0-4.0-0.0-1.4","4","3","4","3","3","4","3","3","4","4","4","0","-1","0","0","-1","0","1","1","5","4","5","4","4","3","4","3","4","4","4","7","6","6","5","5","5","7","7","4","5","3","3","6","3","5","2","5","3","1","4","3","4","2","3","3","4","4","3","2","3","4","3","2","2","5","4","5","5","6","4","3","5","3","3","4","2","4","3","6","763058594613825537","徐","581","Female","[""好我"",""坏她"",""好她"",""坏我""]","[""强我"",""弱她"",""强她"",""弱我""]","","","","","","","","","","","","","","","","","","","","","","","","","","","","","","feedback_test","","","","","","","","",""
"715","","f","psychophysics","118","431922","0.0-8.0-1.0-4.0-0.0-0.5","4","3","4","3","3","4","3","3","4","4","4","0","-1","0","0","-1","0","1","1","5","4","5","4","4","3","4","3","4","4","4","7","6","6","5","5","5","7","7","4","5","3","3","6","3","5","2","5","3","1","4","3","4","2","3","3","4","4","3","2","3","4","3","2","2","5","4","5","5","6","4","3","5","3","3","4","2","4","3","6","763058594613825537","徐","581","Female","[""好我"",""坏她"",""好她"",""坏我""]","[""强我"",""弱她"",""强她"",""弱我""]","","","","","","","","nonmatch","","","","","","","","","","key","f","16.651490196078335","768","428","j","false","match","img/triangle.png","强她","强她","ALT2","ability","","","","","","","","",""
"null","<span style='color:red; font-size: 70px;'>错误! </span>","null","html-keyboard-response","119","432423","0.0-8.0-1.0-4.0-0.0-1.5","4","3","4","3","3","4","3","3","4","4","4","0","-1","0","0","-1","0","1","1","5","4","5","4","4","3","4","3","4","4","4","7","6","6","5","5","5","7","7","4","5","3","3","6","3","5","2","5","3","1","4","3","4","2","3","3","4","4","3","2","3","4","3","2","2","5","4","5","5","6","4","3","5","3","3","4","2","4","3","6","763058594613825537","徐","581","Female","[""好我"",""坏她"",""好她"",""坏我""]","[""强我"",""弱她"",""强她"",""弱我""]","","","","","","","","","","","","","","","","","","","","","","","","","","","","","","feedback_test","","","","","","","","",""
"849","","f","psychophysics","120","434278","0.0-8.0-1.0-4.0-0.0-0.6","4","3","4","3","3","4","3","3","4","4","4","0","-1","0","0","-1","0","1","1","5","4","5","4","4","3","4","3","4","4","4","7","6","6","5","5","5","7","7","4","5","3","3","6","3","5","2","5","3","1","4","3","4","2","3","3","4","4","3","2","3","4","3","2","2","5","4","5","5","6","4","3","5","3","3","4","2","4","3","6","763058594613825537","徐","581","Female","[""好我"",""坏她"",""好她"",""坏我""]","[""强我"",""弱她"",""强她"",""弱我""]","","","","","","","","nonmatch","","","","","","","","","","key","f","16.65140000000035","768","428","f","true","nonmatch","img/triangle.png","弱我","强她","ALT2","ability","","","","","","","","",""
"null","<span style='color:GreenYellow; font-size: 70px;'>正确! </span>","null","html-keyboard-response","121","434782","0.0-8.0-1.0-4.0-0.0-1.6","4","3","4","3","3","4","3","3","4","4","4","0","-1","0","0","-1","0","1","1","5","4","5","4","4","3","4","3","4","4","4","7","6","6","5","5","5","7","7","4","5","3","3","6","3","5","2","5","3","1","4","3","4","2","3","3","4","4","3","2","3","4","3","2","2","5","4","5","5","6","4","3","5","3","3","4","2","4","3","6","763058594613825537","徐","581","Female","[""好我"",""坏她"",""好她"",""坏我""]","[""强我"",""弱她"",""强她"",""弱我""]","","","","","","","","","","","","","","","","","","","","","","","","","","","","","","feedback_test","","","","","","","","",""
"817","","f","psychophysics","122","436603","0.0-8.0-1.0-4.0-0.0-0.7","4","3","4","3","3","4","3","3","4","4","4","0","-1","0","0","-1","0","1","1","5","4","5","4","4","3","4","3","4","4","4","7","6","6","5","5","5","7","7","4","5","3","3","6","3","5","2","5","3","1","4","3","4","2","3","3","4","4","3","2","3","4","3","2","2","5","4","5","5","6","4","3","5","3","3","4","2","4","3","6","763058594613825537","徐","581","Female","[""好我"",""坏她"",""好她"",""坏我""]","[""强我"",""弱她"",""强她"",""弱我""]","","","","","","","","nonmatch","","","","","","","","","","key","f","16.650574074073962","768","428","f","true","nonmatch","img/trapezoid.png","强她","强我","ALT2","ability","","","","","","","","",""
"null","<span style='color:GreenYellow; font-size: 70px;'>正确! </span>","null","html-keyboard-response","123","437105","0.0-8.0-1.0-4.0-0.0-1.7","4","3","4","3","3","4","3","3","4","4","4","0","-1","0","0","-1","0","1","1","5","4","5","4","4","3","4","3","4","4","4","7","6","6","5","5","5","7","7","4","5","3","3","6","3","5","2","5","3","1","4","3","4","2","3","3","4","4","3","2","3","4","3","2","2","5","4","5","5","6","4","3","5","3","3","4","2","4","3","6","763058594613825537","徐","581","Female","[""好我"",""坏她"",""好她"",""坏我""]","[""强我"",""弱她"",""强她"",""弱我""]","","","","","","","","","","","","","","","","","","","","","","","","","","","","","","feedback_test","","","","","","","","",""
"994","","j","psychophysics","124","439104","0.0-8.0-1.0-4.0-0.0-0.8","4","3","4","3","3","4","3","3","4","4","4","0","-1","0","0","-1","0","1","1","5","4","5","4","4","3","4","3","4","4","4","7","6","6","5","5","5","7","7","4","5","3","3","6","3","5","2","5","3","1","4","3","4","2","3","3","4","4","3","2","3","4","3","2","2","5","4","5","5","6","4","3","5","3","3","4","2","4","3","6","763058594613825537","徐","581","Female","[""好我"",""坏她"",""好她"",""坏我""]","[""强我"",""弱她"",""强她"",""弱我""]","","","","","","","","match","","","","","","","","","","key","j","16.65126050420168","768","428","j","true","match","img/hexagon.png","弱她","弱她","ALT2","ability","","","","","","","","",""
"null","<span style='color:GreenYellow; font-size: 70px;'>正确! </span>","null","html-keyboard-response","125","439605","0.0-8.0-1.0-4.0-0.0-1.8","4","3","4","3","3","4","3","3","4","4","4","0","-1","0","0","-1","0","1","1","5","4","5","4","4","3","4","3","4","4","4","7","6","6","5","5","5","7","7","4","5","3","3","6","3","5","2","5","3","1","4","3","4","2","3","3","4","4","3","2","3","4","3","2","2","5","4","5","5","6","4","3","5","3","3","4","2","4","3","6","763058594613825537","徐","581","Female","[""好我"",""坏她"",""好她"",""坏我""]","[""强我"",""弱她"",""强她"",""弱我""]","","","","","","","","","","","","","","","","","","","","","","","","","","","","","","feedback_test","","","","","","","","",""
"607","","j","psychophysics","126","441217","0.0-8.0-1.0-4.0-0.0-0.9","4","3","4","3","3","4","3","3","4","4","4","0","-1","0","0","-1","0","1","1","5","4","5","4","4","3","4","3","4","4","4","7","6","6","5","5","5","7","7","4","5","3","3","6","3","5","2","5","3","1","4","3","4","2","3","3","4","4","3","2","3","4","3","2","2","5","4","5","5","6","4","3","5","3","3","4","2","4","3","6","763058594613825537","徐","581","Female","[""好我"",""坏她"",""好她"",""坏我""]","[""强我"",""弱她"",""强她"",""弱我""]","","","","","","","","match","","","","","","","","","","key","j","16.652916666666595","768","428","j","true","match","img/circle.png","弱我","弱我","ALT2","ability","","","","","","","","",""
"null","<span style='color:GreenYellow; font-size: 70px;'>正确! </span>","null","html-keyboard-response","127","441720","0.0-8.0-1.0-4.0-0.0-1.9","4","3","4","3","3","4","3","3","4","4","4","0","-1","0","0","-1","0","1","1","5","4","5","4","4","3","4","3","4","4","4","7","6","6","5","5","5","7","7","4","5","3","3","6","3","5","2","5","3","1","4","3","4","2","3","3","4","4","3","2","3","4","3","2","2","5","4","5","5","6","4","3","5","3","3","4","2","4","3","6","763058594613825537","徐","581","Female","[""好我"",""坏她"",""好她"",""坏我""]","[""强我"",""弱她"",""强她"",""弱我""]","","","","","","","","","","","","","","","","","","","","","","","","","","","","","","feedback_test","","","","","","","","",""
"1084","","f","psychophysics","128","443809","0.0-8.0-1.0-4.0-0.0-0.10","4","3","4","3","3","4","3","3","4","4","4","0","-1","0","0","-1","0","1","1","5","4","5","4","4","3","4","3","4","4","4","7","6","6","5","5","5","7","7","4","5","3","3","6","3","5","2","5","3","1","4","3","4","2","3","3","4","4","3","2","3","4","3","2","2","5","4","5","5","6","4","3","5","3","3","4","2","4","3","6","763058594613825537","徐","581","Female","[""好我"",""坏她"",""好她"",""坏我""]","[""强我"",""弱她"",""强她"",""弱我""]","","","","","","","","nonmatch","","","","","","","","","","key","f","16.651168000000062","768","428","f","true","nonmatch","img/circle.png","强她","弱我","ALT2","ability","","","","","","","","",""
"null","<span style='color:GreenYellow; font-size: 70px;'>正确! </span>","null","html-keyboard-response","129","444313","0.0-8.0-1.0-4.0-0.0-1.10","4","3","4","3","3","4","3","3","4","4","4","0","-1","0","0","-1","0","1","1","5","4","5","4","4","3","4","3","4","4","4","7","6","6","5","5","5","7","7","4","5","3","3","6","3","5","2","5","3","1","4","3","4","2","3","3","4","4","3","2","3","4","3","2","2","5","4","5","5","6","4","3","5","3","3","4","2","4","3","6","763058594613825537","徐","581","Female","[""好我"",""坏她"",""好她"",""坏我""]","[""强我"",""弱她"",""强她"",""弱我""]","","","","","","","","","","","","","","","","","","","","","","","","","","","","","","feedback_test","","","","","","","","",""
"783","","f","psychophysics","130","446102","0.0-8.0-1.0-4.0-0.0-0.11","4","3","4","3","3","4","3","3","4","4","4","0","-1","0","0","-1","0","1","1","5","4","5","4","4","3","4","3","4","4","4","7","6","6","5","5","5","7","7","4","5","3","3","6","3","5","2","5","3","1","4","3","4","2","3","3","4","4","3","2","3","4","3","2","2","5","4","5","5","6","4","3","5","3","3","4","2","4","3","6","763058594613825537","徐","581","Female","[""好我"",""坏她"",""好她"",""坏我""]","[""强我"",""弱她"",""强她"",""弱我""]","","","","","","","","nonmatch","","","","","","","","","","key","f","16.65156603773577","768","428","j","false","match","img/triangle.png","强她","强她","ALT2","ability","","","","","","","","",""
"null","<span style='color:red; font-size: 70px;'>错误! </span>","null","html-keyboard-response","131","446606","0.0-8.0-1.0-4.0-0.0-1.11","4","3","4","3","3","4","3","3","4","4","4","0","-1","0","0","-1","0","1","1","5","4","5","4","4","3","4","3","4","4","4","7","6","6","5","5","5","7","7","4","5","3","3","6","3","5","2","5","3","1","4","3","4","2","3","3","4","4","3","2","3","4","3","2","2","5","4","5","5","6","4","3","5","3","3","4","2","4","3","6","763058594613825537","徐","581","Female","[""好我"",""坏她"",""好她"",""坏我""]","[""强我"",""弱她"",""强她"",""弱我""]","","","","","","","","","","","","","","","","","","","","","","","","","","","","","","feedback_test","","","","","","","","",""
"683","","j","psychophysics","132","448293","0.0-8.0-1.0-4.0-0.0-0.12","4","3","4","3","3","4","3","3","4","4","4","0","-1","0","0","-1","0","1","1","5","4","5","4","4","3","4","3","4","4","4","7","6","6","5","5","5","7","7","4","5","3","3","6","3","5","2","5","3","1","4","3","4","2","3","3","4","4","3","2","3","4","3","2","2","5","4","5","5","6","4","3","5","3","3","4","2","4","3","6","763058594613825537","徐","581","Female","[""好我"",""坏她"",""好她"",""坏我""]","[""强我"",""弱她"",""强她"",""弱我""]","","","","","","","","match","","","","","","","","","","key","j","16.651759999999776","768","428","f","false","nonmatch","img/triangle.png","强我","强她","ALT2","ability","","","","","","","","",""
"null","<span style='color:red; font-size: 70px;'>错误! </span>","null","html-keyboard-response","133","448797","0.0-8.0-1.0-4.0-0.0-1.12","4","3","4","3","3","4","3","3","4","4","4","0","-1","0","0","-1","0","1","1","5","4","5","4","4","3","4","3","4","4","4","7","6","6","5","5","5","7","7","4","5","3","3","6","3","5","2","5","3","1","4","3","4","2","3","3","4","4","3","2","3","4","3","2","2","5","4","5","5","6","4","3","5","3","3","4","2","4","3","6","763058594613825537","徐","581","Female","[""好我"",""坏她"",""好她"",""坏我""]","[""强我"",""弱她"",""强她"",""弱我""]","","","","","","","","","","","","","","","","","","","","","","","","","","","","","","feedback_test","","","","","","","","",""
"1059","","j","psychophysics","134","450861","0.0-8.0-1.0-4.0-0.0-0.13","4","3","4","3","3","4","3","3","4","4","4","0","-1","0","0","-1","0","1","1","5","4","5","4","4","3","4","3","4","4","4","7","6","6","5","5","5","7","7","4","5","3","3","6","3","5","2","5","3","1","4","3","4","2","3","3","4","4","3","2","3","4","3","2","2","5","4","5","5","6","4","3","5","3","3","4","2","4","3","6","763058594613825537","徐","581","Female","[""好我"",""坏她"",""好她"",""坏我""]","[""强我"",""弱她"",""强她"",""弱我""]","","","","","","","","match","","","","","","","","","","key","j","16.651650406503993","768","428","f","false","nonmatch","img/triangle.png","弱她","强她","ALT2","ability","","","","","","","","",""
"null","<span style='color:red; font-size: 70px;'>错误! </span>","null","html-keyboard-response","135","451363","0.0-8.0-1.0-4.0-0.0-1.13","4","3","4","3","3","4","3","3","4","4","4","0","-1","0","0","-1","0","1","1","5","4","5","4","4","3","4","3","4","4","4","7","6","6","5","5","5","7","7","4","5","3","3","6","3","5","2","5","3","1","4","3","4","2","3","3","4","4","3","2","3","4","3","2","2","5","4","5","5","6","4","3","5","3","3","4","2","4","3","6","763058594613825537","徐","581","Female","[""好我"",""坏她"",""好她"",""坏我""]","[""强我"",""弱她"",""强她"",""弱我""]","","","","","","","","","","","","","","","","","","","","","","","","","","","","","","feedback_test","","","","","","","","",""
"730","","j","psychophysics","136","453096","0.0-8.0-1.0-4.0-0.0-0.14","4","3","4","3","3","4","3","3","4","4","4","0","-1","0","0","-1","0","1","1","5","4","5","4","4","3","4","3","4","4","4","7","6","6","5","5","5","7","7","4","5","3","3","6","3","5","2","5","3","1","4","3","4","2","3","3","4","4","3","2","3","4","3","2","2","5","4","5","5","6","4","3","5","3","3","4","2","4","3","6","763058594613825537","徐","581","Female","[""好我"",""坏她"",""好她"",""坏我""]","[""强我"",""弱她"",""强她"",""弱我""]","","","","","","","","match","","","","","","","","","","key","j","16.65223529411756","768","428","j","true","match","img/circle.png","弱我","弱我","ALT2","ability","","","","","","","","",""
"null","<span style='color:GreenYellow; font-size: 70px;'>正确! </span>","null","html-keyboard-response","137","453599","0.0-8.0-1.0-4.0-0.0-1.14","4","3","4","3","3","4","3","3","4","4","4","0","-1","0","0","-1","0","1","1","5","4","5","4","4","3","4","3","4","4","4","7","6","6","5","5","5","7","7","4","5","3","3","6","3","5","2","5","3","1","4","3","4","2","3","3","4","4","3","2","3","4","3","2","2","5","4","5","5","6","4","3","5","3","3","4","2","4","3","6","763058594613825537","徐","581","Female","[""好我"",""坏她"",""好她"",""坏我""]","[""强我"",""弱她"",""强她"",""弱我""]","","","","","","","","","","","","","","","","","","","","","","","","","","","","","","feedback_test","","","","","","","","",""
