"rt","stimulus","response","trial_type","trial_index","time_elapsed","internal_node_id","swb_1","swb_2","swb_3","swb_4","swb_5","LOT_1","LOT_2","LOT_3","LOT_4","LOT_5","LOT_6","IPC_1","IPC_2","IPC_3","IPC_4","IPC_5","IPC_6","IPC_7","IPC_8","MorIden_1","MorIden_2","MorIden_3","MorIden_4","MorIden_5","MorIden_6","MorIden_7","MorIden_8","MorIden_9","MorIden_10","moralSeImag_1","moralSeImag_2","moralSeImag_3","moralSeImag_4","moralSeImag_5","moralSeImag_6","moralSeImag_7","moralSeImag_8","moralSeImag_9","sde_1","sde_2","sde_3","sde_4","sde_5","sde_6","sde_7","sde_8","sde_9","sde_10","trap2","sde_11","sde_12","sde_13","sde_14","sde_15","sde_16","sde_17","sde_18","sde_19","sde_20","IM_1","IM_2","IM_3","IM_4","IM_5","IM_6","IM_7","IM_8","IM_9","IM_10","IM_11","IM_12","IM_13","IM_14","IM_15","IM_16","IM_17","IM_18","IM_19","IM_20","subj_idx","friend_name","ParticipantID","Sex","Word","Word2","value","success","timeout","failed_images","failed_audio","failed_video","user_agent","responses","item_order","radio_event_ids","radio_event_times","key_event_times","mouse_event_times","straightlining","zigzagging","honeypot","view_history","response_type","key_press","avg_frame_time","center_x","center_y","correct_response","correct","identity","Image","word","condition","task_id","screen_id","time_stamp","person","valence","domain","math","status","duration","question_order","trap2_item"
"5048","
   <p><div style='color:white; font-size: 25px'>您好，欢迎参加本次实验。</div></p>
   <p><div style='color:white; font-size: 25px'>为充分保障您的权利，请确保您已经知晓并同意《参与实验同意书》以及《数据公开知情同意书》。</div></p>
   <p><div style='color:white; font-size: 25px'>如果您未见过上述内容，请咨询实验员。</div></p>
   <p style='color:white; font-size: 25px'>如果您选择继续实验，则表示您已经清楚两份知情同意书的内容并同意。</p>
   <p><div style = ""color: pink;font-size:30px;"">请确保您记得day0的实验编号，您将在本次实验输入该编号，若您忘记，请咨询实验员后作答。</div></p>
   <p><div style = ""color:lightblue;font-size:25px;"">请您尽可能认真地作答，我们将依据您在各问卷和按键任务中的作答质量发放报酬。</div></p>
   <p> <div style = ""color: green""><按空格键至下页></div> </p>
   "," ","html-keyboard-response","0","5052","0.0-0.0","6","6","5","2","4","4","2","3","5","5","5","-2","1","0","1","-2","0","1","1","5","4","5","5","4","5","4","4","5","4","6","8","7","8","7","5","7","8","9","7","6","4","7","3","4","6","1","4","4","1","3","2","7","6","7","3","4","7","4","3","3","2","5","2","4","6","3","7","2","6","6","3","3","1","3","7","2","7","6","4","798982829940809730","王","381","Male","[""坏他"",""坏我"",""好他"",""好我""]","[""弱他"",""弱我"",""强他"",""强我""]","","","","","","","","","","","","","","","","","","","","","","","","","","","","","","","","","","","","","","",""
"","","","call-function","1","5054","0.0-1.0-0.0","6","6","5","2","4","4","2","3","5","5","5","-2","1","0","1","-2","0","1","1","5","4","5","5","4","5","4","4","5","4","6","8","7","8","7","5","7","8","9","7","6","4","7","3","4","6","1","4","4","1","3","2","7","6","7","3","4","7","4","3","3","2","5","2","4","6","3","7","2","6","6","3","3","1","3","7","2","7","6","4","798982829940809730","王","381","Male","[""坏他"",""坏我"",""好他"",""好我""]","[""弱他"",""弱我"",""强他"",""强我""]","","","","","","","","","","","","","","","","","","","","","","","","","","","","","","","","","","","","","","",""
"15631","","[{""name"":""Sex"",""value"":""0""},{""name"":""friend_name"",""value"":""王""},{""name"":""ParticipantID"",""value"":""381""}]","survey-html-form","2","20687","0.0-1.0-1.0","6","6","5","2","4","4","2","3","5","5","5","-2","1","0","1","-2","0","1","1","5","4","5","5","4","5","4","4","5","4","6","8","7","8","7","5","7","8","9","7","6","4","7","3","4","6","1","4","4","1","3","2","7","6","7","3","4","7","4","3","3","2","5","2","4","6","3","7","2","6","6","3","3","1","3","7","2","7","6","4","798982829940809730","王","381","Male","[""坏他"",""坏我"",""好他"",""好我""]","[""弱他"",""弱我"",""强他"",""强我""]","","","","","","","","","","","","","","","","","","","","","","","","","","","","","","","","","","","","","","",""
"","","","preload","3","21029","0.0-2.0","6","6","5","2","4","4","2","3","5","5","5","-2","1","0","1","-2","0","1","1","5","4","5","5","4","5","4","4","5","4","6","8","7","8","7","5","7","8","9","7","6","4","7","3","4","6","1","4","4","1","3","2","7","6","7","3","4","7","4","3","3","2","5","2","4","6","3","7","2","6","6","3","3","1","3","7","2","7","6","4","798982829940809730","王","381","Male","[""坏他"",""坏我"",""好他"",""好我""]","[""弱他"",""弱我"",""强他"",""强我""]","","true","false","[]","[]","[]","","","","","","","","","","","","","","","","","","","","","","","","","","","","","","","","",""
"","","","fullscreen","4","22584","0.0-3.0","6","6","5","2","4","4","2","3","5","5","5","-2","1","0","1","-2","0","1","1","5","4","5","5","4","5","4","4","5","4","6","8","7","8","7","5","7","8","9","7","6","4","7","3","4","6","1","4","4","1","3","2","7","6","7","3","4","7","4","3","3","2","5","2","4","6","3","7","2","6","6","3","3","1","3","7","2","7","6","4","798982829940809730","王","381","Male","[""坏他"",""坏我"",""好他"",""好我""]","[""弱他"",""弱我"",""强他"",""强我""]","","true","","","","","{}","","","","","","","","","","","","","","","","","","","","","","","","","","","","","","","",""
"78843.80000001192","","{""Q01"":""6"",""Q02"":""6"",""Q03"":""5"",""Q04"":""2"",""Q05"":""4""}","survey-template","5","101432","0.0-4.0","6","6","5","2","4","4","2","3","5","5","5","-2","1","0","1","-2","0","1","1","5","4","5","5","4","5","4","4","5","4","6","8","7","8","7","5","7","8","9","7","6","4","7","3","4","6","1","4","4","1","3","2","7","6","7","3","4","7","4","3","3","2","5","2","4","6","3","7","2","6","6","3","3","1","3","7","2","7","6","4","798982829940809730","王","381","Male","[""坏他"",""坏我"",""好他"",""好我""]","[""弱他"",""弱我"",""强他"",""强我""]","","","","","","","","{""Q01"":""6"",""Q02"":""6"",""Q03"":""5"",""Q04"":""2"",""Q05"":""4""}","[0,1,2,3,4]","[""Q01"",""Q02"",""Q03"",""Q04"",""Q05""]","[68250.70000004768,70386.30000001192,71905.70000004768,74158.20000004768,77310.80000001192]","[]","[27820.400000035763,28343.5,48212.40000003576,50568.700000047684,58275.60000002384,68250.70000004768,70386.30000001192,71905.70000004768,74158.20000004768,77310.80000001192,78842.20000004768]","0.4","0.25","0","","","","","","","","","","","","","","","","","","","","","","",""
"25904.399999976158","","{""Q01"":""4"",""Q02"":""2"",""Q03"":""3"",""Q04"":""5"",""Q05"":""5"",""Q06"":""5""}","survey-template","6","127344","0.0-5.0","6","6","5","2","4","4","2","3","5","5","5","-2","1","0","1","-2","0","1","1","5","4","5","5","4","5","4","4","5","4","6","8","7","8","7","5","7","8","9","7","6","4","7","3","4","6","1","4","4","1","3","2","7","6","7","3","4","7","4","3","3","2","5","2","4","6","3","7","2","6","6","3","3","1","3","7","2","7","6","4","798982829940809730","王","381","Male","[""坏他"",""坏我"",""好他"",""好我""]","[""弱他"",""弱我"",""强他"",""强我""]","","","","","","","","{""Q01"":""4"",""Q02"":""2"",""Q03"":""3"",""Q04"":""5"",""Q05"":""5"",""Q06"":""5""}","[0,1,2,3,4,5]","[""Q01"",""Q02"",""Q03"",""Q04"",""Q05"",""Q06"",""Q06""]","[3094.7999999523163,5731.399999976158,8729.5,15270.299999952316,17623.899999976158,20885.5,24698.19999998808]","[]","[3094.7999999523163,5731.399999976158,8729.5,12571.299999952316,15270.299999952316,17623.899999976158,20885.5,24698.19999998808,25903]","0.3333333333333333","0.4","0","","","","","","","","","","","","","","","","","","","","","","",""
"30676.899999976158","","{""Q01"":""-2"",""Q02"":""1"",""Q03"":""0"",""Q04"":""1"",""Q05"":""-2"",""Q06"":""0"",""Q07"":""1"",""Q08"":""1""}","survey-template","7","158028","0.0-6.0","6","6","5","2","4","4","2","3","5","5","5","-2","1","0","1","-2","0","1","1","5","4","5","5","4","5","4","4","5","4","6","8","7","8","7","5","7","8","9","7","6","4","7","3","4","6","1","4","4","1","3","2","7","6","7","3","4","7","4","3","3","2","5","2","4","6","3","7","2","6","6","3","3","1","3","7","2","7","6","4","798982829940809730","王","381","Male","[""坏他"",""坏我"",""好他"",""好我""]","[""弱他"",""弱我"",""强他"",""强我""]","","","","","","","","{""Q01"":""-2"",""Q02"":""1"",""Q03"":""0"",""Q04"":""1"",""Q05"":""-2"",""Q06"":""0"",""Q07"":""1"",""Q08"":""1""}","[0,1,2,3,4,5,6,7]","[""Q01"",""Q02"",""Q03"",""Q04"",""Q05"",""Q06"",""Q07"",""Q08""]","[6632,9878.899999976158,13679.899999976158,18525.599999964237,21626.399999976158,23432.599999964237,25862.80000001192,28849.19999998808]","[]","[6632,9878.899999976158,13679.899999976158,18525.599999964237,20470.599999964237,21626.399999976158,23432.599999964237,25862.80000001192,27853.899999976158,28849.19999998808,30675.399999976158]","0.5","0.42857142857142855","0","","","","","","","","","","","","","","","","","","","","","","",""
"7667","","","instructions","8","165700","0.0-7.0","6","6","5","2","4","4","2","3","5","5","5","-2","1","0","1","-2","0","1","1","5","4","5","5","4","5","4","4","5","4","6","8","7","8","7","5","7","8","9","7","6","4","7","3","4","6","1","4","4","1","3","2","7","6","7","3","4","7","4","3","3","2","5","2","4","6","3","7","2","6","6","3","3","1","3","7","2","7","6","4","798982829940809730","王","381","Male","[""坏他"",""坏我"",""好他"",""好我""]","[""弱他"",""弱我"",""强他"",""强我""]","","","","","","","","","","","","","","","","","[{""page_index"":0,""viewing_time"":7667}]","","","","","","","","","","","","","","","","","","","","","",""
"49027","","","instructions","9","214728","0.0-8.0-1.0-0.0","6","6","5","2","4","4","2","3","5","5","5","-2","1","0","1","-2","0","1","1","5","4","5","5","4","5","4","4","5","4","6","8","7","8","7","5","7","8","9","7","6","4","7","3","4","6","1","4","4","1","3","2","7","6","7","3","4","7","4","3","3","2","5","2","4","6","3","7","2","6","6","3","3","1","3","7","2","7","6","4","798982829940809730","王","381","Male","[""坏他"",""坏我"",""好他"",""好我""]","[""弱他"",""弱我"",""强他"",""强我""]","","","","","","","","","","","","","","","","","[{""page_index"":0,""viewing_time"":1699},{""page_index"":1,""viewing_time"":43939},{""page_index"":2,""viewing_time"":1909},{""page_index"":3,""viewing_time"":1479}]","","","","","","","","","","","","","","","","","","","","","",""
"986","","j","psychophysics","10","216721","0.0-8.0-1.0-1.0-0.0-0.0","6","6","5","2","4","4","2","3","5","5","5","-2","1","0","1","-2","0","1","1","5","4","5","5","4","5","4","4","5","4","6","8","7","8","7","5","7","8","9","7","6","4","7","3","4","6","1","4","4","1","3","2","7","6","7","3","4","7","4","3","3","2","5","2","4","6","3","7","2","6","6","3","3","1","3","7","2","7","6","4","798982829940809730","王","381","Male","[""坏他"",""坏我"",""好他"",""好我""]","[""弱他"",""弱我"",""强他"",""强我""]","","","","","","","","match","","","","","","","","","","key","j","16.662333333333475","853.3333333333334","529.3333333333334","j","true","match","img/hexagon.png","强他","强他","prac_ALT2_ability","practice_ability","","","","","","","","",""
"null","<span style='color:GreenYellow; font-size: 70px;'>正确! </span>","null","html-keyboard-response","11","217223","0.0-8.0-1.0-1.0-0.0-1.0","6","6","5","2","4","4","2","3","5","5","5","-2","1","0","1","-2","0","1","1","5","4","5","5","4","5","4","4","5","4","6","8","7","8","7","5","7","8","9","7","6","4","7","3","4","6","1","4","4","1","3","2","7","6","7","3","4","7","4","3","3","2","5","2","4","6","3","7","2","6","6","3","3","1","3","7","2","7","6","4","798982829940809730","王","381","Male","[""坏他"",""坏我"",""好他"",""好我""]","[""弱他"",""弱我"",""强他"",""强我""]","","","","","","","","","","","","","","","","","","","","","","","","","","","","","","feedback_test","","","","","","","","",""
"863","","j","psychophysics","12","219088","0.0-8.0-1.0-1.0-0.0-0.1","6","6","5","2","4","4","2","3","5","5","5","-2","1","0","1","-2","0","1","1","5","4","5","5","4","5","4","4","5","4","6","8","7","8","7","5","7","8","9","7","6","4","7","3","4","6","1","4","4","1","3","2","7","6","7","3","4","7","4","3","3","2","5","2","4","6","3","7","2","6","6","3","3","1","3","7","2","7","6","4","798982829940809730","王","381","Male","[""坏他"",""坏我"",""好他"",""好我""]","[""弱他"",""弱我"",""强他"",""强我""]","","","","","","","","match","","","","","","","","","","key","j","16.662054545454556","853.3333333333334","529.3333333333334","j","true","match","img/trapezoid.png","弱我","弱我","prac_ALT2_ability","practice_ability","","","","","","","","",""
"null","<span style='color:GreenYellow; font-size: 70px;'>正确! </span>","null","html-keyboard-response","13","219589","0.0-8.0-1.0-1.0-0.0-1.1","6","6","5","2","4","4","2","3","5","5","5","-2","1","0","1","-2","0","1","1","5","4","5","5","4","5","4","4","5","4","6","8","7","8","7","5","7","8","9","7","6","4","7","3","4","6","1","4","4","1","3","2","7","6","7","3","4","7","4","3","3","2","5","2","4","6","3","7","2","6","6","3","3","1","3","7","2","7","6","4","798982829940809730","王","381","Male","[""坏他"",""坏我"",""好他"",""好我""]","[""弱他"",""弱我"",""强他"",""强我""]","","","","","","","","","","","","","","","","","","","","","","","","","","","","","","feedback_test","","","","","","","","",""
"736","","j","psychophysics","14","221327","0.0-8.0-1.0-1.0-0.0-0.2","6","6","5","2","4","4","2","3","5","5","5","-2","1","0","1","-2","0","1","1","5","4","5","5","4","5","4","4","5","4","6","8","7","8","7","5","7","8","9","7","6","4","7","3","4","6","1","4","4","1","3","2","7","6","7","3","4","7","4","3","3","2","5","2","4","6","3","7","2","6","6","3","3","1","3","7","2","7","6","4","798982829940809730","王","381","Male","[""坏他"",""坏我"",""好他"",""好我""]","[""弱他"",""弱我"",""强他"",""强我""]","","","","","","","","match","","","","","","","","","","key","j","16.66287378640789","853.3333333333334","529.3333333333334","f","false","nonmatch","img/trapezoid.png","强我","弱我","prac_ALT2_ability","practice_ability","","","","","","","","",""
"null","<span style='color:red; font-size: 70px;'>错误! </span>","null","html-keyboard-response","15","221827","0.0-8.0-1.0-1.0-0.0-1.2","6","6","5","2","4","4","2","3","5","5","5","-2","1","0","1","-2","0","1","1","5","4","5","5","4","5","4","4","5","4","6","8","7","8","7","5","7","8","9","7","6","4","7","3","4","6","1","4","4","1","3","2","7","6","7","3","4","7","4","3","3","2","5","2","4","6","3","7","2","6","6","3","3","1","3","7","2","7","6","4","798982829940809730","王","381","Male","[""坏他"",""坏我"",""好他"",""好我""]","[""弱他"",""弱我"",""强他"",""强我""]","","","","","","","","","","","","","","","","","","","","","","","","","","","","","","feedback_test","","","","","","","","",""
"880","","j","psychophysics","16","223710","0.0-8.0-1.0-1.0-0.0-0.3","6","6","5","2","4","4","2","3","5","5","5","-2","1","0","1","-2","0","1","1","5","4","5","5","4","5","4","4","5","4","6","8","7","8","7","5","7","8","9","7","6","4","7","3","4","6","1","4","4","1","3","2","7","6","7","3","4","7","4","3","3","2","5","2","4","6","3","7","2","6","6","3","3","1","3","7","2","7","6","4","798982829940809730","王","381","Male","[""坏他"",""坏我"",""好他"",""好我""]","[""弱他"",""弱我"",""强他"",""强我""]","","","","","","","","match","","","","","","","","","","key","j","16.66428571428566","853.3333333333334","529.3333333333334","j","true","match","img/ellipse.png","弱他","弱他","prac_ALT2_ability","practice_ability","","","","","","","","",""
"null","<span style='color:GreenYellow; font-size: 70px;'>正确! </span>","null","html-keyboard-response","17","224212","0.0-8.0-1.0-1.0-0.0-1.3","6","6","5","2","4","4","2","3","5","5","5","-2","1","0","1","-2","0","1","1","5","4","5","5","4","5","4","4","5","4","6","8","7","8","7","5","7","8","9","7","6","4","7","3","4","6","1","4","4","1","3","2","7","6","7","3","4","7","4","3","3","2","5","2","4","6","3","7","2","6","6","3","3","1","3","7","2","7","6","4","798982829940809730","王","381","Male","[""坏他"",""坏我"",""好他"",""好我""]","[""弱他"",""弱我"",""强他"",""强我""]","","","","","","","","","","","","","","","","","","","","","","","","","","","","","","feedback_test","","","","","","","","",""
"805","","j","psychophysics","18","226019","0.0-8.0-1.0-1.0-0.0-0.4","6","6","5","2","4","4","2","3","5","5","5","-2","1","0","1","-2","0","1","1","5","4","5","5","4","5","4","4","5","4","6","8","7","8","7","5","7","8","9","7","6","4","7","3","4","6","1","4","4","1","3","2","7","6","7","3","4","7","4","3","3","2","5","2","4","6","3","7","2","6","6","3","3","1","3","7","2","7","6","4","798982829940809730","王","381","Male","[""坏他"",""坏我"",""好他"",""好我""]","[""弱他"",""弱我"",""强他"",""强我""]","","","","","","","","match","","","","","","","","","","key","j","16.662803738317876","853.3333333333334","529.3333333333334","j","true","match","img/square.png","强我","强我","prac_ALT2_ability","practice_ability","","","","","","","","",""
"null","<span style='color:GreenYellow; font-size: 70px;'>正确! </span>","null","html-keyboard-response","19","226520","0.0-8.0-1.0-1.0-0.0-1.4","6","6","5","2","4","4","2","3","5","5","5","-2","1","0","1","-2","0","1","1","5","4","5","5","4","5","4","4","5","4","6","8","7","8","7","5","7","8","9","7","6","4","7","3","4","6","1","4","4","1","3","2","7","6","7","3","4","7","4","3","3","2","5","2","4","6","3","7","2","6","6","3","3","1","3","7","2","7","6","4","798982829940809730","王","381","Male","[""坏他"",""坏我"",""好他"",""好我""]","[""弱他"",""弱我"",""强他"",""强我""]","","","","","","","","","","","","","","","","","","","","","","","","","","","","","","feedback_test","","","","","","","","",""
"928","","j","psychophysics","20","228450","0.0-8.0-1.0-1.0-0.0-0.5","6","6","5","2","4","4","2","3","5","5","5","-2","1","0","1","-2","0","1","1","5","4","5","5","4","5","4","4","5","4","6","8","7","8","7","5","7","8","9","7","6","4","7","3","4","6","1","4","4","1","3","2","7","6","7","3","4","7","4","3","3","2","5","2","4","6","3","7","2","6","6","3","3","1","3","7","2","7","6","4","798982829940809730","王","381","Male","[""坏他"",""坏我"",""好他"",""好我""]","[""弱他"",""弱我"",""强他"",""强我""]","","","","","","","","match","","","","","","","","","","key","j","16.663894736841925","853.3333333333334","529.3333333333334","j","true","match","img/ellipse.png","弱他","弱他","prac_ALT2_ability","practice_ability","","","","","","","","",""
"null","<span style='color:GreenYellow; font-size: 70px;'>正确! </span>","null","html-keyboard-response","21","228951","0.0-8.0-1.0-1.0-0.0-1.5","6","6","5","2","4","4","2","3","5","5","5","-2","1","0","1","-2","0","1","1","5","4","5","5","4","5","4","4","5","4","6","8","7","8","7","5","7","8","9","7","6","4","7","3","4","6","1","4","4","1","3","2","7","6","7","3","4","7","4","3","3","2","5","2","4","6","3","7","2","6","6","3","3","1","3","7","2","7","6","4","798982829940809730","王","381","Male","[""坏他"",""坏我"",""好他"",""好我""]","[""弱他"",""弱我"",""强他"",""强我""]","","","","","","","","","","","","","","","","","","","","","","","","","","","","","","feedback_test","","","","","","","","",""
"982","","j","psychophysics","22","230935","0.0-8.0-1.0-1.0-0.0-0.6","6","6","5","2","4","4","2","3","5","5","5","-2","1","0","1","-2","0","1","1","5","4","5","5","4","5","4","4","5","4","6","8","7","8","7","5","7","8","9","7","6","4","7","3","4","6","1","4","4","1","3","2","7","6","7","3","4","7","4","3","3","2","5","2","4","6","3","7","2","6","6","3","3","1","3","7","2","7","6","4","798982829940809730","王","381","Male","[""坏他"",""坏我"",""好他"",""好我""]","[""弱他"",""弱我"",""强他"",""强我""]","","","","","","","","match","","","","","","","","","","key","j","16.659194915254268","853.3333333333334","529.3333333333334","j","true","match","img/trapezoid.png","弱我","弱我","prac_ALT2_ability","practice_ability","","","","","","","","",""
"null","<span style='color:GreenYellow; font-size: 70px;'>正确! </span>","null","html-keyboard-response","23","231436","0.0-8.0-1.0-1.0-0.0-1.6","6","6","5","2","4","4","2","3","5","5","5","-2","1","0","1","-2","0","1","1","5","4","5","5","4","5","4","4","5","4","6","8","7","8","7","5","7","8","9","7","6","4","7","3","4","6","1","4","4","1","3","2","7","6","7","3","4","7","4","3","3","2","5","2","4","6","3","7","2","6","6","3","3","1","3","7","2","7","6","4","798982829940809730","王","381","Male","[""坏他"",""坏我"",""好他"",""好我""]","[""弱他"",""弱我"",""强他"",""强我""]","","","","","","","","","","","","","","","","","","","","","","","","","","","","","","feedback_test","","","","","","","","",""
"945","","f","psychophysics","24","233383","0.0-8.0-1.0-1.0-0.0-0.7","6","6","5","2","4","4","2","3","5","5","5","-2","1","0","1","-2","0","1","1","5","4","5","5","4","5","4","4","5","4","6","8","7","8","7","5","7","8","9","7","6","4","7","3","4","6","1","4","4","1","3","2","7","6","7","3","4","7","4","3","3","2","5","2","4","6","3","7","2","6","6","3","3","1","3","7","2","7","6","4","798982829940809730","王","381","Male","[""坏他"",""坏我"",""好他"",""好我""]","[""弱他"",""弱我"",""强他"",""强我""]","","","","","","","","nonmatch","","","","","","","","","","key","f","16.642000000000078","853.3333333333334","529.3333333333334","f","true","nonmatch","img/trapezoid.png","强他","弱我","prac_ALT2_ability","practice_ability","","","","","","","","",""
"null","<span style='color:GreenYellow; font-size: 70px;'>正确! </span>","null","html-keyboard-response","25","233885","0.0-8.0-1.0-1.0-0.0-1.7","6","6","5","2","4","4","2","3","5","5","5","-2","1","0","1","-2","0","1","1","5","4","5","5","4","5","4","4","5","4","6","8","7","8","7","5","7","8","9","7","6","4","7","3","4","6","1","4","4","1","3","2","7","6","7","3","4","7","4","3","3","2","5","2","4","6","3","7","2","6","6","3","3","1","3","7","2","7","6","4","798982829940809730","王","381","Male","[""坏他"",""坏我"",""好他"",""好我""]","[""弱他"",""弱我"",""强他"",""强我""]","","","","","","","","","","","","","","","","","","","","","","","","","","","","","","feedback_test","","","","","","","","",""
"714","","f","psychophysics","26","235602","0.0-8.0-1.0-1.0-0.0-0.8","6","6","5","2","4","4","2","3","5","5","5","-2","1","0","1","-2","0","1","1","5","4","5","5","4","5","4","4","5","4","6","8","7","8","7","5","7","8","9","7","6","4","7","3","4","6","1","4","4","1","3","2","7","6","7","3","4","7","4","3","3","2","5","2","4","6","3","7","2","6","6","3","3","1","3","7","2","7","6","4","798982829940809730","王","381","Male","[""坏他"",""坏我"",""好他"",""好我""]","[""弱他"",""弱我"",""强他"",""强我""]","","","","","","","","nonmatch","","","","","","","","","","key","f","16.66390196078425","853.3333333333334","529.3333333333334","j","false","match","img/hexagon.png","强他","强他","prac_ALT2_ability","practice_ability","","","","","","","","",""
"null","<span style='color:red; font-size: 70px;'>错误! </span>","null","html-keyboard-response","27","236103","0.0-8.0-1.0-1.0-0.0-1.8","6","6","5","2","4","4","2","3","5","5","5","-2","1","0","1","-2","0","1","1","5","4","5","5","4","5","4","4","5","4","6","8","7","8","7","5","7","8","9","7","6","4","7","3","4","6","1","4","4","1","3","2","7","6","7","3","4","7","4","3","3","2","5","2","4","6","3","7","2","6","6","3","3","1","3","7","2","7","6","4","798982829940809730","王","381","Male","[""坏他"",""坏我"",""好他"",""好我""]","[""弱他"",""弱我"",""强他"",""强我""]","","","","","","","","","","","","","","","","","","","","","","","","","","","","","","feedback_test","","","","","","","","",""
"920","","f","psychophysics","28","238025","0.0-8.0-1.0-1.0-0.0-0.9","6","6","5","2","4","4","2","3","5","5","5","-2","1","0","1","-2","0","1","1","5","4","5","5","4","5","4","4","5","4","6","8","7","8","7","5","7","8","9","7","6","4","7","3","4","6","1","4","4","1","3","2","7","6","7","3","4","7","4","3","3","2","5","2","4","6","3","7","2","6","6","3","3","1","3","7","2","7","6","4","798982829940809730","王","381","Male","[""坏他"",""坏我"",""好他"",""好我""]","[""弱他"",""弱我"",""强他"",""强我""]","","","","","","","","nonmatch","","","","","","","","","","key","f","16.66500869565213","853.3333333333334","529.3333333333334","f","true","nonmatch","img/ellipse.png","强他","弱他","prac_ALT2_ability","practice_ability","","","","","","","","",""
"null","<span style='color:GreenYellow; font-size: 70px;'>正确! </span>","null","html-keyboard-response","29","238528","0.0-8.0-1.0-1.0-0.0-1.9","6","6","5","2","4","4","2","3","5","5","5","-2","1","0","1","-2","0","1","1","5","4","5","5","4","5","4","4","5","4","6","8","7","8","7","5","7","8","9","7","6","4","7","3","4","6","1","4","4","1","3","2","7","6","7","3","4","7","4","3","3","2","5","2","4","6","3","7","2","6","6","3","3","1","3","7","2","7","6","4","798982829940809730","王","381","Male","[""坏他"",""坏我"",""好他"",""好我""]","[""弱他"",""弱我"",""强他"",""强我""]","","","","","","","","","","","","","","","","","","","","","","","","","","","","","","feedback_test","","","","","","","","",""
"978","","j","psychophysics","30","240508","0.0-8.0-1.0-1.0-0.0-0.10","6","6","5","2","4","4","2","3","5","5","5","-2","1","0","1","-2","0","1","1","5","4","5","5","4","5","4","4","5","4","6","8","7","8","7","5","7","8","9","7","6","4","7","3","4","6","1","4","4","1","3","2","7","6","7","3","4","7","4","3","3","2","5","2","4","6","3","7","2","6","6","3","3","1","3","7","2","7","6","4","798982829940809730","王","381","Male","[""坏他"",""坏我"",""好他"",""好我""]","[""弱他"",""弱我"",""强他"",""强我""]","","","","","","","","match","","","","","","","","","","key","j","16.660754237288238","853.3333333333334","529.3333333333334","f","false","nonmatch","img/hexagon.png","弱他","强他","prac_ALT2_ability","practice_ability","","","","","","","","",""
"null","<span style='color:red; font-size: 70px;'>错误! </span>","null","html-keyboard-response","31","241010","0.0-8.0-1.0-1.0-0.0-1.10","6","6","5","2","4","4","2","3","5","5","5","-2","1","0","1","-2","0","1","1","5","4","5","5","4","5","4","4","5","4","6","8","7","8","7","5","7","8","9","7","6","4","7","3","4","6","1","4","4","1","3","2","7","6","7","3","4","7","4","3","3","2","5","2","4","6","3","7","2","6","6","3","3","1","3","7","2","7","6","4","798982829940809730","王","381","Male","[""坏他"",""坏我"",""好他"",""好我""]","[""弱他"",""弱我"",""强他"",""强我""]","","","","","","","","","","","","","","","","","","","","","","","","","","","","","","feedback_test","","","","","","","","",""
"786","","f","psychophysics","32","242798","0.0-8.0-1.0-1.0-0.0-0.11","6","6","5","2","4","4","2","3","5","5","5","-2","1","0","1","-2","0","1","1","5","4","5","5","4","5","4","4","5","4","6","8","7","8","7","5","7","8","9","7","6","4","7","3","4","6","1","4","4","1","3","2","7","6","7","3","4","7","4","3","3","2","5","2","4","6","3","7","2","6","6","3","3","1","3","7","2","7","6","4","798982829940809730","王","381","Male","[""坏他"",""坏我"",""好他"",""好我""]","[""弱他"",""弱我"",""强他"",""强我""]","","","","","","","","nonmatch","","","","","","","","","","key","f","16.664311320754866","853.3333333333334","529.3333333333334","f","true","nonmatch","img/square.png","弱我","强我","prac_ALT2_ability","practice_ability","","","","","","","","",""
"null","<span style='color:GreenYellow; font-size: 70px;'>正确! </span>","null","html-keyboard-response","33","243299","0.0-8.0-1.0-1.0-0.0-1.11","6","6","5","2","4","4","2","3","5","5","5","-2","1","0","1","-2","0","1","1","5","4","5","5","4","5","4","4","5","4","6","8","7","8","7","5","7","8","9","7","6","4","7","3","4","6","1","4","4","1","3","2","7","6","7","3","4","7","4","3","3","2","5","2","4","6","3","7","2","6","6","3","3","1","3","7","2","7","6","4","798982829940809730","王","381","Male","[""坏他"",""坏我"",""好他"",""好我""]","[""弱他"",""弱我"",""强他"",""强我""]","","","","","","","","","","","","","","","","","","","","","","","","","","","","","","feedback_test","","","","","","","","",""
"873","","f","psychophysics","34","245174","0.0-8.0-1.0-1.0-0.0-0.12","6","6","5","2","4","4","2","3","5","5","5","-2","1","0","1","-2","0","1","1","5","4","5","5","4","5","4","4","5","4","6","8","7","8","7","5","7","8","9","7","6","4","7","3","4","6","1","4","4","1","3","2","7","6","7","3","4","7","4","3","3","2","5","2","4","6","3","7","2","6","6","3","3","1","3","7","2","7","6","4","798982829940809730","王","381","Male","[""坏他"",""坏我"",""好他"",""好我""]","[""弱他"",""弱我"",""强他"",""强我""]","","","","","","","","nonmatch","","","","","","","","","","key","f","16.661544642857343","853.3333333333334","529.3333333333334","f","true","nonmatch","img/hexagon.png","弱我","强他","prac_ALT2_ability","practice_ability","","","","","","","","",""
"null","<span style='color:GreenYellow; font-size: 70px;'>正确! </span>","null","html-keyboard-response","35","245676","0.0-8.0-1.0-1.0-0.0-1.12","6","6","5","2","4","4","2","3","5","5","5","-2","1","0","1","-2","0","1","1","5","4","5","5","4","5","4","4","5","4","6","8","7","8","7","5","7","8","9","7","6","4","7","3","4","6","1","4","4","1","3","2","7","6","7","3","4","7","4","3","3","2","5","2","4","6","3","7","2","6","6","3","3","1","3","7","2","7","6","4","798982829940809730","王","381","Male","[""坏他"",""坏我"",""好他"",""好我""]","[""弱他"",""弱我"",""强他"",""强我""]","","","","","","","","","","","","","","","","","","","","","","","","","","","","","","feedback_test","","","","","","","","",""
"919","","j","psychophysics","36","247598","0.0-8.0-1.0-1.0-0.0-0.13","6","6","5","2","4","4","2","3","5","5","5","-2","1","0","1","-2","0","1","1","5","4","5","5","4","5","4","4","5","4","6","8","7","8","7","5","7","8","9","7","6","4","7","3","4","6","1","4","4","1","3","2","7","6","7","3","4","7","4","3","3","2","5","2","4","6","3","7","2","6","6","3","3","1","3","7","2","7","6","4","798982829940809730","王","381","Male","[""坏他"",""坏我"",""好他"",""好我""]","[""弱他"",""弱我"",""强他"",""强我""]","","","","","","","","match","","","","","","","","","","key","j","16.66544736842109","853.3333333333334","529.3333333333334","j","true","match","img/hexagon.png","强他","强他","prac_ALT2_ability","practice_ability","","","","","","","","",""
"null","<span style='color:GreenYellow; font-size: 70px;'>正确! </span>","null","html-keyboard-response","37","248100","0.0-8.0-1.0-1.0-0.0-1.13","6","6","5","2","4","4","2","3","5","5","5","-2","1","0","1","-2","0","1","1","5","4","5","5","4","5","4","4","5","4","6","8","7","8","7","5","7","8","9","7","6","4","7","3","4","6","1","4","4","1","3","2","7","6","7","3","4","7","4","3","3","2","5","2","4","6","3","7","2","6","6","3","3","1","3","7","2","7","6","4","798982829940809730","王","381","Male","[""坏他"",""坏我"",""好他"",""好我""]","[""弱他"",""弱我"",""强他"",""强我""]","","","","","","","","","","","","","","","","","","","","","","","","","","","","","","feedback_test","","","","","","","","",""
"813","","f","psychophysics","38","249914","0.0-8.0-1.0-1.0-0.0-0.14","6","6","5","2","4","4","2","3","5","5","5","-2","1","0","1","-2","0","1","1","5","4","5","5","4","5","4","4","5","4","6","8","7","8","7","5","7","8","9","7","6","4","7","3","4","6","1","4","4","1","3","2","7","6","7","3","4","7","4","3","3","2","5","2","4","6","3","7","2","6","6","3","3","1","3","7","2","7","6","4","798982829940809730","王","381","Male","[""坏他"",""坏我"",""好他"",""好我""]","[""弱他"",""弱我"",""强他"",""强我""]","","","","","","","","nonmatch","","","","","","","","","","key","f","16.656148148148162","853.3333333333334","529.3333333333334","j","false","match","img/square.png","强我","强我","prac_ALT2_ability","practice_ability","","","","","","","","",""
"null","<span style='color:red; font-size: 70px;'>错误! </span>","null","html-keyboard-response","39","250415","0.0-8.0-1.0-1.0-0.0-1.14","6","6","5","2","4","4","2","3","5","5","5","-2","1","0","1","-2","0","1","1","5","4","5","5","4","5","4","4","5","4","6","8","7","8","7","5","7","8","9","7","6","4","7","3","4","6","1","4","4","1","3","2","7","6","7","3","4","7","4","3","3","2","5","2","4","6","3","7","2","6","6","3","3","1","3","7","2","7","6","4","798982829940809730","王","381","Male","[""坏他"",""坏我"",""好他"",""好我""]","[""弱他"",""弱我"",""强他"",""强我""]","","","","","","","","","","","","","","","","","","","","","","","","","","","","","","feedback_test","","","","","","","","",""
"982","","j","psychophysics","40","252400","0.0-8.0-1.0-1.0-0.0-0.15","6","6","5","2","4","4","2","3","5","5","5","-2","1","0","1","-2","0","1","1","5","4","5","5","4","5","4","4","5","4","6","8","7","8","7","5","7","8","9","7","6","4","7","3","4","6","1","4","4","1","3","2","7","6","7","3","4","7","4","3","3","2","5","2","4","6","3","7","2","6","6","3","3","1","3","7","2","7","6","4","798982829940809730","王","381","Male","[""坏他"",""坏我"",""好他"",""好我""]","[""弱他"",""弱我"",""强他"",""强我""]","","","","","","","","match","","","","","","","","","","key","j","16.662889830508394","853.3333333333334","529.3333333333334","f","false","nonmatch","img/trapezoid.png","弱他","弱我","prac_ALT2_ability","practice_ability","","","","","","","","",""
"null","<span style='color:red; font-size: 70px;'>错误! </span>","null","html-keyboard-response","41","252902","0.0-8.0-1.0-1.0-0.0-1.15","6","6","5","2","4","4","2","3","5","5","5","-2","1","0","1","-2","0","1","1","5","4","5","5","4","5","4","4","5","4","6","8","7","8","7","5","7","8","9","7","6","4","7","3","4","6","1","4","4","1","3","2","7","6","7","3","4","7","4","3","3","2","5","2","4","6","3","7","2","6","6","3","3","1","3","7","2","7","6","4","798982829940809730","王","381","Male","[""坏他"",""坏我"",""好他"",""好我""]","[""弱他"",""弱我"",""强他"",""强我""]","","","","","","","","","","","","","","","","","","","","","","","","","","","","","","feedback_test","","","","","","","","",""
"1003","","j","psychophysics","42","254908","0.0-8.0-1.0-1.0-0.0-0.16","6","6","5","2","4","4","2","3","5","5","5","-2","1","0","1","-2","0","1","1","5","4","5","5","4","5","4","4","5","4","6","8","7","8","7","5","7","8","9","7","6","4","7","3","4","6","1","4","4","1","3","2","7","6","7","3","4","7","4","3","3","2","5","2","4","6","3","7","2","6","6","3","3","1","3","7","2","7","6","4","798982829940809730","王","381","Male","[""坏他"",""坏我"",""好他"",""好我""]","[""弱他"",""弱我"",""强他"",""强我""]","","","","","","","","match","","","","","","","","","","key","j","16.555747899159588","853.3333333333334","529.3333333333334","f","false","nonmatch","img/ellipse.png","强我","弱他","prac_ALT2_ability","practice_ability","","","","","","","","",""
"null","<span style='color:red; font-size: 70px;'>错误! </span>","null","html-keyboard-response","43","255409","0.0-8.0-1.0-1.0-0.0-1.16","6","6","5","2","4","4","2","3","5","5","5","-2","1","0","1","-2","0","1","1","5","4","5","5","4","5","4","4","5","4","6","8","7","8","7","5","7","8","9","7","6","4","7","3","4","6","1","4","4","1","3","2","7","6","7","3","4","7","4","3","3","2","5","2","4","6","3","7","2","6","6","3","3","1","3","7","2","7","6","4","798982829940809730","王","381","Male","[""坏他"",""坏我"",""好他"",""好我""]","[""弱他"",""弱我"",""强他"",""强我""]","","","","","","","","","","","","","","","","","","","","","","","","","","","","","","feedback_test","","","","","","","","",""
"807","","j","psychophysics","44","257218","0.0-8.0-1.0-1.0-0.0-0.17","6","6","5","2","4","4","2","3","5","5","5","-2","1","0","1","-2","0","1","1","5","4","5","5","4","5","4","4","5","4","6","8","7","8","7","5","7","8","9","7","6","4","7","3","4","6","1","4","4","1","3","2","7","6","7","3","4","7","4","3","3","2","5","2","4","6","3","7","2","6","6","3","3","1","3","7","2","7","6","4","798982829940809730","王","381","Male","[""坏他"",""坏我"",""好他"",""好我""]","[""弱他"",""弱我"",""强他"",""强我""]","","","","","","","","match","","","","","","","","","","key","j","16.66500934579428","853.3333333333334","529.3333333333334","j","true","match","img/ellipse.png","弱他","弱他","prac_ALT2_ability","practice_ability","","","","","","","","",""
"null","<span style='color:GreenYellow; font-size: 70px;'>正确! </span>","null","html-keyboard-response","45","257719","0.0-8.0-1.0-1.0-0.0-1.17","6","6","5","2","4","4","2","3","5","5","5","-2","1","0","1","-2","0","1","1","5","4","5","5","4","5","4","4","5","4","6","8","7","8","7","5","7","8","9","7","6","4","7","3","4","6","1","4","4","1","3","2","7","6","7","3","4","7","4","3","3","2","5","2","4","6","3","7","2","6","6","3","3","1","3","7","2","7","6","4","798982829940809730","王","381","Male","[""坏他"",""坏我"",""好他"",""好我""]","[""弱他"",""弱我"",""强他"",""强我""]","","","","","","","","","","","","","","","","","","","","","","","","","","","","","","feedback_test","","","","","","","","",""
"936","","f","psychophysics","46","259658","0.0-8.0-1.0-1.0-0.0-0.18","6","6","5","2","4","4","2","3","5","5","5","-2","1","0","1","-2","0","1","1","5","4","5","5","4","5","4","4","5","4","6","8","7","8","7","5","7","8","9","7","6","4","7","3","4","6","1","4","4","1","3","2","7","6","7","3","4","7","4","3","3","2","5","2","4","6","3","7","2","6","6","3","3","1","3","7","2","7","6","4","798982829940809730","王","381","Male","[""坏他"",""坏我"",""好他"",""好我""]","[""弱他"",""弱我"",""强他"",""强我""]","","","","","","","","nonmatch","","","","","","","","","","key","f","16.65876521739132","853.3333333333334","529.3333333333334","f","true","nonmatch","img/ellipse.png","弱我","弱他","prac_ALT2_ability","practice_ability","","","","","","","","",""
"null","<span style='color:GreenYellow; font-size: 70px;'>正确! </span>","null","html-keyboard-response","47","260160","0.0-8.0-1.0-1.0-0.0-1.18","6","6","5","2","4","4","2","3","5","5","5","-2","1","0","1","-2","0","1","1","5","4","5","5","4","5","4","4","5","4","6","8","7","8","7","5","7","8","9","7","6","4","7","3","4","6","1","4","4","1","3","2","7","6","7","3","4","7","4","3","3","2","5","2","4","6","3","7","2","6","6","3","3","1","3","7","2","7","6","4","798982829940809730","王","381","Male","[""坏他"",""坏我"",""好他"",""好我""]","[""弱他"",""弱我"",""强他"",""强我""]","","","","","","","","","","","","","","","","","","","","","","","","","","","","","","feedback_test","","","","","","","","",""
"1011","","j","psychophysics","48","262174","0.0-8.0-1.0-1.0-0.0-0.19","6","6","5","2","4","4","2","3","5","5","5","-2","1","0","1","-2","0","1","1","5","4","5","5","4","5","4","4","5","4","6","8","7","8","7","5","7","8","9","7","6","4","7","3","4","6","1","4","4","1","3","2","7","6","7","3","4","7","4","3","3","2","5","2","4","6","3","7","2","6","6","3","3","1","3","7","2","7","6","4","798982829940809730","王","381","Male","[""坏他"",""坏我"",""好他"",""好我""]","[""弱他"",""弱我"",""强他"",""强我""]","","","","","","","","match","","","","","","","","","","key","j","16.653625000000222","853.3333333333334","529.3333333333334","f","false","nonmatch","img/hexagon.png","强我","强他","prac_ALT2_ability","practice_ability","","","","","","","","",""
"null","<span style='color:red; font-size: 70px;'>错误! </span>","null","html-keyboard-response","49","262675","0.0-8.0-1.0-1.0-0.0-1.19","6","6","5","2","4","4","2","3","5","5","5","-2","1","0","1","-2","0","1","1","5","4","5","5","4","5","4","4","5","4","6","8","7","8","7","5","7","8","9","7","6","4","7","3","4","6","1","4","4","1","3","2","7","6","7","3","4","7","4","3","3","2","5","2","4","6","3","7","2","6","6","3","3","1","3","7","2","7","6","4","798982829940809730","王","381","Male","[""坏他"",""坏我"",""好他"",""好我""]","[""弱他"",""弱我"",""强他"",""强我""]","","","","","","","","","","","","","","","","","","","","","","","","","","","","","","feedback_test","","","","","","","","",""
"874","","j","psychophysics","50","264553","0.0-8.0-1.0-1.0-0.0-0.20","6","6","5","2","4","4","2","3","5","5","5","-2","1","0","1","-2","0","1","1","5","4","5","5","4","5","4","4","5","4","6","8","7","8","7","5","7","8","9","7","6","4","7","3","4","6","1","4","4","1","3","2","7","6","7","3","4","7","4","3","3","2","5","2","4","6","3","7","2","6","6","3","3","1","3","7","2","7","6","4","798982829940809730","王","381","Male","[""坏他"",""坏我"",""好他"",""好我""]","[""弱他"",""弱我"",""强他"",""强我""]","","","","","","","","match","","","","","","","","","","key","j","16.652999999999988","853.3333333333334","529.3333333333334","j","true","match","img/square.png","强我","强我","prac_ALT2_ability","practice_ability","","","","","","","","",""
"null","<span style='color:GreenYellow; font-size: 70px;'>正确! </span>","null","html-keyboard-response","51","265054","0.0-8.0-1.0-1.0-0.0-1.20","6","6","5","2","4","4","2","3","5","5","5","-2","1","0","1","-2","0","1","1","5","4","5","5","4","5","4","4","5","4","6","8","7","8","7","5","7","8","9","7","6","4","7","3","4","6","1","4","4","1","3","2","7","6","7","3","4","7","4","3","3","2","5","2","4","6","3","7","2","6","6","3","3","1","3","7","2","7","6","4","798982829940809730","王","381","Male","[""坏他"",""坏我"",""好他"",""好我""]","[""弱他"",""弱我"",""强他"",""强我""]","","","","","","","","","","","","","","","","","","","","","","","","","","","","","","feedback_test","","","","","","","","",""
"814","","j","psychophysics","52","266870","0.0-8.0-1.0-1.0-0.0-0.21","6","6","5","2","4","4","2","3","5","5","5","-2","1","0","1","-2","0","1","1","5","4","5","5","4","5","4","4","5","4","6","8","7","8","7","5","7","8","9","7","6","4","7","3","4","6","1","4","4","1","3","2","7","6","7","3","4","7","4","3","3","2","5","2","4","6","3","7","2","6","6","3","3","1","3","7","2","7","6","4","798982829940809730","王","381","Male","[""坏他"",""坏我"",""好他"",""好我""]","[""弱他"",""弱我"",""强他"",""强我""]","","","","","","","","match","","","","","","","","","","key","j","16.6653333333336","853.3333333333334","529.3333333333334","f","false","nonmatch","img/square.png","弱他","强我","prac_ALT2_ability","practice_ability","","","","","","","","",""
"null","<span style='color:red; font-size: 70px;'>错误! </span>","null","html-keyboard-response","53","267371","0.0-8.0-1.0-1.0-0.0-1.21","6","6","5","2","4","4","2","3","5","5","5","-2","1","0","1","-2","0","1","1","5","4","5","5","4","5","4","4","5","4","6","8","7","8","7","5","7","8","9","7","6","4","7","3","4","6","1","4","4","1","3","2","7","6","7","3","4","7","4","3","3","2","5","2","4","6","3","7","2","6","6","3","3","1","3","7","2","7","6","4","798982829940809730","王","381","Male","[""坏他"",""坏我"",""好他"",""好我""]","[""弱他"",""弱我"",""强他"",""强我""]","","","","","","","","","","","","","","","","","","","","","","","","","","","","","","feedback_test","","","","","","","","",""
"849","","j","psychophysics","54","269222","0.0-8.0-1.0-1.0-0.0-0.22","6","6","5","2","4","4","2","3","5","5","5","-2","1","0","1","-2","0","1","1","5","4","5","5","4","5","4","4","5","4","6","8","7","8","7","5","7","8","9","7","6","4","7","3","4","6","1","4","4","1","3","2","7","6","7","3","4","7","4","3","3","2","5","2","4","6","3","7","2","6","6","3","3","1","3","7","2","7","6","4","798982829940809730","王","381","Male","[""坏他"",""坏我"",""好他"",""好我""]","[""弱他"",""弱我"",""强他"",""强我""]","","","","","","","","match","","","","","","","","","","key","j","16.66424545454581","853.3333333333334","529.3333333333334","j","true","match","img/trapezoid.png","弱我","弱我","prac_ALT2_ability","practice_ability","","","","","","","","",""
"null","<span style='color:GreenYellow; font-size: 70px;'>正确! </span>","null","html-keyboard-response","55","269723","0.0-8.0-1.0-1.0-0.0-1.22","6","6","5","2","4","4","2","3","5","5","5","-2","1","0","1","-2","0","1","1","5","4","5","5","4","5","4","4","5","4","6","8","7","8","7","5","7","8","9","7","6","4","7","3","4","6","1","4","4","1","3","2","7","6","7","3","4","7","4","3","3","2","5","2","4","6","3","7","2","6","6","3","3","1","3","7","2","7","6","4","798982829940809730","王","381","Male","[""坏他"",""坏我"",""好他"",""好我""]","[""弱他"",""弱我"",""强他"",""强我""]","","","","","","","","","","","","","","","","","","","","","","","","","","","","","","feedback_test","","","","","","","","",""
"691","","f","psychophysics","56","271417","0.0-8.0-1.0-1.0-0.0-0.23","6","6","5","2","4","4","2","3","5","5","5","-2","1","0","1","-2","0","1","1","5","4","5","5","4","5","4","4","5","4","6","8","7","8","7","5","7","8","9","7","6","4","7","3","4","6","1","4","4","1","3","2","7","6","7","3","4","7","4","3","3","2","5","2","4","6","3","7","2","6","6","3","3","1","3","7","2","7","6","4","798982829940809730","王","381","Male","[""坏他"",""坏我"",""好他"",""好我""]","[""弱他"",""弱我"",""强他"",""强我""]","","","","","","","","nonmatch","","","","","","","","","","key","f","16.832737373737288","853.3333333333334","529.3333333333334","f","true","nonmatch","img/square.png","强他","强我","prac_ALT2_ability","practice_ability","","","","","","","","",""
"null","<span style='color:GreenYellow; font-size: 70px;'>正确! </span>","null","html-keyboard-response","57","271919","0.0-8.0-1.0-1.0-0.0-1.23","6","6","5","2","4","4","2","3","5","5","5","-2","1","0","1","-2","0","1","1","5","4","5","5","4","5","4","4","5","4","6","8","7","8","7","5","7","8","9","7","6","4","7","3","4","6","1","4","4","1","3","2","7","6","7","3","4","7","4","3","3","2","5","2","4","6","3","7","2","6","6","3","3","1","3","7","2","7","6","4","798982829940809730","王","381","Male","[""坏他"",""坏我"",""好他"",""好我""]","[""弱他"",""弱我"",""强他"",""强我""]","","","","","","","","","","","","","","","","","","","","","","","","","","","","","","feedback_test","","","","","","","","",""
"868","","f","psychophysics","58","273788","0.0-8.0-1.0-1.0-0.0-0.24","6","6","5","2","4","4","2","3","5","5","5","-2","1","0","1","-2","0","1","1","5","4","5","5","4","5","4","4","5","4","6","8","7","8","7","5","7","8","9","7","6","4","7","3","4","6","1","4","4","1","3","2","7","6","7","3","4","7","4","3","3","2","5","2","4","6","3","7","2","6","6","3","3","1","3","7","2","7","6","4","798982829940809730","王","381","Male","[""坏他"",""坏我"",""好他"",""好我""]","[""弱他"",""弱我"",""强他"",""强我""]","","","","","","","","nonmatch","","","","","","","","","","key","f","16.664198198198417","853.3333333333334","529.3333333333334","f","true","nonmatch","img/trapezoid.png","强我","弱我","prac_ALT2_ability","practice_ability","","","","","","","","",""
"null","<span style='color:GreenYellow; font-size: 70px;'>正确! </span>","null","html-keyboard-response","59","274290","0.0-8.0-1.0-1.0-0.0-1.24","6","6","5","2","4","4","2","3","5","5","5","-2","1","0","1","-2","0","1","1","5","4","5","5","4","5","4","4","5","4","6","8","7","8","7","5","7","8","9","7","6","4","7","3","4","6","1","4","4","1","3","2","7","6","7","3","4","7","4","3","3","2","5","2","4","6","3","7","2","6","6","3","3","1","3","7","2","7","6","4","798982829940809730","王","381","Male","[""坏他"",""坏我"",""好他"",""好我""]","[""弱他"",""弱我"",""强他"",""强我""]","","","","","","","","","","","","","","","","","","","","","","","","","","","","","","feedback_test","","","","","","","","",""
"788","","j","psychophysics","60","276080","0.0-8.0-1.0-1.0-0.0-0.25","6","6","5","2","4","4","2","3","5","5","5","-2","1","0","1","-2","0","1","1","5","4","5","5","4","5","4","4","5","4","6","8","7","8","7","5","7","8","9","7","6","4","7","3","4","6","1","4","4","1","3","2","7","6","7","3","4","7","4","3","3","2","5","2","4","6","3","7","2","6","6","3","3","1","3","7","2","7","6","4","798982829940809730","王","381","Male","[""坏他"",""坏我"",""好他"",""好我""]","[""弱他"",""弱我"",""强他"",""强我""]","","","","","","","","match","","","","","","","","","","key","j","16.66492452830206","853.3333333333334","529.3333333333334","j","true","match","img/square.png","强我","强我","prac_ALT2_ability","practice_ability","","","","","","","","",""
"null","<span style='color:GreenYellow; font-size: 70px;'>正确! </span>","null","html-keyboard-response","61","276581","0.0-8.0-1.0-1.0-0.0-1.25","6","6","5","2","4","4","2","3","5","5","5","-2","1","0","1","-2","0","1","1","5","4","5","5","4","5","4","4","5","4","6","8","7","8","7","5","7","8","9","7","6","4","7","3","4","6","1","4","4","1","3","2","7","6","7","3","4","7","4","3","3","2","5","2","4","6","3","7","2","6","6","3","3","1","3","7","2","7","6","4","798982829940809730","王","381","Male","[""坏他"",""坏我"",""好他"",""好我""]","[""弱他"",""弱我"",""强他"",""强我""]","","","","","","","","","","","","","","","","","","","","","","","","","","","","","","feedback_test","","","","","","","","",""
"691","","f","psychophysics","62","278274","0.0-8.0-1.0-1.0-0.0-0.26","6","6","5","2","4","4","2","3","5","5","5","-2","1","0","1","-2","0","1","1","5","4","5","5","4","5","4","4","5","4","6","8","7","8","7","5","7","8","9","7","6","4","7","3","4","6","1","4","4","1","3","2","7","6","7","3","4","7","4","3","3","2","5","2","4","6","3","7","2","6","6","3","3","1","3","7","2","7","6","4","798982829940809730","王","381","Male","[""坏他"",""坏我"",""好他"",""好我""]","[""弱他"",""弱我"",""强他"",""强我""]","","","","","","","","nonmatch","","","","","","","","","","key","f","16.665702970296785","853.3333333333334","529.3333333333334","f","true","nonmatch","img/square.png","强他","强我","prac_ALT2_ability","practice_ability","","","","","","","","",""
"null","<span style='color:GreenYellow; font-size: 70px;'>正确! </span>","null","html-keyboard-response","63","278776","0.0-8.0-1.0-1.0-0.0-1.26","6","6","5","2","4","4","2","3","5","5","5","-2","1","0","1","-2","0","1","1","5","4","5","5","4","5","4","4","5","4","6","8","7","8","7","5","7","8","9","7","6","4","7","3","4","6","1","4","4","1","3","2","7","6","7","3","4","7","4","3","3","2","5","2","4","6","3","7","2","6","6","3","3","1","3","7","2","7","6","4","798982829940809730","王","381","Male","[""坏他"",""坏我"",""好他"",""好我""]","[""弱他"",""弱我"",""强他"",""强我""]","","","","","","","","","","","","","","","","","","","","","","","","","","","","","","feedback_test","","","","","","","","",""
"988","","j","psychophysics","64","280766","0.0-8.0-1.0-1.0-0.0-0.27","6","6","5","2","4","4","2","3","5","5","5","-2","1","0","1","-2","0","1","1","5","4","5","5","4","5","4","4","5","4","6","8","7","8","7","5","7","8","9","7","6","4","7","3","4","6","1","4","4","1","3","2","7","6","7","3","4","7","4","3","3","2","5","2","4","6","3","7","2","6","6","3","3","1","3","7","2","7","6","4","798982829940809730","王","381","Male","[""坏他"",""坏我"",""好他"",""好我""]","[""弱他"",""弱我"",""强他"",""强我""]","","","","","","","","match","","","","","","","","","","key","j","16.66445762711879","853.3333333333334","529.3333333333334","f","false","nonmatch","img/ellipse.png","强他","弱他","prac_ALT2_ability","practice_ability","","","","","","","","",""
"null","<span style='color:red; font-size: 70px;'>错误! </span>","null","html-keyboard-response","65","281267","0.0-8.0-1.0-1.0-0.0-1.27","6","6","5","2","4","4","2","3","5","5","5","-2","1","0","1","-2","0","1","1","5","4","5","5","4","5","4","4","5","4","6","8","7","8","7","5","7","8","9","7","6","4","7","3","4","6","1","4","4","1","3","2","7","6","7","3","4","7","4","3","3","2","5","2","4","6","3","7","2","6","6","3","3","1","3","7","2","7","6","4","798982829940809730","王","381","Male","[""坏他"",""坏我"",""好他"",""好我""]","[""弱他"",""弱我"",""强他"",""强我""]","","","","","","","","","","","","","","","","","","","","","","","","","","","","","","feedback_test","","","","","","","","",""
"789","","f","psychophysics","66","283058","0.0-8.0-1.0-1.0-0.0-0.28","6","6","5","2","4","4","2","3","5","5","5","-2","1","0","1","-2","0","1","1","5","4","5","5","4","5","4","4","5","4","6","8","7","8","7","5","7","8","9","7","6","4","7","3","4","6","1","4","4","1","3","2","7","6","7","3","4","7","4","3","3","2","5","2","4","6","3","7","2","6","6","3","3","1","3","7","2","7","6","4","798982829940809730","王","381","Male","[""坏他"",""坏我"",""好他"",""好我""]","[""弱他"",""弱我"",""强他"",""强我""]","","","","","","","","nonmatch","","","","","","","","","","key","f","16.66450943396194","853.3333333333334","529.3333333333334","j","false","match","img/trapezoid.png","弱我","弱我","prac_ALT2_ability","practice_ability","","","","","","","","",""
"null","<span style='color:red; font-size: 70px;'>错误! </span>","null","html-keyboard-response","67","283560","0.0-8.0-1.0-1.0-0.0-1.28","6","6","5","2","4","4","2","3","5","5","5","-2","1","0","1","-2","0","1","1","5","4","5","5","4","5","4","4","5","4","6","8","7","8","7","5","7","8","9","7","6","4","7","3","4","6","1","4","4","1","3","2","7","6","7","3","4","7","4","3","3","2","5","2","4","6","3","7","2","6","6","3","3","1","3","7","2","7","6","4","798982829940809730","王","381","Male","[""坏他"",""坏我"",""好他"",""好我""]","[""弱他"",""弱我"",""强他"",""强我""]","","","","","","","","","","","","","","","","","","","","","","","","","","","","","","feedback_test","","","","","","","","",""
"894","","j","psychophysics","68","285456","0.0-8.0-1.0-1.0-0.0-0.29","6","6","5","2","4","4","2","3","5","5","5","-2","1","0","1","-2","0","1","1","5","4","5","5","4","5","4","4","5","4","6","8","7","8","7","5","7","8","9","7","6","4","7","3","4","6","1","4","4","1","3","2","7","6","7","3","4","7","4","3","3","2","5","2","4","6","3","7","2","6","6","3","3","1","3","7","2","7","6","4","798982829940809730","王","381","Male","[""坏他"",""坏我"",""好他"",""好我""]","[""弱他"",""弱我"",""强他"",""强我""]","","","","","","","","match","","","","","","","","","","key","j","16.64473451327469","853.3333333333334","529.3333333333334","j","true","match","img/ellipse.png","弱他","弱他","prac_ALT2_ability","practice_ability","","","","","","","","",""
"null","<span style='color:GreenYellow; font-size: 70px;'>正确! </span>","null","html-keyboard-response","69","285958","0.0-8.0-1.0-1.0-0.0-1.29","6","6","5","2","4","4","2","3","5","5","5","-2","1","0","1","-2","0","1","1","5","4","5","5","4","5","4","4","5","4","6","8","7","8","7","5","7","8","9","7","6","4","7","3","4","6","1","4","4","1","3","2","7","6","7","3","4","7","4","3","3","2","5","2","4","6","3","7","2","6","6","3","3","1","3","7","2","7","6","4","798982829940809730","王","381","Male","[""坏他"",""坏我"",""好他"",""好我""]","[""弱他"",""弱我"",""强他"",""强我""]","","","","","","","","","","","","","","","","","","","","","","","","","","","","","","feedback_test","","","","","","","","",""
"775","","f","psychophysics","70","287735","0.0-8.0-1.0-1.0-0.0-0.30","6","6","5","2","4","4","2","3","5","5","5","-2","1","0","1","-2","0","1","1","5","4","5","5","4","5","4","4","5","4","6","8","7","8","7","5","7","8","9","7","6","4","7","3","4","6","1","4","4","1","3","2","7","6","7","3","4","7","4","3","3","2","5","2","4","6","3","7","2","6","6","3","3","1","3","7","2","7","6","4","798982829940809730","王","381","Male","[""坏他"",""坏我"",""好他"",""好我""]","[""弱他"",""弱我"",""强他"",""强我""]","","","","","","","","nonmatch","","","","","","","","","","key","f","16.66518867924482","853.3333333333334","529.3333333333334","f","true","nonmatch","img/trapezoid.png","强他","弱我","prac_ALT2_ability","practice_ability","","","","","","","","",""
"null","<span style='color:GreenYellow; font-size: 70px;'>正确! </span>","null","html-keyboard-response","71","288236","0.0-8.0-1.0-1.0-0.0-1.30","6","6","5","2","4","4","2","3","5","5","5","-2","1","0","1","-2","0","1","1","5","4","5","5","4","5","4","4","5","4","6","8","7","8","7","5","7","8","9","7","6","4","7","3","4","6","1","4","4","1","3","2","7","6","7","3","4","7","4","3","3","2","5","2","4","6","3","7","2","6","6","3","3","1","3","7","2","7","6","4","798982829940809730","王","381","Male","[""坏他"",""坏我"",""好他"",""好我""]","[""弱他"",""弱我"",""强他"",""强我""]","","","","","","","","","","","","","","","","","","","","","","","","","","","","","","feedback_test","","","","","","","","",""
"789","","j","psychophysics","72","290027","0.0-8.0-1.0-1.0-0.0-0.31","6","6","5","2","4","4","2","3","5","5","5","-2","1","0","1","-2","0","1","1","5","4","5","5","4","5","4","4","5","4","6","8","7","8","7","5","7","8","9","7","6","4","7","3","4","6","1","4","4","1","3","2","7","6","7","3","4","7","4","3","3","2","5","2","4","6","3","7","2","6","6","3","3","1","3","7","2","7","6","4","798982829940809730","王","381","Male","[""坏他"",""坏我"",""好他"",""好我""]","[""弱他"",""弱我"",""强他"",""强我""]","","","","","","","","match","","","","","","","","","","key","j","16.665066037735603","853.3333333333334","529.3333333333334","f","false","nonmatch","img/hexagon.png","强我","强他","prac_ALT2_ability","practice_ability","","","","","","","","",""
"null","<span style='color:red; font-size: 70px;'>错误! </span>","null","html-keyboard-response","73","290528","0.0-8.0-1.0-1.0-0.0-1.31","6","6","5","2","4","4","2","3","5","5","5","-2","1","0","1","-2","0","1","1","5","4","5","5","4","5","4","4","5","4","6","8","7","8","7","5","7","8","9","7","6","4","7","3","4","6","1","4","4","1","3","2","7","6","7","3","4","7","4","3","3","2","5","2","4","6","3","7","2","6","6","3","3","1","3","7","2","7","6","4","798982829940809730","王","381","Male","[""坏他"",""坏我"",""好他"",""好我""]","[""弱他"",""弱我"",""强他"",""强我""]","","","","","","","","","","","","","","","","","","","","","","","","","","","","","","feedback_test","","","","","","","","",""
"1025","","j","psychophysics","74","292556","0.0-8.0-1.0-1.0-0.0-0.32","6","6","5","2","4","4","2","3","5","5","5","-2","1","0","1","-2","0","1","1","5","4","5","5","4","5","4","4","5","4","6","8","7","8","7","5","7","8","9","7","6","4","7","3","4","6","1","4","4","1","3","2","7","6","7","3","4","7","4","3","3","2","5","2","4","6","3","7","2","6","6","3","3","1","3","7","2","7","6","4","798982829940809730","王","381","Male","[""坏他"",""坏我"",""好他"",""好我""]","[""弱他"",""弱我"",""强他"",""强我""]","","","","","","","","match","","","","","","","","","","key","j","16.66472727272704","853.3333333333334","529.3333333333334","j","true","match","img/square.png","强我","强我","prac_ALT2_ability","practice_ability","","","","","","","","",""
"null","<span style='color:GreenYellow; font-size: 70px;'>正确! </span>","null","html-keyboard-response","75","293058","0.0-8.0-1.0-1.0-0.0-1.32","6","6","5","2","4","4","2","3","5","5","5","-2","1","0","1","-2","0","1","1","5","4","5","5","4","5","4","4","5","4","6","8","7","8","7","5","7","8","9","7","6","4","7","3","4","6","1","4","4","1","3","2","7","6","7","3","4","7","4","3","3","2","5","2","4","6","3","7","2","6","6","3","3","1","3","7","2","7","6","4","798982829940809730","王","381","Male","[""坏他"",""坏我"",""好他"",""好我""]","[""弱他"",""弱我"",""强他"",""强我""]","","","","","","","","","","","","","","","","","","","","","","","","","","","","","","feedback_test","","","","","","","","",""
"632","","f","psychophysics","76","294693","0.0-8.0-1.0-1.0-0.0-0.33","6","6","5","2","4","4","2","3","5","5","5","-2","1","0","1","-2","0","1","1","5","4","5","5","4","5","4","4","5","4","6","8","7","8","7","5","7","8","9","7","6","4","7","3","4","6","1","4","4","1","3","2","7","6","7","3","4","7","4","3","3","2","5","2","4","6","3","7","2","6","6","3","3","1","3","7","2","7","6","4","798982829940809730","王","381","Male","[""坏他"",""坏我"",""好他"",""好我""]","[""弱他"",""弱我"",""强他"",""强我""]","","","","","","","","nonmatch","","","","","","","","","","key","f","16.665587628865733","853.3333333333334","529.3333333333334","f","true","nonmatch","img/ellipse.png","弱我","弱他","prac_ALT2_ability","practice_ability","","","","","","","","",""
"null","<span style='color:GreenYellow; font-size: 70px;'>正确! </span>","null","html-keyboard-response","77","295194","0.0-8.0-1.0-1.0-0.0-1.33","6","6","5","2","4","4","2","3","5","5","5","-2","1","0","1","-2","0","1","1","5","4","5","5","4","5","4","4","5","4","6","8","7","8","7","5","7","8","9","7","6","4","7","3","4","6","1","4","4","1","3","2","7","6","7","3","4","7","4","3","3","2","5","2","4","6","3","7","2","6","6","3","3","1","3","7","2","7","6","4","798982829940809730","王","381","Male","[""坏他"",""坏我"",""好他"",""好我""]","[""弱他"",""弱我"",""强他"",""强我""]","","","","","","","","","","","","","","","","","","","","","","","","","","","","","","feedback_test","","","","","","","","",""
"724","","f","psychophysics","78","296920","0.0-8.0-1.0-1.0-0.0-0.34","6","6","5","2","4","4","2","3","5","5","5","-2","1","0","1","-2","0","1","1","5","4","5","5","4","5","4","4","5","4","6","8","7","8","7","5","7","8","9","7","6","4","7","3","4","6","1","4","4","1","3","2","7","6","7","3","4","7","4","3","3","2","5","2","4","6","3","7","2","6","6","3","3","1","3","7","2","7","6","4","798982829940809730","王","381","Male","[""坏他"",""坏我"",""好他"",""好我""]","[""弱他"",""弱我"",""强他"",""强我""]","","","","","","","","nonmatch","","","","","","","","","","key","f","16.66393137254921","853.3333333333334","529.3333333333334","j","false","match","img/hexagon.png","强他","强他","prac_ALT2_ability","practice_ability","","","","","","","","",""
"null","<span style='color:red; font-size: 70px;'>错误! </span>","null","html-keyboard-response","79","297421","0.0-8.0-1.0-1.0-0.0-1.34","6","6","5","2","4","4","2","3","5","5","5","-2","1","0","1","-2","0","1","1","5","4","5","5","4","5","4","4","5","4","6","8","7","8","7","5","7","8","9","7","6","4","7","3","4","6","1","4","4","1","3","2","7","6","7","3","4","7","4","3","3","2","5","2","4","6","3","7","2","6","6","3","3","1","3","7","2","7","6","4","798982829940809730","王","381","Male","[""坏他"",""坏我"",""好他"",""好我""]","[""弱他"",""弱我"",""强他"",""强我""]","","","","","","","","","","","","","","","","","","","","","","","","","","","","","","feedback_test","","","","","","","","",""
"620","","j","psychophysics","80","299043","0.0-8.0-1.0-1.0-0.0-0.35","6","6","5","2","4","4","2","3","5","5","5","-2","1","0","1","-2","0","1","1","5","4","5","5","4","5","4","4","5","4","6","8","7","8","7","5","7","8","9","7","6","4","7","3","4","6","1","4","4","1","3","2","7","6","7","3","4","7","4","3","3","2","5","2","4","6","3","7","2","6","6","3","3","1","3","7","2","7","6","4","798982829940809730","王","381","Male","[""坏他"",""坏我"",""好他"",""好我""]","[""弱他"",""弱我"",""强他"",""强我""]","","","","","","","","match","","","","","","","","","","key","j","16.637302083333754","853.3333333333334","529.3333333333334","j","true","match","img/hexagon.png","强他","强他","prac_ALT2_ability","practice_ability","","","","","","","","",""
"null","<span style='color:GreenYellow; font-size: 70px;'>正确! </span>","null","html-keyboard-response","81","299545","0.0-8.0-1.0-1.0-0.0-1.35","6","6","5","2","4","4","2","3","5","5","5","-2","1","0","1","-2","0","1","1","5","4","5","5","4","5","4","4","5","4","6","8","7","8","7","5","7","8","9","7","6","4","7","3","4","6","1","4","4","1","3","2","7","6","7","3","4","7","4","3","3","2","5","2","4","6","3","7","2","6","6","3","3","1","3","7","2","7","6","4","798982829940809730","王","381","Male","[""坏他"",""坏我"",""好他"",""好我""]","[""弱他"",""弱我"",""强他"",""强我""]","","","","","","","","","","","","","","","","","","","","","","","","","","","","","","feedback_test","","","","","","","","",""
"809","","j","psychophysics","82","301356","0.0-8.0-1.0-1.0-0.0-0.36","6","6","5","2","4","4","2","3","5","5","5","-2","1","0","1","-2","0","1","1","5","4","5","5","4","5","4","4","5","4","6","8","7","8","7","5","7","8","9","7","6","4","7","3","4","6","1","4","4","1","3","2","7","6","7","3","4","7","4","3","3","2","5","2","4","6","3","7","2","6","6","3","3","1","3","7","2","7","6","4","798982829940809730","王","381","Male","[""坏他"",""坏我"",""好他"",""好我""]","[""弱他"",""弱我"",""强他"",""强我""]","","","","","","","","match","","","","","","","","","","key","j","16.64518518518566","853.3333333333334","529.3333333333334","j","true","match","img/trapezoid.png","弱我","弱我","prac_ALT2_ability","practice_ability","","","","","","","","",""
"null","<span style='color:GreenYellow; font-size: 70px;'>正确! </span>","null","html-keyboard-response","83","301858","0.0-8.0-1.0-1.0-0.0-1.36","6","6","5","2","4","4","2","3","5","5","5","-2","1","0","1","-2","0","1","1","5","4","5","5","4","5","4","4","5","4","6","8","7","8","7","5","7","8","9","7","6","4","7","3","4","6","1","4","4","1","3","2","7","6","7","3","4","7","4","3","3","2","5","2","4","6","3","7","2","6","6","3","3","1","3","7","2","7","6","4","798982829940809730","王","381","Male","[""坏他"",""坏我"",""好他"",""好我""]","[""弱他"",""弱我"",""强他"",""强我""]","","","","","","","","","","","","","","","","","","","","","","","","","","","","","","feedback_test","","","","","","","","",""
"699","","f","psychophysics","84","303560","0.0-8.0-1.0-1.0-0.0-0.37","6","6","5","2","4","4","2","3","5","5","5","-2","1","0","1","-2","0","1","1","5","4","5","5","4","5","4","4","5","4","6","8","7","8","7","5","7","8","9","7","6","4","7","3","4","6","1","4","4","1","3","2","7","6","7","3","4","7","4","3","3","2","5","2","4","6","3","7","2","6","6","3","3","1","3","7","2","7","6","4","798982829940809730","王","381","Male","[""坏他"",""坏我"",""好他"",""好我""]","[""弱他"",""弱我"",""强他"",""强我""]","","","","","","","","nonmatch","","","","","","","","","","key","f","16.664396039603883","853.3333333333334","529.3333333333334","f","true","nonmatch","img/trapezoid.png","弱他","弱我","prac_ALT2_ability","practice_ability","","","","","","","","",""
"null","<span style='color:GreenYellow; font-size: 70px;'>正确! </span>","null","html-keyboard-response","85","304062","0.0-8.0-1.0-1.0-0.0-1.37","6","6","5","2","4","4","2","3","5","5","5","-2","1","0","1","-2","0","1","1","5","4","5","5","4","5","4","4","5","4","6","8","7","8","7","5","7","8","9","7","6","4","7","3","4","6","1","4","4","1","3","2","7","6","7","3","4","7","4","3","3","2","5","2","4","6","3","7","2","6","6","3","3","1","3","7","2","7","6","4","798982829940809730","王","381","Male","[""坏他"",""坏我"",""好他"",""好我""]","[""弱他"",""弱我"",""强他"",""强我""]","","","","","","","","","","","","","","","","","","","","","","","","","","","","","","feedback_test","","","","","","","","",""
"481","","j","psychophysics","86","305544","0.0-8.0-1.0-1.0-0.0-0.38","6","6","5","2","4","4","2","3","5","5","5","-2","1","0","1","-2","0","1","1","5","4","5","5","4","5","4","4","5","4","6","8","7","8","7","5","7","8","9","7","6","4","7","3","4","6","1","4","4","1","3","2","7","6","7","3","4","7","4","3","3","2","5","2","4","6","3","7","2","6","6","3","3","1","3","7","2","7","6","4","798982829940809730","王","381","Male","[""坏他"",""坏我"",""好他"",""好我""]","[""弱他"",""弱我"",""强他"",""强我""]","","","","","","","","match","","","","","","","","","","key","j","16.663193181817903","853.3333333333334","529.3333333333334","j","true","match","img/hexagon.png","强他","强他","prac_ALT2_ability","practice_ability","","","","","","","","",""
"null","<span style='color:GreenYellow; font-size: 70px;'>正确! </span>","null","html-keyboard-response","87","306046","0.0-8.0-1.0-1.0-0.0-1.38","6","6","5","2","4","4","2","3","5","5","5","-2","1","0","1","-2","0","1","1","5","4","5","5","4","5","4","4","5","4","6","8","7","8","7","5","7","8","9","7","6","4","7","3","4","6","1","4","4","1","3","2","7","6","7","3","4","7","4","3","3","2","5","2","4","6","3","7","2","6","6","3","3","1","3","7","2","7","6","4","798982829940809730","王","381","Male","[""坏他"",""坏我"",""好他"",""好我""]","[""弱他"",""弱我"",""强他"",""强我""]","","","","","","","","","","","","","","","","","","","","","","","","","","","","","","feedback_test","","","","","","","","",""
"552","","j","psychophysics","88","307600","0.0-8.0-1.0-1.0-0.0-0.39","6","6","5","2","4","4","2","3","5","5","5","-2","1","0","1","-2","0","1","1","5","4","5","5","4","5","4","4","5","4","6","8","7","8","7","5","7","8","9","7","6","4","7","3","4","6","1","4","4","1","3","2","7","6","7","3","4","7","4","3","3","2","5","2","4","6","3","7","2","6","6","3","3","1","3","7","2","7","6","4","798982829940809730","王","381","Male","[""坏他"",""坏我"",""好他"",""好我""]","[""弱他"",""弱我"",""强他"",""强我""]","","","","","","","","match","","","","","","","","","","key","j","16.664554347826357","853.3333333333334","529.3333333333334","j","true","match","img/ellipse.png","弱他","弱他","prac_ALT2_ability","practice_ability","","","","","","","","",""
"null","<span style='color:GreenYellow; font-size: 70px;'>正确! </span>","null","html-keyboard-response","89","308101","0.0-8.0-1.0-1.0-0.0-1.39","6","6","5","2","4","4","2","3","5","5","5","-2","1","0","1","-2","0","1","1","5","4","5","5","4","5","4","4","5","4","6","8","7","8","7","5","7","8","9","7","6","4","7","3","4","6","1","4","4","1","3","2","7","6","7","3","4","7","4","3","3","2","5","2","4","6","3","7","2","6","6","3","3","1","3","7","2","7","6","4","798982829940809730","王","381","Male","[""坏他"",""坏我"",""好他"",""好我""]","[""弱他"",""弱我"",""强他"",""强我""]","","","","","","","","","","","","","","","","","","","","","","","","","","","","","","feedback_test","","","","","","","","",""
"914","","f","psychophysics","90","310016","0.0-8.0-1.0-1.0-0.0-0.40","6","6","5","2","4","4","2","3","5","5","5","-2","1","0","1","-2","0","1","1","5","4","5","5","4","5","4","4","5","4","6","8","7","8","7","5","7","8","9","7","6","4","7","3","4","6","1","4","4","1","3","2","7","6","7","3","4","7","4","3","3","2","5","2","4","6","3","7","2","6","6","3","3","1","3","7","2","7","6","4","798982829940809730","王","381","Male","[""坏他"",""坏我"",""好他"",""好我""]","[""弱他"",""弱我"",""强他"",""强我""]","","","","","","","","nonmatch","","","","","","","","","","key","f","16.65322807017538","853.3333333333334","529.3333333333334","j","false","match","img/trapezoid.png","弱我","弱我","prac_ALT2_ability","practice_ability","","","","","","","","",""
"null","<span style='color:red; font-size: 70px;'>错误! </span>","null","html-keyboard-response","91","310517","0.0-8.0-1.0-1.0-0.0-1.40","6","6","5","2","4","4","2","3","5","5","5","-2","1","0","1","-2","0","1","1","5","4","5","5","4","5","4","4","5","4","6","8","7","8","7","5","7","8","9","7","6","4","7","3","4","6","1","4","4","1","3","2","7","6","7","3","4","7","4","3","3","2","5","2","4","6","3","7","2","6","6","3","3","1","3","7","2","7","6","4","798982829940809730","王","381","Male","[""坏他"",""坏我"",""好他"",""好我""]","[""弱他"",""弱我"",""强他"",""强我""]","","","","","","","","","","","","","","","","","","","","","","","","","","","","","","feedback_test","","","","","","","","",""
"700","","f","psychophysics","92","312219","0.0-8.0-1.0-1.0-0.0-0.41","6","6","5","2","4","4","2","3","5","5","5","-2","1","0","1","-2","0","1","1","5","4","5","5","4","5","4","4","5","4","6","8","7","8","7","5","7","8","9","7","6","4","7","3","4","6","1","4","4","1","3","2","7","6","7","3","4","7","4","3","3","2","5","2","4","6","3","7","2","6","6","3","3","1","3","7","2","7","6","4","798982829940809730","王","381","Male","[""坏他"",""坏我"",""好他"",""好我""]","[""弱他"",""弱我"",""强他"",""强我""]","","","","","","","","nonmatch","","","","","","","","","","key","f","16.662029702970205","853.3333333333334","529.3333333333334","f","true","nonmatch","img/ellipse.png","强我","弱他","prac_ALT2_ability","practice_ability","","","","","","","","",""
"null","<span style='color:GreenYellow; font-size: 70px;'>正确! </span>","null","html-keyboard-response","93","312721","0.0-8.0-1.0-1.0-0.0-1.41","6","6","5","2","4","4","2","3","5","5","5","-2","1","0","1","-2","0","1","1","5","4","5","5","4","5","4","4","5","4","6","8","7","8","7","5","7","8","9","7","6","4","7","3","4","6","1","4","4","1","3","2","7","6","7","3","4","7","4","3","3","2","5","2","4","6","3","7","2","6","6","3","3","1","3","7","2","7","6","4","798982829940809730","王","381","Male","[""坏他"",""坏我"",""好他"",""好我""]","[""弱他"",""弱我"",""强他"",""强我""]","","","","","","","","","","","","","","","","","","","","","","","","","","","","","","feedback_test","","","","","","","","",""
"865","","j","psychophysics","94","314588","0.0-8.0-1.0-1.0-0.0-0.42","6","6","5","2","4","4","2","3","5","5","5","-2","1","0","1","-2","0","1","1","5","4","5","5","4","5","4","4","5","4","6","8","7","8","7","5","7","8","9","7","6","4","7","3","4","6","1","4","4","1","3","2","7","6","7","3","4","7","4","3","3","2","5","2","4","6","3","7","2","6","6","3","3","1","3","7","2","7","6","4","798982829940809730","王","381","Male","[""坏他"",""坏我"",""好他"",""好我""]","[""弱他"",""弱我"",""强他"",""强我""]","","","","","","","","match","","","","","","","","","","key","j","16.668154545454836","853.3333333333334","529.3333333333334","f","false","nonmatch","img/square.png","弱我","强我","prac_ALT2_ability","practice_ability","","","","","","","","",""
"null","<span style='color:red; font-size: 70px;'>错误! </span>","null","html-keyboard-response","95","315090","0.0-8.0-1.0-1.0-0.0-1.42","6","6","5","2","4","4","2","3","5","5","5","-2","1","0","1","-2","0","1","1","5","4","5","5","4","5","4","4","5","4","6","8","7","8","7","5","7","8","9","7","6","4","7","3","4","6","1","4","4","1","3","2","7","6","7","3","4","7","4","3","3","2","5","2","4","6","3","7","2","6","6","3","3","1","3","7","2","7","6","4","798982829940809730","王","381","Male","[""坏他"",""坏我"",""好他"",""好我""]","[""弱他"",""弱我"",""强他"",""强我""]","","","","","","","","","","","","","","","","","","","","","","","","","","","","","","feedback_test","","","","","","","","",""
"714","","j","psychophysics","96","316806","0.0-8.0-1.0-1.0-0.0-0.43","6","6","5","2","4","4","2","3","5","5","5","-2","1","0","1","-2","0","1","1","5","4","5","5","4","5","4","4","5","4","6","8","7","8","7","5","7","8","9","7","6","4","7","3","4","6","1","4","4","1","3","2","7","6","7","3","4","7","4","3","3","2","5","2","4","6","3","7","2","6","6","3","3","1","3","7","2","7","6","4","798982829940809730","王","381","Male","[""坏他"",""坏我"",""好他"",""好我""]","[""弱他"",""弱我"",""强他"",""强我""]","","","","","","","","match","","","","","","","","","","key","j","16.651303921568243","853.3333333333334","529.3333333333334","f","false","nonmatch","img/hexagon.png","弱我","强他","prac_ALT2_ability","practice_ability","","","","","","","","",""
"null","<span style='color:red; font-size: 70px;'>错误! </span>","null","html-keyboard-response","97","317307","0.0-8.0-1.0-1.0-0.0-1.43","6","6","5","2","4","4","2","3","5","5","5","-2","1","0","1","-2","0","1","1","5","4","5","5","4","5","4","4","5","4","6","8","7","8","7","5","7","8","9","7","6","4","7","3","4","6","1","4","4","1","3","2","7","6","7","3","4","7","4","3","3","2","5","2","4","6","3","7","2","6","6","3","3","1","3","7","2","7","6","4","798982829940809730","王","381","Male","[""坏他"",""坏我"",""好他"",""好我""]","[""弱他"",""弱我"",""强他"",""强我""]","","","","","","","","","","","","","","","","","","","","","","","","","","","","","","feedback_test","","","","","","","","",""
"847","","j","psychophysics","98","319157","0.0-8.0-1.0-1.0-0.0-0.44","6","6","5","2","4","4","2","3","5","5","5","-2","1","0","1","-2","0","1","1","5","4","5","5","4","5","4","4","5","4","6","8","7","8","7","5","7","8","9","7","6","4","7","3","4","6","1","4","4","1","3","2","7","6","7","3","4","7","4","3","3","2","5","2","4","6","3","7","2","6","6","3","3","1","3","7","2","7","6","4","798982829940809730","王","381","Male","[""坏他"",""坏我"",""好他"",""好我""]","[""弱他"",""弱我"",""强他"",""强我""]","","","","","","","","match","","","","","","","","","","key","j","16.656863636363678","853.3333333333334","529.3333333333334","j","true","match","img/ellipse.png","弱他","弱他","prac_ALT2_ability","practice_ability","","","","","","","","",""
"null","<span style='color:GreenYellow; font-size: 70px;'>正确! </span>","null","html-keyboard-response","99","319658","0.0-8.0-1.0-1.0-0.0-1.44","6","6","5","2","4","4","2","3","5","5","5","-2","1","0","1","-2","0","1","1","5","4","5","5","4","5","4","4","5","4","6","8","7","8","7","5","7","8","9","7","6","4","7","3","4","6","1","4","4","1","3","2","7","6","7","3","4","7","4","3","3","2","5","2","4","6","3","7","2","6","6","3","3","1","3","7","2","7","6","4","798982829940809730","王","381","Male","[""坏他"",""坏我"",""好他"",""好我""]","[""弱他"",""弱我"",""强他"",""强我""]","","","","","","","","","","","","","","","","","","","","","","","","","","","","","","feedback_test","","","","","","","","",""
"508","","f","psychophysics","100","321168","0.0-8.0-1.0-1.0-0.0-0.45","6","6","5","2","4","4","2","3","5","5","5","-2","1","0","1","-2","0","1","1","5","4","5","5","4","5","4","4","5","4","6","8","7","8","7","5","7","8","9","7","6","4","7","3","4","6","1","4","4","1","3","2","7","6","7","3","4","7","4","3","3","2","5","2","4","6","3","7","2","6","6","3","3","1","3","7","2","7","6","4","798982829940809730","王","381","Male","[""坏他"",""坏我"",""好他"",""好我""]","[""弱他"",""弱我"",""强他"",""强我""]","","","","","","","","nonmatch","","","","","","","","","","key","f","16.666888888889098","853.3333333333334","529.3333333333334","j","false","match","img/square.png","强我","强我","prac_ALT2_ability","practice_ability","","","","","","","","",""
"null","<span style='color:red; font-size: 70px;'>错误! </span>","null","html-keyboard-response","101","321669","0.0-8.0-1.0-1.0-0.0-1.45","6","6","5","2","4","4","2","3","5","5","5","-2","1","0","1","-2","0","1","1","5","4","5","5","4","5","4","4","5","4","6","8","7","8","7","5","7","8","9","7","6","4","7","3","4","6","1","4","4","1","3","2","7","6","7","3","4","7","4","3","3","2","5","2","4","6","3","7","2","6","6","3","3","1","3","7","2","7","6","4","798982829940809730","王","381","Male","[""坏他"",""坏我"",""好他"",""好我""]","[""弱他"",""弱我"",""强他"",""强我""]","","","","","","","","","","","","","","","","","","","","","","","","","","","","","","feedback_test","","","","","","","","",""
"638","","f","psychophysics","102","323309","0.0-8.0-1.0-1.0-0.0-0.46","6","6","5","2","4","4","2","3","5","5","5","-2","1","0","1","-2","0","1","1","5","4","5","5","4","5","4","4","5","4","6","8","7","8","7","5","7","8","9","7","6","4","7","3","4","6","1","4","4","1","3","2","7","6","7","3","4","7","4","3","3","2","5","2","4","6","3","7","2","6","6","3","3","1","3","7","2","7","6","4","798982829940809730","王","381","Male","[""坏他"",""坏我"",""好他"",""好我""]","[""弱他"",""弱我"",""强他"",""强我""]","","","","","","","","nonmatch","","","","","","","","","","key","f","16.634618556700627","853.3333333333334","529.3333333333334","f","true","nonmatch","img/square.png","弱他","强我","prac_ALT2_ability","practice_ability","","","","","","","","",""
"null","<span style='color:GreenYellow; font-size: 70px;'>正确! </span>","null","html-keyboard-response","103","323811","0.0-8.0-1.0-1.0-0.0-1.46","6","6","5","2","4","4","2","3","5","5","5","-2","1","0","1","-2","0","1","1","5","4","5","5","4","5","4","4","5","4","6","8","7","8","7","5","7","8","9","7","6","4","7","3","4","6","1","4","4","1","3","2","7","6","7","3","4","7","4","3","3","2","5","2","4","6","3","7","2","6","6","3","3","1","3","7","2","7","6","4","798982829940809730","王","381","Male","[""坏他"",""坏我"",""好他"",""好我""]","[""弱他"",""弱我"",""强他"",""强我""]","","","","","","","","","","","","","","","","","","","","","","","","","","","","","","feedback_test","","","","","","","","",""
"809","","f","psychophysics","104","325623","0.0-8.0-1.0-1.0-0.0-0.47","6","6","5","2","4","4","2","3","5","5","5","-2","1","0","1","-2","0","1","1","5","4","5","5","4","5","4","4","5","4","6","8","7","8","7","5","7","8","9","7","6","4","7","3","4","6","1","4","4","1","3","2","7","6","7","3","4","7","4","3","3","2","5","2","4","6","3","7","2","6","6","3","3","1","3","7","2","7","6","4","798982829940809730","王","381","Male","[""坏他"",""坏我"",""好他"",""好我""]","[""弱他"",""弱我"",""强他"",""强我""]","","","","","","","","nonmatch","","","","","","","","","","key","f","16.66494392523342","853.3333333333334","529.3333333333334","f","true","nonmatch","img/hexagon.png","弱他","强他","prac_ALT2_ability","practice_ability","","","","","","","","",""
"null","<span style='color:GreenYellow; font-size: 70px;'>正确! </span>","null","html-keyboard-response","105","326126","0.0-8.0-1.0-1.0-0.0-1.47","6","6","5","2","4","4","2","3","5","5","5","-2","1","0","1","-2","0","1","1","5","4","5","5","4","5","4","4","5","4","6","8","7","8","7","5","7","8","9","7","6","4","7","3","4","6","1","4","4","1","3","2","7","6","7","3","4","7","4","3","3","2","5","2","4","6","3","7","2","6","6","3","3","1","3","7","2","7","6","4","798982829940809730","王","381","Male","[""坏他"",""坏我"",""好他"",""好我""]","[""弱他"",""弱我"",""强他"",""强我""]","","","","","","","","","","","","","","","","","","","","","","","","","","","","","","feedback_test","","","","","","","","",""
"6591","<style>.context{color:white; font-size: 35px; line-height:40px}</style>                          <div><p class='context'>您正确回答了67% 的试次。</p><p class='context'>您的平均反应时为809毫秒。</p><p class='context'>恭喜您完成练习。按空格键进入正式实验。</p><p class='footer' style='color:white;font-size: 35px; line-height:40px;'>请在进入正式实验实验之前将您的<span style='color: lightgreen;'>食指</span>放在电脑键盘的相应键位上进行按键。</p>"," ","html-keyboard-response","106","332721","0.0-8.0-1.0-2.0","6","6","5","2","4","4","2","3","5","5","5","-2","1","0","1","-2","0","1","1","5","4","5","5","4","5","4","4","5","4","6","8","7","8","7","5","7","8","9","7","6","4","7","3","4","6","1","4","4","1","3","2","7","6","7","3","4","7","4","3","3","2","5","2","4","6","3","7","2","6","6","3","3","1","3","7","2","7","6","4","798982829940809730","王","381","Male","[""坏他"",""坏我"",""好他"",""好我""]","[""弱他"",""弱我"",""强他"",""强我""]","","","","","","","","","","","","","","","","","","","","","","","","","","","","","","","","","","","","","","",""
"2389","
  <p style='color: white; font-size: 22px'>请您将手指放在按键上，准备进入正式的匹配任务。</p>
  <p> <div style = ""color: green""><按空格键进入下一阶段的匹配任务></div></p>
  "," ","html-keyboard-response","107","335115","0.0-8.0-1.0-3.0","6","6","5","2","4","4","2","3","5","5","5","-2","1","0","1","-2","0","1","1","5","4","5","5","4","5","4","4","5","4","6","8","7","8","7","5","7","8","9","7","6","4","7","3","4","6","1","4","4","1","3","2","7","6","7","3","4","7","4","3","3","2","5","2","4","6","3","7","2","6","6","3","3","1","3","7","2","7","6","4","798982829940809730","王","381","Male","[""坏他"",""坏我"",""好他"",""好我""]","[""弱他"",""弱我"",""强他"",""强我""]","","","","","","","","","","","","","","","","","","","","","","","","","","","","","","","","","","","","","","",""
"507","","j","psychophysics","108","336624","0.0-8.0-1.0-4.0-0.0-0.0","6","6","5","2","4","4","2","3","5","5","5","-2","1","0","1","-2","0","1","1","5","4","5","5","4","5","4","4","5","4","6","8","7","8","7","5","7","8","9","7","6","4","7","3","4","6","1","4","4","1","3","2","7","6","7","3","4","7","4","3","3","2","5","2","4","6","3","7","2","6","6","3","3","1","3","7","2","7","6","4","798982829940809730","王","381","Male","[""坏他"",""坏我"",""好他"",""好我""]","[""弱他"",""弱我"",""强他"",""强我""]","","","","","","","","match","","","","","","","","","","key","j","16.662629213483005","853.3333333333334","529.3333333333334","j","true","match","img/square.png","强我","强我","ALT2","ability","","","","","","","","",""
"null","<span style='color:GreenYellow; font-size: 70px;'>正确! </span>","null","html-keyboard-response","109","337126","0.0-8.0-1.0-4.0-0.0-1.0","6","6","5","2","4","4","2","3","5","5","5","-2","1","0","1","-2","0","1","1","5","4","5","5","4","5","4","4","5","4","6","8","7","8","7","5","7","8","9","7","6","4","7","3","4","6","1","4","4","1","3","2","7","6","7","3","4","7","4","3","3","2","5","2","4","6","3","7","2","6","6","3","3","1","3","7","2","7","6","4","798982829940809730","王","381","Male","[""坏他"",""坏我"",""好他"",""好我""]","[""弱他"",""弱我"",""强他"",""强我""]","","","","","","","","","","","","","","","","","","","","","","","","","","","","","","feedback_test","","","","","","","","",""
"609","","f","psychophysics","110","338736","0.0-8.0-1.0-4.0-0.0-0.1","6","6","5","2","4","4","2","3","5","5","5","-2","1","0","1","-2","0","1","1","5","4","5","5","4","5","4","4","5","4","6","8","7","8","7","5","7","8","9","7","6","4","7","3","4","6","1","4","4","1","3","2","7","6","7","3","4","7","4","3","3","2","5","2","4","6","3","7","2","6","6","3","3","1","3","7","2","7","6","4","798982829940809730","王","381","Male","[""坏他"",""坏我"",""好他"",""好我""]","[""弱他"",""弱我"",""强他"",""强我""]","","","","","","","","nonmatch","","","","","","","","","","key","f","16.66427368421083","853.3333333333334","529.3333333333334","f","true","nonmatch","img/hexagon.png","弱他","强他","ALT2","ability","","","","","","","","",""
"null","<span style='color:GreenYellow; font-size: 70px;'>正确! </span>","null","html-keyboard-response","111","339237","0.0-8.0-1.0-4.0-0.0-1.1","6","6","5","2","4","4","2","3","5","5","5","-2","1","0","1","-2","0","1","1","5","4","5","5","4","5","4","4","5","4","6","8","7","8","7","5","7","8","9","7","6","4","7","3","4","6","1","4","4","1","3","2","7","6","7","3","4","7","4","3","3","2","5","2","4","6","3","7","2","6","6","3","3","1","3","7","2","7","6","4","798982829940809730","王","381","Male","[""坏他"",""坏我"",""好他"",""好我""]","[""弱他"",""弱我"",""强他"",""强我""]","","","","","","","","","","","","","","","","","","","","","","","","","","","","","","feedback_test","","","","","","","","",""
"574","","j","psychophysics","112","340814","0.0-8.0-1.0-4.0-0.0-0.2","6","6","5","2","4","4","2","3","5","5","5","-2","1","0","1","-2","0","1","1","5","4","5","5","4","5","4","4","5","4","6","8","7","8","7","5","7","8","9","7","6","4","7","3","4","6","1","4","4","1","3","2","7","6","7","3","4","7","4","3","3","2","5","2","4","6","3","7","2","6","6","3","3","1","3","7","2","7","6","4","798982829940809730","王","381","Male","[""坏他"",""坏我"",""好他"",""好我""]","[""弱他"",""弱我"",""强他"",""强我""]","","","","","","","","match","","","","","","","","","","key","j","16.66487234042514","853.3333333333334","529.3333333333334","j","true","match","img/trapezoid.png","弱我","弱我","ALT2","ability","","","","","","","","",""
"null","<span style='color:GreenYellow; font-size: 70px;'>正确! </span>","null","html-keyboard-response","113","341315","0.0-8.0-1.0-4.0-0.0-1.2","6","6","5","2","4","4","2","3","5","5","5","-2","1","0","1","-2","0","1","1","5","4","5","5","4","5","4","4","5","4","6","8","7","8","7","5","7","8","9","7","6","4","7","3","4","6","1","4","4","1","3","2","7","6","7","3","4","7","4","3","3","2","5","2","4","6","3","7","2","6","6","3","3","1","3","7","2","7","6","4","798982829940809730","王","381","Male","[""坏他"",""坏我"",""好他"",""好我""]","[""弱他"",""弱我"",""强他"",""强我""]","","","","","","","","","","","","","","","","","","","","","","","","","","","","","","feedback_test","","","","","","","","",""
"497","","f","psychophysics","114","342814","0.0-8.0-1.0-4.0-0.0-0.3","6","6","5","2","4","4","2","3","5","5","5","-2","1","0","1","-2","0","1","1","5","4","5","5","4","5","4","4","5","4","6","8","7","8","7","5","7","8","9","7","6","4","7","3","4","6","1","4","4","1","3","2","7","6","7","3","4","7","4","3","3","2","5","2","4","6","3","7","2","6","6","3","3","1","3","7","2","7","6","4","798982829940809730","王","381","Male","[""坏他"",""坏我"",""好他"",""好我""]","[""弱他"",""弱我"",""强他"",""强我""]","","","","","","","","nonmatch","","","","","","","","","","key","f","16.664606741573294","853.3333333333334","529.3333333333334","j","false","match","img/ellipse.png","弱他","弱他","ALT2","ability","","","","","","","","",""
"null","<span style='color:red; font-size: 70px;'>错误! </span>","null","html-keyboard-response","115","343324","0.0-8.0-1.0-4.0-0.0-1.3","6","6","5","2","4","4","2","3","5","5","5","-2","1","0","1","-2","0","1","1","5","4","5","5","4","5","4","4","5","4","6","8","7","8","7","5","7","8","9","7","6","4","7","3","4","6","1","4","4","1","3","2","7","6","7","3","4","7","4","3","3","2","5","2","4","6","3","7","2","6","6","3","3","1","3","7","2","7","6","4","798982829940809730","王","381","Male","[""坏他"",""坏我"",""好他"",""好我""]","[""弱他"",""弱我"",""强他"",""强我""]","","","","","","","","","","","","","","","","","","","","","","","","","","","","","","feedback_test","","","","","","","","",""
"575","","f","psychophysics","116","344900","0.0-8.0-1.0-4.0-0.0-0.4","6","6","5","2","4","4","2","3","5","5","5","-2","1","0","1","-2","0","1","1","5","4","5","5","4","5","4","4","5","4","6","8","7","8","7","5","7","8","9","7","6","4","7","3","4","6","1","4","4","1","3","2","7","6","7","3","4","7","4","3","3","2","5","2","4","6","3","7","2","6","6","3","3","1","3","7","2","7","6","4","798982829940809730","王","381","Male","[""坏他"",""坏我"",""好他"",""好我""]","[""弱他"",""弱我"",""强他"",""强我""]","","","","","","","","nonmatch","","","","","","","","","","key","f","16.664279569893004","853.3333333333334","529.3333333333334","j","false","match","img/hexagon.png","强他","强他","ALT2","ability","","","","","","","","",""
"null","<span style='color:red; font-size: 70px;'>错误! </span>","null","html-keyboard-response","117","345401","0.0-8.0-1.0-4.0-0.0-1.4","6","6","5","2","4","4","2","3","5","5","5","-2","1","0","1","-2","0","1","1","5","4","5","5","4","5","4","4","5","4","6","8","7","8","7","5","7","8","9","7","6","4","7","3","4","6","1","4","4","1","3","2","7","6","7","3","4","7","4","3","3","2","5","2","4","6","3","7","2","6","6","3","3","1","3","7","2","7","6","4","798982829940809730","王","381","Male","[""坏他"",""坏我"",""好他"",""好我""]","[""弱他"",""弱我"",""强他"",""强我""]","","","","","","","","","","","","","","","","","","","","","","","","","","","","","","feedback_test","","","","","","","","",""
"606","","f","psychophysics","118","347010","0.0-8.0-1.0-4.0-0.0-0.5","6","6","5","2","4","4","2","3","5","5","5","-2","1","0","1","-2","0","1","1","5","4","5","5","4","5","4","4","5","4","6","8","7","8","7","5","7","8","9","7","6","4","7","3","4","6","1","4","4","1","3","2","7","6","7","3","4","7","4","3","3","2","5","2","4","6","3","7","2","6","6","3","3","1","3","7","2","7","6","4","798982829940809730","王","381","Male","[""坏他"",""坏我"",""好他"",""好我""]","[""弱他"",""弱我"",""强他"",""强我""]","","","","","","","","nonmatch","","","","","","","","","","key","f","16.65942708333326","853.3333333333334","529.3333333333334","f","true","nonmatch","img/ellipse.png","弱我","弱他","ALT2","ability","","","","","","","","",""
"null","<span style='color:GreenYellow; font-size: 70px;'>正确! </span>","null","html-keyboard-response","119","347511","0.0-8.0-1.0-4.0-0.0-1.5","6","6","5","2","4","4","2","3","5","5","5","-2","1","0","1","-2","0","1","1","5","4","5","5","4","5","4","4","5","4","6","8","7","8","7","5","7","8","9","7","6","4","7","3","4","6","1","4","4","1","3","2","7","6","7","3","4","7","4","3","3","2","5","2","4","6","3","7","2","6","6","3","3","1","3","7","2","7","6","4","798982829940809730","王","381","Male","[""坏他"",""坏我"",""好他"",""好我""]","[""弱他"",""弱我"",""强他"",""强我""]","","","","","","","","","","","","","","","","","","","","","","","","","","","","","","feedback_test","","","","","","","","",""
"667","","j","psychophysics","120","349180","0.0-8.0-1.0-4.0-0.0-0.6","6","6","5","2","4","4","2","3","5","5","5","-2","1","0","1","-2","0","1","1","5","4","5","5","4","5","4","4","5","4","6","8","7","8","7","5","7","8","9","7","6","4","7","3","4","6","1","4","4","1","3","2","7","6","7","3","4","7","4","3","3","2","5","2","4","6","3","7","2","6","6","3","3","1","3","7","2","7","6","4","798982829940809730","王","381","Male","[""坏他"",""坏我"",""好他"",""好我""]","[""弱他"",""弱我"",""强他"",""强我""]","","","","","","","","match","","","","","","","","","","key","j","16.664232323232525","853.3333333333334","529.3333333333334","j","true","match","img/ellipse.png","弱他","弱他","ALT2","ability","","","","","","","","",""
"null","<span style='color:GreenYellow; font-size: 70px;'>正确! </span>","null","html-keyboard-response","121","349682","0.0-8.0-1.0-4.0-0.0-1.6","6","6","5","2","4","4","2","3","5","5","5","-2","1","0","1","-2","0","1","1","5","4","5","5","4","5","4","4","5","4","6","8","7","8","7","5","7","8","9","7","6","4","7","3","4","6","1","4","4","1","3","2","7","6","7","3","4","7","4","3","3","2","5","2","4","6","3","7","2","6","6","3","3","1","3","7","2","7","6","4","798982829940809730","王","381","Male","[""坏他"",""坏我"",""好他"",""好我""]","[""弱他"",""弱我"",""强他"",""强我""]","","","","","","","","","","","","","","","","","","","","","","","","","","","","","","feedback_test","","","","","","","","",""
"607","","f","psychophysics","122","351292","0.0-8.0-1.0-4.0-0.0-0.7","6","6","5","2","4","4","2","3","5","5","5","-2","1","0","1","-2","0","1","1","5","4","5","5","4","5","4","4","5","4","6","8","7","8","7","5","7","8","9","7","6","4","7","3","4","6","1","4","4","1","3","2","7","6","7","3","4","7","4","3","3","2","5","2","4","6","3","7","2","6","6","3","3","1","3","7","2","7","6","4","798982829940809730","王","381","Male","[""坏他"",""坏我"",""好他"",""好我""]","[""弱他"",""弱我"",""强他"",""强我""]","","","","","","","","nonmatch","","","","","","","","","","key","f","16.663431578947502","853.3333333333334","529.3333333333334","j","false","match","img/square.png","强我","强我","ALT2","ability","","","","","","","","",""
"null","<span style='color:red; font-size: 70px;'>错误! </span>","null","html-keyboard-response","123","351795","0.0-8.0-1.0-4.0-0.0-1.7","6","6","5","2","4","4","2","3","5","5","5","-2","1","0","1","-2","0","1","1","5","4","5","5","4","5","4","4","5","4","6","8","7","8","7","5","7","8","9","7","6","4","7","3","4","6","1","4","4","1","3","2","7","6","7","3","4","7","4","3","3","2","5","2","4","6","3","7","2","6","6","3","3","1","3","7","2","7","6","4","798982829940809730","王","381","Male","[""坏他"",""坏我"",""好他"",""好我""]","[""弱他"",""弱我"",""强他"",""强我""]","","","","","","","","","","","","","","","","","","","","","","","","","","","","","","feedback_test","","","","","","","","",""
"497","","j","psychophysics","124","353294","0.0-8.0-1.0-4.0-0.0-0.8","6","6","5","2","4","4","2","3","5","5","5","-2","1","0","1","-2","0","1","1","5","4","5","5","4","5","4","4","5","4","6","8","7","8","7","5","7","8","9","7","6","4","7","3","4","6","1","4","4","1","3","2","7","6","7","3","4","7","4","3","3","2","5","2","4","6","3","7","2","6","6","3","3","1","3","7","2","7","6","4","798982829940809730","王","381","Male","[""坏他"",""坏我"",""好他"",""好我""]","[""弱他"",""弱我"",""强他"",""强我""]","","","","","","","","match","","","","","","","","","","key","j","16.664370786517026","853.3333333333334","529.3333333333334","f","false","nonmatch","img/trapezoid.png","强他","弱我","ALT2","ability","","","","","","","","",""
"null","<span style='color:red; font-size: 70px;'>错误! </span>","null","html-keyboard-response","125","353797","0.0-8.0-1.0-4.0-0.0-1.8","6","6","5","2","4","4","2","3","5","5","5","-2","1","0","1","-2","0","1","1","5","4","5","5","4","5","4","4","5","4","6","8","7","8","7","5","7","8","9","7","6","4","7","3","4","6","1","4","4","1","3","2","7","6","7","3","4","7","4","3","3","2","5","2","4","6","3","7","2","6","6","3","3","1","3","7","2","7","6","4","798982829940809730","王","381","Male","[""坏他"",""坏我"",""好他"",""好我""]","[""弱他"",""弱我"",""强他"",""强我""]","","","","","","","","","","","","","","","","","","","","","","","","","","","","","","feedback_test","","","","","","","","",""
"601","","f","psychophysics","126","355401","0.0-8.0-1.0-4.0-0.0-0.9","6","6","5","2","4","4","2","3","5","5","5","-2","1","0","1","-2","0","1","1","5","4","5","5","4","5","4","4","5","4","6","8","7","8","7","5","7","8","9","7","6","4","7","3","4","6","1","4","4","1","3","2","7","6","7","3","4","7","4","3","3","2","5","2","4","6","3","7","2","6","6","3","3","1","3","7","2","7","6","4","798982829940809730","王","381","Male","[""坏他"",""坏我"",""好他"",""好我""]","[""弱他"",""弱我"",""强他"",""强我""]","","","","","","","","nonmatch","","","","","","","","","","key","f","16.66575789473657","853.3333333333334","529.3333333333334","j","false","match","img/trapezoid.png","弱我","弱我","ALT2","ability","","","","","","","","",""
"null","<span style='color:red; font-size: 70px;'>错误! </span>","null","html-keyboard-response","127","355902","0.0-8.0-1.0-4.0-0.0-1.9","6","6","5","2","4","4","2","3","5","5","5","-2","1","0","1","-2","0","1","1","5","4","5","5","4","5","4","4","5","4","6","8","7","8","7","5","7","8","9","7","6","4","7","3","4","6","1","4","4","1","3","2","7","6","7","3","4","7","4","3","3","2","5","2","4","6","3","7","2","6","6","3","3","1","3","7","2","7","6","4","798982829940809730","王","381","Male","[""坏他"",""坏我"",""好他"",""好我""]","[""弱他"",""弱我"",""强他"",""强我""]","","","","","","","","","","","","","","","","","","","","","","","","","","","","","","feedback_test","","","","","","","","",""
"510","","j","psychophysics","128","357414","0.0-8.0-1.0-4.0-0.0-0.10","6","6","5","2","4","4","2","3","5","5","5","-2","1","0","1","-2","0","1","1","5","4","5","5","4","5","4","4","5","4","6","8","7","8","7","5","7","8","9","7","6","4","7","3","4","6","1","4","4","1","3","2","7","6","7","3","4","7","4","3","3","2","5","2","4","6","3","7","2","6","6","3","3","1","3","7","2","7","6","4","798982829940809730","王","381","Male","[""坏他"",""坏我"",""好他"",""好我""]","[""弱他"",""弱我"",""强他"",""强我""]","","","","","","","","match","","","","","","","","","","key","j","16.664533333332898","853.3333333333334","529.3333333333334","f","false","nonmatch","img/square.png","弱我","强我","ALT2","ability","","","","","","","","",""
"null","<span style='color:red; font-size: 70px;'>错误! </span>","null","html-keyboard-response","129","357916","0.0-8.0-1.0-4.0-0.0-1.10","6","6","5","2","4","4","2","3","5","5","5","-2","1","0","1","-2","0","1","1","5","4","5","5","4","5","4","4","5","4","6","8","7","8","7","5","7","8","9","7","6","4","7","3","4","6","1","4","4","1","3","2","7","6","7","3","4","7","4","3","3","2","5","2","4","6","3","7","2","6","6","3","3","1","3","7","2","7","6","4","798982829940809730","王","381","Male","[""坏他"",""坏我"",""好他"",""好我""]","[""弱他"",""弱我"",""强他"",""强我""]","","","","","","","","","","","","","","","","","","","","","","","","","","","","","","feedback_test","","","","","","","","",""
"912","","f","psychophysics","130","359830","0.0-8.0-1.0-4.0-0.0-0.11","6","6","5","2","4","4","2","3","5","5","5","-2","1","0","1","-2","0","1","1","5","4","5","5","4","5","4","4","5","4","6","8","7","8","7","5","7","8","9","7","6","4","7","3","4","6","1","4","4","1","3","2","7","6","7","3","4","7","4","3","3","2","5","2","4","6","3","7","2","6","6","3","3","1","3","7","2","7","6","4","798982829940809730","王","381","Male","[""坏他"",""坏我"",""好他"",""好我""]","[""弱他"",""弱我"",""强他"",""强我""]","","","","","","","","nonmatch","","","","","","","","","","key","f","16.664061403509102","853.3333333333334","529.3333333333334","f","true","nonmatch","img/square.png","强他","强我","ALT2","ability","","","","","","","","",""
"null","<span style='color:GreenYellow; font-size: 70px;'>正确! </span>","null","html-keyboard-response","131","360332","0.0-8.0-1.0-4.0-0.0-1.11","6","6","5","2","4","4","2","3","5","5","5","-2","1","0","1","-2","0","1","1","5","4","5","5","4","5","4","4","5","4","6","8","7","8","7","5","7","8","9","7","6","4","7","3","4","6","1","4","4","1","3","2","7","6","7","3","4","7","4","3","3","2","5","2","4","6","3","7","2","6","6","3","3","1","3","7","2","7","6","4","798982829940809730","王","381","Male","[""坏他"",""坏我"",""好他"",""好我""]","[""弱他"",""弱我"",""强他"",""强我""]","","","","","","","","","","","","","","","","","","","","","","","","","","","","","","feedback_test","","","","","","","","",""
"826","","f","psychophysics","132","362160","0.0-8.0-1.0-4.0-0.0-0.12","6","6","5","2","4","4","2","3","5","5","5","-2","1","0","1","-2","0","1","1","5","4","5","5","4","5","4","4","5","4","6","8","7","8","7","5","7","8","9","7","6","4","7","3","4","6","1","4","4","1","3","2","7","6","7","3","4","7","4","3","3","2","5","2","4","6","3","7","2","6","6","3","3","1","3","7","2","7","6","4","798982829940809730","王","381","Male","[""坏他"",""坏我"",""好他"",""好我""]","[""弱他"",""弱我"",""强他"",""强我""]","","","","","","","","nonmatch","","","","","","","","","","key","f","16.64228440366991","853.3333333333334","529.3333333333334","j","false","match","img/hexagon.png","强他","强他","ALT2","ability","","","","","","","","",""
"null","<span style='color:red; font-size: 70px;'>错误! </span>","null","html-keyboard-response","133","362662","0.0-8.0-1.0-4.0-0.0-1.12","6","6","5","2","4","4","2","3","5","5","5","-2","1","0","1","-2","0","1","1","5","4","5","5","4","5","4","4","5","4","6","8","7","8","7","5","7","8","9","7","6","4","7","3","4","6","1","4","4","1","3","2","7","6","7","3","4","7","4","3","3","2","5","2","4","6","3","7","2","6","6","3","3","1","3","7","2","7","6","4","798982829940809730","王","381","Male","[""坏他"",""坏我"",""好他"",""好我""]","[""弱他"",""弱我"",""强他"",""强我""]","","","","","","","","","","","","","","","","","","","","","","","","","","","","","","feedback_test","","","","","","","","",""
"649","","f","psychophysics","134","364313","0.0-8.0-1.0-4.0-0.0-0.13","6","6","5","2","4","4","2","3","5","5","5","-2","1","0","1","-2","0","1","1","5","4","5","5","4","5","4","4","5","4","6","8","7","8","7","5","7","8","9","7","6","4","7","3","4","6","1","4","4","1","3","2","7","6","7","3","4","7","4","3","3","2","5","2","4","6","3","7","2","6","6","3","3","1","3","7","2","7","6","4","798982829940809730","王","381","Male","[""坏他"",""坏我"",""好他"",""好我""]","[""弱他"",""弱我"",""强他"",""强我""]","","","","","","","","nonmatch","","","","","","","","","","key","f","16.6615918367348","853.3333333333334","529.3333333333334","f","true","nonmatch","img/ellipse.png","强我","弱他","ALT2","ability","","","","","","","","",""
"null","<span style='color:GreenYellow; font-size: 70px;'>正确! </span>","null","html-keyboard-response","135","364814","0.0-8.0-1.0-4.0-0.0-1.13","6","6","5","2","4","4","2","3","5","5","5","-2","1","0","1","-2","0","1","1","5","4","5","5","4","5","4","4","5","4","6","8","7","8","7","5","7","8","9","7","6","4","7","3","4","6","1","4","4","1","3","2","7","6","7","3","4","7","4","3","3","2","5","2","4","6","3","7","2","6","6","3","3","1","3","7","2","7","6","4","798982829940809730","王","381","Male","[""坏他"",""坏我"",""好他"",""好我""]","[""弱他"",""弱我"",""强他"",""强我""]","","","","","","","","","","","","","","","","","","","","","","","","","","","","","","feedback_test","","","","","","","","",""
