"rt","stimulus","response","trial_type","trial_index","time_elapsed","internal_node_id","swb_1","swb_2","swb_3","swb_4","swb_5","LOT_1","LOT_2","LOT_3","LOT_4","LOT_5","LOT_6","IPC_1","IPC_2","IPC_3","IPC_4","IPC_5","IPC_6","IPC_7","IPC_8","MorIden_1","MorIden_2","MorIden_3","MorIden_4","MorIden_5","MorIden_6","MorIden_7","MorIden_8","MorIden_9","MorIden_10","moralSeImag_1","moralSeImag_2","moralSeImag_3","moralSeImag_4","moralSeImag_5","moralSeImag_6","moralSeImag_7","moralSeImag_8","moralSeImag_9","sde_1","sde_2","sde_3","sde_4","sde_5","sde_6","sde_7","sde_8","sde_9","sde_10","trap2","sde_11","sde_12","sde_13","sde_14","sde_15","sde_16","sde_17","sde_18","sde_19","sde_20","IM_1","IM_2","IM_3","IM_4","IM_5","IM_6","IM_7","IM_8","IM_9","IM_10","IM_11","IM_12","IM_13","IM_14","IM_15","IM_16","IM_17","IM_18","IM_19","IM_20","subj_idx","friend_name","ParticipantID","Sex","Word","Word2","value","success","timeout","failed_images","failed_audio","failed_video","user_agent","responses","item_order","radio_event_ids","radio_event_times","key_event_times","mouse_event_times","straightlining","zigzagging","honeypot","task_id","screen_id","time_stamp","response_type","key_press","avg_frame_time","center_x","center_y","person","word","valence","domain","math","correct_response","correct","status","identity","view_history","duration","Image","condition","question_order","trap2_item"
"30719","
   <p><div style='color:white; font-size: 25px'>您好，欢迎参加本次实验。</div></p>
   <p><div style='color:white; font-size: 25px'>为充分保障您的权利，请确保您已经知晓并同意《参与实验同意书》以及《数据公开知情同意书》。</div></p>
   <p><div style='color:white; font-size: 25px'>如果您未见过上述内容，请咨询实验员。</div></p>
   <p style='color:white; font-size: 25px'>如果您选择继续实验，则表示您已经清楚两份知情同意书的内容并同意。</p>
   <p><div style = ""color: pink;font-size:30px;"">请确保您记得day0的实验编号，您将在本次实验输入该编号，若您忘记，请咨询实验员后作答。</div></p>
   <p><div style = ""color:lightblue;font-size:25px;"">请您尽可能认真地作答，我们将依据您在各问卷和按键任务中的作答质量发放报酬。</div></p>
   <p> <div style = ""color: green""><按空格键至下页></div> </p>
   "," ","html-keyboard-response","0","30728","0.0-0.0","4","4","5","4","2","4","3","4","5","4","4","0","-1","-1","1","-1","0","1","1","4","4","5","5","4","3","4","4","4","3","4","5","5","6","6","5","6","5","5","4","5","5","5","4","4","3","5","4","5","1","4","3","6","3","3","6","3","4","5","6","3","3","3","3","3","4","3","4","5","5","5","2","5","5","3","3","3","4","3","6","781449352643350529","徐","155","Male","[""坏我"",""坏他"",""好他"",""好我""]","[""弱我"",""弱他"",""强他"",""强我""]","","","","","","","","","","","","","","","","","","","","","","","","","","","","","","","","","","","","","","",""
"","","","call-function","1","30736","0.0-1.0-0.0","4","4","5","4","2","4","3","4","5","4","4","0","-1","-1","1","-1","0","1","1","4","4","5","5","4","3","4","4","4","3","4","5","5","6","6","5","6","5","5","4","5","5","5","4","4","3","5","4","5","1","4","3","6","3","3","6","3","4","5","6","3","3","3","3","3","4","3","4","5","5","5","2","5","5","3","3","3","4","3","6","781449352643350529","徐","155","Male","[""坏我"",""坏他"",""好他"",""好我""]","[""弱我"",""弱他"",""强他"",""强我""]","","","","","","","","","","","","","","","","","","","","","","","","","","","","","","","","","","","","","","",""
"24161","","[{""name"":""Sex"",""value"":""0""},{""name"":""friend_name"",""value"":""徐""},{""name"":""ParticipantID"",""value"":""155""}]","survey-html-form","2","54899","0.0-1.0-1.0","4","4","5","4","2","4","3","4","5","4","4","0","-1","-1","1","-1","0","1","1","4","4","5","5","4","3","4","4","4","3","4","5","5","6","6","5","6","5","5","4","5","5","5","4","4","3","5","4","5","1","4","3","6","3","3","6","3","4","5","6","3","3","3","3","3","4","3","4","5","5","5","2","5","5","3","3","3","4","3","6","781449352643350529","徐","155","Male","[""坏我"",""坏他"",""好他"",""好我""]","[""弱我"",""弱他"",""强他"",""强我""]","","","","","","","","","","","","","","","","","","","","","","","","","","","","","","","","","","","","","","",""
"","","","preload","3","55845","0.0-2.0","4","4","5","4","2","4","3","4","5","4","4","0","-1","-1","1","-1","0","1","1","4","4","5","5","4","3","4","4","4","3","4","5","5","6","6","5","6","5","5","4","5","5","5","4","4","3","5","4","5","1","4","3","6","3","3","6","3","4","5","6","3","3","3","3","3","4","3","4","5","5","5","2","5","5","3","3","3","4","3","6","781449352643350529","徐","155","Male","[""坏我"",""坏他"",""好他"",""好我""]","[""弱我"",""弱他"",""强他"",""强我""]","","true","false","[]","[]","[]","","","","","","","","","","","","","","","","","","","","","","","","","","","","","","","","",""
"","","","fullscreen","4","60827","0.0-3.0","4","4","5","4","2","4","3","4","5","4","4","0","-1","-1","1","-1","0","1","1","4","4","5","5","4","3","4","4","4","3","4","5","5","6","6","5","6","5","5","4","5","5","5","4","4","3","5","4","5","1","4","3","6","3","3","6","3","4","5","6","3","3","3","3","3","4","3","4","5","5","5","2","5","5","3","3","3","4","3","6","781449352643350529","徐","155","Male","[""坏我"",""坏他"",""好他"",""好我""]","[""弱我"",""弱他"",""强他"",""强我""]","","true","","","","","{}","","","","","","","","","","","","","","","","","","","","","","","","","","","","","","","",""
"18087","","{""Q01"":""4"",""Q02"":""4"",""Q03"":""5"",""Q04"":""4"",""Q05"":""2""}","survey-template","5","78942","0.0-4.0","4","4","5","4","2","4","3","4","5","4","4","0","-1","-1","1","-1","0","1","1","4","4","5","5","4","3","4","4","4","3","4","5","5","6","6","5","6","5","5","4","5","5","5","4","4","3","5","4","5","1","4","3","6","3","3","6","3","4","5","6","3","3","3","3","3","4","3","4","5","5","5","2","5","5","3","3","3","4","3","6","781449352643350529","徐","155","Male","[""坏我"",""坏他"",""好他"",""好我""]","[""弱我"",""弱他"",""强他"",""强我""]","","","","","","","","{""Q01"":""4"",""Q02"":""4"",""Q03"":""5"",""Q04"":""4"",""Q05"":""2""}","[0,1,2,3,4]","[""Q01"",""Q02"",""Q03"",""Q04"",""Q05""]","[6517.899999976158,8269.700000047684,12477.799999952316,14452.299999952316,15589.799999952316]","[]","[6517.899999976158,8269.700000047684,11736,12477.799999952316,14452.299999952316,15589.799999952316,18083.700000047684]","0.6","0.5","0","","","","","","","","","","","","","","","","","","","","","","",""
"34847.89999997616","","{""Q01"":""4"",""Q02"":""3"",""Q03"":""4"",""Q04"":""5"",""Q05"":""4"",""Q06"":""4""}","survey-template","6","113800","0.0-5.0","4","4","5","4","2","4","3","4","5","4","4","0","-1","-1","1","-1","0","1","1","4","4","5","5","4","3","4","4","4","3","4","5","5","6","6","5","6","5","5","4","5","5","5","4","4","3","5","4","5","1","4","3","6","3","3","6","3","4","5","6","3","3","3","3","3","4","3","4","5","5","5","2","5","5","3","3","3","4","3","6","781449352643350529","徐","155","Male","[""坏我"",""坏他"",""好他"",""好我""]","[""弱我"",""弱他"",""强他"",""强我""]","","","","","","","","{""Q01"":""4"",""Q02"":""3"",""Q03"":""4"",""Q04"":""5"",""Q05"":""4"",""Q06"":""4""}","[0,1,2,3,4,5]","[""Q01"",""Q02"",""Q02"",""Q03"",""Q04"",""Q05"",""Q06""]","[4614.399999976158,11222.5,12170.700000047684,16370.299999952316,19900.399999976158,22276.399999976158,31270.399999976158]","[]","[4614.399999976158,11222.5,12170.700000047684,16370.299999952316,19900.399999976158,22276.399999976158,31270.399999976158,34846.39999997616]","0.5","0.6","0","","","","","","","","","","","","","","","","","","","","","","",""
"26057.200000047684","","{""Q01"":""0"",""Q02"":""-1"",""Q03"":""-1"",""Q04"":""1"",""Q05"":""-1"",""Q06"":""0"",""Q07"":""1"",""Q08"":""1""}","survey-template","7","139867","0.0-6.0","4","4","5","4","2","4","3","4","5","4","4","0","-1","-1","1","-1","0","1","1","4","4","5","5","4","3","4","4","4","3","4","5","5","6","6","5","6","5","5","4","5","5","5","4","4","3","5","4","5","1","4","3","6","3","3","6","3","4","5","6","3","3","3","3","3","4","3","4","5","5","5","2","5","5","3","3","3","4","3","6","781449352643350529","徐","155","Male","[""坏我"",""坏他"",""好他"",""好我""]","[""弱我"",""弱他"",""强他"",""强我""]","","","","","","","","{""Q01"":""0"",""Q02"":""-1"",""Q03"":""-1"",""Q04"":""1"",""Q05"":""-1"",""Q06"":""0"",""Q07"":""1"",""Q08"":""1""}","[0,1,2,3,4,5,6,7]","[""Q01"",""Q02"",""Q03"",""Q04"",""Q05"",""Q06"",""Q07"",""Q08""]","[3520.8000000715256,6196.800000071526,11291.300000071526,14298.800000071526,16492.700000047684,18822.800000071526,23772.900000095367,25336.700000047684]","[]","[3520.8000000715256,6196.800000071526,11291.300000071526,14298.800000071526,16492.700000047684,18822.800000071526,23772.900000095367,25336.700000047684,26054.800000071526]","0.375","0.42857142857142855","0","","","","","","","","","","","","","","","","","","","","","","",""
"10465","
    <p><div style='color:white;font-size:35px; line-height:20px;'>词汇评估任务</div></p><br>
    <p><div style='color:white;font-size:25px; line-height:20px;'>请再次回忆该亲密的朋友，你们至少2年前就认识了，并且最近2年经常见面。</div></p>
    <p><div style='color:white;font-size:25px; line-height:20px;'>在本实验中，您将会看到一些形容词。</div></p>
    <p><div style='color:yellow;font-size:25px; line-height:20px;'>您的任务是判断这些形容词是否符合对您自己或您的朋友的描述。</div></p><p style='font-size:35px'>符合按<span style=""color:lightgreen""> j 键</span>，不符合按<span style=""color:red""> f 键</span></p>","0","html-button-response","8","150340","0.0-7.0-0.0","4","4","5","4","2","4","3","4","5","4","4","0","-1","-1","1","-1","0","1","1","4","4","5","5","4","3","4","4","4","3","4","5","5","6","6","5","6","5","5","4","5","5","5","4","4","3","5","4","5","1","4","3","6","3","3","6","3","4","5","6","3","3","3","3","3","4","3","4","5","5","5","2","5","5","3","3","3","4","3","6","781449352643350529","徐","155","Male","[""坏我"",""坏他"",""好他"",""好我""]","[""弱我"",""弱他"",""强他"",""强我""]","","","","","","","","","","","","","","","","","SRET_EW","EW_instructions","Fri Jan 19 2024 19:42:51 GMT+0800 (中国标准时间)","","","","","","","","","","","","","","","","","","","",""
"null","","null","psychophysics","9","153360","0.0-7.0-1.0-0.0","4","4","5","4","2","4","3","4","5","4","4","0","-1","-1","1","-1","0","1","1","4","4","5","5","4","3","4","4","4","3","4","5","5","6","6","5","6","5","5","4","5","5","5","4","4","3","5","4","5","1","4","3","6","3","3","6","3","4","5","6","3","3","3","3","3","4","3","4","5","5","5","2","5","5","3","3","3","4","3","6","781449352643350529","徐","155","Male","[""坏我"",""坏他"",""好他"",""好我""]","[""弱我"",""弱他"",""强他"",""强我""]","","","","","","","","","","","","","","","","","SRET_EW","EW_practice","","key","null","16.87144134078219","640","356","朋友","忠实","Positive","morality","","","","","","","","","","",""
"null","","null","psychophysics","10","156366","0.0-7.0-1.0-0.1","4","4","5","4","2","4","3","4","5","4","4","0","-1","-1","1","-1","0","1","1","4","4","5","5","4","3","4","4","4","3","4","5","5","6","6","5","6","5","5","4","5","5","5","4","4","3","5","4","5","1","4","3","6","3","3","6","3","4","5","6","3","3","3","3","3","4","3","4","5","5","5","2","5","5","3","3","3","4","3","6","781449352643350529","徐","155","Male","[""坏我"",""坏他"",""好他"",""好我""]","[""弱我"",""弱他"",""强他"",""强我""]","","","","","","","","","","","","","","","","","SRET_EW","EW_practice","","key","null","16.7790730337078","640","356","朋友","徇私","Negative","morality","","","","","","","","","","",""
"1549","","f","psychophysics","11","158918","0.0-7.0-1.0-0.2","4","4","5","4","2","4","3","4","5","4","4","0","-1","-1","1","-1","0","1","1","4","4","5","5","4","3","4","4","4","3","4","5","5","6","6","5","6","5","5","4","5","5","5","4","4","3","5","4","5","1","4","3","6","3","3","6","3","4","5","6","3","3","3","3","3","4","3","4","5","5","5","2","5","5","3","3","3","4","3","6","781449352643350529","徐","155","Male","[""坏我"",""坏他"",""好他"",""好我""]","[""弱我"",""弱他"",""强他"",""强我""]","","","","","","","","no","","","","","","","","","SRET_EW","EW_practice","","key","f","16.68518421052642","640","356","自己","刻板","Negative","ability","","","","","","","","","","",""
"1357","","f","psychophysics","12","161278","0.0-7.0-1.0-0.3","4","4","5","4","2","4","3","4","5","4","4","0","-1","-1","1","-1","0","1","1","4","4","5","5","4","3","4","4","4","3","4","5","5","6","6","5","6","5","5","4","5","5","5","4","4","3","5","4","5","1","4","3","6","3","3","6","3","4","5","6","3","3","3","3","3","4","3","4","5","5","5","2","5","5","3","3","3","4","3","6","781449352643350529","徐","155","Male","[""坏我"",""坏他"",""好他"",""好我""]","[""弱我"",""弱他"",""强他"",""强我""]","","","","","","","","no","","","","","","","","","SRET_EW","EW_practice","","key","f","16.685907142857157","640","356","自己","严谨","Positive","ability","","","","","","","","","","",""
"15003","
    <p><div style='color:white;font-size:35px; line-height:20px;'>请您再次阅读实验要求</div></p><br>
    <p><div style='color:white;font-size:25px; line-height:20px;'>请回忆某一个亲密的朋友，你们至少2年前就认识了，并且最近2年经常见面。</div></p>
    <p><div style='color:white;font-size:25px; line-height:20px;'>在本实验中，您将会看到一些形容词。</div></p>
    <p><div style='color:yellow;font-size:25px; line-height:20px;'>您的任务是判断这些形容词是否符合对您自己或您的朋友的描述。</div></p>
    <p><div class='footer' style='font-size:25px; line-height:20px;'>如果对本实验还有不清楚之处，请立即向实验员咨询。</p><p style='font-size:25px; line-height:20px;'>如果您明白了规则：</p><p style='font-size:22px; line-height:20px;'>请按 继续 进入正式实验</p>
    </div>
    <p style='font-size:35px'>符合按<span style=""color:lightgreen""> j 键</span>，不符合按<span style=""color:red""> f 键</span></p>","0","html-button-response","13","176283","0.0-7.0-2.0","4","4","5","4","2","4","3","4","5","4","4","0","-1","-1","1","-1","0","1","1","4","4","5","5","4","3","4","4","4","3","4","5","5","6","6","5","6","5","5","4","5","5","5","4","4","3","5","4","5","1","4","3","6","3","3","6","3","4","5","6","3","3","3","3","3","4","3","4","5","5","5","2","5","5","3","3","3","4","3","6","781449352643350529","徐","155","Male","[""坏我"",""坏他"",""好他"",""好我""]","[""弱我"",""弱他"",""强他"",""强我""]","","","","","","","","","","","","","","","","","SRET_EW","prac_instructions","Fri Jan 19 2024 19:42:51 GMT+0800 (中国标准时间)","","","","","","","","","","","","","","","","","","","",""
"650","","j","psychophysics","14","177939","0.0-7.0-3.0-0.0","4","4","5","4","2","4","3","4","5","4","4","0","-1","-1","1","-1","0","1","1","4","4","5","5","4","3","4","4","4","3","4","5","5","6","6","5","6","5","5","4","5","5","5","4","4","3","5","4","5","1","4","3","6","3","3","6","3","4","5","6","3","3","3","3","3","4","3","4","5","5","5","2","5","5","3","3","3","4","3","6","781449352643350529","徐","155","Male","[""坏我"",""坏他"",""好他"",""好我""]","[""弱我"",""弱他"",""强他"",""强我""]","","","","","","","","yes","","","","","","","","","SRET","EW_formal","","key","j","16.685595959595773","640","356","朋友","务实","Positive","ability","","","","","","","","","","",""
"514","","j","psychophysics","15","179457","0.0-7.0-3.0-0.1","4","4","5","4","2","4","3","4","5","4","4","0","-1","-1","1","-1","0","1","1","4","4","5","5","4","3","4","4","4","3","4","5","5","6","6","5","6","5","5","4","5","5","5","4","4","3","5","4","5","1","4","3","6","3","3","6","3","4","5","6","3","3","3","3","3","4","3","4","5","5","5","2","5","5","3","3","3","4","3","6","781449352643350529","徐","155","Male","[""坏我"",""坏他"",""好他"",""好我""]","[""弱我"",""弱他"",""强他"",""强我""]","","","","","","","","yes","","","","","","","","","SRET","EW_formal","","key","j","16.685044444444227","640","356","自己","坚贞","Positive","morality","","","","","","","","","","",""
"792","","f","psychophysics","16","181250","0.0-7.0-3.0-0.2","4","4","5","4","2","4","3","4","5","4","4","0","-1","-1","1","-1","0","1","1","4","4","5","5","4","3","4","4","4","3","4","5","5","6","6","5","6","5","5","4","5","5","5","4","4","3","5","4","5","1","4","3","6","3","3","6","3","4","5","6","3","3","3","3","3","4","3","4","5","5","5","2","5","5","3","3","3","4","3","6","781449352643350529","徐","155","Male","[""坏我"",""坏他"",""好他"",""好我""]","[""弱我"",""弱他"",""强他"",""强我""]","","","","","","","","no","","","","","","","","","SRET","EW_formal","","key","f","16.686169811320998","640","356","自己","说谎","Negative","morality","","","","","","","","","","",""
"929","","f","psychophysics","17","183181","0.0-7.0-3.0-0.3","4","4","5","4","2","4","3","4","5","4","4","0","-1","-1","1","-1","0","1","1","4","4","5","5","4","3","4","4","4","3","4","5","5","6","6","5","6","5","5","4","5","5","5","4","4","3","5","4","5","1","4","3","6","3","3","6","3","4","5","6","3","3","3","3","3","4","3","4","5","5","5","2","5","5","3","3","3","4","3","6","781449352643350529","徐","155","Male","[""坏我"",""坏他"",""好他"",""好我""]","[""弱我"",""弱他"",""强他"",""强我""]","","","","","","","","no","","","","","","","","","SRET","EW_formal","","key","f","16.68559999999985","640","356","朋友","迷糊","Negative","ability","","","","","","","","","","",""
"941","","j","psychophysics","18","185123","0.0-7.0-3.0-0.4","4","4","5","4","2","4","3","4","5","4","4","0","-1","-1","1","-1","0","1","1","4","4","5","5","4","3","4","4","4","3","4","5","5","6","6","5","6","5","5","4","5","5","5","4","4","3","5","4","5","1","4","3","6","3","3","6","3","4","5","6","3","3","3","3","3","4","3","4","5","5","5","2","5","5","3","3","3","4","3","6","781449352643350529","徐","155","Male","[""坏我"",""坏他"",""好他"",""好我""]","[""弱我"",""弱他"",""强他"",""强我""]","","","","","","","","yes","","","","","","","","","SRET","EW_formal","","key","j","16.685156521739174","640","356","自己","无敌","Positive","ability","","","","","","","","","","",""
"801","","j","psychophysics","19","186932","0.0-7.0-3.0-0.5","4","4","5","4","2","4","3","4","5","4","4","0","-1","-1","1","-1","0","1","1","4","4","5","5","4","3","4","4","4","3","4","5","5","6","6","5","6","5","5","4","5","5","5","4","4","3","5","4","5","1","4","3","6","3","3","6","3","4","5","6","3","3","3","3","3","4","3","4","5","5","5","2","5","5","3","3","3","4","3","6","781449352643350529","徐","155","Male","[""坏我"",""坏他"",""好他"",""好我""]","[""弱我"",""弱他"",""强他"",""强我""]","","","","","","","","yes","","","","","","","","","SRET","EW_formal","","key","j","16.68562962962972","640","356","朋友","刻苦","Positive","ability","","","","","","","","","","",""
"683","","j","psychophysics","20","188617","0.0-7.0-3.0-0.6","4","4","5","4","2","4","3","4","5","4","4","0","-1","-1","1","-1","0","1","1","4","4","5","5","4","3","4","4","4","3","4","5","5","6","6","5","6","5","5","4","5","5","5","4","4","3","5","4","5","1","4","3","6","3","3","6","3","4","5","6","3","3","3","3","3","4","3","4","5","5","5","2","5","5","3","3","3","4","3","6","781449352643350529","徐","155","Male","[""坏我"",""坏他"",""好他"",""好我""]","[""弱我"",""弱他"",""强他"",""强我""]","","","","","","","","yes","","","","","","","","","SRET","EW_formal","","key","j","16.68548999999999","640","356","自己","毅力","Positive","ability","","","","","","","","","","",""
"633","","j","psychophysics","21","190252","0.0-7.0-3.0-0.7","4","4","5","4","2","4","3","4","5","4","4","0","-1","-1","1","-1","0","1","1","4","4","5","5","4","3","4","4","4","3","4","5","5","6","6","5","6","5","5","4","5","5","5","4","4","3","5","4","5","1","4","3","6","3","3","6","3","4","5","6","3","3","3","3","3","4","3","4","5","5","5","2","5","5","3","3","3","4","3","6","781449352643350529","徐","155","Male","[""坏我"",""坏他"",""好他"",""好我""]","[""弱我"",""弱他"",""强他"",""强我""]","","","","","","","","yes","","","","","","","","","SRET","EW_formal","","key","j","16.68588659793832","640","356","朋友","肯干","Positive","ability","","","","","","","","","","",""
"620","","j","psychophysics","22","191875","0.0-7.0-3.0-0.8","4","4","5","4","2","4","3","4","5","4","4","0","-1","-1","1","-1","0","1","1","4","4","5","5","4","3","4","4","4","3","4","5","5","6","6","5","6","5","5","4","5","5","5","4","4","3","5","4","5","1","4","3","6","3","3","6","3","4","5","6","3","3","3","3","3","4","3","4","5","5","5","2","5","5","3","3","3","4","3","6","781449352643350529","徐","155","Male","[""坏我"",""坏他"",""好他"",""好我""]","[""弱我"",""弱他"",""强他"",""强我""]","","","","","","","","yes","","","","","","","","","SRET","EW_formal","","key","j","16.685875000000124","640","356","自己","善心","Positive","morality","","","","","","","","","","",""
"700","","j","psychophysics","23","193577","0.0-7.0-3.0-0.9","4","4","5","4","2","4","3","4","5","4","4","0","-1","-1","1","-1","0","1","1","4","4","5","5","4","3","4","4","4","3","4","5","5","6","6","5","6","5","5","4","5","5","5","4","4","3","5","4","5","1","4","3","6","3","3","6","3","4","5","6","3","3","3","3","3","4","3","4","5","5","5","2","5","5","3","3","3","4","3","6","781449352643350529","徐","155","Male","[""坏我"",""坏他"",""好他"",""好我""]","[""弱我"",""弱他"",""强他"",""强我""]","","","","","","","","yes","","","","","","","","","SRET","EW_formal","","key","j","16.684891089108902","640","356","朋友","廉明","Positive","morality","","","","","","","","","","",""
"618","","j","psychophysics","24","195197","0.0-7.0-3.0-0.10","4","4","5","4","2","4","3","4","5","4","4","0","-1","-1","1","-1","0","1","1","4","4","5","5","4","3","4","4","4","3","4","5","5","6","6","5","6","5","5","4","5","5","5","4","4","3","5","4","5","1","4","3","6","3","3","6","3","4","5","6","3","3","3","3","3","4","3","4","5","5","5","2","5","5","3","3","3","4","3","6","781449352643350529","徐","155","Male","[""坏我"",""坏他"",""好他"",""好我""]","[""弱我"",""弱他"",""强他"",""强我""]","","","","","","","","yes","","","","","","","","","SRET","EW_formal","","key","j","16.684947916666413","640","356","自己","全才","Positive","ability","","","","","","","","","","",""
"726","","j","psychophysics","25","196926","0.0-7.0-3.0-0.11","4","4","5","4","2","4","3","4","5","4","4","0","-1","-1","1","-1","0","1","1","4","4","5","5","4","3","4","4","4","3","4","5","5","6","6","5","6","5","5","4","5","5","5","4","4","3","5","4","5","1","4","3","6","3","3","6","3","4","5","6","3","3","3","3","3","4","3","4","5","5","5","2","5","5","3","3","3","4","3","6","781449352643350529","徐","155","Male","[""坏我"",""坏他"",""好他"",""好我""]","[""弱我"",""弱他"",""强他"",""强我""]","","","","","","","","yes","","","","","","","","","SRET","EW_formal","","key","j","16.68590291262151","640","356","自己","正气","Positive","morality","","","","","","","","","","",""
"633","","j","psychophysics","26","198565","0.0-7.0-3.0-0.12","4","4","5","4","2","4","3","4","5","4","4","0","-1","-1","1","-1","0","1","1","4","4","5","5","4","3","4","4","4","3","4","5","5","6","6","5","6","5","5","4","5","5","5","4","4","3","5","4","5","1","4","3","6","3","3","6","3","4","5","6","3","3","3","3","3","4","3","4","5","5","5","2","5","5","3","3","3","4","3","6","781449352643350529","徐","155","Male","[""坏我"",""坏他"",""好他"",""好我""]","[""弱我"",""弱他"",""强他"",""强我""]","","","","","","","","yes","","","","","","","","","SRET","EW_formal","","key","j","16.684958762886513","640","356","朋友","文明","Positive","morality","","","","","","","","","","",""
"633","","j","psychophysics","27","200200","0.0-7.0-3.0-0.13","4","4","5","4","2","4","3","4","5","4","4","0","-1","-1","1","-1","0","1","1","4","4","5","5","4","3","4","4","4","3","4","5","5","6","6","5","6","5","5","4","5","5","5","4","4","3","5","4","5","1","4","3","6","3","3","6","3","4","5","6","3","3","3","3","3","4","3","4","5","5","5","2","5","5","3","3","3","4","3","6","781449352643350529","徐","155","Male","[""坏我"",""坏他"",""好他"",""好我""]","[""弱我"",""弱他"",""强他"",""强我""]","","","","","","","","yes","","","","","","","","","SRET","EW_formal","","key","j","16.68581443298974","640","356","朋友","愚蠢","Negative","ability","","","","","","","","","","",""
"805","","j","psychophysics","28","202006","0.0-7.0-3.0-0.14","4","4","5","4","2","4","3","4","5","4","4","0","-1","-1","1","-1","0","1","1","4","4","5","5","4","3","4","4","4","3","4","5","5","6","6","5","6","5","5","4","5","5","5","4","4","3","5","4","5","1","4","3","6","3","3","6","3","4","5","6","3","3","3","3","3","4","3","4","5","5","5","2","5","5","3","3","3","4","3","6","781449352643350529","徐","155","Male","[""坏我"",""坏他"",""好他"",""好我""]","[""弱我"",""弱他"",""强他"",""强我""]","","","","","","","","yes","","","","","","","","","SRET","EW_formal","","key","j","16.68628037383178","640","356","朋友","坦荡","Positive","morality","","","","","","","","","","",""
"932","","f","psychophysics","29","203950","0.0-7.0-3.0-0.15","4","4","5","4","2","4","3","4","5","4","4","0","-1","-1","1","-1","0","1","1","4","4","5","5","4","3","4","4","4","3","4","5","5","6","6","5","6","5","5","4","5","5","5","4","4","3","5","4","5","1","4","3","6","3","3","6","3","4","5","6","3","3","3","3","3","4","3","4","5","5","5","2","5","5","3","3","3","4","3","6","781449352643350529","徐","155","Male","[""坏我"",""坏他"",""好他"",""好我""]","[""弱我"",""弱他"",""强他"",""强我""]","","","","","","","","no","","","","","","","","","SRET","EW_formal","","key","f","16.68587068965531","640","356","朋友","才尽","Negative","ability","","","","","","","","","","",""
"1067","","f","psychophysics","30","206021","0.0-7.0-3.0-0.16","4","4","5","4","2","4","3","4","5","4","4","0","-1","-1","1","-1","0","1","1","4","4","5","5","4","3","4","4","4","3","4","5","5","6","6","5","6","5","5","4","5","5","5","4","4","3","5","4","5","1","4","3","6","3","3","6","3","4","5","6","3","3","3","3","3","4","3","4","5","5","5","2","5","5","3","3","3","4","3","6","781449352643350529","徐","155","Male","[""坏我"",""坏他"",""好他"",""好我""]","[""弱我"",""弱他"",""强他"",""强我""]","","","","","","","","no","","","","","","","","","SRET","EW_formal","","key","f","16.685398373983535","640","356","自己","业余","Negative","ability","","","","","","","","","","",""
"824","","j","psychophysics","31","207847","0.0-7.0-3.0-0.17","4","4","5","4","2","4","3","4","5","4","4","0","-1","-1","1","-1","0","1","1","4","4","5","5","4","3","4","4","4","3","4","5","5","6","6","5","6","5","5","4","5","5","5","4","4","3","5","4","5","1","4","3","6","3","3","6","3","4","5","6","3","3","3","3","3","4","3","4","5","5","5","2","5","5","3","3","3","4","3","6","781449352643350529","徐","155","Male","[""坏我"",""坏他"",""好他"",""好我""]","[""弱我"",""弱他"",""强他"",""强我""]","","","","","","","","yes","","","","","","","","","SRET","EW_formal","","key","j","16.685361111111114","640","356","朋友","仗义","Positive","morality","","","","","","","","","","",""
"749","","f","psychophysics","32","209607","0.0-7.0-3.0-0.18","4","4","5","4","2","4","3","4","5","4","4","0","-1","-1","1","-1","0","1","1","4","4","5","5","4","3","4","4","4","3","4","5","5","6","6","5","6","5","5","4","5","5","5","4","4","3","5","4","5","1","4","3","6","3","3","6","3","4","5","6","3","3","3","3","3","4","3","4","5","5","5","2","5","5","3","3","3","4","3","6","781449352643350529","徐","155","Male","[""坏我"",""坏他"",""好他"",""好我""]","[""弱我"",""弱他"",""强他"",""强我""]","","","","","","","","no","","","","","","","","","SRET","EW_formal","","key","f","16.685695238095164","640","356","自己","奸诈","Negative","morality","","","","","","","","","","",""
"715","","f","psychophysics","33","211325","0.0-7.0-3.0-0.19","4","4","5","4","2","4","3","4","5","4","4","0","-1","-1","1","-1","0","1","1","4","4","5","5","4","3","4","4","4","3","4","5","5","6","6","5","6","5","5","4","5","5","5","4","4","3","5","4","5","1","4","3","6","3","3","6","3","4","5","6","3","3","3","3","3","4","3","4","5","5","5","2","5","5","3","3","3","4","3","6","781449352643350529","徐","155","Male","[""坏我"",""坏他"",""好他"",""好我""]","[""弱我"",""弱他"",""强他"",""强我""]","","","","","","","","no","","","","","","","","","SRET","EW_formal","","key","f","16.68507843137252","640","356","自己","迟钝","Negative","ability","","","","","","","","","","",""
"828","","j","psychophysics","34","213157","0.0-7.0-3.0-0.20","4","4","5","4","2","4","3","4","5","4","4","0","-1","-1","1","-1","0","1","1","4","4","5","5","4","3","4","4","4","3","4","5","5","6","6","5","6","5","5","4","5","5","5","4","4","3","5","4","5","1","4","3","6","3","3","6","3","4","5","6","3","3","3","3","3","4","3","4","5","5","5","2","5","5","3","3","3","4","3","6","781449352643350529","徐","155","Male","[""坏我"",""坏他"",""好他"",""好我""]","[""弱我"",""弱他"",""强他"",""强我""]","","","","","","","","yes","","","","","","","","","SRET","EW_formal","","key","j","16.68567592592606","640","356","自己","忠义","Positive","morality","","","","","","","","","","",""
"675","","f","psychophysics","35","214838","0.0-7.0-3.0-0.21","4","4","5","4","2","4","3","4","5","4","4","0","-1","-1","1","-1","0","1","1","4","4","5","5","4","3","4","4","4","3","4","5","5","6","6","5","6","5","5","4","5","5","5","4","4","3","5","4","5","1","4","3","6","3","3","6","3","4","5","6","3","3","3","3","3","4","3","4","5","5","5","2","5","5","3","3","3","4","3","6","781449352643350529","徐","155","Male","[""坏我"",""坏他"",""好他"",""好我""]","[""弱我"",""弱他"",""强他"",""强我""]","","","","","","","","no","","","","","","","","","SRET","EW_formal","","key","f","16.686419999999927","640","356","自己","拖延","Negative","ability","","","","","","","","","","",""
"1292","","f","psychophysics","36","217142","0.0-7.0-3.0-0.22","4","4","5","4","2","4","3","4","5","4","4","0","-1","-1","1","-1","0","1","1","4","4","5","5","4","3","4","4","4","3","4","5","5","6","6","5","6","5","5","4","5","5","5","4","4","3","5","4","5","1","4","3","6","3","3","6","3","4","5","6","3","3","3","3","3","4","3","4","5","5","5","2","5","5","3","3","3","4","3","6","781449352643350529","徐","155","Male","[""坏我"",""坏他"",""好他"",""好我""]","[""弱我"",""弱他"",""强他"",""强我""]","","","","","","","","no","","","","","","","","","SRET","EW_formal","","key","f","16.685007299270005","640","356","朋友","变通","Positive","ability","","","","","","","","","","",""
"644","","j","psychophysics","37","218793","0.0-7.0-3.0-0.23","4","4","5","4","2","4","3","4","5","4","4","0","-1","-1","1","-1","0","1","1","4","4","5","5","4","3","4","4","4","3","4","5","5","6","6","5","6","5","5","4","5","5","5","4","4","3","5","4","5","1","4","3","6","3","3","6","3","4","5","6","3","3","3","3","3","4","3","4","5","5","5","2","5","5","3","3","3","4","3","6","781449352643350529","徐","155","Male","[""坏我"",""坏他"",""好他"",""好我""]","[""弱我"",""弱他"",""强他"",""强我""]","","","","","","","","yes","","","","","","","","","SRET","EW_formal","","key","j","16.68569387755106","640","356","自己","义气","Positive","morality","","","","","","","","","","",""
"926","","f","psychophysics","38","220729","0.0-7.0-3.0-0.24","4","4","5","4","2","4","3","4","5","4","4","0","-1","-1","1","-1","0","1","1","4","4","5","5","4","3","4","4","4","3","4","5","5","6","6","5","6","5","5","4","5","5","5","4","4","3","5","4","5","1","4","3","6","3","3","6","3","4","5","6","3","3","3","3","3","4","3","4","5","5","5","2","5","5","3","3","3","4","3","6","781449352643350529","徐","155","Male","[""坏我"",""坏他"",""好他"",""好我""]","[""弱我"",""弱他"",""强他"",""强我""]","","","","","","","","no","","","","","","","","","SRET","EW_formal","","key","f","16.685660869565428","640","356","自己","畏难","Negative","ability","","","","","","","","","","",""
"855","","j","psychophysics","39","222593","0.0-7.0-3.0-0.25","4","4","5","4","2","4","3","4","5","4","4","0","-1","-1","1","-1","0","1","1","4","4","5","5","4","3","4","4","4","3","4","5","5","6","6","5","6","5","5","4","5","5","5","4","4","3","5","4","5","1","4","3","6","3","3","6","3","4","5","6","3","3","3","3","3","4","3","4","5","5","5","2","5","5","3","3","3","4","3","6","781449352643350529","徐","155","Male","[""坏我"",""坏他"",""好他"",""好我""]","[""弱我"",""弱他"",""强他"",""强我""]","","","","","","","","yes","","","","","","","","","SRET","EW_formal","","key","j","16.685981981981985","640","356","朋友","精干","Positive","ability","","","","","","","","","","",""
"679","","f","psychophysics","40","224274","0.0-7.0-3.0-0.26","4","4","5","4","2","4","3","4","5","4","4","0","-1","-1","1","-1","0","1","1","4","4","5","5","4","3","4","4","4","3","4","5","5","6","6","5","6","5","5","4","5","5","5","4","4","3","5","4","5","1","4","3","6","3","3","6","3","4","5","6","3","3","3","3","3","4","3","4","5","5","5","2","5","5","3","3","3","4","3","6","781449352643350529","徐","155","Male","[""坏我"",""坏他"",""好他"",""好我""]","[""弱我"",""弱他"",""强他"",""强我""]","","","","","","","","no","","","","","","","","","SRET","EW_formal","","key","f","16.685470000000205","640","356","自己","淫乱","Negative","morality","","","","","","","","","","",""
"631","","j","psychophysics","41","225908","0.0-7.0-3.0-0.27","4","4","5","4","2","4","3","4","5","4","4","0","-1","-1","1","-1","0","1","1","4","4","5","5","4","3","4","4","4","3","4","5","5","6","6","5","6","5","5","4","5","5","5","4","4","3","5","4","5","1","4","3","6","3","3","6","3","4","5","6","3","3","3","3","3","4","3","4","5","5","5","2","5","5","3","3","3","4","3","6","781449352643350529","徐","155","Male","[""坏我"",""坏他"",""好他"",""好我""]","[""弱我"",""弱他"",""强他"",""强我""]","","","","","","","","yes","","","","","","","","","SRET","EW_formal","","key","j","16.686247422680324","640","356","朋友","仁爱","Positive","morality","","","","","","","","","","",""
"735","","f","psychophysics","42","227645","0.0-7.0-3.0-0.28","4","4","5","4","2","4","3","4","5","4","4","0","-1","-1","1","-1","0","1","1","4","4","5","5","4","3","4","4","4","3","4","5","5","6","6","5","6","5","5","4","5","5","5","4","4","3","5","4","5","1","4","3","6","3","3","6","3","4","5","6","3","3","3","3","3","4","3","4","5","5","5","2","5","5","3","3","3","4","3","6","781449352643350529","徐","155","Male","[""坏我"",""坏他"",""好他"",""好我""]","[""弱我"",""弱他"",""强他"",""强我""]","","","","","","","","no","","","","","","","","","SRET","EW_formal","","key","f","16.685320388349407","640","356","朋友","混账","Negative","morality","","","","","","","","","","",""
"1091","","j","psychophysics","43","229738","0.0-7.0-3.0-0.29","4","4","5","4","2","4","3","4","5","4","4","0","-1","-1","1","-1","0","1","1","4","4","5","5","4","3","4","4","4","3","4","5","5","6","6","5","6","5","5","4","5","5","5","4","4","3","5","4","5","1","4","3","6","3","3","6","3","4","5","6","3","3","3","3","3","4","3","4","5","5","5","2","5","5","3","3","3","4","3","6","781449352643350529","徐","155","Male","[""坏我"",""坏他"",""好他"",""好我""]","[""弱我"",""弱他"",""强他"",""强我""]","","","","","","","","yes","","","","","","","","","SRET","EW_formal","","key","j","16.685387096774292","640","356","朋友","远见","Positive","ability","","","","","","","","","","",""
"880","","f","psychophysics","44","231621","0.0-7.0-3.0-0.30","4","4","5","4","2","4","3","4","5","4","4","0","-1","-1","1","-1","0","1","1","4","4","5","5","4","3","4","4","4","3","4","5","5","6","6","5","6","5","5","4","5","5","5","4","4","3","5","4","5","1","4","3","6","3","3","6","3","4","5","6","3","3","3","3","3","4","3","4","5","5","5","2","5","5","3","3","3","4","3","6","781449352643350529","徐","155","Male","[""坏我"",""坏他"",""好他"",""好我""]","[""弱我"",""弱他"",""强他"",""强我""]","","","","","","","","no","","","","","","","","","SRET","EW_formal","","key","f","16.685330357142707","640","356","自己","自私","Negative","morality","","","","","","","","","","",""
"720","","f","psychophysics","45","233343","0.0-7.0-3.0-0.31","4","4","5","4","2","4","3","4","5","4","4","0","-1","-1","1","-1","0","1","1","4","4","5","5","4","3","4","4","4","3","4","5","5","6","6","5","6","5","5","4","5","5","5","4","4","3","5","4","5","1","4","3","6","3","3","6","3","4","5","6","3","3","3","3","3","4","3","4","5","5","5","2","5","5","3","3","3","4","3","6","781449352643350529","徐","155","Male","[""坏我"",""坏他"",""好他"",""好我""]","[""弱我"",""弱他"",""强他"",""强我""]","","","","","","","","no","","","","","","","","","SRET","EW_formal","","key","f","16.684999999999956","640","356","朋友","昏庸","Negative","ability","","","","","","","","","","",""
"666","","f","psychophysics","46","235018","0.0-7.0-3.0-0.32","4","4","5","4","2","4","3","4","5","4","4","0","-1","-1","1","-1","0","1","1","4","4","5","5","4","3","4","4","4","3","4","5","5","6","6","5","6","5","5","4","5","5","5","4","4","3","5","4","5","1","4","3","6","3","3","6","3","4","5","6","3","3","3","3","3","4","3","4","5","5","5","2","5","5","3","3","3","4","3","6","781449352643350529","徐","155","Male","[""坏我"",""坏他"",""好他"",""好我""]","[""弱我"",""弱他"",""强他"",""强我""]","","","","","","","","no","","","","","","","","","SRET","EW_formal","","key","f","16.685469999999913","640","356","朋友","小人","Negative","morality","","","","","","","","","","",""
"716","","j","psychophysics","47","236736","0.0-7.0-3.0-0.33","4","4","5","4","2","4","3","4","5","4","4","0","-1","-1","1","-1","0","1","1","4","4","5","5","4","3","4","4","4","3","4","5","5","6","6","5","6","5","5","4","5","5","5","4","4","3","5","4","5","1","4","3","6","3","3","6","3","4","5","6","3","3","3","3","3","4","3","4","5","5","5","2","5","5","3","3","3","4","3","6","781449352643350529","徐","155","Male","[""坏我"",""坏他"",""好他"",""好我""]","[""弱我"",""弱他"",""强他"",""强我""]","","","","","","","","yes","","","","","","","","","SRET","EW_formal","","key","j","16.685529411764698","640","356","朋友","有力","Positive","ability","","","","","","","","","","",""
"752","","f","psychophysics","48","238490","0.0-7.0-3.0-0.34","4","4","5","4","2","4","3","4","5","4","4","0","-1","-1","1","-1","0","1","1","4","4","5","5","4","3","4","4","4","3","4","5","5","6","6","5","6","5","5","4","5","5","5","4","4","3","5","4","5","1","4","3","6","3","3","6","3","4","5","6","3","3","3","3","3","4","3","4","5","5","5","2","5","5","3","3","3","4","3","6","781449352643350529","徐","155","Male","[""坏我"",""坏他"",""好他"",""好我""]","[""弱我"",""弱他"",""强他"",""强我""]","","","","","","","","no","","","","","","","","","SRET","EW_formal","","key","f","16.685471153846336","640","356","朋友","短浅","Negative","ability","","","","","","","","","","",""
"636","","f","psychophysics","49","240127","0.0-7.0-3.0-0.35","4","4","5","4","2","4","3","4","5","4","4","0","-1","-1","1","-1","0","1","1","4","4","5","5","4","3","4","4","4","3","4","5","5","6","6","5","6","5","5","4","5","5","5","4","4","3","5","4","5","1","4","3","6","3","3","6","3","4","5","6","3","3","3","3","3","4","3","4","5","5","5","2","5","5","3","3","3","4","3","6","781449352643350529","徐","155","Male","[""坏我"",""坏他"",""好他"",""好我""]","[""弱我"",""弱他"",""强他"",""强我""]","","","","","","","","no","","","","","","","","","SRET","EW_formal","","key","f","16.686041237113425","640","356","自己","诡诈","Negative","morality","","","","","","","","","","",""
"649","","j","psychophysics","50","241778","0.0-7.0-3.0-0.36","4","4","5","4","2","4","3","4","5","4","4","0","-1","-1","1","-1","0","1","1","4","4","5","5","4","3","4","4","4","3","4","5","5","6","6","5","6","5","5","4","5","5","5","4","4","3","5","4","5","1","4","3","6","3","3","6","3","4","5","6","3","3","3","3","3","4","3","4","5","5","5","2","5","5","3","3","3","4","3","6","781449352643350529","徐","155","Male","[""坏我"",""坏他"",""好他"",""好我""]","[""弱我"",""弱他"",""强他"",""强我""]","","","","","","","","yes","","","","","","","","","SRET","EW_formal","","key","j","16.684765306122337","640","356","自己","坚持","Positive","ability","","","","","","","","","","",""
"805","","f","psychophysics","51","243585","0.0-7.0-3.0-0.37","4","4","5","4","2","4","3","4","5","4","4","0","-1","-1","1","-1","0","1","1","4","4","5","5","4","3","4","4","4","3","4","5","5","6","6","5","6","5","5","4","5","5","5","4","4","3","5","4","5","1","4","3","6","3","3","6","3","4","5","6","3","3","3","3","3","4","3","4","5","5","5","2","5","5","3","3","3","4","3","6","781449352643350529","徐","155","Male","[""坏我"",""坏他"",""好他"",""好我""]","[""弱我"",""弱他"",""强他"",""强我""]","","","","","","","","no","","","","","","","","","SRET","EW_formal","","key","f","16.686149532710328","640","356","朋友","废物","Negative","ability","","","","","","","","","","",""
"783","","f","psychophysics","52","245370","0.0-7.0-3.0-0.38","4","4","5","4","2","4","3","4","5","4","4","0","-1","-1","1","-1","0","1","1","4","4","5","5","4","3","4","4","4","3","4","5","5","6","6","5","6","5","5","4","5","5","5","4","4","3","5","4","5","1","4","3","6","3","3","6","3","4","5","6","3","3","3","3","3","4","3","4","5","5","5","2","5","5","3","3","3","4","3","6","781449352643350529","徐","155","Male","[""坏我"",""坏他"",""好他"",""好我""]","[""弱我"",""弱他"",""强他"",""强我""]","","","","","","","","no","","","","","","","","","SRET","EW_formal","","key","f","16.84520000000013","640","356","自己","腐败","Negative","morality","","","","","","","","","","",""
"794","","j","psychophysics","53","247166","0.0-7.0-3.0-0.39","4","4","5","4","2","4","3","4","5","4","4","0","-1","-1","1","-1","0","1","1","4","4","5","5","4","3","4","4","4","3","4","5","5","6","6","5","6","5","5","4","5","5","5","4","4","3","5","4","5","1","4","3","6","3","3","6","3","4","5","6","3","3","3","3","3","4","3","4","5","5","5","2","5","5","3","3","3","4","3","6","781449352643350529","徐","155","Male","[""坏我"",""坏他"",""好他"",""好我""]","[""弱我"",""弱他"",""强他"",""强我""]","","","","","","","","yes","","","","","","","","","SRET","EW_formal","","key","j","16.68651401869154","640","356","朋友","谦逊","Positive","morality","","","","","","","","","","",""
"698","","j","psychophysics","54","248868","0.0-7.0-3.0-0.40","4","4","5","4","2","4","3","4","5","4","4","0","-1","-1","1","-1","0","1","1","4","4","5","5","4","3","4","4","4","3","4","5","5","6","6","5","6","5","5","4","5","5","5","4","4","3","5","4","5","1","4","3","6","3","3","6","3","4","5","6","3","3","3","3","3","4","3","4","5","5","5","2","5","5","3","3","3","4","3","6","781449352643350529","徐","155","Male","[""坏我"",""坏他"",""好他"",""好我""]","[""弱我"",""弱他"",""强他"",""强我""]","","","","","","","","yes","","","","","","","","","SRET","EW_formal","","key","j","16.68504950495052","640","356","朋友","骁勇","Positive","ability","","","","","","","","","","",""
"902","","f","psychophysics","55","250772","0.0-7.0-3.0-0.41","4","4","5","4","2","4","3","4","5","4","4","0","-1","-1","1","-1","0","1","1","4","4","5","5","4","3","4","4","4","3","4","5","5","6","6","5","6","5","5","4","5","5","5","4","4","3","5","4","5","1","4","3","6","3","3","6","3","4","5","6","3","3","3","3","3","4","3","4","5","5","5","2","5","5","3","3","3","4","3","6","781449352643350529","徐","155","Male","[""坏我"",""坏他"",""好他"",""好我""]","[""弱我"",""弱他"",""强他"",""强我""]","","","","","","","","no","","","","","","","","","SRET","EW_formal","","key","f","16.685628318584026","640","356","朋友","新手","Negative","ability","","","","","","","","","","",""
"786","","f","psychophysics","56","252562","0.0-7.0-3.0-0.42","4","4","5","4","2","4","3","4","5","4","4","0","-1","-1","1","-1","0","1","1","4","4","5","5","4","3","4","4","4","3","4","5","5","6","6","5","6","5","5","4","5","5","5","4","4","3","5","4","5","1","4","3","6","3","3","6","3","4","5","6","3","3","3","3","3","4","3","4","5","5","5","2","5","5","3","3","3","4","3","6","781449352643350529","徐","155","Male","[""坏我"",""坏他"",""好他"",""好我""]","[""弱我"",""弱他"",""强他"",""强我""]","","","","","","","","no","","","","","","","","","SRET","EW_formal","","key","f","17.006567307692492","640","356","朋友","蛇蝎","Negative","morality","","","","","","","","","","",""
"779","","f","psychophysics","57","254343","0.0-7.0-3.0-0.43","4","4","5","4","2","4","3","4","5","4","4","0","-1","-1","1","-1","0","1","1","4","4","5","5","4","3","4","4","4","3","4","5","5","6","6","5","6","5","5","4","5","5","5","4","4","3","5","4","5","1","4","3","6","3","3","6","3","4","5","6","3","3","3","3","3","4","3","4","5","5","5","2","5","5","3","3","3","4","3","6","781449352643350529","徐","155","Male","[""坏我"",""坏他"",""好他"",""好我""]","[""弱我"",""弱他"",""强他"",""强我""]","","","","","","","","no","","","","","","","","","SRET","EW_formal","","key","f","16.68577358490548","640","356","自己","笨蛋","Negative","ability","","","","","","","","","","",""
"812","","j","psychophysics","58","256158","0.0-7.0-3.0-0.44","4","4","5","4","2","4","3","4","5","4","4","0","-1","-1","1","-1","0","1","1","4","4","5","5","4","3","4","4","4","3","4","5","5","6","6","5","6","5","5","4","5","5","5","4","4","3","5","4","5","1","4","3","6","3","3","6","3","4","5","6","3","3","3","3","3","4","3","4","5","5","5","2","5","5","3","3","3","4","3","6","781449352643350529","徐","155","Male","[""坏我"",""坏他"",""好他"",""好我""]","[""弱我"",""弱他"",""强他"",""强我""]","","","","","","","","yes","","","","","","","","","SRET","EW_formal","","key","j","16.685981481481576","640","356","朋友","刚正","Positive","morality","","","","","","","","","","",""
"683","","f","psychophysics","59","257843","0.0-7.0-3.0-0.45","4","4","5","4","2","4","3","4","5","4","4","0","-1","-1","1","-1","0","1","1","4","4","5","5","4","3","4","4","4","3","4","5","5","6","6","5","6","5","5","4","5","5","5","4","4","3","5","4","5","1","4","3","6","3","3","6","3","4","5","6","3","3","3","3","3","4","3","4","5","5","5","2","5","5","3","3","3","4","3","6","781449352643350529","徐","155","Male","[""坏我"",""坏他"",""好他"",""好我""]","[""弱我"",""弱他"",""强他"",""强我""]","","","","","","","","no","","","","","","","","","SRET","EW_formal","","key","f","16.68560999999987","640","356","朋友","无助","Negative","ability","","","","","","","","","","",""
"627","","j","psychophysics","60","259472","0.0-7.0-3.0-0.46","4","4","5","4","2","4","3","4","5","4","4","0","-1","-1","1","-1","0","1","1","4","4","5","5","4","3","4","4","4","3","4","5","5","6","6","5","6","5","5","4","5","5","5","4","4","3","5","4","5","1","4","3","6","3","3","6","3","4","5","6","3","3","3","3","3","4","3","4","5","5","5","2","5","5","3","3","3","4","3","6","781449352643350529","徐","155","Male","[""坏我"",""坏他"",""好他"",""好我""]","[""弱我"",""弱他"",""强他"",""强我""]","","","","","","","","yes","","","","","","","","","SRET","EW_formal","","key","j","16.68603125000027","640","356","自己","高尚","Positive","morality","","","","","","","","","","",""
"833","","f","psychophysics","61","261314","0.0-7.0-3.0-0.47","4","4","5","4","2","4","3","4","5","4","4","0","-1","-1","1","-1","0","1","1","4","4","5","5","4","3","4","4","4","3","4","5","5","6","6","5","6","5","5","4","5","5","5","4","4","3","5","4","5","1","4","3","6","3","3","6","3","4","5","6","3","3","3","3","3","4","3","4","5","5","5","2","5","5","3","3","3","4","3","6","781449352643350529","徐","155","Male","[""坏我"",""坏他"",""好他"",""好我""]","[""弱我"",""弱他"",""强他"",""强我""]","","","","","","","","no","","","","","","","","","SRET","EW_formal","","key","f","16.68565454545473","640","356","朋友","外行","Negative","ability","","","","","","","","","","",""
"801","","j","psychophysics","62","263117","0.0-7.0-3.0-0.48","4","4","5","4","2","4","3","4","5","4","4","0","-1","-1","1","-1","0","1","1","4","4","5","5","4","3","4","4","4","3","4","5","5","6","6","5","6","5","5","4","5","5","5","4","4","3","5","4","5","1","4","3","6","3","3","6","3","4","5","6","3","3","3","3","3","4","3","4","5","5","5","2","5","5","3","3","3","4","3","6","781449352643350529","徐","155","Male","[""坏我"",""坏他"",""好他"",""好我""]","[""弱我"",""弱他"",""强他"",""强我""]","","","","","","","","yes","","","","","","","","","SRET","EW_formal","","key","j","16.685953271028012","640","356","朋友","细心","Positive","ability","","","","","","","","","","",""
"605","","j","psychophysics","63","264724","0.0-7.0-3.0-0.49","4","4","5","4","2","4","3","4","5","4","4","0","-1","-1","1","-1","0","1","1","4","4","5","5","4","3","4","4","4","3","4","5","5","6","6","5","6","5","5","4","5","5","5","4","4","3","5","4","5","1","4","3","6","3","3","6","3","4","5","6","3","3","3","3","3","4","3","4","5","5","5","2","5","5","3","3","3","4","3","6","781449352643350529","徐","155","Male","[""坏我"",""坏他"",""好他"",""好我""]","[""弱我"",""弱他"",""强他"",""强我""]","","","","","","","","yes","","","","","","","","","SRET","EW_formal","","key","j","16.68694736842115","640","356","自己","宽容","Positive","morality","","","","","","","","","","",""
"649","","f","psychophysics","64","266376","0.0-7.0-3.0-0.50","4","4","5","4","2","4","3","4","5","4","4","0","-1","-1","1","-1","0","1","1","4","4","5","5","4","3","4","4","4","3","4","5","5","6","6","5","6","5","5","4","5","5","5","4","4","3","5","4","5","1","4","3","6","3","3","6","3","4","5","6","3","3","3","3","3","4","3","4","5","5","5","2","5","5","3","3","3","4","3","6","781449352643350529","徐","155","Male","[""坏我"",""坏他"",""好他"",""好我""]","[""弱我"",""弱他"",""强他"",""强我""]","","","","","","","","no","","","","","","","","","SRET","EW_formal","","key","f","16.68498979591793","640","356","自己","拖拉","Negative","ability","","","","","","","","","","",""
"659","","j","psychophysics","65","268037","0.0-7.0-3.0-0.51","4","4","5","4","2","4","3","4","5","4","4","0","-1","-1","1","-1","0","1","1","4","4","5","5","4","3","4","4","4","3","4","5","5","6","6","5","6","5","5","4","5","5","5","4","4","3","5","4","5","1","4","3","6","3","3","6","3","4","5","6","3","3","3","3","3","4","3","4","5","5","5","2","5","5","3","3","3","4","3","6","781449352643350529","徐","155","Male","[""坏我"",""坏他"",""好他"",""好我""]","[""弱我"",""弱他"",""强他"",""强我""]","","","","","","","","yes","","","","","","","","","SRET","EW_formal","","key","j","16.685474747474977","640","356","朋友","仁厚","Positive","morality","","","","","","","","","","",""
"653","","f","psychophysics","66","269693","0.0-7.0-3.0-0.52","4","4","5","4","2","4","3","4","5","4","4","0","-1","-1","1","-1","0","1","1","4","4","5","5","4","3","4","4","4","3","4","5","5","6","6","5","6","5","5","4","5","5","5","4","4","3","5","4","5","1","4","3","6","3","3","6","3","4","5","6","3","3","3","3","3","4","3","4","5","5","5","2","5","5","3","3","3","4","3","6","781449352643350529","徐","155","Male","[""坏我"",""坏他"",""好他"",""好我""]","[""弱我"",""弱他"",""强他"",""强我""]","","","","","","","","no","","","","","","","","","SRET","EW_formal","","key","f","16.68522448979594","640","356","朋友","刻薄","Negative","morality","","","","","","","","","","",""
"764","","f","psychophysics","67","271459","0.0-7.0-3.0-0.53","4","4","5","4","2","4","3","4","5","4","4","0","-1","-1","1","-1","0","1","1","4","4","5","5","4","3","4","4","4","3","4","5","5","6","6","5","6","5","5","4","5","5","5","4","4","3","5","4","5","1","4","3","6","3","3","6","3","4","5","6","3","3","3","3","3","4","3","4","5","5","5","2","5","5","3","3","3","4","3","6","781449352643350529","徐","155","Male","[""坏我"",""坏他"",""好他"",""好我""]","[""弱我"",""弱他"",""强他"",""强我""]","","","","","","","","no","","","","","","","","","SRET","EW_formal","","key","f","16.686704761904686","640","356","朋友","伪善","Negative","morality","","","","","","","","","","",""
"807","","f","psychophysics","68","273270","0.0-7.0-3.0-0.54","4","4","5","4","2","4","3","4","5","4","4","0","-1","-1","1","-1","0","1","1","4","4","5","5","4","3","4","4","4","3","4","5","5","6","6","5","6","5","5","4","5","5","5","4","4","3","5","4","5","1","4","3","6","3","3","6","3","4","5","6","3","3","3","3","3","4","3","4","5","5","5","2","5","5","3","3","3","4","3","6","781449352643350529","徐","155","Male","[""坏我"",""坏他"",""好他"",""好我""]","[""弱我"",""弱他"",""强他"",""强我""]","","","","","","","","no","","","","","","","","","SRET","EW_formal","","key","f","16.842377358490715","640","356","朋友","逞强","Negative","ability","","","","","","","","","","",""
"749","","j","psychophysics","69","275029","0.0-7.0-3.0-0.55","4","4","5","4","2","4","3","4","5","4","4","0","-1","-1","1","-1","0","1","1","4","4","5","5","4","3","4","4","4","3","4","5","5","6","6","5","6","5","5","4","5","5","5","4","4","3","5","4","5","1","4","3","6","3","3","6","3","4","5","6","3","3","3","3","3","4","3","4","5","5","5","2","5","5","3","3","3","4","3","6","781449352643350529","徐","155","Male","[""坏我"",""坏他"",""好他"",""好我""]","[""弱我"",""弱他"",""强他"",""强我""]","","","","","","","","yes","","","","","","","","","SRET","EW_formal","","key","j","16.685714285714287","640","356","自己","淡泊","Positive","morality","","","","","","","","","","",""
"544","","f","psychophysics","70","276575","0.0-7.0-3.0-0.56","4","4","5","4","2","4","3","4","5","4","4","0","-1","-1","1","-1","0","1","1","4","4","5","5","4","3","4","4","4","3","4","5","5","6","6","5","6","5","5","4","5","5","5","4","4","3","5","4","5","1","4","3","6","3","3","6","3","4","5","6","3","3","3","3","3","4","3","4","5","5","5","2","5","5","3","3","3","4","3","6","781449352643350529","徐","155","Male","[""坏我"",""坏他"",""好他"",""好我""]","[""弱我"",""弱他"",""强他"",""强我""]","","","","","","","","no","","","","","","","","","SRET","EW_formal","","key","f","16.686032967033007","640","356","朋友","贪污","Negative","morality","","","","","","","","","","",""
"793","","j","psychophysics","71","278382","0.0-7.0-3.0-0.57","4","4","5","4","2","4","3","4","5","4","4","0","-1","-1","1","-1","0","1","1","4","4","5","5","4","3","4","4","4","3","4","5","5","6","6","5","6","5","5","4","5","5","5","4","4","3","5","4","5","1","4","3","6","3","3","6","3","4","5","6","3","3","3","3","3","4","3","4","5","5","5","2","5","5","3","3","3","4","3","6","781449352643350529","徐","155","Male","[""坏我"",""坏他"",""好他"",""好我""]","[""弱我"",""弱他"",""强他"",""强我""]","","","","","","","","yes","","","","","","","","","SRET","EW_formal","","key","j","16.685027777777847","640","356","朋友","礼貌","Positive","morality","","","","","","","","","","",""
"616","","f","psychophysics","72","280001","0.0-7.0-3.0-0.58","4","4","5","4","2","4","3","4","5","4","4","0","-1","-1","1","-1","0","1","1","4","4","5","5","4","3","4","4","4","3","4","5","5","6","6","5","6","5","5","4","5","5","5","4","4","3","5","4","5","1","4","3","6","3","3","6","3","4","5","6","3","3","3","3","3","4","3","4","5","5","5","2","5","5","3","3","3","4","3","6","781449352643350529","徐","155","Male","[""坏我"",""坏他"",""好他"",""好我""]","[""弱我"",""弱他"",""强他"",""强我""]","","","","","","","","no","","","","","","","","","SRET","EW_formal","","key","f","16.686687500000215","640","356","自己","下流","Negative","morality","","","","","","","","","","",""
"633","","f","psychophysics","73","281636","0.0-7.0-3.0-0.59","4","4","5","4","2","4","3","4","5","4","4","0","-1","-1","1","-1","0","1","1","4","4","5","5","4","3","4","4","4","3","4","5","5","6","6","5","6","5","5","4","5","5","5","4","4","3","5","4","5","1","4","3","6","3","3","6","3","4","5","6","3","3","3","3","3","4","3","4","5","5","5","2","5","5","3","3","3","4","3","6","781449352643350529","徐","155","Male","[""坏我"",""坏他"",""好他"",""好我""]","[""弱我"",""弱他"",""强他"",""强我""]","","","","","","","","no","","","","","","","","","SRET","EW_formal","","key","f","16.685567010309278","640","356","朋友","无耻","Negative","morality","","","","","","","","","","",""
"575","","j","psychophysics","74","283214","0.0-7.0-3.0-0.60","4","4","5","4","2","4","3","4","5","4","4","0","-1","-1","1","-1","0","1","1","4","4","5","5","4","3","4","4","4","3","4","5","5","6","6","5","6","5","5","4","5","5","5","4","4","3","5","4","5","1","4","3","6","3","3","6","3","4","5","6","3","3","3","3","3","4","3","4","5","5","5","2","5","5","3","3","3","4","3","6","781449352643350529","徐","155","Male","[""坏我"",""坏他"",""好他"",""好我""]","[""弱我"",""弱他"",""强他"",""强我""]","","","","","","","","yes","","","","","","","","","SRET","EW_formal","","key","j","16.686580645161435","640","356","自己","敬业","Positive","morality","","","","","","","","","","",""
"733","","j","psychophysics","75","284949","0.0-7.0-3.0-0.61","4","4","5","4","2","4","3","4","5","4","4","0","-1","-1","1","-1","0","1","1","4","4","5","5","4","3","4","4","4","3","4","5","5","6","6","5","6","5","5","4","5","5","5","4","4","3","5","4","5","1","4","3","6","3","3","6","3","4","5","6","3","3","3","3","3","4","3","4","5","5","5","2","5","5","3","3","3","4","3","6","781449352643350529","徐","155","Male","[""坏我"",""坏他"",""好他"",""好我""]","[""弱我"",""弱他"",""强他"",""强我""]","","","","","","","","yes","","","","","","","","","SRET","EW_formal","","key","j","16.684844660194642","640","356","朋友","顶事","Positive","ability","","","","","","","","","","",""
"924","","j","psychophysics","76","286882","0.0-7.0-3.0-0.62","4","4","5","4","2","4","3","4","5","4","4","0","-1","-1","1","-1","0","1","1","4","4","5","5","4","3","4","4","4","3","4","5","5","6","6","5","6","5","5","4","5","5","5","4","4","3","5","4","5","1","4","3","6","3","3","6","3","4","5","6","3","3","3","3","3","4","3","4","5","5","5","2","5","5","3","3","3","4","3","6","781449352643350529","徐","155","Male","[""坏我"",""坏他"",""好他"",""好我""]","[""弱我"",""弱他"",""强他"",""强我""]","","","","","","","","yes","","","","","","","","","SRET","EW_formal","","key","j","16.685269565217236","640","356","自己","依靠","Negative","ability","","","","","","","","","","",""
"677","","j","psychophysics","77","288561","0.0-7.0-3.0-0.63","4","4","5","4","2","4","3","4","5","4","4","0","-1","-1","1","-1","0","1","1","4","4","5","5","4","3","4","4","4","3","4","5","5","6","6","5","6","5","5","4","5","5","5","4","4","3","5","4","5","1","4","3","6","3","3","6","3","4","5","6","3","3","3","3","3","4","3","4","5","5","5","2","5","5","3","3","3","4","3","6","781449352643350529","徐","155","Male","[""坏我"",""坏他"",""好他"",""好我""]","[""弱我"",""弱他"",""强他"",""强我""]","","","","","","","","yes","","","","","","","","","SRET","EW_formal","","key","j","16.686419999999927","640","356","自己","稳健","Positive","ability","","","","","","","","","","",""
"700","","j","psychophysics","78","290263","0.0-7.0-3.0-0.64","4","4","5","4","2","4","3","4","5","4","4","0","-1","-1","1","-1","0","1","1","4","4","5","5","4","3","4","4","4","3","4","5","5","6","6","5","6","5","5","4","5","5","5","4","4","3","5","4","5","1","4","3","6","3","3","6","3","4","5","6","3","3","3","3","3","4","3","4","5","5","5","2","5","5","3","3","3","4","3","6","781449352643350529","徐","155","Male","[""坏我"",""坏他"",""好他"",""好我""]","[""弱我"",""弱他"",""强他"",""强我""]","","","","","","","","yes","","","","","","","","","SRET","EW_formal","","key","j","16.685495049505388","640","356","自己","守信","Positive","morality","","","","","","","","","","",""
"565","","f","psychophysics","79","291830","0.0-7.0-3.0-0.65","4","4","5","4","2","4","3","4","5","4","4","0","-1","-1","1","-1","0","1","1","4","4","5","5","4","3","4","4","4","3","4","5","5","6","6","5","6","5","5","4","5","5","5","4","4","3","5","4","5","1","4","3","6","3","3","6","3","4","5","6","3","3","3","3","3","4","3","4","5","5","5","2","5","5","3","3","3","4","3","6","781449352643350529","徐","155","Male","[""坏我"",""坏他"",""好他"",""好我""]","[""弱我"",""弱他"",""强他"",""强我""]","","","","","","","","no","","","","","","","","","SRET","EW_formal","","key","f","16.685258064516045","640","356","朋友","无赖","Negative","morality","","","","","","","","","","",""
"609","","f","psychophysics","80","293441","0.0-7.0-3.0-0.66","4","4","5","4","2","4","3","4","5","4","4","0","-1","-1","1","-1","0","1","1","4","4","5","5","4","3","4","4","4","3","4","5","5","6","6","5","6","5","5","4","5","5","5","4","4","3","5","4","5","1","4","3","6","3","3","6","3","4","5","6","3","3","3","3","3","4","3","4","5","5","5","2","5","5","3","3","3","4","3","6","781449352643350529","徐","155","Male","[""坏我"",""坏他"",""好他"",""好我""]","[""弱我"",""弱他"",""强他"",""强我""]","","","","","","","","no","","","","","","","","","SRET","EW_formal","","key","f","16.685494736841832","640","356","朋友","不孝","Negative","morality","","","","","","","","","","",""
"816","","j","psychophysics","81","295268","0.0-7.0-3.0-0.67","4","4","5","4","2","4","3","4","5","4","4","0","-1","-1","1","-1","0","1","1","4","4","5","5","4","3","4","4","4","3","4","5","5","6","6","5","6","5","5","4","5","5","5","4","4","3","5","4","5","1","4","3","6","3","3","6","3","4","5","6","3","3","3","3","3","4","3","4","5","5","5","2","5","5","3","3","3","4","3","6","781449352643350529","徐","155","Male","[""坏我"",""坏他"",""好他"",""好我""]","[""弱我"",""弱他"",""强他"",""强我""]","","","","","","","","yes","","","","","","","","","SRET","EW_formal","","key","j","16.685963302752466","640","356","自己","果断","Positive","ability","","","","","","","","","","",""
"699","","f","psychophysics","82","296970","0.0-7.0-3.0-0.68","4","4","5","4","2","4","3","4","5","4","4","0","-1","-1","1","-1","0","1","1","4","4","5","5","4","3","4","4","4","3","4","5","5","6","6","5","6","5","5","4","5","5","5","4","4","3","5","4","5","1","4","3","6","3","3","6","3","4","5","6","3","3","3","3","3","4","3","4","5","5","5","2","5","5","3","3","3","4","3","6","781449352643350529","徐","155","Male","[""坏我"",""坏他"",""好他"",""好我""]","[""弱我"",""弱他"",""强他"",""强我""]","","","","","","","","no","","","","","","","","","SRET","EW_formal","","key","f","16.68527722772266","640","356","朋友","弱智","Negative","ability","","","","","","","","","","",""
"642","","f","psychophysics","83","298617","0.0-7.0-3.0-0.69","4","4","5","4","2","4","3","4","5","4","4","0","-1","-1","1","-1","0","1","1","4","4","5","5","4","3","4","4","4","3","4","5","5","6","6","5","6","5","5","4","5","5","5","4","4","3","5","4","5","1","4","3","6","3","3","6","3","4","5","6","3","3","3","3","3","4","3","4","5","5","5","2","5","5","3","3","3","4","3","6","781449352643350529","徐","155","Male","[""坏我"",""坏他"",""好他"",""好我""]","[""弱我"",""弱他"",""强他"",""强我""]","","","","","","","","no","","","","","","","","","SRET","EW_formal","","key","f","16.685773195876482","640","356","自己","马虎","Negative","ability","","","","","","","","","","",""
"633","","f","psychophysics","84","300257","0.0-7.0-3.0-0.70","4","4","5","4","2","4","3","4","5","4","4","0","-1","-1","1","-1","0","1","1","4","4","5","5","4","3","4","4","4","3","4","5","5","6","6","5","6","5","5","4","5","5","5","4","4","3","5","4","5","1","4","3","6","3","3","6","3","4","5","6","3","3","3","3","3","4","3","4","5","5","5","2","5","5","3","3","3","4","3","6","781449352643350529","徐","155","Male","[""坏我"",""坏他"",""好他"",""好我""]","[""弱我"",""弱他"",""强他"",""强我""]","","","","","","","","no","","","","","","","","","SRET","EW_formal","","key","f","16.685346938776","640","356","自己","愚钝","Negative","ability","","","","","","","","","","",""
"584","","f","psychophysics","85","301843","0.0-7.0-3.0-0.71","4","4","5","4","2","4","3","4","5","4","4","0","-1","-1","1","-1","0","1","1","4","4","5","5","4","3","4","4","4","3","4","5","5","6","6","5","6","5","5","4","5","5","5","4","4","3","5","4","5","1","4","3","6","3","3","6","3","4","5","6","3","3","3","3","3","4","3","4","5","5","5","2","5","5","3","3","3","4","3","6","781449352643350529","徐","155","Male","[""坏我"",""坏他"",""好他"",""好我""]","[""弱我"",""弱他"",""强他"",""强我""]","","","","","","","","no","","","","","","","","","SRET","EW_formal","","key","f","16.68548936170199","640","356","朋友","偏私","Negative","morality","","","","","","","","","","",""
"737","","f","psychophysics","86","303583","0.0-7.0-3.0-0.72","4","4","5","4","2","4","3","4","5","4","4","0","-1","-1","1","-1","0","1","1","4","4","5","5","4","3","4","4","4","3","4","5","5","6","6","5","6","5","5","4","5","5","5","4","4","3","5","4","5","1","4","3","6","3","3","6","3","4","5","6","3","3","3","3","3","4","3","4","5","5","5","2","5","5","3","3","3","4","3","6","781449352643350529","徐","155","Male","[""坏我"",""坏他"",""好他"",""好我""]","[""弱我"",""弱他"",""强他"",""强我""]","","","","","","","","no","","","","","","","","","SRET","EW_formal","","key","f","16.68576699029089","640","356","自己","草率","Negative","ability","","","","","","","","","","",""
"667","","j","psychophysics","87","305253","0.0-7.0-3.0-0.73","4","4","5","4","2","4","3","4","5","4","4","0","-1","-1","1","-1","0","1","1","4","4","5","5","4","3","4","4","4","3","4","5","5","6","6","5","6","5","5","4","5","5","5","4","4","3","5","4","5","1","4","3","6","3","3","6","3","4","5","6","3","3","3","3","3","4","3","4","5","5","5","2","5","5","3","3","3","4","3","6","781449352643350529","徐","155","Male","[""坏我"",""坏他"",""好他"",""好我""]","[""弱我"",""弱他"",""强他"",""强我""]","","","","","","","","yes","","","","","","","","","SRET","EW_formal","","key","j","16.686101010101","640","356","朋友","奉献","Positive","morality","","","","","","","","","","",""
"858","","j","psychophysics","88","307114","0.0-7.0-3.0-0.74","4","4","5","4","2","4","3","4","5","4","4","0","-1","-1","1","-1","0","1","1","4","4","5","5","4","3","4","4","4","3","4","5","5","6","6","5","6","5","5","4","5","5","5","4","4","3","5","4","5","1","4","3","6","3","3","6","3","4","5","6","3","3","3","3","3","4","3","4","5","5","5","2","5","5","3","3","3","4","3","6","781449352643350529","徐","155","Male","[""坏我"",""坏他"",""好他"",""好我""]","[""弱我"",""弱他"",""强他"",""强我""]","","","","","","","","yes","","","","","","","","","SRET","EW_formal","","key","j","16.685531531531375","640","356","自己","学霸","Positive","ability","","","","","","","","","","",""
"744","","j","psychophysics","89","308862","0.0-7.0-3.0-0.75","4","4","5","4","2","4","3","4","5","4","4","0","-1","-1","1","-1","0","1","1","4","4","5","5","4","3","4","4","4","3","4","5","5","6","6","5","6","5","5","4","5","5","5","4","4","3","5","4","5","1","4","3","6","3","3","6","3","4","5","6","3","3","3","3","3","4","3","4","5","5","5","2","5","5","3","3","3","4","3","6","781449352643350529","徐","155","Male","[""坏我"",""坏他"",""好他"",""好我""]","[""弱我"",""弱他"",""强他"",""强我""]","","","","","","","","yes","","","","","","","","","SRET","EW_formal","","key","j","16.686398058252646","640","356","自己","周到","Positive","ability","","","","","","","","","","",""
"692","","j","psychophysics","90","310561","0.0-7.0-3.0-0.76","4","4","5","4","2","4","3","4","5","4","4","0","-1","-1","1","-1","0","1","1","4","4","5","5","4","3","4","4","4","3","4","5","5","6","6","5","6","5","5","4","5","5","5","4","4","3","5","4","5","1","4","3","6","3","3","6","3","4","5","6","3","3","3","3","3","4","3","4","5","5","5","2","5","5","3","3","3","4","3","6","781449352643350529","徐","155","Male","[""坏我"",""坏他"",""好他"",""好我""]","[""弱我"",""弱他"",""强他"",""强我""]","","","","","","","","yes","","","","","","","","","SRET","EW_formal","","key","j","16.686514851485036","640","356","自己","上进","Positive","ability","","","","","","","","","","",""
"651","","j","psychophysics","91","312221","0.0-7.0-3.0-0.77","4","4","5","4","2","4","3","4","5","4","4","0","-1","-1","1","-1","0","1","1","4","4","5","5","4","3","4","4","4","3","4","5","5","6","6","5","6","5","5","4","5","5","5","4","4","3","5","4","5","1","4","3","6","3","3","6","3","4","5","6","3","3","3","3","3","4","3","4","5","5","5","2","5","5","3","3","3","4","3","6","781449352643350529","徐","155","Male","[""坏我"",""坏他"",""好他"",""好我""]","[""弱我"",""弱他"",""强他"",""强我""]","","","","","","","","yes","","","","","","","","","SRET","EW_formal","","key","j","16.685080808081143","640","356","自己","扎实","Positive","ability","","","","","","","","","","",""
"749","","f","psychophysics","92","313972","0.0-7.0-3.0-0.78","4","4","5","4","2","4","3","4","5","4","4","0","-1","-1","1","-1","0","1","1","4","4","5","5","4","3","4","4","4","3","4","5","5","6","6","5","6","5","5","4","5","5","5","4","4","3","5","4","5","1","4","3","6","3","3","6","3","4","5","6","3","3","3","3","3","4","3","4","5","5","5","2","5","5","3","3","3","4","3","6","781449352643350529","徐","155","Male","[""坏我"",""坏他"",""好他"",""好我""]","[""弱我"",""弱他"",""强他"",""强我""]","","","","","","","","no","","","","","","","","","SRET","EW_formal","","key","f","16.68532692307669","640","356","自己","虚伪","Negative","morality","","","","","","","","","","",""
"750","","f","psychophysics","93","315724","0.0-7.0-3.0-0.79","4","4","5","4","2","4","3","4","5","4","4","0","-1","-1","1","-1","0","1","1","4","4","5","5","4","3","4","4","4","3","4","5","5","6","6","5","6","5","5","4","5","5","5","4","4","3","5","4","5","1","4","3","6","3","3","6","3","4","5","6","3","3","3","3","3","4","3","4","5","5","5","2","5","5","3","3","3","4","3","6","781449352643350529","徐","155","Male","[""坏我"",""坏他"",""好他"",""好我""]","[""弱我"",""弱他"",""强他"",""强我""]","","","","","","","","no","","","","","","","","","SRET","EW_formal","","key","f","16.685807692307908","640","356","自己","无私","Positive","morality","","","","","","","","","","",""
"699","","f","psychophysics","94","317425","0.0-7.0-3.0-0.80","4","4","5","4","2","4","3","4","5","4","4","0","-1","-1","1","-1","0","1","1","4","4","5","5","4","3","4","4","4","3","4","5","5","6","6","5","6","5","5","4","5","5","5","4","4","3","5","4","5","1","4","3","6","3","3","6","3","4","5","6","3","3","3","3","3","4","3","4","5","5","5","2","5","5","3","3","3","4","3","6","781449352643350529","徐","155","Male","[""坏我"",""坏他"",""好他"",""好我""]","[""弱我"",""弱他"",""强他"",""强我""]","","","","","","","","no","","","","","","","","","SRET","EW_formal","","key","f","16.68603960396019","640","356","自己","邪恶","Negative","morality","","","","","","","","","","",""
"761","","f","psychophysics","95","319194","0.0-7.0-3.0-0.81","4","4","5","4","2","4","3","4","5","4","4","0","-1","-1","1","-1","0","1","1","4","4","5","5","4","3","4","4","4","3","4","5","5","6","6","5","6","5","5","4","5","5","5","4","4","3","5","4","5","1","4","3","6","3","3","6","3","4","5","6","3","3","3","3","3","4","3","4","5","5","5","2","5","5","3","3","3","4","3","6","781449352643350529","徐","155","Male","[""坏我"",""坏他"",""好他"",""好我""]","[""弱我"",""弱他"",""强他"",""强我""]","","","","","","","","no","","","","","","","","","SRET","EW_formal","","key","f","16.68538095238064","640","356","自己","拜金","Negative","morality","","","","","","","","","","",""
"691","","j","psychophysics","96","320887","0.0-7.0-3.0-0.82","4","4","5","4","2","4","3","4","5","4","4","0","-1","-1","1","-1","0","1","1","4","4","5","5","4","3","4","4","4","3","4","5","5","6","6","5","6","5","5","4","5","5","5","4","4","3","5","4","5","1","4","3","6","3","3","6","3","4","5","6","3","3","3","3","3","4","3","4","5","5","5","2","5","5","3","3","3","4","3","6","781449352643350529","徐","155","Male","[""坏我"",""坏他"",""好他"",""好我""]","[""弱我"",""弱他"",""强他"",""强我""]","","","","","","","","yes","","","","","","","","","SRET","EW_formal","","key","j","16.685229999999866","640","356","朋友","果决","Positive","ability","","","","","","","","","","",""
"644","","f","psychophysics","97","322533","0.0-7.0-3.0-0.83","4","4","5","4","2","4","3","4","5","4","4","0","-1","-1","1","-1","0","1","1","4","4","5","5","4","3","4","4","4","3","4","5","5","6","6","5","6","5","5","4","5","5","5","4","4","3","5","4","5","1","4","3","6","3","3","6","3","4","5","6","3","3","3","3","3","4","3","4","5","5","5","2","5","5","3","3","3","4","3","6","781449352643350529","徐","155","Male","[""坏我"",""坏他"",""好他"",""好我""]","[""弱我"",""弱他"",""强他"",""强我""]","","","","","","","","no","","","","","","","","","SRET","EW_formal","","key","f","16.685346938775407","640","356","自己","黑心","Negative","morality","","","","","","","","","","",""
"1215","","j","psychophysics","98","324750","0.0-7.0-3.0-0.84","4","4","5","4","2","4","3","4","5","4","4","0","-1","-1","1","-1","0","1","1","4","4","5","5","4","3","4","4","4","3","4","5","5","6","6","5","6","5","5","4","5","5","5","4","4","3","5","4","5","1","4","3","6","3","3","6","3","4","5","6","3","3","3","3","3","4","3","4","5","5","5","2","5","5","3","3","3","4","3","6","781449352643350529","徐","155","Male","[""坏我"",""坏他"",""好他"",""好我""]","[""弱我"",""弱他"",""强他"",""强我""]","","","","","","","","yes","","","","","","","","","SRET","EW_formal","","key","j","16.68603030303017","640","356","朋友","素养","Positive","morality","","","","","","","","","","",""
"634","","j","psychophysics","99","326386","0.0-7.0-3.0-0.85","4","4","5","4","2","4","3","4","5","4","4","0","-1","-1","1","-1","0","1","1","4","4","5","5","4","3","4","4","4","3","4","5","5","6","6","5","6","5","5","4","5","5","5","4","4","3","5","4","5","1","4","3","6","3","3","6","3","4","5","6","3","3","3","3","3","4","3","4","5","5","5","2","5","5","3","3","3","4","3","6","781449352643350529","徐","155","Male","[""坏我"",""坏他"",""好他"",""好我""]","[""弱我"",""弱他"",""强他"",""强我""]","","","","","","","","yes","","","","","","","","","SRET","EW_formal","","key","j","16.685876288659482","640","356","自己","主见","Positive","ability","","","","","","","","","","",""
"684","","f","psychophysics","100","328072","0.0-7.0-3.0-0.86","4","4","5","4","2","4","3","4","5","4","4","0","-1","-1","1","-1","0","1","1","4","4","5","5","4","3","4","4","4","3","4","5","5","6","6","5","6","5","5","4","5","5","5","4","4","3","5","4","5","1","4","3","6","3","3","6","3","4","5","6","3","3","3","3","3","4","3","4","5","5","5","2","5","5","3","3","3","4","3","6","781449352643350529","徐","155","Male","[""坏我"",""坏他"",""好他"",""好我""]","[""弱我"",""弱他"",""强他"",""强我""]","","","","","","","","no","","","","","","","","","SRET","EW_formal","","key","f","16.686209999999846","640","356","朋友","低俗","Negative","morality","","","","","","","","","","",""
"597","","f","psychophysics","101","329677","0.0-7.0-3.0-0.87","4","4","5","4","2","4","3","4","5","4","4","0","-1","-1","1","-1","0","1","1","4","4","5","5","4","3","4","4","4","3","4","5","5","6","6","5","6","5","5","4","5","5","5","4","4","3","5","4","5","1","4","3","6","3","3","6","3","4","5","6","3","3","3","3","3","4","3","4","5","5","5","2","5","5","3","3","3","4","3","6","781449352643350529","徐","155","Male","[""坏我"",""坏他"",""好他"",""好我""]","[""弱我"",""弱他"",""强他"",""强我""]","","","","","","","","no","","","","","","","","","SRET","EW_formal","","key","f","16.6853684210531","640","356","自己","缓慢","Negative","ability","","","","","","","","","","",""
"16666","
    <p><div style='color:white;font-size:35px; line-height:20px;'>计算任务</div></p><br>
    <p><div style='color:red;font-size:25px; line-height:20px;'>接下来，您将看到一些四则运算题，<b>请从键盘选择 0-9 进行反应。</b></div></p>
    <p><div style='color:red;font-size:25px; line-height:20px;'>请尽可能快地进行计算，计算的速度和正确率将影响报酬的发放。</div></p>
    <p><div class='footer' style='color:white;font-size:25px; line-height:20px;'>如果对本实验还有不清楚之处，请立即向实验员咨询。</p><p style='color:white;font-size:25px; line-height:20px;'>如果您明白了规则：</p><p style='color:white;font-size:22px; line-height:20px;'>请按 继续 进入练习</p>
    </div>
    ","0","html-button-response","102","346346","0.0-7.0-4.0","4","4","5","4","2","4","3","4","5","4","4","0","-1","-1","1","-1","0","1","1","4","4","5","5","4","3","4","4","4","3","4","5","5","6","6","5","6","5","5","4","5","5","5","4","4","3","5","4","5","1","4","3","6","3","3","6","3","4","5","6","3","3","3","3","3","4","3","4","5","5","5","2","5","5","3","3","3","4","3","6","781449352643350529","徐","155","Male","[""坏我"",""坏他"",""好他"",""好我""]","[""弱我"",""弱他"",""强他"",""强我""]","","","","","","","","","","","","","","","","","SRET_math","math_instructions","Fri Jan 19 2024 19:42:51 GMT+0800 (中国标准时间)","","","","","","","","","","","","","","","","","","","",""
"2256","","9","psychophysics","103","348616","0.0-7.0-5.0-0.0","4","4","5","4","2","4","3","4","5","4","4","0","-1","-1","1","-1","0","1","1","4","4","5","5","4","3","4","4","4","3","4","5","5","6","6","5","6","5","5","4","5","5","5","4","4","3","5","4","5","1","4","3","6","3","3","6","3","4","5","6","3","3","3","3","3","4","3","4","5","5","5","2","5","5","3","3","3","4","3","6","781449352643350529","徐","155","Male","[""坏我"",""坏他"",""好他"",""好我""]","[""弱我"",""弱他"",""强他"",""强我""]","","","","","","","","9","","","","","","","","","SRET","SRET_math_calculate","","key","9","16.685720588235093","640","356","","","","","1+8= ?","9","1","","","","","","","",""
"2081","","5","psychophysics","104","350700","0.0-7.0-5.0-0.1","4","4","5","4","2","4","3","4","5","4","4","0","-1","-1","1","-1","0","1","1","4","4","5","5","4","3","4","4","4","3","4","5","5","6","6","5","6","5","5","4","5","5","5","4","4","3","5","4","5","1","4","3","6","3","3","6","3","4","5","6","3","3","3","3","3","4","3","4","5","5","5","2","5","5","3","3","3","4","3","6","781449352643350529","徐","155","Male","[""坏我"",""坏他"",""好他"",""好我""]","[""弱我"",""弱他"",""强他"",""强我""]","","","","","","","","5","","","","","","","","","SRET","SRET_math_calculate","","key","5","16.68616935483841","640","356","","","","","15-10= ?","5","1","","","","","","","",""
"1968","","5","psychophysics","105","352671","0.0-7.0-5.0-0.2","4","4","5","4","2","4","3","4","5","4","4","0","-1","-1","1","-1","0","1","1","4","4","5","5","4","3","4","4","4","3","4","5","5","6","6","5","6","5","5","4","5","5","5","4","4","3","5","4","5","1","4","3","6","3","3","6","3","4","5","6","3","3","3","3","3","4","3","4","5","5","5","2","5","5","3","3","3","4","3","6","781449352643350529","徐","155","Male","[""坏我"",""坏他"",""好他"",""好我""]","[""弱我"",""弱他"",""强他"",""强我""]","","","","","","","","5","","","","","","","","","SRET","SRET_math_calculate","","key","5","16.68482905982906","640","356","","","","","2+3= ?","5","1","","","","","","","",""
"1944","","4","psychophysics","106","354619","0.0-7.0-5.0-0.3","4","4","5","4","2","4","3","4","5","4","4","0","-1","-1","1","-1","0","1","1","4","4","5","5","4","3","4","4","4","3","4","5","5","6","6","5","6","5","5","4","5","5","5","4","4","3","5","4","5","1","4","3","6","3","3","6","3","4","5","6","3","3","3","3","3","4","3","4","5","5","5","2","5","5","3","3","3","4","3","6","781449352643350529","徐","155","Male","[""坏我"",""坏他"",""好他"",""好我""]","[""弱我"",""弱他"",""强他"",""强我""]","","","","","","","","4","","","","","","","","","SRET","SRET_math_calculate","","key","4","16.684681034482843","640","356","","","","","8-4= ?","4","1","","","","","","","",""
"2196","","0","psychophysics","107","356819","0.0-7.0-5.0-0.4","4","4","5","4","2","4","3","4","5","4","4","0","-1","-1","1","-1","0","1","1","4","4","5","5","4","3","4","4","4","3","4","5","5","6","6","5","6","5","5","4","5","5","5","4","4","3","5","4","5","1","4","3","6","3","3","6","3","4","5","6","3","3","3","3","3","4","3","4","5","5","5","2","5","5","3","3","3","4","3","6","781449352643350529","徐","155","Male","[""坏我"",""坏他"",""好他"",""好我""]","[""弱我"",""弱他"",""强他"",""强我""]","","","","","","","","0","","","","","","","","","SRET","SRET_math_calculate","","key","0","16.68495419847322","640","356","","","","","6*0= ?","0","1","","","","","","","",""
"1949","","8","psychophysics","108","358772","0.0-7.0-5.0-0.5","4","4","5","4","2","4","3","4","5","4","4","0","-1","-1","1","-1","0","1","1","4","4","5","5","4","3","4","4","4","3","4","5","5","6","6","5","6","5","5","4","5","5","5","4","4","3","5","4","5","1","4","3","6","3","3","6","3","4","5","6","3","3","3","3","3","4","3","4","5","5","5","2","5","5","3","3","3","4","3","6","781449352643350529","徐","155","Male","[""坏我"",""坏他"",""好他"",""好我""]","[""弱我"",""弱他"",""强他"",""强我""]","","","","","","","","8","","","","","","","","","SRET","SRET_math_calculate","","key","8","16.68570689655186","640","356","","","","","9-1= ?","8","1","","","","","","","",""
"2042","","2","psychophysics","109","360816","0.0-7.0-5.0-0.6","4","4","5","4","2","4","3","4","5","4","4","0","-1","-1","1","-1","0","1","1","4","4","5","5","4","3","4","4","4","3","4","5","5","6","6","5","6","5","5","4","5","5","5","4","4","3","5","4","5","1","4","3","6","3","3","6","3","4","5","6","3","3","3","3","3","4","3","4","5","5","5","2","5","5","3","3","3","4","3","6","781449352643350529","徐","155","Male","[""坏我"",""坏他"",""好他"",""好我""]","[""弱我"",""弱他"",""强他"",""强我""]","","","","","","","","2","","","","","","","","","SRET","SRET_math_calculate","","key","2","16.68631404958673","640","356","","","","","29-27= ?","2","1","","","","","","","",""
"2086","","2","psychophysics","110","362930","0.0-7.0-5.0-0.7","4","4","5","4","2","4","3","4","5","4","4","0","-1","-1","1","-1","0","1","1","4","4","5","5","4","3","4","4","4","3","4","5","5","6","6","5","6","5","5","4","5","5","5","4","4","3","5","4","5","1","4","3","6","3","3","6","3","4","5","6","3","3","3","3","3","4","3","4","5","5","5","2","5","5","3","3","3","4","3","6","781449352643350529","徐","155","Male","[""坏我"",""坏他"",""好他"",""好我""]","[""弱我"",""弱他"",""强他"",""强我""]","","","","","","","","2","","","","","","","","","SRET","SRET_math_calculate","","key","2","16.817775999999604","640","356","","","","","22/11= ?","2","1","","","","","","","",""
"1953","","3","psychophysics","111","364887","0.0-7.0-5.0-0.8","4","4","5","4","2","4","3","4","5","4","4","0","-1","-1","1","-1","0","1","1","4","4","5","5","4","3","4","4","4","3","4","5","5","6","6","5","6","5","5","4","5","5","5","4","4","3","5","4","5","1","4","3","6","3","3","6","3","4","5","6","3","3","3","3","3","4","3","4","5","5","5","2","5","5","3","3","3","4","3","6","781449352643350529","徐","155","Male","[""坏我"",""坏他"",""好他"",""好我""]","[""弱我"",""弱他"",""强他"",""强我""]","","","","","","","","3","","","","","","","","","SRET","SRET_math_calculate","","key","3","16.68657758620674","640","356","","","","","1+2= ?","3","1","","","","","","","",""
"1960","","9","psychophysics","112","366899","0.0-7.0-5.0-0.9","4","4","5","4","2","4","3","4","5","4","4","0","-1","-1","1","-1","0","1","1","4","4","5","5","4","3","4","4","4","3","4","5","5","6","6","5","6","5","5","4","5","5","5","4","4","3","5","4","5","1","4","3","6","3","3","6","3","4","5","6","3","3","3","3","3","4","3","4","5","5","5","2","5","5","3","3","3","4","3","6","781449352643350529","徐","155","Male","[""坏我"",""坏他"",""好他"",""好我""]","[""弱我"",""弱他"",""强他"",""强我""]","","","","","","","","9","","","","","","","","","SRET","SRET_math_calculate","","key","9","16.82426050420168","640","356","","","","","6+3= ?","9","1","","","","","","","",""
"2099","","9","psychophysics","113","369002","0.0-7.0-5.0-0.10","4","4","5","4","2","4","3","4","5","4","4","0","-1","-1","1","-1","0","1","1","4","4","5","5","4","3","4","4","4","3","4","5","5","6","6","5","6","5","5","4","5","5","5","4","4","3","5","4","5","1","4","3","6","3","3","6","3","4","5","6","3","3","3","3","3","4","3","4","5","5","5","2","5","5","3","3","3","4","3","6","781449352643350529","徐","155","Male","[""坏我"",""坏他"",""好他"",""好我""]","[""弱我"",""弱他"",""强他"",""强我""]","","","","","","","","9","","","","","","","","","SRET","SRET_math_calculate","","key","9","16.685351999999956","640","356","","","","","1*9= ?","9","1","","","","","","","",""
"1931","","8","psychophysics","114","370937","0.0-7.0-5.0-0.11","4","4","5","4","2","4","3","4","5","4","4","0","-1","-1","1","-1","0","1","1","4","4","5","5","4","3","4","4","4","3","4","5","5","6","6","5","6","5","5","4","5","5","5","4","4","3","5","4","5","1","4","3","6","3","3","6","3","4","5","6","3","3","3","3","3","4","3","4","5","5","5","2","5","5","3","3","3","4","3","6","781449352643350529","徐","155","Male","[""坏我"",""坏他"",""好他"",""好我""]","[""弱我"",""弱他"",""强他"",""强我""]","","","","","","","","8","","","","","","","","","SRET","SRET_math_calculate","","key","8","16.685217391304246","640","356","","","","","1*8= ?","8","1","","","","","","","",""
"2037","","0","psychophysics","115","372977","0.0-7.0-5.0-0.12","4","4","5","4","2","4","3","4","5","4","4","0","-1","-1","1","-1","0","1","1","4","4","5","5","4","3","4","4","4","3","4","5","5","6","6","5","6","5","5","4","5","5","5","4","4","3","5","4","5","1","4","3","6","3","3","6","3","4","5","6","3","3","3","3","3","4","3","4","5","5","5","2","5","5","3","3","3","4","3","6","781449352643350529","徐","155","Male","[""坏我"",""坏他"",""好他"",""好我""]","[""弱我"",""弱他"",""强他"",""强我""]","","","","","","","","0","","","","","","","","","SRET","SRET_math_calculate","","key","0","16.686504132231246","640","356","","","","","9-9= ?","0","1","","","","","","","",""
"2466","","9","psychophysics","116","375457","0.0-7.0-5.0-0.13","4","4","5","4","2","4","3","4","5","4","4","0","-1","-1","1","-1","0","1","1","4","4","5","5","4","3","4","4","4","3","4","5","5","6","6","5","6","5","5","4","5","5","5","4","4","3","5","4","5","1","4","3","6","3","3","6","3","4","5","6","3","3","3","3","3","4","3","4","5","5","5","2","5","5","3","3","3","4","3","6","781449352643350529","徐","155","Male","[""坏我"",""坏他"",""好他"",""好我""]","[""弱我"",""弱他"",""强他"",""强我""]","","","","","","","","9","","","","","","","","","SRET","SRET_math_calculate","","key","9","16.686155405405646","640","356","","","","","32-23= ?","9","1","","","","","","","",""
"1985","","2","psychophysics","117","377446","0.0-7.0-5.0-0.14","4","4","5","4","2","4","3","4","5","4","4","0","-1","-1","1","-1","0","1","1","4","4","5","5","4","3","4","4","4","3","4","5","5","6","6","5","6","5","5","4","5","5","5","4","4","3","5","4","5","1","4","3","6","3","3","6","3","4","5","6","3","3","3","3","3","4","3","4","5","5","5","2","5","5","3","3","3","4","3","6","781449352643350529","徐","155","Male","[""坏我"",""坏他"",""好他"",""好我""]","[""弱我"",""弱他"",""强他"",""强我""]","","","","","","","","2","","","","","","","","","SRET","SRET_math_calculate","","key","2","16.828128205128234","640","356","","","","","5-3= ?","2","1","","","","","","","",""
"2088","","7","psychophysics","118","379536","0.0-7.0-5.0-0.15","4","4","5","4","2","4","3","4","5","4","4","0","-1","-1","1","-1","0","1","1","4","4","5","5","4","3","4","4","4","3","4","5","5","6","6","5","6","5","5","4","5","5","5","4","4","3","5","4","5","1","4","3","6","3","3","6","3","4","5","6","3","3","3","3","3","4","3","4","5","5","5","2","5","5","3","3","3","4","3","6","781449352643350529","徐","155","Male","[""坏我"",""坏他"",""好他"",""好我""]","[""弱我"",""弱他"",""强他"",""强我""]","","","","","","","","7","","","","","","","","","SRET","SRET_math_calculate","","key","7","16.685145161290663","640","356","","","","","5+2= ?","7","1","","","","","","","",""
"2353","","8","psychophysics","119","381899","0.0-7.0-5.0-0.16","4","4","5","4","2","4","3","4","5","4","4","0","-1","-1","1","-1","0","1","1","4","4","5","5","4","3","4","4","4","3","4","5","5","6","6","5","6","5","5","4","5","5","5","4","4","3","5","4","5","1","4","3","6","3","3","6","3","4","5","6","3","3","3","3","3","4","3","4","5","5","5","2","5","5","3","3","3","4","3","6","781449352643350529","徐","155","Male","[""坏我"",""坏他"",""好他"",""好我""]","[""弱我"",""弱他"",""强他"",""强我""]","","","","","","","","8","","","","","","","","","SRET","SRET_math_calculate","","key","8","16.684971631205713","640","356","","","","","4*2= ?","8","1","","","","","","","",""
"2105","","4","psychophysics","120","384008","0.0-7.0-5.0-0.17","4","4","5","4","2","4","3","4","5","4","4","0","-1","-1","1","-1","0","1","1","4","4","5","5","4","3","4","4","4","3","4","5","5","6","6","5","6","5","5","4","5","5","5","4","4","3","5","4","5","1","4","3","6","3","3","6","3","4","5","6","3","3","3","3","3","4","3","4","5","5","5","2","5","5","3","3","3","4","3","6","781449352643350529","徐","155","Male","[""坏我"",""坏他"",""好他"",""好我""]","[""弱我"",""弱他"",""强他"",""强我""]","","","","","","","","4","","","","","","","","","SRET","SRET_math_calculate","","key","4","16.685288000000174","640","356","","","","","20/5= ?","4","1","","","","","","","",""
"1888","","1","psychophysics","121","385903","0.0-7.0-5.0-0.18","4","4","5","4","2","4","3","4","5","4","4","0","-1","-1","1","-1","0","1","1","4","4","5","5","4","3","4","4","4","3","4","5","5","6","6","5","6","5","5","4","5","5","5","4","4","3","5","4","5","1","4","3","6","3","3","6","3","4","5","6","3","3","3","3","3","4","3","4","5","5","5","2","5","5","3","3","3","4","3","6","781449352643350529","徐","155","Male","[""坏我"",""坏他"",""好他"",""好我""]","[""弱我"",""弱他"",""强他"",""强我""]","","","","","","","","1","","","","","","","","","SRET","SRET_math_calculate","","key","1","16.685831858407173","640","356","","","","","9-8= ?","1","1","","","","","","","",""
"1970","","8","psychophysics","122","387878","0.0-7.0-5.0-0.19","4","4","5","4","2","4","3","4","5","4","4","0","-1","-1","1","-1","0","1","1","4","4","5","5","4","3","4","4","4","3","4","5","5","6","6","5","6","5","5","4","5","5","5","4","4","3","5","4","5","1","4","3","6","3","3","6","3","4","5","6","3","3","3","3","3","4","3","4","5","5","5","2","5","5","3","3","3","4","3","6","781449352643350529","徐","155","Male","[""坏我"",""坏他"",""好他"",""好我""]","[""弱我"",""弱他"",""强他"",""强我""]","","","","","","","","8","","","","","","","","","SRET","SRET_math_calculate","","key","8","16.686641025641023","640","356","","","","","6+2= ?","8","1","","","","","","","",""
"2011","","3","psychophysics","123","389907","0.0-7.0-5.0-0.20","4","4","5","4","2","4","3","4","5","4","4","0","-1","-1","1","-1","0","1","1","4","4","5","5","4","3","4","4","4","3","4","5","5","6","6","5","6","5","5","4","5","5","5","4","4","3","5","4","5","1","4","3","6","3","3","6","3","4","5","6","3","3","3","3","3","4","3","4","5","5","5","2","5","5","3","3","3","4","3","6","781449352643350529","徐","155","Male","[""坏我"",""坏他"",""好他"",""好我""]","[""弱我"",""弱他"",""强他"",""强我""]","","","","","","","","3","","","","","","","","","SRET","SRET_math_calculate","","key","3","16.68482644628052","640","356","","","","","6/2= ?","3","1","","","","","","","",""
"2157","","7","psychophysics","124","392069","0.0-7.0-5.0-0.21","4","4","5","4","2","4","3","4","5","4","4","0","-1","-1","1","-1","0","1","1","4","4","5","5","4","3","4","4","4","3","4","5","5","6","6","5","6","5","5","4","5","5","5","4","4","3","5","4","5","1","4","3","6","3","3","6","3","4","5","6","3","3","3","3","3","4","3","4","5","5","5","2","5","5","3","3","3","4","3","6","781449352643350529","徐","155","Male","[""坏我"",""坏他"",""好他"",""好我""]","[""弱我"",""弱他"",""强他"",""强我""]","","","","","","","","7","","","","","","","","","SRET","SRET_math_calculate","","key","7","16.685890624999956","640","356","","","","","2+5= ?","7","1","","","","","","","",""
"2134","","9","psychophysics","125","394213","0.0-7.0-5.0-0.22","4","4","5","4","2","4","3","4","5","4","4","0","-1","-1","1","-1","0","1","1","4","4","5","5","4","3","4","4","4","3","4","5","5","6","6","5","6","5","5","4","5","5","5","4","4","3","5","4","5","1","4","3","6","3","3","6","3","4","5","6","3","3","3","3","3","4","3","4","5","5","5","2","5","5","3","3","3","4","3","6","781449352643350529","徐","155","Male","[""坏我"",""坏他"",""好他"",""好我""]","[""弱我"",""弱他"",""强他"",""强我""]","","","","","","","","9","","","","","","","","","SRET","SRET_math_calculate","","key","9","16.68706250000014","640","356","","","","","7+2= ?","9","1","","","","","","","",""
"1930","","3","psychophysics","126","396151","0.0-7.0-5.0-0.23","4","4","5","4","2","4","3","4","5","4","4","0","-1","-1","1","-1","0","1","1","4","4","5","5","4","3","4","4","4","3","4","5","5","6","6","5","6","5","5","4","5","5","5","4","4","3","5","4","5","1","4","3","6","3","3","6","3","4","5","6","3","3","3","3","3","4","3","4","5","5","5","2","5","5","3","3","3","4","3","6","781449352643350529","徐","155","Male","[""坏我"",""坏他"",""好他"",""好我""]","[""弱我"",""弱他"",""强他"",""强我""]","","","","","","","","3","","","","","","","","","SRET","SRET_math_calculate","","key","3","16.684713043477995","640","356","","","","","8-5= ?","3","1","","","","","","","",""
"1961","","5","psychophysics","127","398117","0.0-7.0-5.0-0.24","4","4","5","4","2","4","3","4","5","4","4","0","-1","-1","1","-1","0","1","1","4","4","5","5","4","3","4","4","4","3","4","5","5","6","6","5","6","5","5","4","5","5","5","4","4","3","5","4","5","1","4","3","6","3","3","6","3","4","5","6","3","3","3","3","3","4","3","4","5","5","5","2","5","5","3","3","3","4","3","6","781449352643350529","徐","155","Male","[""坏我"",""坏他"",""好他"",""好我""]","[""弱我"",""弱他"",""强他"",""强我""]","","","","","","","","5","","","","","","","","","SRET","SRET_math_calculate","","key","5","16.685863247863615","640","356","","","","","3+2= ?","5","1","","","","","","","",""
"2584","","6","psychophysics","128","400704","0.0-7.0-5.0-0.25","4","4","5","4","2","4","3","4","5","4","4","0","-1","-1","1","-1","0","1","1","4","4","5","5","4","3","4","4","4","3","4","5","5","6","6","5","6","5","5","4","5","5","5","4","4","3","5","4","5","1","4","3","6","3","3","6","3","4","5","6","3","3","3","3","3","4","3","4","5","5","5","2","5","5","3","3","3","4","3","6","781449352643350529","徐","155","Male","[""坏我"",""坏他"",""好他"",""好我""]","[""弱我"",""弱他"",""强他"",""强我""]","","","","","","","","6","","","","","","","","","SRET","SRET_math_calculate","","key","6","16.68498051948029","640","356","","","","","14-9= ?","5","0","","","","","","","",""
"2914","","5","psychophysics","129","403621","0.0-7.0-5.0-0.26","4","4","5","4","2","4","3","4","5","4","4","0","-1","-1","1","-1","0","1","1","4","4","5","5","4","3","4","4","4","3","4","5","5","6","6","5","6","5","5","4","5","5","5","4","4","3","5","4","5","1","4","3","6","3","3","6","3","4","5","6","3","3","3","3","3","4","3","4","5","5","5","2","5","5","3","3","3","4","3","6","781449352643350529","徐","155","Male","[""坏我"",""坏他"",""好他"",""好我""]","[""弱我"",""弱他"",""强他"",""强我""]","","","","","","","","5","","","","","","","","","SRET","SRET_math_calculate","","key","5","16.68566091954019","640","356","","","","","16-11= ?","5","1","","","","","","","",""
"2074","","9","psychophysics","130","405698","0.0-7.0-5.0-0.27","4","4","5","4","2","4","3","4","5","4","4","0","-1","-1","1","-1","0","1","1","4","4","5","5","4","3","4","4","4","3","4","5","5","6","6","5","6","5","5","4","5","5","5","4","4","3","5","4","5","1","4","3","6","3","3","6","3","4","5","6","3","3","3","3","3","4","3","4","5","5","5","2","5","5","3","3","3","4","3","6","781449352643350529","徐","155","Male","[""坏我"",""坏他"",""好他"",""好我""]","[""弱我"",""弱他"",""强他"",""强我""]","","","","","","","","9","","","","","","","","","SRET","SRET_math_calculate","","key","9","16.685154471544518","640","356","","","","","8+1= ?","9","1","","","","","","","",""
"2823","","3","psychophysics","131","408528","0.0-7.0-5.0-0.28","4","4","5","4","2","4","3","4","5","4","4","0","-1","-1","1","-1","0","1","1","4","4","5","5","4","3","4","4","4","3","4","5","5","6","6","5","6","5","5","4","5","5","5","4","4","3","5","4","5","1","4","3","6","3","3","6","3","4","5","6","3","3","3","3","3","4","3","4","5","5","5","2","5","5","3","3","3","4","3","6","781449352643350529","徐","155","Male","[""坏我"",""坏他"",""好他"",""好我""]","[""弱我"",""弱他"",""强他"",""强我""]","","","","","","","","3","","","","","","","","","SRET","SRET_math_calculate","","key","3","16.6854674556212","640","356","","","","","12/4= ?","3","1","","","","","","","",""
"2329","","0","psychophysics","132","410865","0.0-7.0-5.0-0.29","4","4","5","4","2","4","3","4","5","4","4","0","-1","-1","1","-1","0","1","1","4","4","5","5","4","3","4","4","4","3","4","5","5","6","6","5","6","5","5","4","5","5","5","4","4","3","5","4","5","1","4","3","6","3","3","6","3","4","5","6","3","3","3","3","3","4","3","4","5","5","5","2","5","5","3","3","3","4","3","6","781449352643350529","徐","155","Male","[""坏我"",""坏他"",""好他"",""好我""]","[""弱我"",""弱他"",""强他"",""强我""]","","","","","","","","0","","","","","","","","","SRET","SRET_math_calculate","","key","0","16.685992805755415","640","356","","","","","32-32= ?","0","1","","","","","","","",""
"2117","","5","psychophysics","133","413007","0.0-7.0-5.0-0.30","4","4","5","4","2","4","3","4","5","4","4","0","-1","-1","1","-1","0","1","1","4","4","5","5","4","3","4","4","4","3","4","5","5","6","6","5","6","5","5","4","5","5","5","4","4","3","5","4","5","1","4","3","6","3","3","6","3","4","5","6","3","3","3","3","3","4","3","4","5","5","5","2","5","5","3","3","3","4","3","6","781449352643350529","徐","155","Male","[""坏我"",""坏他"",""好他"",""好我""]","[""弱我"",""弱他"",""强他"",""强我""]","","","","","","","","5","","","","","","","","","SRET","SRET_math_calculate","","key","5","16.685070866141853","640","356","","","","","8-3= ? ","5","1","","","","","","","",""
"2279","","5","psychophysics","134","415289","0.0-7.0-5.0-0.31","4","4","5","4","2","4","3","4","5","4","4","0","-1","-1","1","-1","0","1","1","4","4","5","5","4","3","4","4","4","3","4","5","5","6","6","5","6","5","5","4","5","5","5","4","4","3","5","4","5","1","4","3","6","3","3","6","3","4","5","6","3","3","3","3","3","4","3","4","5","5","5","2","5","5","3","3","3","4","3","6","781449352643350529","徐","155","Male","[""坏我"",""坏他"",""好他"",""好我""]","[""弱我"",""弱他"",""强他"",""强我""]","","","","","","","","5","","","","","","","","","SRET","SRET_math_calculate","","key","5","16.685897058823578","640","356","","","","","12-7= ?","5","1","","","","","","","",""
"1983","","0","psychophysics","135","417277","0.0-7.0-5.0-0.32","4","4","5","4","2","4","3","4","5","4","4","0","-1","-1","1","-1","0","1","1","4","4","5","5","4","3","4","4","4","3","4","5","5","6","6","5","6","5","5","4","5","5","5","4","4","3","5","4","5","1","4","3","6","3","3","6","3","4","5","6","3","3","3","3","3","4","3","4","5","5","5","2","5","5","3","3","3","4","3","6","781449352643350529","徐","155","Male","[""坏我"",""坏他"",""好他"",""好我""]","[""弱我"",""弱他"",""强他"",""强我""]","","","","","","","","0","","","","","","","","","SRET","SRET_math_calculate","","key","0","16.686296610169556","640","356","","","","","12-12= ?","0","1","","","","","","","",""
"2007","","7","psychophysics","136","419289","0.0-7.0-5.0-0.33","4","4","5","4","2","4","3","4","5","4","4","0","-1","-1","1","-1","0","1","1","4","4","5","5","4","3","4","4","4","3","4","5","5","6","6","5","6","5","5","4","5","5","5","4","4","3","5","4","5","1","4","3","6","3","3","6","3","4","5","6","3","3","3","3","3","4","3","4","5","5","5","2","5","5","3","3","3","4","3","6","781449352643350529","徐","155","Male","[""坏我"",""坏他"",""好他"",""好我""]","[""弱我"",""弱他"",""强他"",""强我""]","","","","","","","","7","","","","","","","","","SRET","SRET_math_calculate","","key","7","16.68466666666694","640","356","","","","","6+1= ?","7","1","","","","","","","",""
"3368","","4","psychophysics","137","422660","0.0-7.0-5.0-0.34","4","4","5","4","2","4","3","4","5","4","4","0","-1","-1","1","-1","0","1","1","4","4","5","5","4","3","4","4","4","3","4","5","5","6","6","5","6","5","5","4","5","5","5","4","4","3","5","4","5","1","4","3","6","3","3","6","3","4","5","6","3","3","3","3","3","4","3","4","5","5","5","2","5","5","3","3","3","4","3","6","781449352643350529","徐","155","Male","[""坏我"",""坏他"",""好他"",""好我""]","[""弱我"",""弱他"",""强他"",""强我""]","","","","","","","","4","","","","","","","","","SRET","SRET_math_calculate","","key","4","16.685587064676398","640","356","","","","","13-9= ?","4","1","","","","","","","",""
"2091","","3","psychophysics","138","424757","0.0-7.0-5.0-0.35","4","4","5","4","2","4","3","4","5","4","4","0","-1","-1","1","-1","0","1","1","4","4","5","5","4","3","4","4","4","3","4","5","5","6","6","5","6","5","5","4","5","5","5","4","4","3","5","4","5","1","4","3","6","3","3","6","3","4","5","6","3","3","3","3","3","4","3","4","5","5","5","2","5","5","3","3","3","4","3","6","781449352643350529","徐","155","Male","[""坏我"",""坏他"",""好他"",""好我""]","[""弱我"",""弱他"",""强他"",""强我""]","","","","","","","","3","","","","","","","","","SRET","SRET_math_calculate","","key","3","16.68630645161254","640","356","","","","","3*1= ?","3","1","","","","","","","",""
"2378","","3","psychophysics","139","427149","0.0-7.0-5.0-0.36","4","4","5","4","2","4","3","4","5","4","4","0","-1","-1","1","-1","0","1","1","4","4","5","5","4","3","4","4","4","3","4","5","5","6","6","5","6","5","5","4","5","5","5","4","4","3","5","4","5","1","4","3","6","3","3","6","3","4","5","6","3","3","3","3","3","4","3","4","5","5","5","2","5","5","3","3","3","4","3","6","781449352643350529","徐","155","Male","[""坏我"",""坏他"",""好他"",""好我""]","[""弱我"",""弱他"",""强他"",""强我""]","","","","","","","","3","","","","","","","","","SRET","SRET_math_calculate","","key","3","16.685748251748084","640","356","","","","","11-8= ?","3","1","","","","","","","",""
"2505","","9","psychophysics","140","429659","0.0-7.0-5.0-0.37","4","4","5","4","2","4","3","4","5","4","4","0","-1","-1","1","-1","0","1","1","4","4","5","5","4","3","4","4","4","3","4","5","5","6","6","5","6","5","5","4","5","5","5","4","4","3","5","4","5","1","4","3","6","3","3","6","3","4","5","6","3","3","3","3","3","4","3","4","5","5","5","2","5","5","3","3","3","4","3","6","781449352643350529","徐","155","Male","[""坏我"",""坏他"",""好他"",""好我""]","[""弱我"",""弱他"",""强他"",""强我""]","","","","","","","","9","","","","","","","","","SRET","SRET_math_calculate","","key","9","16.68500671140934","640","356","","","","","56/7= ?","8","0","","","","","","","",""
"2387","","7","psychophysics","141","432054","0.0-7.0-5.0-0.38","4","4","5","4","2","4","3","4","5","4","4","0","-1","-1","1","-1","0","1","1","4","4","5","5","4","3","4","4","4","3","4","5","5","6","6","5","6","5","5","4","5","5","5","4","4","3","5","4","5","1","4","3","6","3","3","6","3","4","5","6","3","3","3","3","3","4","3","4","5","5","5","2","5","5","3","3","3","4","3","6","781449352643350529","徐","155","Male","[""坏我"",""坏他"",""好他"",""好我""]","[""弱我"",""弱他"",""强他"",""强我""]","","","","","","","","7","","","","","","","","","SRET","SRET_math_calculate","","key","7","16.686216783216892","640","356","","","","","1+6= ?","7","1","","","","","","","",""
"2514","","4","psychophysics","142","434572","0.0-7.0-5.0-0.39","4","4","5","4","2","4","3","4","5","4","4","0","-1","-1","1","-1","0","1","1","4","4","5","5","4","3","4","4","4","3","4","5","5","6","6","5","6","5","5","4","5","5","5","4","4","3","5","4","5","1","4","3","6","3","3","6","3","4","5","6","3","3","3","3","3","4","3","4","5","5","5","2","5","5","3","3","3","4","3","6","781449352643350529","徐","155","Male","[""坏我"",""坏他"",""好他"",""好我""]","[""弱我"",""弱他"",""强他"",""强我""]","","","","","","","","4","","","","","","","","","SRET","SRET_math_calculate","","key","4","16.68498666666681","640","356","","","","","2+2= ?","4","1","","","","","","","",""
