"rt","stimulus","response","trial_type","trial_index","time_elapsed","internal_node_id","swb_1","swb_2","swb_3","swb_4","swb_5","LOT_1","LOT_2","LOT_3","LOT_4","LOT_5","LOT_6","IPC_1","IPC_2","IPC_3","IPC_4","IPC_5","IPC_6","IPC_7","IPC_8","MorIden_1","MorIden_2","MorIden_3","MorIden_4","MorIden_5","MorIden_6","MorIden_7","MorIden_8","MorIden_9","MorIden_10","moralSeImag_1","moralSeImag_2","moralSeImag_3","moralSeImag_4","moralSeImag_5","moralSeImag_6","moralSeImag_7","moralSeImag_8","moralSeImag_9","sde_1","sde_2","sde_3","sde_4","sde_5","sde_6","sde_7","sde_8","sde_9","sde_10","trap2","sde_11","sde_12","sde_13","sde_14","sde_15","sde_16","sde_17","sde_18","sde_19","sde_20","IM_1","IM_2","IM_3","IM_4","IM_5","IM_6","IM_7","IM_8","IM_9","IM_10","IM_11","IM_12","IM_13","IM_14","IM_15","IM_16","IM_17","IM_18","IM_19","IM_20","subj_idx","friend_name","ParticipantID","Sex","Word","Word2","value","success","timeout","failed_images","failed_audio","failed_video","user_agent","responses","item_order","radio_event_ids","radio_event_times","key_event_times","mouse_event_times","straightlining","zigzagging","honeypot","task_id","screen_id","time_stamp","response_type","key_press","avg_frame_time","center_x","center_y","person","word","valence","domain","math","correct_response","correct","status","view_history","identity","duration","Image","condition","question_order","trap2_item"
"6884","
   <p><div style='color:white; font-size: 25px'>您好，欢迎参加本次实验。</div></p>
   <p><div style='color:white; font-size: 25px'>为充分保障您的权利，请确保您已经知晓并同意《参与实验同意书》以及《数据公开知情同意书》。</div></p>
   <p><div style='color:white; font-size: 25px'>如果您未见过上述内容，请咨询实验员。</div></p>
   <p style='color:white; font-size: 25px'>如果您选择继续实验，则表示您已经清楚两份知情同意书的内容并同意。</p>
   <p><div style = ""color: pink;font-size:30px;"">请确保您记得day0的实验编号，您将在本次实验输入该编号，若您忘记，请咨询实验员后作答。</div></p>
   <p><div style = ""color:lightblue;font-size:25px;"">请您尽可能认真地作答，我们将依据您在各问卷和按键任务中的作答质量发放报酬。</div></p>
   <p> <div style = ""color: green""><按空格键至下页></div> </p>
   "," ","html-keyboard-response","0","6887","0.0-0.0","6","5","6","5","4","5","3","5","4","5","5","2","-1","0","1","-1","0","1","1","5","5","5","2","4","4","4","4","5","3","5","6","5","7","3","5","6","5","5","5","2","2","6","2","3","5","2","4","3","1","6","3","6","2","2","5","2","5","4","3","2","7","3","3","3","7","4","6","6","7","6","6","7","3","4","5","6","5","3","5","701209824037175296","潘","159","Female","[""好她"",""坏我"",""坏她"",""好我""]","[""强她"",""弱我"",""弱她"",""强我""]","","","","","","","","","","","","","","","","","","","","","","","","","","","","","","","","","","","","","","",""
"","","","call-function","1","6891","0.0-1.0-0.0","6","5","6","5","4","5","3","5","4","5","5","2","-1","0","1","-1","0","1","1","5","5","5","2","4","4","4","4","5","3","5","6","5","7","3","5","6","5","5","5","2","2","6","2","3","5","2","4","3","1","6","3","6","2","2","5","2","5","4","3","2","7","3","3","3","7","4","6","6","7","6","6","7","3","4","5","6","5","3","5","701209824037175296","潘","159","Female","[""好她"",""坏我"",""坏她"",""好我""]","[""强她"",""弱我"",""弱她"",""强我""]","","","","","","","","","","","","","","","","","","","","","","","","","","","","","","","","","","","","","","",""
"52628","","[{""name"":""Sex"",""value"":""1""},{""name"":""friend_name"",""value"":""潘""},{""name"":""ParticipantID"",""value"":""159""}]","survey-html-form","2","59522","0.0-1.0-1.0","6","5","6","5","4","5","3","5","4","5","5","2","-1","0","1","-1","0","1","1","5","5","5","2","4","4","4","4","5","3","5","6","5","7","3","5","6","5","5","5","2","2","6","2","3","5","2","4","3","1","6","3","6","2","2","5","2","5","4","3","2","7","3","3","3","7","4","6","6","7","6","6","7","3","4","5","6","5","3","5","701209824037175296","潘","159","Female","[""好她"",""坏我"",""坏她"",""好我""]","[""强她"",""弱我"",""弱她"",""强我""]","","","","","","","","","","","","","","","","","","","","","","","","","","","","","","","","","","","","","","",""
"","","","preload","3","60054","0.0-2.0","6","5","6","5","4","5","3","5","4","5","5","2","-1","0","1","-1","0","1","1","5","5","5","2","4","4","4","4","5","3","5","6","5","7","3","5","6","5","5","5","2","2","6","2","3","5","2","4","3","1","6","3","6","2","2","5","2","5","4","3","2","7","3","3","3","7","4","6","6","7","6","6","7","3","4","5","6","5","3","5","701209824037175296","潘","159","Female","[""好她"",""坏我"",""坏她"",""好我""]","[""强她"",""弱我"",""弱她"",""强我""]","","true","false","[]","[]","[]","","","","","","","","","","","","","","","","","","","","","","","","","","","","","","","","",""
"","","","fullscreen","4","62318","0.0-3.0","6","5","6","5","4","5","3","5","4","5","5","2","-1","0","1","-1","0","1","1","5","5","5","2","4","4","4","4","5","3","5","6","5","7","3","5","6","5","5","5","2","2","6","2","3","5","2","4","3","1","6","3","6","2","2","5","2","5","4","3","2","7","3","3","3","7","4","6","6","7","6","6","7","3","4","5","6","5","3","5","701209824037175296","潘","159","Female","[""好她"",""坏我"",""坏她"",""好我""]","[""强她"",""弱我"",""弱她"",""强我""]","","true","","","","","{}","","","","","","","","","","","","","","","","","","","","","","","","","","","","","","","",""
"11726.899999999965","","{""Q01"":""6"",""Q02"":""5"",""Q03"":""6"",""Q04"":""5"",""Q05"":""4""}","survey-template","5","74049","0.0-4.0","6","5","6","5","4","5","3","5","4","5","5","2","-1","0","1","-1","0","1","1","5","5","5","2","4","4","4","4","5","3","5","6","5","7","3","5","6","5","5","5","2","2","6","2","3","5","2","4","3","1","6","3","6","2","2","5","2","5","4","3","2","7","3","3","3","7","4","6","6","7","6","6","7","3","4","5","6","5","3","5","701209824037175296","潘","159","Female","[""好她"",""坏我"",""坏她"",""好我""]","[""强她"",""弱我"",""弱她"",""强我""]","","","","","","","","{""Q01"":""6"",""Q02"":""5"",""Q03"":""6"",""Q04"":""5"",""Q05"":""4""}","[0,1,2,3,4]","[""Q01"",""Q02"",""Q03"",""Q04"",""Q05""]","[2829.5999999999767,4629.399999999965,5429.299999999988,8725.700000000012,9653.299999999988]","[]","[2829.5999999999767,4629.399999999965,5429.299999999988,8725.700000000012,9653.299999999988,11725.5]","0.4","1","0","","","","","","","","","","","","","","","","","","","","","","",""
"15000","","{""Q01"":""5"",""Q02"":""3"",""Q03"":""5"",""Q04"":""4"",""Q05"":""5"",""Q06"":""5""}","survey-template","6","89056","0.0-5.0","6","5","6","5","4","5","3","5","4","5","5","2","-1","0","1","-1","0","1","1","5","5","5","2","4","4","4","4","5","3","5","6","5","7","3","5","6","5","5","5","2","2","6","2","3","5","2","4","3","1","6","3","6","2","2","5","2","5","4","3","2","7","3","3","3","7","4","6","6","7","6","6","7","3","4","5","6","5","3","5","701209824037175296","潘","159","Female","[""好她"",""坏我"",""坏她"",""好我""]","[""强她"",""弱我"",""弱她"",""强我""]","","","","","","","","{""Q01"":""5"",""Q02"":""3"",""Q03"":""5"",""Q04"":""4"",""Q05"":""5"",""Q06"":""5""}","[0,1,2,3,4,5]","[""Q01"",""Q03"",""Q02"",""Q04"",""Q05"",""Q06""]","[3959.0999999999767,6559.199999999953,7503.199999999953,10200.199999999953,12502.5,14256]","[]","[2390.899999999965,3959.0999999999767,5862.699999999953,6559.199999999953,7503.199999999953,9246.799999999988,10200.199999999953,11599.199999999953,12502.5,14256,14998.699999999953]","0.5","0.4","0","","","","","","","","","","","","","","","","","","","","","","",""
"17642.70000000001","","{""Q01"":""2"",""Q02"":""-1"",""Q03"":""0"",""Q04"":""1"",""Q05"":""-1"",""Q06"":""0"",""Q07"":""1"",""Q08"":""1""}","survey-template","7","106706","0.0-6.0","6","5","6","5","4","5","3","5","4","5","5","2","-1","0","1","-1","0","1","1","5","5","5","2","4","4","4","4","5","3","5","6","5","7","3","5","6","5","5","5","2","2","6","2","3","5","2","4","3","1","6","3","6","2","2","5","2","5","4","3","2","7","3","3","3","7","4","6","6","7","6","6","7","3","4","5","6","5","3","5","701209824037175296","潘","159","Female","[""好她"",""坏我"",""坏她"",""好我""]","[""强她"",""弱我"",""弱她"",""强我""]","","","","","","","","{""Q01"":""2"",""Q02"":""-1"",""Q03"":""0"",""Q04"":""1"",""Q05"":""-1"",""Q06"":""0"",""Q07"":""1"",""Q08"":""1""}","[0,1,2,3,4,5,6,7]","[""Q01"",""Q02"",""Q03"",""Q04"",""Q05"",""Q07"",""Q06"",""Q08""]","[2688.5999999999767,6744.599999999977,8720.799999999988,10336.799999999988,11664.399999999965,15288.899999999965,15904.399999999965,17024.399999999965]","[]","[2688.5999999999767,6744.599999999977,8720.799999999988,10336.799999999988,11664.399999999965,14128.599999999977,15288.899999999965,15904.399999999965,17024.399999999965,17640.399999999965]","0.375","0.5714285714285714","0","","","","","","","","","","","","","","","","","","","","","","",""
"9550","
    <p><div style='color:white;font-size:35px; line-height:20px;'>词汇评估任务</div></p><br>
    <p><div style='color:white;font-size:25px; line-height:20px;'>请再次回忆该亲密的朋友，你们至少2年前就认识了，并且最近2年经常见面。</div></p>
    <p><div style='color:white;font-size:25px; line-height:20px;'>在本实验中，您将会看到一些形容词。</div></p>
    <p><div style='color:yellow;font-size:25px; line-height:20px;'>您的任务是判断这些形容词是否符合对您自己或您的朋友的描述。</div></p><p style='font-size:35px'>符合按<span style=""color:lightgreen""> j 键</span>，不符合按<span style=""color:red""> f 键</span></p>","0","html-button-response","8","116263","0.0-7.0-0.0","6","5","6","5","4","5","3","5","4","5","5","2","-1","0","1","-1","0","1","1","5","5","5","2","4","4","4","4","5","3","5","6","5","7","3","5","6","5","5","5","2","2","6","2","3","5","2","4","3","1","6","3","6","2","2","5","2","5","4","3","2","7","3","3","3","7","4","6","6","7","6","6","7","3","4","5","6","5","3","5","701209824037175296","潘","159","Female","[""好她"",""坏我"",""坏她"",""好我""]","[""强她"",""弱我"",""弱她"",""强我""]","","","","","","","","","","","","","","","","","SRET_EW","EW_instructions","Fri Jan 19 2024 15:37:53 GMT+0800 (中国标准时间)","","","","","","","","","","","","","","","","","","","",""
"1403","","f","psychophysics","9","118688","0.0-7.0-1.0-0.0","6","5","6","5","4","5","3","5","4","5","5","2","-1","0","1","-1","0","1","1","5","5","5","2","4","4","4","4","5","3","5","6","5","7","3","5","6","5","5","5","2","2","6","2","3","5","2","4","3","1","6","3","6","2","2","5","2","5","4","3","2","7","3","3","3","7","4","6","6","7","6","6","7","3","4","5","6","5","3","5","701209824037175296","潘","159","Female","[""好她"",""坏我"",""坏她"",""好我""]","[""强她"",""弱我"",""弱她"",""强我""]","","","","","","","","no","","","","","","","","","SRET_EW","EW_practice","","key","f","17.37912142857136","640","356","自己","刻板","Negative","ability","","","","","","","","","","",""
"702","","j","psychophysics","10","120392","0.0-7.0-1.0-0.1","6","5","6","5","4","5","3","5","4","5","5","2","-1","0","1","-1","0","1","1","5","5","5","2","4","4","4","4","5","3","5","6","5","7","3","5","6","5","5","5","2","2","6","2","3","5","2","4","3","1","6","3","6","2","2","5","2","5","4","3","2","7","3","3","3","7","4","6","6","7","6","6","7","3","4","5","6","5","3","5","701209824037175296","潘","159","Female","[""好她"",""坏我"",""坏她"",""好我""]","[""强她"",""弱我"",""弱她"",""强我""]","","","","","","","","yes","","","","","","","","","SRET_EW","EW_practice","","key","j","16.664663366336573","640","356","朋友","忠实","Positive","morality","","","","","","","","","","",""
"836","","j","psychophysics","11","122231","0.0-7.0-1.0-0.2","6","5","6","5","4","5","3","5","4","5","5","2","-1","0","1","-1","0","1","1","5","5","5","2","4","4","4","4","5","3","5","6","5","7","3","5","6","5","5","5","2","2","6","2","3","5","2","4","3","1","6","3","6","2","2","5","2","5","4","3","2","7","3","3","3","7","4","6","6","7","6","6","7","3","4","5","6","5","3","5","701209824037175296","潘","159","Female","[""好她"",""坏我"",""坏她"",""好我""]","[""强她"",""弱我"",""弱她"",""强我""]","","","","","","","","yes","","","","","","","","","SRET_EW","EW_practice","","key","j","16.665376146788972","640","356","自己","严谨","Positive","ability","","","","","","","","","","",""
"852","","f","psychophysics","12","124086","0.0-7.0-1.0-0.3","6","5","6","5","4","5","3","5","4","5","5","2","-1","0","1","-1","0","1","1","5","5","5","2","4","4","4","4","5","3","5","6","5","7","3","5","6","5","5","5","2","2","6","2","3","5","2","4","3","1","6","3","6","2","2","5","2","5","4","3","2","7","3","3","3","7","4","6","6","7","6","6","7","3","4","5","6","5","3","5","701209824037175296","潘","159","Female","[""好她"",""坏我"",""坏她"",""好我""]","[""强她"",""弱我"",""弱她"",""强我""]","","","","","","","","no","","","","","","","","","SRET_EW","EW_practice","","key","f","16.664045045044936","640","356","朋友","徇私","Negative","morality","","","","","","","","","","",""
"3512","
    <p><div style='color:white;font-size:35px; line-height:20px;'>请您再次阅读实验要求</div></p><br>
    <p><div style='color:white;font-size:25px; line-height:20px;'>请回忆某一个亲密的朋友，你们至少2年前就认识了，并且最近2年经常见面。</div></p>
    <p><div style='color:white;font-size:25px; line-height:20px;'>在本实验中，您将会看到一些形容词。</div></p>
    <p><div style='color:yellow;font-size:25px; line-height:20px;'>您的任务是判断这些形容词是否符合对您自己或您的朋友的描述。</div></p>
    <p><div class='footer' style='font-size:25px; line-height:20px;'>如果对本实验还有不清楚之处，请立即向实验员咨询。</p><p style='font-size:25px; line-height:20px;'>如果您明白了规则：</p><p style='font-size:22px; line-height:20px;'>请按 继续 进入正式实验</p>
    </div>
    <p style='font-size:35px'>符合按<span style=""color:lightgreen""> j 键</span>，不符合按<span style=""color:red""> f 键</span></p>","0","html-button-response","13","127599","0.0-7.0-2.0","6","5","6","5","4","5","3","5","4","5","5","2","-1","0","1","-1","0","1","1","5","5","5","2","4","4","4","4","5","3","5","6","5","7","3","5","6","5","5","5","2","2","6","2","3","5","2","4","3","1","6","3","6","2","2","5","2","5","4","3","2","7","3","3","3","7","4","6","6","7","6","6","7","3","4","5","6","5","3","5","701209824037175296","潘","159","Female","[""好她"",""坏我"",""坏她"",""好我""]","[""强她"",""弱我"",""弱她"",""强我""]","","","","","","","","","","","","","","","","","SRET_EW","prac_instructions","Fri Jan 19 2024 15:37:53 GMT+0800 (中国标准时间)","","","","","","","","","","","","","","","","","","","",""
"1117","","j","psychophysics","14","129718","0.0-7.0-3.0-0.0","6","5","6","5","4","5","3","5","4","5","5","2","-1","0","1","-1","0","1","1","5","5","5","2","4","4","4","4","5","3","5","6","5","7","3","5","6","5","5","5","2","2","6","2","3","5","2","4","3","1","6","3","6","2","2","5","2","5","4","3","2","7","3","3","3","7","4","6","6","7","6","6","7","3","4","5","6","5","3","5","701209824037175296","潘","159","Female","[""好她"",""坏我"",""坏她"",""好我""]","[""强她"",""弱我"",""弱她"",""强我""]","","","","","","","","yes","","","","","","","","","SRET","EW_formal","","key","j","16.6643543307086","640","356","朋友","迷糊","Negative","ability","","","","","","","","","","",""
"822","","j","psychophysics","15","131545","0.0-7.0-3.0-0.1","6","5","6","5","4","5","3","5","4","5","5","2","-1","0","1","-1","0","1","1","5","5","5","2","4","4","4","4","5","3","5","6","5","7","3","5","6","5","5","5","2","2","6","2","3","5","2","4","3","1","6","3","6","2","2","5","2","5","4","3","2","7","3","3","3","7","4","6","6","7","6","6","7","3","4","5","6","5","3","5","701209824037175296","潘","159","Female","[""好她"",""坏我"",""坏她"",""好我""]","[""强她"",""弱我"",""弱她"",""强我""]","","","","","","","","yes","","","","","","","","","SRET","EW_formal","","key","j","16.66462962962962","640","356","自己","坚贞","Positive","morality","","","","","","","","","","",""
"686","","j","psychophysics","16","133235","0.0-7.0-3.0-0.2","6","5","6","5","4","5","3","5","4","5","5","2","-1","0","1","-1","0","1","1","5","5","5","2","4","4","4","4","5","3","5","6","5","7","3","5","6","5","5","5","2","2","6","2","3","5","2","4","3","1","6","3","6","2","2","5","2","5","4","3","2","7","3","3","3","7","4","6","6","7","6","6","7","3","4","5","6","5","3","5","701209824037175296","潘","159","Female","[""好她"",""坏我"",""坏她"",""好我""]","[""强她"",""弱我"",""弱她"",""强我""]","","","","","","","","yes","","","","","","","","","SRET","EW_formal","","key","j","16.664198019802004","640","356","朋友","务实","Positive","ability","","","","","","","","","","",""
"1205","","f","psychophysics","17","135441","0.0-7.0-3.0-0.3","6","5","6","5","4","5","3","5","4","5","5","2","-1","0","1","-1","0","1","1","5","5","5","2","4","4","4","4","5","3","5","6","5","7","3","5","6","5","5","5","2","2","6","2","3","5","2","4","3","1","6","3","6","2","2","5","2","5","4","3","2","7","3","3","3","7","4","6","6","7","6","6","7","3","4","5","6","5","3","5","701209824037175296","潘","159","Female","[""好她"",""坏我"",""坏她"",""好我""]","[""强她"",""弱我"",""弱她"",""强我""]","","","","","","","","no","","","","","","","","","SRET","EW_formal","","key","f","16.664290076335856","640","356","自己","说谎","Negative","morality","","","","","","","","","","",""
"768","","j","psychophysics","18","137212","0.0-7.0-3.0-0.4","6","5","6","5","4","5","3","5","4","5","5","2","-1","0","1","-1","0","1","1","5","5","5","2","4","4","4","4","5","3","5","6","5","7","3","5","6","5","5","5","2","2","6","2","3","5","2","4","3","1","6","3","6","2","2","5","2","5","4","3","2","7","3","3","3","7","4","6","6","7","6","6","7","3","4","5","6","5","3","5","701209824037175296","潘","159","Female","[""好她"",""坏我"",""坏她"",""好我""]","[""强她"",""弱我"",""弱她"",""强我""]","","","","","","","","yes","","","","","","","","","SRET","EW_formal","","key","j","16.66448571428579","640","356","自己","粗心","Negative","ability","","","","","","","","","","",""
"1219","","j","psychophysics","19","139434","0.0-7.0-3.0-0.5","6","5","6","5","4","5","3","5","4","5","5","2","-1","0","1","-1","0","1","1","5","5","5","2","4","4","4","4","5","3","5","6","5","7","3","5","6","5","5","5","2","2","6","2","3","5","2","4","3","1","6","3","6","2","2","5","2","5","4","3","2","7","3","3","3","7","4","6","6","7","6","6","7","3","4","5","6","5","3","5","701209824037175296","潘","159","Female","[""好她"",""坏我"",""坏她"",""好我""]","[""强她"",""弱我"",""弱她"",""强我""]","","","","","","","","yes","","","","","","","","","SRET","EW_formal","","key","j","16.664248120300762","640","356","朋友","高洁","Positive","morality","","","","","","","","","","",""
"766","","f","psychophysics","20","141202","0.0-7.0-3.0-0.6","6","5","6","5","4","5","3","5","4","5","5","2","-1","0","1","-1","0","1","1","5","5","5","2","4","4","4","4","5","3","5","6","5","7","3","5","6","5","5","5","2","2","6","2","3","5","2","4","3","1","6","3","6","2","2","5","2","5","4","3","2","7","3","3","3","7","4","6","6","7","6","6","7","3","4","5","6","5","3","5","701209824037175296","潘","159","Female","[""好她"",""坏我"",""坏她"",""好我""]","[""强她"",""弱我"",""弱她"",""强我""]","","","","","","","","no","","","","","","","","","SRET","EW_formal","","key","f","16.66456190476172","640","356","朋友","不良","Negative","morality","","","","","","","","","","",""
"730","","j","psychophysics","21","142934","0.0-7.0-3.0-0.7","6","5","6","5","4","5","3","5","4","5","5","2","-1","0","1","-1","0","1","1","5","5","5","2","4","4","4","4","5","3","5","6","5","7","3","5","6","5","5","5","2","2","6","2","3","5","2","4","3","1","6","3","6","2","2","5","2","5","4","3","2","7","3","3","3","7","4","6","6","7","6","6","7","3","4","5","6","5","3","5","701209824037175296","潘","159","Female","[""好她"",""坏我"",""坏她"",""好我""]","[""强她"",""弱我"",""弱她"",""强我""]","","","","","","","","yes","","","","","","","","","SRET","EW_formal","","key","j","16.664999999999957","640","356","朋友","稳健","Positive","ability","","","","","","","","","","",""
"612","","j","psychophysics","22","144549","0.0-7.0-3.0-0.8","6","5","6","5","4","5","3","5","4","5","5","2","-1","0","1","-1","0","1","1","5","5","5","2","4","4","4","4","5","3","5","6","5","7","3","5","6","5","5","5","2","2","6","2","3","5","2","4","3","1","6","3","6","2","2","5","2","5","4","3","2","7","3","3","3","7","4","6","6","7","6","6","7","3","4","5","6","5","3","5","701209824037175296","潘","159","Female","[""好她"",""坏我"",""坏她"",""好我""]","[""强她"",""弱我"",""弱她"",""强我""]","","","","","","","","yes","","","","","","","","","SRET","EW_formal","","key","j","21.330439999999943","640","356","朋友","智慧","Positive","ability","","","","","","","","","","",""
"630","","j","psychophysics","23","146183","0.0-7.0-3.0-0.9","6","5","6","5","4","5","3","5","4","5","5","2","-1","0","1","-1","0","1","1","5","5","5","2","4","4","4","4","5","3","5","6","5","7","3","5","6","5","5","5","2","2","6","2","3","5","2","4","3","1","6","3","6","2","2","5","2","5","4","3","2","7","3","3","3","7","4","6","6","7","6","6","7","3","4","5","6","5","3","5","701209824037175296","潘","159","Female","[""好她"",""坏我"",""坏她"",""好我""]","[""强她"",""弱我"",""弱她"",""强我""]","","","","","","","","yes","","","","","","","","","SRET","EW_formal","","key","j","16.665659793814314","640","356","朋友","中用","Positive","ability","","","","","","","","","","",""
"656","","f","psychophysics","24","147841","0.0-7.0-3.0-0.10","6","5","6","5","4","5","3","5","4","5","5","2","-1","0","1","-1","0","1","1","5","5","5","2","4","4","4","4","5","3","5","6","5","7","3","5","6","5","5","5","2","2","6","2","3","5","2","4","3","1","6","3","6","2","2","5","2","5","4","3","2","7","3","3","3","7","4","6","6","7","6","6","7","3","4","5","6","5","3","5","701209824037175296","潘","159","Female","[""好她"",""坏我"",""坏她"",""好我""]","[""强她"",""弱我"",""弱她"",""强我""]","","","","","","","","no","","","","","","","","","SRET","EW_formal","","key","f","16.66441836734706","640","356","自己","业余","Negative","ability","","","","","","","","","","",""
"799","","f","psychophysics","25","149642","0.0-7.0-3.0-0.11","6","5","6","5","4","5","3","5","4","5","5","2","-1","0","1","-1","0","1","1","5","5","5","2","4","4","4","4","5","3","5","6","5","7","3","5","6","5","5","5","2","2","6","2","3","5","2","4","3","1","6","3","6","2","2","5","2","5","4","3","2","7","3","3","3","7","4","6","6","7","6","6","7","3","4","5","6","5","3","5","701209824037175296","潘","159","Female","[""好她"",""坏我"",""坏她"",""好我""]","[""强她"",""弱我"",""弱她"",""强我""]","","","","","","","","no","","","","","","","","","SRET","EW_formal","","key","f","16.664448598131024","640","356","朋友","愚蠢","Negative","ability","","","","","","","","","","",""
"771","","j","psychophysics","26","151415","0.0-7.0-3.0-0.12","6","5","6","5","4","5","3","5","4","5","5","2","-1","0","1","-1","0","1","1","5","5","5","2","4","4","4","4","5","3","5","6","5","7","3","5","6","5","5","5","2","2","6","2","3","5","2","4","3","1","6","3","6","2","2","5","2","5","4","3","2","7","3","3","3","7","4","6","6","7","6","6","7","3","4","5","6","5","3","5","701209824037175296","潘","159","Female","[""好她"",""坏我"",""坏她"",""好我""]","[""强她"",""弱我"",""弱她"",""强我""]","","","","","","","","yes","","","","","","","","","SRET","EW_formal","","key","j","16.66430188679243","640","356","朋友","高效","Positive","ability","","","","","","","","","","",""
"704","","j","psychophysics","27","153120","0.0-7.0-3.0-0.13","6","5","6","5","4","5","3","5","4","5","5","2","-1","0","1","-1","0","1","1","5","5","5","2","4","4","4","4","5","3","5","6","5","7","3","5","6","5","5","5","2","2","6","2","3","5","2","4","3","1","6","3","6","2","2","5","2","5","4","3","2","7","3","3","3","7","4","6","6","7","6","6","7","3","4","5","6","5","3","5","701209824037175296","潘","159","Female","[""好她"",""坏我"",""坏她"",""好我""]","[""强她"",""弱我"",""弱她"",""强我""]","","","","","","","","yes","","","","","","","","","SRET","EW_formal","","key","j","16.665138613861423","640","356","自己","仁爱","Positive","morality","","","","","","","","","","",""
"1509","","f","psychophysics","28","155630","0.0-7.0-3.0-0.14","6","5","6","5","4","5","3","5","4","5","5","2","-1","0","1","-1","0","1","1","5","5","5","2","4","4","4","4","5","3","5","6","5","7","3","5","6","5","5","5","2","2","6","2","3","5","2","4","3","1","6","3","6","2","2","5","2","5","4","3","2","7","3","3","3","7","4","6","6","7","6","6","7","3","4","5","6","5","3","5","701209824037175296","潘","159","Female","[""好她"",""坏我"",""坏她"",""好我""]","[""强她"",""弱我"",""弱她"",""强我""]","","","","","","","","no","","","","","","","","","SRET","EW_formal","","key","f","16.665033333333366","640","356","朋友","迟钝","Negative","ability","","","","","","","","","","",""
"676","","f","psychophysics","29","157308","0.0-7.0-3.0-0.15","6","5","6","5","4","5","3","5","4","5","5","2","-1","0","1","-1","0","1","1","5","5","5","2","4","4","4","4","5","3","5","6","5","7","3","5","6","5","5","5","2","2","6","2","3","5","2","4","3","1","6","3","6","2","2","5","2","5","4","3","2","7","3","3","3","7","4","6","6","7","6","6","7","3","4","5","6","5","3","5","701209824037175296","潘","159","Female","[""好她"",""坏我"",""坏她"",""好我""]","[""强她"",""弱我"",""弱她"",""强我""]","","","","","","","","no","","","","","","","","","SRET","EW_formal","","key","f","16.664303030303063","640","356","朋友","虚伪","Negative","morality","","","","","","","","","","",""
"729","","j","psychophysics","30","159038","0.0-7.0-3.0-0.16","6","5","6","5","4","5","3","5","4","5","5","2","-1","0","1","-1","0","1","1","5","5","5","2","4","4","4","4","5","3","5","6","5","7","3","5","6","5","5","5","2","2","6","2","3","5","2","4","3","1","6","3","6","2","2","5","2","5","4","3","2","7","3","3","3","7","4","6","6","7","6","6","7","3","4","5","6","5","3","5","701209824037175296","潘","159","Female","[""好她"",""坏我"",""坏她"",""好我""]","[""强她"",""弱我"",""弱她"",""强我""]","","","","","","","","yes","","","","","","","","","SRET","EW_formal","","key","j","16.66483495145634","640","356","自己","敏捷","Positive","ability","","","","","","","","","","",""
"null","","null","psychophysics","31","162042","0.0-7.0-3.0-0.17","6","5","6","5","4","5","3","5","4","5","5","2","-1","0","1","-1","0","1","1","5","5","5","2","4","4","4","4","5","3","5","6","5","7","3","5","6","5","5","5","2","2","6","2","3","5","2","4","3","1","6","3","6","2","2","5","2","5","4","3","2","7","3","3","3","7","4","6","6","7","6","6","7","3","4","5","6","5","3","5","701209824037175296","潘","159","Female","[""好她"",""坏我"",""坏她"",""好我""]","[""强她"",""弱我"",""弱她"",""强我""]","","","","","","","","","","","","","","","","","SRET","EW_formal","","key","null","16.66491620111726","640","356","自己","怠惰","Negative","ability","","","","","","","","","","",""
"603","","f","psychophysics","32","163649","0.0-7.0-3.0-0.18","6","5","6","5","4","5","3","5","4","5","5","2","-1","0","1","-1","0","1","1","5","5","5","2","4","4","4","4","5","3","5","6","5","7","3","5","6","5","5","5","2","2","6","2","3","5","2","4","3","1","6","3","6","2","2","5","2","5","4","3","2","7","3","3","3","7","4","6","6","7","6","6","7","3","4","5","6","5","3","5","701209824037175296","潘","159","Female","[""好她"",""坏我"",""坏她"",""好我""]","[""强她"",""弱我"",""弱她"",""强我""]","","","","","","","","no","","","","","","","","","SRET","EW_formal","","key","f","16.664343750000018","640","356","朋友","下流","Negative","morality","","","","","","","","","","",""
"729","","f","psychophysics","33","165381","0.0-7.0-3.0-0.19","6","5","6","5","4","5","3","5","4","5","5","2","-1","0","1","-1","0","1","1","5","5","5","2","4","4","4","4","5","3","5","6","5","7","3","5","6","5","5","5","2","2","6","2","3","5","2","4","3","1","6","3","6","2","2","5","2","5","4","3","2","7","3","3","3","7","4","6","6","7","6","6","7","3","4","5","6","5","3","5","701209824037175296","潘","159","Female","[""好她"",""坏我"",""坏她"",""好我""]","[""强她"",""弱我"",""弱她"",""强我""]","","","","","","","","no","","","","","","","","","SRET","EW_formal","","key","f","16.664320388349683","640","356","自己","庸碌","Negative","ability","","","","","","","","","","",""
"686","","f","psychophysics","34","167070","0.0-7.0-3.0-0.20","6","5","6","5","4","5","3","5","4","5","5","2","-1","0","1","-1","0","1","1","5","5","5","2","4","4","4","4","5","3","5","6","5","7","3","5","6","5","5","5","2","2","6","2","3","5","2","4","3","1","6","3","6","2","2","5","2","5","4","3","2","7","3","3","3","7","4","6","6","7","6","6","7","3","4","5","6","5","3","5","701209824037175296","潘","159","Female","[""好她"",""坏我"",""坏她"",""好我""]","[""强她"",""弱我"",""弱她"",""强我""]","","","","","","","","no","","","","","","","","","SRET","EW_formal","","key","f","16.664189999999945","640","356","朋友","刻薄","Negative","morality","","","","","","","","","","",""
"754","","f","psychophysics","35","168825","0.0-7.0-3.0-0.21","6","5","6","5","4","5","3","5","4","5","5","2","-1","0","1","-1","0","1","1","5","5","5","2","4","4","4","4","5","3","5","6","5","7","3","5","6","5","5","5","2","2","6","2","3","5","2","4","3","1","6","3","6","2","2","5","2","5","4","3","2","7","3","3","3","7","4","6","6","7","6","6","7","3","4","5","6","5","3","5","701209824037175296","潘","159","Female","[""好她"",""坏我"",""坏她"",""好我""]","[""强她"",""弱我"",""弱她"",""强我""]","","","","","","","","no","","","","","","","","","SRET","EW_formal","","key","f","16.664826923077133","640","356","朋友","无助","Negative","ability","","","","","","","","","","",""
"747","","j","psychophysics","36","170577","0.0-7.0-3.0-0.22","6","5","6","5","4","5","3","5","4","5","5","2","-1","0","1","-1","0","1","1","5","5","5","2","4","4","4","4","5","3","5","6","5","7","3","5","6","5","5","5","2","2","6","2","3","5","2","4","3","1","6","3","6","2","2","5","2","5","4","3","2","7","3","3","3","7","4","6","6","7","6","6","7","3","4","5","6","5","3","5","701209824037175296","潘","159","Female","[""好她"",""坏我"",""坏她"",""好我""]","[""强她"",""弱我"",""弱她"",""强我""]","","","","","","","","yes","","","","","","","","","SRET","EW_formal","","key","j","16.664519230769375","640","356","朋友","义气","Positive","morality","","","","","","","","","","",""
"547","","j","psychophysics","37","172128","0.0-7.0-3.0-0.23","6","5","6","5","4","5","3","5","4","5","5","2","-1","0","1","-1","0","1","1","5","5","5","2","4","4","4","4","5","3","5","6","5","7","3","5","6","5","5","5","2","2","6","2","3","5","2","4","3","1","6","3","6","2","2","5","2","5","4","3","2","7","3","3","3","7","4","6","6","7","6","6","7","3","4","5","6","5","3","5","701209824037175296","潘","159","Female","[""好她"",""坏我"",""坏她"",""好我""]","[""强她"",""弱我"",""弱她"",""强我""]","","","","","","","","yes","","","","","","","","","SRET","EW_formal","","key","j","16.664322580644917","640","356","自己","敬业","Positive","morality","","","","","","","","","","",""
"725","","f","psychophysics","38","173856","0.0-7.0-3.0-0.24","6","5","6","5","4","5","3","5","4","5","5","2","-1","0","1","-1","0","1","1","5","5","5","2","4","4","4","4","5","3","5","6","5","7","3","5","6","5","5","5","2","2","6","2","3","5","2","4","3","1","6","3","6","2","2","5","2","5","4","3","2","7","3","3","3","7","4","6","6","7","6","6","7","3","4","5","6","5","3","5","701209824037175296","潘","159","Female","[""好她"",""坏我"",""坏她"",""好我""]","[""强她"",""弱我"",""弱她"",""强我""]","","","","","","","","no","","","","","","","","","SRET","EW_formal","","key","f","16.66407843137259","640","356","朋友","屈才","Negative","ability","","","","","","","","","","",""
"714","","f","psychophysics","39","175572","0.0-7.0-3.0-0.25","6","5","6","5","4","5","3","5","4","5","5","2","-1","0","1","-1","0","1","1","5","5","5","2","4","4","4","4","5","3","5","6","5","7","3","5","6","5","5","5","2","2","6","2","3","5","2","4","3","1","6","3","6","2","2","5","2","5","4","3","2","7","3","3","3","7","4","6","6","7","6","6","7","3","4","5","6","5","3","5","701209824037175296","潘","159","Female","[""好她"",""坏我"",""坏她"",""好我""]","[""强她"",""弱我"",""弱她"",""强我""]","","","","","","","","no","","","","","","","","","SRET","EW_formal","","key","f","16.664578431372657","640","356","自己","笨蛋","Negative","ability","","","","","","","","","","",""
"608","","j","psychophysics","40","177182","0.0-7.0-3.0-0.26","6","5","6","5","4","5","3","5","4","5","5","2","-1","0","1","-1","0","1","1","5","5","5","2","4","4","4","4","5","3","5","6","5","7","3","5","6","5","5","5","2","2","6","2","3","5","2","4","3","1","6","3","6","2","2","5","2","5","4","3","2","7","3","3","3","7","4","6","6","7","6","6","7","3","4","5","6","5","3","5","701209824037175296","潘","159","Female","[""好她"",""坏我"",""坏她"",""好我""]","[""强她"",""弱我"",""弱她"",""强我""]","","","","","","","","yes","","","","","","","","","SRET","EW_formal","","key","j","16.664572916666657","640","356","朋友","君子","Positive","morality","","","","","","","","","","",""
"588","","f","psychophysics","41","178772","0.0-7.0-3.0-0.27","6","5","6","5","4","5","3","5","4","5","5","2","-1","0","1","-1","0","1","1","5","5","5","2","4","4","4","4","5","3","5","6","5","7","3","5","6","5","5","5","2","2","6","2","3","5","2","4","3","1","6","3","6","2","2","5","2","5","4","3","2","7","3","3","3","7","4","6","6","7","6","6","7","3","4","5","6","5","3","5","701209824037175296","潘","159","Female","[""好她"",""坏我"",""坏她"",""好我""]","[""强她"",""弱我"",""弱她"",""强我""]","","","","","","","","no","","","","","","","","","SRET","EW_formal","","key","f","16.665404255318943","640","356","朋友","奸诈","Negative","morality","","","","","","","","","","",""
"615","","f","psychophysics","42","180389","0.0-7.0-3.0-0.28","6","5","6","5","4","5","3","5","4","5","5","2","-1","0","1","-1","0","1","1","5","5","5","2","4","4","4","4","5","3","5","6","5","7","3","5","6","5","5","5","2","2","6","2","3","5","2","4","3","1","6","3","6","2","2","5","2","5","4","3","2","7","3","3","3","7","4","6","6","7","6","6","7","3","4","5","6","5","3","5","701209824037175296","潘","159","Female","[""好她"",""坏我"",""坏她"",""好我""]","[""强她"",""弱我"",""弱她"",""强我""]","","","","","","","","no","","","","","","","","","SRET","EW_formal","","key","f","16.669687500000084","640","356","自己","蛇蝎","Negative","morality","","","","","","","","","","",""
"785","","f","psychophysics","43","182179","0.0-7.0-3.0-0.29","6","5","6","5","4","5","3","5","4","5","5","2","-1","0","1","-1","0","1","1","5","5","5","2","4","4","4","4","5","3","5","6","5","7","3","5","6","5","5","5","2","2","6","2","3","5","2","4","3","1","6","3","6","2","2","5","2","5","4","3","2","7","3","3","3","7","4","6","6","7","6","6","7","3","4","5","6","5","3","5","701209824037175296","潘","159","Female","[""好她"",""坏我"",""坏她"",""好我""]","[""强她"",""弱我"",""弱她"",""强我""]","","","","","","","","no","","","","","","","","","SRET","EW_formal","","key","f","16.664065420560956","640","356","朋友","无私","Positive","morality","","","","","","","","","","",""
"764","","f","psychophysics","44","183945","0.0-7.0-3.0-0.30","6","5","6","5","4","5","3","5","4","5","5","2","-1","0","1","-1","0","1","1","5","5","5","2","4","4","4","4","5","3","5","6","5","7","3","5","6","5","5","5","2","2","6","2","3","5","2","4","3","1","6","3","6","2","2","5","2","5","4","3","2","7","3","3","3","7","4","6","6","7","6","6","7","3","4","5","6","5","3","5","701209824037175296","潘","159","Female","[""好她"",""坏我"",""坏她"",""好我""]","[""强她"",""弱我"",""弱她"",""强我""]","","","","","","","","no","","","","","","","","","SRET","EW_formal","","key","f","16.664571428571417","640","356","朋友","短视","Negative","ability","","","","","","","","","","",""
"742","","j","psychophysics","45","185689","0.0-7.0-3.0-0.31","6","5","6","5","4","5","3","5","4","5","5","2","-1","0","1","-1","0","1","1","5","5","5","2","4","4","4","4","5","3","5","6","5","7","3","5","6","5","5","5","2","2","6","2","3","5","2","4","3","1","6","3","6","2","2","5","2","5","4","3","2","7","3","3","3","7","4","6","6","7","6","6","7","3","4","5","6","5","3","5","701209824037175296","潘","159","Female","[""好她"",""坏我"",""坏她"",""好我""]","[""强她"",""弱我"",""弱她"",""强我""]","","","","","","","","yes","","","","","","","","","SRET","EW_formal","","key","j","16.66458252427175","640","356","自己","果断","Positive","ability","","","","","","","","","","",""
"951","","j","psychophysics","46","187643","0.0-7.0-3.0-0.32","6","5","6","5","4","5","3","5","4","5","5","2","-1","0","1","-1","0","1","1","5","5","5","2","4","4","4","4","5","3","5","6","5","7","3","5","6","5","5","5","2","2","6","2","3","5","2","4","3","1","6","3","6","2","2","5","2","5","4","3","2","7","3","3","3","7","4","6","6","7","6","6","7","3","4","5","6","5","3","5","701209824037175296","潘","159","Female","[""好她"",""坏我"",""坏她"",""好我""]","[""强她"",""弱我"",""弱她"",""强我""]","","","","","","","","yes","","","","","","","","","SRET","EW_formal","","key","j","16.664666666666694","640","356","自己","刻苦","Positive","ability","","","","","","","","","","",""
"531","","j","psychophysics","47","189177","0.0-7.0-3.0-0.33","6","5","6","5","4","5","3","5","4","5","5","2","-1","0","1","-1","0","1","1","5","5","5","2","4","4","4","4","5","3","5","6","5","7","3","5","6","5","5","5","2","2","6","2","3","5","2","4","3","1","6","3","6","2","2","5","2","5","4","3","2","7","3","3","3","7","4","6","6","7","6","6","7","3","4","5","6","5","3","5","701209824037175296","潘","159","Female","[""好她"",""坏我"",""坏她"",""好我""]","[""强她"",""弱我"",""弱她"",""强我""]","","","","","","","","yes","","","","","","","","","SRET","EW_formal","","key","j","19.19750632911396","640","356","自己","有力","Positive","ability","","","","","","","","","","",""
"548","","j","psychophysics","48","190727","0.0-7.0-3.0-0.34","6","5","6","5","4","5","3","5","4","5","5","2","-1","0","1","-1","0","1","1","5","5","5","2","4","4","4","4","5","3","5","6","5","7","3","5","6","5","5","5","2","2","6","2","3","5","2","4","3","1","6","3","6","2","2","5","2","5","4","3","2","7","3","3","3","7","4","6","6","7","6","6","7","3","4","5","6","5","3","5","701209824037175296","潘","159","Female","[""好她"",""坏我"",""坏她"",""好我""]","[""强她"",""弱我"",""弱她"",""强我""]","","","","","","","","yes","","","","","","","","","SRET","EW_formal","","key","j","16.66425000000005","640","356","自己","忠良","Positive","morality","","","","","","","","","","",""
"546","","j","psychophysics","49","192275","0.0-7.0-3.0-0.35","6","5","6","5","4","5","3","5","4","5","5","2","-1","0","1","-1","0","1","1","5","5","5","2","4","4","4","4","5","3","5","6","5","7","3","5","6","5","5","5","2","2","6","2","3","5","2","4","3","1","6","3","6","2","2","5","2","5","4","3","2","7","3","3","3","7","4","6","6","7","6","6","7","3","4","5","6","5","3","5","701209824037175296","潘","159","Female","[""好她"",""坏我"",""坏她"",""好我""]","[""强她"",""弱我"",""弱她"",""强我""]","","","","","","","","yes","","","","","","","","","SRET","EW_formal","","key","j","16.66456521739114","640","356","朋友","全才","Positive","ability","","","","","","","","","","",""
"949","","j","psychophysics","50","194225","0.0-7.0-3.0-0.36","6","5","6","5","4","5","3","5","4","5","5","2","-1","0","1","-1","0","1","1","5","5","5","2","4","4","4","4","5","3","5","6","5","7","3","5","6","5","5","5","2","2","6","2","3","5","2","4","3","1","6","3","6","2","2","5","2","5","4","3","2","7","3","3","3","7","4","6","6","7","6","6","7","3","4","5","6","5","3","5","701209824037175296","潘","159","Female","[""好她"",""坏我"",""坏她"",""好我""]","[""强她"",""弱我"",""弱她"",""强我""]","","","","","","","","yes","","","","","","","","","SRET","EW_formal","","key","j","16.664517241379333","640","356","朋友","逞强","Negative","ability","","","","","","","","","","",""
"704","","j","psychophysics","51","195932","0.0-7.0-3.0-0.37","6","5","6","5","4","5","3","5","4","5","5","2","-1","0","1","-1","0","1","1","5","5","5","2","4","4","4","4","5","3","5","6","5","7","3","5","6","5","5","5","2","2","6","2","3","5","2","4","3","1","6","3","6","2","2","5","2","5","4","3","2","7","3","3","3","7","4","6","6","7","6","6","7","3","4","5","6","5","3","5","701209824037175296","潘","159","Female","[""好她"",""坏我"",""坏她"",""好我""]","[""强她"",""弱我"",""弱她"",""强我""]","","","","","","","","yes","","","","","","","","","SRET","EW_formal","","key","j","16.663851485148506","640","356","自己","干练","Positive","ability","","","","","","","","","","",""
"617","","f","psychophysics","52","197552","0.0-7.0-3.0-0.38","6","5","6","5","4","5","3","5","4","5","5","2","-1","0","1","-1","0","1","1","5","5","5","2","4","4","4","4","5","3","5","6","5","7","3","5","6","5","5","5","2","2","6","2","3","5","2","4","3","1","6","3","6","2","2","5","2","5","4","3","2","7","3","3","3","7","4","6","6","7","6","6","7","3","4","5","6","5","3","5","701209824037175296","潘","159","Female","[""好她"",""坏我"",""坏她"",""好我""]","[""强她"",""弱我"",""弱她"",""强我""]","","","","","","","","no","","","","","","","","","SRET","EW_formal","","key","f","16.66503124999993","640","356","自己","自私","Negative","morality","","","","","","","","","","",""
"938","","f","psychophysics","53","199492","0.0-7.0-3.0-0.39","6","5","6","5","4","5","3","5","4","5","5","2","-1","0","1","-1","0","1","1","5","5","5","2","4","4","4","4","5","3","5","6","5","7","3","5","6","5","5","5","2","2","6","2","3","5","2","4","3","1","6","3","6","2","2","5","2","5","4","3","2","7","3","3","3","7","4","6","6","7","6","6","7","3","4","5","6","5","3","5","701209824037175296","潘","159","Female","[""好她"",""坏我"",""坏她"",""好我""]","[""强她"",""弱我"",""弱她"",""强我""]","","","","","","","","no","","","","","","","","","SRET","EW_formal","","key","f","16.66390517241385","640","356","朋友","慷慨","Positive","morality","","","","","","","","","","",""
"1317","","f","psychophysics","54","201810","0.0-7.0-3.0-0.40","6","5","6","5","4","5","3","5","4","5","5","2","-1","0","1","-1","0","1","1","5","5","5","2","4","4","4","4","5","3","5","6","5","7","3","5","6","5","5","5","2","2","6","2","3","5","2","4","3","1","6","3","6","2","2","5","2","5","4","3","2","7","3","3","3","7","4","6","6","7","6","6","7","3","4","5","6","5","3","5","701209824037175296","潘","159","Female","[""好她"",""坏我"",""坏她"",""好我""]","[""强她"",""弱我"",""弱她"",""强我""]","","","","","","","","no","","","","","","","","","SRET","EW_formal","","key","f","16.66420289855075","640","356","朋友","不端","Negative","morality","","","","","","","","","","",""
"846","","j","psychophysics","55","203658","0.0-7.0-3.0-0.41","6","5","6","5","4","5","3","5","4","5","5","2","-1","0","1","-1","0","1","1","5","5","5","2","4","4","4","4","5","3","5","6","5","7","3","5","6","5","5","5","2","2","6","2","3","5","2","4","3","1","6","3","6","2","2","5","2","5","4","3","2","7","3","3","3","7","4","6","6","7","6","6","7","3","4","5","6","5","3","5","701209824037175296","潘","159","Female","[""好她"",""坏我"",""坏她"",""好我""]","[""强她"",""弱我"",""弱她"",""强我""]","","","","","","","","yes","","","","","","","","","SRET","EW_formal","","key","j","16.66479999999997","640","356","自己","爱国","Positive","morality","","","","","","","","","","",""
"755","","j","psychophysics","56","205416","0.0-7.0-3.0-0.42","6","5","6","5","4","5","3","5","4","5","5","2","-1","0","1","-1","0","1","1","5","5","5","2","4","4","4","4","5","3","5","6","5","7","3","5","6","5","5","5","2","2","6","2","3","5","2","4","3","1","6","3","6","2","2","5","2","5","4","3","2","7","3","3","3","7","4","6","6","7","6","6","7","3","4","5","6","5","3","5","701209824037175296","潘","159","Female","[""好她"",""坏我"",""坏她"",""好我""]","[""强她"",""弱我"",""弱她"",""强我""]","","","","","","","","yes","","","","","","","","","SRET","EW_formal","","key","j","16.664509615384585","640","356","朋友","沉着","Positive","ability","","","","","","","","","","",""
"724","","f","psychophysics","57","207142","0.0-7.0-3.0-0.43","6","5","6","5","4","5","3","5","4","5","5","2","-1","0","1","-1","0","1","1","5","5","5","2","4","4","4","4","5","3","5","6","5","7","3","5","6","5","5","5","2","2","6","2","3","5","2","4","3","1","6","3","6","2","2","5","2","5","4","3","2","7","3","3","3","7","4","6","6","7","6","6","7","3","4","5","6","5","3","5","701209824037175296","潘","159","Female","[""好她"",""坏我"",""坏她"",""好我""]","[""强她"",""弱我"",""弱她"",""强我""]","","","","","","","","no","","","","","","","","","SRET","EW_formal","","key","f","16.664902912621223","640","356","自己","拜金","Negative","morality","","","","","","","","","","",""
"869","","j","psychophysics","58","209013","0.0-7.0-3.0-0.44","6","5","6","5","4","5","3","5","4","5","5","2","-1","0","1","-1","0","1","1","5","5","5","2","4","4","4","4","5","3","5","6","5","7","3","5","6","5","5","5","2","2","6","2","3","5","2","4","3","1","6","3","6","2","2","5","2","5","4","3","2","7","3","3","3","7","4","6","6","7","6","6","7","3","4","5","6","5","3","5","701209824037175296","潘","159","Female","[""好她"",""坏我"",""坏她"",""好我""]","[""强她"",""弱我"",""弱她"",""强我""]","","","","","","","","yes","","","","","","","","","SRET","EW_formal","","key","j","16.664180180180328","640","356","自己","博识","Positive","ability","","","","","","","","","","",""
"833","","j","psychophysics","59","210848","0.0-7.0-3.0-0.45","6","5","6","5","4","5","3","5","4","5","5","2","-1","0","1","-1","0","1","1","5","5","5","2","4","4","4","4","5","3","5","6","5","7","3","5","6","5","5","5","2","2","6","2","3","5","2","4","3","1","6","3","6","2","2","5","2","5","4","3","2","7","3","3","3","7","4","6","6","7","6","6","7","3","4","5","6","5","3","5","701209824037175296","潘","159","Female","[""好她"",""坏我"",""坏她"",""好我""]","[""强她"",""弱我"",""弱她"",""强我""]","","","","","","","","yes","","","","","","","","","SRET","EW_formal","","key","j","16.66470642201816","640","356","朋友","慈悲","Positive","morality","","","","","","","","","","",""
"585","","j","psychophysics","60","212436","0.0-7.0-3.0-0.46","6","5","6","5","4","5","3","5","4","5","5","2","-1","0","1","-1","0","1","1","5","5","5","2","4","4","4","4","5","3","5","6","5","7","3","5","6","5","5","5","2","2","6","2","3","5","2","4","3","1","6","3","6","2","2","5","2","5","4","3","2","7","3","3","3","7","4","6","6","7","6","6","7","3","4","5","6","5","3","5","701209824037175296","潘","159","Female","[""好她"",""坏我"",""坏她"",""好我""]","[""强她"",""弱我"",""弱她"",""强我""]","","","","","","","","yes","","","","","","","","","SRET","EW_formal","","key","j","16.664606382978704","640","356","自己","忠勇","Positive","morality","","","","","","","","","","",""
"601","","f","psychophysics","61","214041","0.0-7.0-3.0-0.47","6","5","6","5","4","5","3","5","4","5","5","2","-1","0","1","-1","0","1","1","5","5","5","2","4","4","4","4","5","3","5","6","5","7","3","5","6","5","5","5","2","2","6","2","3","5","2","4","3","1","6","3","6","2","2","5","2","5","4","3","2","7","3","3","3","7","4","6","6","7","6","6","7","3","4","5","6","5","3","5","701209824037175296","潘","159","Female","[""好她"",""坏我"",""坏她"",""好我""]","[""强她"",""弱我"",""弱她"",""强我""]","","","","","","","","no","","","","","","","","","SRET","EW_formal","","key","f","16.66476041666677","640","356","自己","贪污","Negative","morality","","","","","","","","","","",""
"576","","f","psychophysics","62","215618","0.0-7.0-3.0-0.48","6","5","6","5","4","5","3","5","4","5","5","2","-1","0","1","-1","0","1","1","5","5","5","2","4","4","4","4","5","3","5","6","5","7","3","5","6","5","5","5","2","2","6","2","3","5","2","4","3","1","6","3","6","2","2","5","2","5","4","3","2","7","3","3","3","7","4","6","6","7","6","6","7","3","4","5","6","5","3","5","701209824037175296","潘","159","Female","[""好她"",""坏我"",""坏她"",""好我""]","[""强她"",""弱我"",""弱她"",""强我""]","","","","","","","","no","","","","","","","","","SRET","EW_formal","","key","f","16.665430107526984","640","356","朋友","歹毒","Negative","morality","","","","","","","","","","",""
"546","","j","psychophysics","63","217169","0.0-7.0-3.0-0.49","6","5","6","5","4","5","3","5","4","5","5","2","-1","0","1","-1","0","1","1","5","5","5","2","4","4","4","4","5","3","5","6","5","7","3","5","6","5","5","5","2","2","6","2","3","5","2","4","3","1","6","3","6","2","2","5","2","5","4","3","2","7","3","3","3","7","4","6","6","7","6","6","7","3","4","5","6","5","3","5","701209824037175296","潘","159","Female","[""好她"",""坏我"",""坏她"",""好我""]","[""强她"",""弱我"",""弱她"",""强我""]","","","","","","","","yes","","","","","","","","","SRET","EW_formal","","key","j","16.664902173913067","640","356","朋友","仗义","Positive","morality","","","","","","","","","","",""
"541","","j","psychophysics","64","218713","0.0-7.0-3.0-0.50","6","5","6","5","4","5","3","5","4","5","5","2","-1","0","1","-1","0","1","1","5","5","5","2","4","4","4","4","5","3","5","6","5","7","3","5","6","5","5","5","2","2","6","2","3","5","2","4","3","1","6","3","6","2","2","5","2","5","4","3","2","7","3","3","3","7","4","6","6","7","6","6","7","3","4","5","6","5","3","5","701209824037175296","潘","159","Female","[""好她"",""坏我"",""坏她"",""好我""]","[""强她"",""弱我"",""弱她"",""强我""]","","","","","","","","yes","","","","","","","","","SRET","EW_formal","","key","j","16.664239130434947","640","356","自己","善良","Positive","morality","","","","","","","","","","",""
"618","","f","psychophysics","65","220334","0.0-7.0-3.0-0.51","6","5","6","5","4","5","3","5","4","5","5","2","-1","0","1","-1","0","1","1","5","5","5","2","4","4","4","4","5","3","5","6","5","7","3","5","6","5","5","5","2","2","6","2","3","5","2","4","3","1","6","3","6","2","2","5","2","5","4","3","2","7","3","3","3","7","4","6","6","7","6","6","7","3","4","5","6","5","3","5","701209824037175296","潘","159","Female","[""好她"",""坏我"",""坏她"",""好我""]","[""强她"",""弱我"",""弱她"",""强我""]","","","","","","","","no","","","","","","","","","SRET","EW_formal","","key","f","16.668104166666733","640","356","朋友","腐败","Negative","morality","","","","","","","","","","",""
"610","","f","psychophysics","66","221947","0.0-7.0-3.0-0.52","6","5","6","5","4","5","3","5","4","5","5","2","-1","0","1","-1","0","1","1","5","5","5","2","4","4","4","4","5","3","5","6","5","7","3","5","6","5","5","5","2","2","6","2","3","5","2","4","3","1","6","3","6","2","2","5","2","5","4","3","2","7","3","3","3","7","4","6","6","7","6","6","7","3","4","5","6","5","3","5","701209824037175296","潘","159","Female","[""好她"",""坏我"",""坏她"",""好我""]","[""强她"",""弱我"",""弱她"",""强我""]","","","","","","","","no","","","","","","","","","SRET","EW_formal","","key","f","16.66445833333334","640","356","朋友","势利","Negative","morality","","","","","","","","","","",""
"929","","j","psychophysics","67","223878","0.0-7.0-3.0-0.53","6","5","6","5","4","5","3","5","4","5","5","2","-1","0","1","-1","0","1","1","5","5","5","2","4","4","4","4","5","3","5","6","5","7","3","5","6","5","5","5","2","2","6","2","3","5","2","4","3","1","6","3","6","2","2","5","2","5","4","3","2","7","3","3","3","7","4","6","6","7","6","6","7","3","4","5","6","5","3","5","701209824037175296","潘","159","Female","[""好她"",""坏我"",""坏她"",""好我""]","[""强她"",""弱我"",""弱她"",""强我""]","","","","","","","","yes","","","","","","","","","SRET","EW_formal","","key","j","16.665026086956544","640","356","自己","毅力","Positive","ability","","","","","","","","","","",""
"625","","f","psychophysics","68","225505","0.0-7.0-3.0-0.54","6","5","6","5","4","5","3","5","4","5","5","2","-1","0","1","-1","0","1","1","5","5","5","2","4","4","4","4","5","3","5","6","5","7","3","5","6","5","5","5","2","2","6","2","3","5","2","4","3","1","6","3","6","2","2","5","2","5","4","3","2","7","3","3","3","7","4","6","6","7","6","6","7","3","4","5","6","5","3","5","701209824037175296","潘","159","Female","[""好她"",""坏我"",""坏她"",""好我""]","[""强她"",""弱我"",""弱她"",""强我""]","","","","","","","","no","","","","","","","","","SRET","EW_formal","","key","f","16.664804123711384","640","356","自己","恶劣","Negative","morality","","","","","","","","","","",""
"591","","f","psychophysics","69","227098","0.0-7.0-3.0-0.55","6","5","6","5","4","5","3","5","4","5","5","2","-1","0","1","-1","0","1","1","5","5","5","2","4","4","4","4","5","3","5","6","5","7","3","5","6","5","5","5","2","2","6","2","3","5","2","4","3","1","6","3","6","2","2","5","2","5","4","3","2","7","3","3","3","7","4","6","6","7","6","6","7","3","4","5","6","5","3","5","701209824037175296","潘","159","Female","[""好她"",""坏我"",""坏她"",""好我""]","[""强她"",""弱我"",""弱她"",""强我""]","","","","","","","","no","","","","","","","","","SRET","EW_formal","","key","f","16.66406382978745","640","356","自己","废物","Negative","ability","","","","","","","","","","",""
"662","","j","psychophysics","70","228763","0.0-7.0-3.0-0.56","6","5","6","5","4","5","3","5","4","5","5","2","-1","0","1","-1","0","1","1","5","5","5","2","4","4","4","4","5","3","5","6","5","7","3","5","6","5","5","5","2","2","6","2","3","5","2","4","3","1","6","3","6","2","2","5","2","5","4","3","2","7","3","3","3","7","4","6","6","7","6","6","7","3","4","5","6","5","3","5","701209824037175296","潘","159","Female","[""好她"",""坏我"",""坏她"",""好我""]","[""强她"",""弱我"",""弱她"",""强我""]","","","","","","","","yes","","","","","","","","","SRET","EW_formal","","key","j","16.664989898989926","640","356","自己","专注","Positive","ability","","","","","","","","","","",""
"509","","j","psychophysics","71","230273","0.0-7.0-3.0-0.57","6","5","6","5","4","5","3","5","4","5","5","2","-1","0","1","-1","0","1","1","5","5","5","2","4","4","4","4","5","3","5","6","5","7","3","5","6","5","5","5","2","2","6","2","3","5","2","4","3","1","6","3","6","2","2","5","2","5","4","3","2","7","3","3","3","7","4","6","6","7","6","6","7","3","4","5","6","5","3","5","701209824037175296","潘","159","Female","[""好她"",""坏我"",""坏她"",""好我""]","[""强她"",""弱我"",""弱她"",""强我""]","","","","","","","","yes","","","","","","","","","SRET","EW_formal","","key","j","16.670844444444647","640","356","朋友","坚持","Positive","ability","","","","","","","","","","",""
"534","","j","psychophysics","72","231808","0.0-7.0-3.0-0.58","6","5","6","5","4","5","3","5","4","5","5","2","-1","0","1","-1","0","1","1","5","5","5","2","4","4","4","4","5","3","5","6","5","7","3","5","6","5","5","5","2","2","6","2","3","5","2","4","3","1","6","3","6","2","2","5","2","5","4","3","2","7","3","3","3","7","4","6","6","7","6","6","7","3","4","5","6","5","3","5","701209824037175296","潘","159","Female","[""好她"",""坏我"",""坏她"",""好我""]","[""强她"",""弱我"",""弱她"",""强我""]","","","","","","","","yes","","","","","","","","","SRET","EW_formal","","key","j","16.664736263736362","640","356","朋友","肯干","Positive","ability","","","","","","","","","","",""
"628","","f","psychophysics","73","233438","0.0-7.0-3.0-0.59","6","5","6","5","4","5","3","5","4","5","5","2","-1","0","1","-1","0","1","1","5","5","5","2","4","4","4","4","5","3","5","6","5","7","3","5","6","5","5","5","2","2","6","2","3","5","2","4","3","1","6","3","6","2","2","5","2","5","4","3","2","7","3","3","3","7","4","6","6","7","6","6","7","3","4","5","6","5","3","5","701209824037175296","潘","159","Female","[""好她"",""坏我"",""坏她"",""好我""]","[""强她"",""弱我"",""弱她"",""强我""]","","","","","","","","no","","","","","","","","","SRET","EW_formal","","key","f","16.665247422680512","640","356","自己","无为","Negative","ability","","","","","","","","","","",""
"518","","j","psychophysics","74","234957","0.0-7.0-3.0-0.60","6","5","6","5","4","5","3","5","4","5","5","2","-1","0","1","-1","0","1","1","5","5","5","2","4","4","4","4","5","3","5","6","5","7","3","5","6","5","5","5","2","2","6","2","3","5","2","4","3","1","6","3","6","2","2","5","2","5","4","3","2","7","3","3","3","7","4","6","6","7","6","6","7","3","4","5","6","5","3","5","701209824037175296","潘","159","Female","[""好她"",""坏我"",""坏她"",""好我""]","[""强她"",""弱我"",""弱她"",""强我""]","","","","","","","","yes","","","","","","","","","SRET","EW_formal","","key","j","16.664299999999802","640","356","朋友","宽容","Positive","morality","","","","","","","","","","",""
"561","","j","psychophysics","75","236520","0.0-7.0-3.0-0.61","6","5","6","5","4","5","3","5","4","5","5","2","-1","0","1","-1","0","1","1","5","5","5","2","4","4","4","4","5","3","5","6","5","7","3","5","6","5","5","5","2","2","6","2","3","5","2","4","3","1","6","3","6","2","2","5","2","5","4","3","2","7","3","3","3","7","4","6","6","7","6","6","7","3","4","5","6","5","3","5","701209824037175296","潘","159","Female","[""好她"",""坏我"",""坏她"",""好我""]","[""强她"",""弱我"",""弱她"",""强我""]","","","","","","","","yes","","","","","","","","","SRET","EW_formal","","key","j","16.666161290322673","640","356","朋友","高尚","Positive","morality","","","","","","","","","","",""
"1047","","j","psychophysics","76","238570","0.0-7.0-3.0-0.62","6","5","6","5","4","5","3","5","4","5","5","2","-1","0","1","-1","0","1","1","5","5","5","2","4","4","4","4","5","3","5","6","5","7","3","5","6","5","5","5","2","2","6","2","3","5","2","4","3","1","6","3","6","2","2","5","2","5","4","3","2","7","3","3","3","7","4","6","6","7","6","6","7","3","4","5","6","5","3","5","701209824037175296","潘","159","Female","[""好她"",""坏我"",""坏她"",""好我""]","[""强她"",""弱我"",""弱她"",""强我""]","","","","","","","","yes","","","","","","","","","SRET","EW_formal","","key","j","16.667450819672162","640","356","自己","逞能","Negative","ability","","","","","","","","","","",""
"822","","j","psychophysics","77","240396","0.0-7.0-3.0-0.63","6","5","6","5","4","5","3","5","4","5","5","2","-1","0","1","-1","0","1","1","5","5","5","2","4","4","4","4","5","3","5","6","5","7","3","5","6","5","5","5","2","2","6","2","3","5","2","4","3","1","6","3","6","2","2","5","2","5","4","3","2","7","3","3","3","7","4","6","6","7","6","6","7","3","4","5","6","5","3","5","701209824037175296","潘","159","Female","[""好她"",""坏我"",""坏她"",""好我""]","[""强她"",""弱我"",""弱她"",""强我""]","","","","","","","","yes","","","","","","","","","SRET","EW_formal","","key","j","16.669546296296176","640","356","朋友","拖延","Negative","ability","","","","","","","","","","",""
"540","","f","psychophysics","78","241938","0.0-7.0-3.0-0.64","6","5","6","5","4","5","3","5","4","5","5","2","-1","0","1","-1","0","1","1","5","5","5","2","4","4","4","4","5","3","5","6","5","7","3","5","6","5","5","5","2","2","6","2","3","5","2","4","3","1","6","3","6","2","2","5","2","5","4","3","2","7","3","3","3","7","4","6","6","7","6","6","7","3","4","5","6","5","3","5","701209824037175296","潘","159","Female","[""好她"",""坏我"",""坏她"",""好我""]","[""强她"",""弱我"",""弱她"",""强我""]","","","","","","","","no","","","","","","","","","SRET","EW_formal","","key","f","16.663152173912827","640","356","自己","拙笨","Negative","ability","","","","","","","","","","",""
"637","","f","psychophysics","79","243578","0.0-7.0-3.0-0.65","6","5","6","5","4","5","3","5","4","5","5","2","-1","0","1","-1","0","1","1","5","5","5","2","4","4","4","4","5","3","5","6","5","7","3","5","6","5","5","5","2","2","6","2","3","5","2","4","3","1","6","3","6","2","2","5","2","5","4","3","2","7","3","3","3","7","4","6","6","7","6","6","7","3","4","5","6","5","3","5","701209824037175296","潘","159","Female","[""好她"",""坏我"",""坏她"",""好我""]","[""强她"",""弱我"",""弱她"",""强我""]","","","","","","","","no","","","","","","","","","SRET","EW_formal","","key","f","16.664443298969083","640","356","朋友","无知","Negative","ability","","","","","","","","","","",""
"598","","j","psychophysics","80","245177","0.0-7.0-3.0-0.66","6","5","6","5","4","5","3","5","4","5","5","2","-1","0","1","-1","0","1","1","5","5","5","2","4","4","4","4","5","3","5","6","5","7","3","5","6","5","5","5","2","2","6","2","3","5","2","4","3","1","6","3","6","2","2","5","2","5","4","3","2","7","3","3","3","7","4","6","6","7","6","6","7","3","4","5","6","5","3","5","701209824037175296","潘","159","Female","[""好她"",""坏我"",""坏她"",""好我""]","[""强她"",""弱我"",""弱她"",""强我""]","","","","","","","","yes","","","","","","","","","SRET","EW_formal","","key","j","16.66522105263154","640","356","自己","淡泊","Positive","morality","","","","","","","","","","",""
"558","","j","psychophysics","81","246737","0.0-7.0-3.0-0.67","6","5","6","5","4","5","3","5","4","5","5","2","-1","0","1","-1","0","1","1","5","5","5","2","4","4","4","4","5","3","5","6","5","7","3","5","6","5","5","5","2","2","6","2","3","5","2","4","3","1","6","3","6","2","2","5","2","5","4","3","2","7","3","3","3","7","4","6","6","7","6","6","7","3","4","5","6","5","3","5","701209824037175296","潘","159","Female","[""好她"",""坏我"",""坏她"",""好我""]","[""强她"",""弱我"",""弱她"",""强我""]","","","","","","","","yes","","","","","","","","","SRET","EW_formal","","key","j","16.664569892473043","640","356","自己","守信","Positive","morality","","","","","","","","","","",""
"781","","f","psychophysics","82","248520","0.0-7.0-3.0-0.68","6","5","6","5","4","5","3","5","4","5","5","2","-1","0","1","-1","0","1","1","5","5","5","2","4","4","4","4","5","3","5","6","5","7","3","5","6","5","5","5","2","2","6","2","3","5","2","4","3","1","6","3","6","2","2","5","2","5","4","3","2","7","3","3","3","7","4","6","6","7","6","6","7","3","4","5","6","5","3","5","701209824037175296","潘","159","Female","[""好她"",""坏我"",""坏她"",""好我""]","[""强她"",""弱我"",""弱她"",""强我""]","","","","","","","","no","","","","","","","","","SRET","EW_formal","","key","f","16.669622641509534","640","356","朋友","差生","Negative","ability","","","","","","","","","","",""
"620","","j","psychophysics","83","250142","0.0-7.0-3.0-0.69","6","5","6","5","4","5","3","5","4","5","5","2","-1","0","1","-1","0","1","1","5","5","5","2","4","4","4","4","5","3","5","6","5","7","3","5","6","5","5","5","2","2","6","2","3","5","2","4","3","1","6","3","6","2","2","5","2","5","4","3","2","7","3","3","3","7","4","6","6","7","6","6","7","3","4","5","6","5","3","5","701209824037175296","潘","159","Female","[""好她"",""坏我"",""坏她"",""好我""]","[""强她"",""弱我"",""弱她"",""强我""]","","","","","","","","yes","","","","","","","","","SRET","EW_formal","","key","j","16.66478124999988","640","356","朋友","扎实","Positive","ability","","","","","","","","","","",""
"634","","f","psychophysics","84","251778","0.0-7.0-3.0-0.70","6","5","6","5","4","5","3","5","4","5","5","2","-1","0","1","-1","0","1","1","5","5","5","2","4","4","4","4","5","3","5","6","5","7","3","5","6","5","5","5","2","2","6","2","3","5","2","4","3","1","6","3","6","2","2","5","2","5","4","3","2","7","3","3","3","7","4","6","6","7","6","6","7","3","4","5","6","5","3","5","701209824037175296","潘","159","Female","[""好她"",""坏我"",""坏她"",""好我""]","[""强她"",""弱我"",""弱她"",""强我""]","","","","","","","","no","","","","","","","","","SRET","EW_formal","","key","f","16.664608247422724","640","356","自己","无能","Negative","ability","","","","","","","","","","",""
"794","","j","psychophysics","85","253573","0.0-7.0-3.0-0.71","6","5","6","5","4","5","3","5","4","5","5","2","-1","0","1","-1","0","1","1","5","5","5","2","4","4","4","4","5","3","5","6","5","7","3","5","6","5","5","5","2","2","6","2","3","5","2","4","3","1","6","3","6","2","2","5","2","5","4","3","2","7","3","3","3","7","4","6","6","7","6","6","7","3","4","5","6","5","3","5","701209824037175296","潘","159","Female","[""好她"",""坏我"",""坏她"",""好我""]","[""强她"",""弱我"",""弱她"",""强我""]","","","","","","","","yes","","","","","","","","","SRET","EW_formal","","key","j","16.66441121495331","640","356","自己","谦逊","Positive","morality","","","","","","","","","","",""
"577","","f","psychophysics","86","255153","0.0-7.0-3.0-0.72","6","5","6","5","4","5","3","5","4","5","5","2","-1","0","1","-1","0","1","1","5","5","5","2","4","4","4","4","5","3","5","6","5","7","3","5","6","5","5","5","2","2","6","2","3","5","2","4","3","1","6","3","6","2","2","5","2","5","4","3","2","7","3","3","3","7","4","6","6","7","6","6","7","3","4","5","6","5","3","5","701209824037175296","潘","159","Female","[""好她"",""坏我"",""坏她"",""好我""]","[""强她"",""弱我"",""弱她"",""强我""]","","","","","","","","no","","","","","","","","","SRET","EW_formal","","key","f","16.66475531914887","640","356","自己","低劣","Negative","morality","","","","","","","","","","",""
"739","","f","psychophysics","87","256893","0.0-7.0-3.0-0.73","6","5","6","5","4","5","3","5","4","5","5","2","-1","0","1","-1","0","1","1","5","5","5","2","4","4","4","4","5","3","5","6","5","7","3","5","6","5","5","5","2","2","6","2","3","5","2","4","3","1","6","3","6","2","2","5","2","5","4","3","2","7","3","3","3","7","4","6","6","7","6","6","7","3","4","5","6","5","3","5","701209824037175296","潘","159","Female","[""好她"",""坏我"",""坏她"",""好我""]","[""强她"",""弱我"",""弱她"",""强我""]","","","","","","","","no","","","","","","","","","SRET","EW_formal","","key","f","16.664805825242777","640","356","朋友","利己","Negative","morality","","","","","","","","","","",""
"906","","j","psychophysics","88","258801","0.0-7.0-3.0-0.74","6","5","6","5","4","5","3","5","4","5","5","2","-1","0","1","-1","0","1","1","5","5","5","2","4","4","4","4","5","3","5","6","5","7","3","5","6","5","5","5","2","2","6","2","3","5","2","4","3","1","6","3","6","2","2","5","2","5","4","3","2","7","3","3","3","7","4","6","6","7","6","6","7","3","4","5","6","5","3","5","701209824037175296","潘","159","Female","[""好她"",""坏我"",""坏她"",""好我""]","[""强她"",""弱我"",""弱她"",""强我""]","","","","","","","","yes","","","","","","","","","SRET","EW_formal","","key","j","16.664807017543865","640","356","朋友","畏难","Negative","ability","","","","","","","","","","",""
"622","","f","psychophysics","89","260425","0.0-7.0-3.0-0.75","6","5","6","5","4","5","3","5","4","5","5","2","-1","0","1","-1","0","1","1","5","5","5","2","4","4","4","4","5","3","5","6","5","7","3","5","6","5","5","5","2","2","6","2","3","5","2","4","3","1","6","3","6","2","2","5","2","5","4","3","2","7","3","3","3","7","4","6","6","7","6","6","7","3","4","5","6","5","3","5","701209824037175296","潘","159","Female","[""好她"",""坏我"",""坏她"",""好我""]","[""强她"",""弱我"",""弱她"",""强我""]","","","","","","","","no","","","","","","","","","SRET","EW_formal","","key","f","16.664906249999756","640","356","自己","小人","Negative","morality","","","","","","","","","","",""
"706","","f","psychophysics","90","262134","0.0-7.0-3.0-0.76","6","5","6","5","4","5","3","5","4","5","5","2","-1","0","1","-1","0","1","1","5","5","5","2","4","4","4","4","5","3","5","6","5","7","3","5","6","5","5","5","2","2","6","2","3","5","2","4","3","1","6","3","6","2","2","5","2","5","4","3","2","7","3","3","3","7","4","6","6","7","6","6","7","3","4","5","6","5","3","5","701209824037175296","潘","159","Female","[""好她"",""坏我"",""坏她"",""好我""]","[""强她"",""弱我"",""弱她"",""强我""]","","","","","","","","no","","","","","","","","","SRET","EW_formal","","key","f","16.664137254901945","640","356","自己","狡诈","Negative","morality","","","","","","","","","","",""
"794","","j","psychophysics","91","263932","0.0-7.0-3.0-0.77","6","5","6","5","4","5","3","5","4","5","5","2","-1","0","1","-1","0","1","1","5","5","5","2","4","4","4","4","5","3","5","6","5","7","3","5","6","5","5","5","2","2","6","2","3","5","2","4","3","1","6","3","6","2","2","5","2","5","4","3","2","7","3","3","3","7","4","6","6","7","6","6","7","3","4","5","6","5","3","5","701209824037175296","潘","159","Female","[""好她"",""坏我"",""坏她"",""好我""]","[""强她"",""弱我"",""弱她"",""强我""]","","","","","","","","yes","","","","","","","","","SRET","EW_formal","","key","j","16.66434579439272","640","356","自己","利落","Positive","ability","","","","","","","","","","",""
"605","","j","psychophysics","92","265539","0.0-7.0-3.0-0.78","6","5","6","5","4","5","3","5","4","5","5","2","-1","0","1","-1","0","1","1","5","5","5","2","4","4","4","4","5","3","5","6","5","7","3","5","6","5","5","5","2","2","6","2","3","5","2","4","3","1","6","3","6","2","2","5","2","5","4","3","2","7","3","3","3","7","4","6","6","7","6","6","7","3","4","5","6","5","3","5","701209824037175296","潘","159","Female","[""好她"",""坏我"",""坏她"",""好我""]","[""强她"",""弱我"",""弱她"",""强我""]","","","","","","","","yes","","","","","","","","","SRET","EW_formal","","key","j","16.663947368421177","640","356","朋友","聪明","Positive","ability","","","","","","","","","","",""
"552","","j","psychophysics","93","267094","0.0-7.0-3.0-0.79","6","5","6","5","4","5","3","5","4","5","5","2","-1","0","1","-1","0","1","1","5","5","5","2","4","4","4","4","5","3","5","6","5","7","3","5","6","5","5","5","2","2","6","2","3","5","2","4","3","1","6","3","6","2","2","5","2","5","4","3","2","7","3","3","3","7","4","6","6","7","6","6","7","3","4","5","6","5","3","5","701209824037175296","潘","159","Female","[""好她"",""坏我"",""坏她"",""好我""]","[""强她"",""弱我"",""弱她"",""强我""]","","","","","","","","yes","","","","","","","","","SRET","EW_formal","","key","j","16.664858695652345","640","356","朋友","守法","Positive","morality","","","","","","","","","","",""
"566","","j","psychophysics","94","268661","0.0-7.0-3.0-0.80","6","5","6","5","4","5","3","5","4","5","5","2","-1","0","1","-1","0","1","1","5","5","5","2","4","4","4","4","5","3","5","6","5","7","3","5","6","5","5","5","2","2","6","2","3","5","2","4","3","1","6","3","6","2","2","5","2","5","4","3","2","7","3","3","3","7","4","6","6","7","6","6","7","3","4","5","6","5","3","5","701209824037175296","潘","159","Female","[""好她"",""坏我"",""坏她"",""好我""]","[""强她"",""弱我"",""弱她"",""强我""]","","","","","","","","yes","","","","","","","","","SRET","EW_formal","","key","j","16.66512903225826","640","356","自己","清廉","Positive","morality","","","","","","","","","","",""
"551","","j","psychophysics","95","270216","0.0-7.0-3.0-0.81","6","5","6","5","4","5","3","5","4","5","5","2","-1","0","1","-1","0","1","1","5","5","5","2","4","4","4","4","5","3","5","6","5","7","3","5","6","5","5","5","2","2","6","2","3","5","2","4","3","1","6","3","6","2","2","5","2","5","4","3","2","7","3","3","3","7","4","6","6","7","6","6","7","3","4","5","6","5","3","5","701209824037175296","潘","159","Female","[""好她"",""坏我"",""坏她"",""好我""]","[""强她"",""弱我"",""弱她"",""强我""]","","","","","","","","yes","","","","","","","","","SRET","EW_formal","","key","j","16.66379569892481","640","356","自己","高明","Positive","ability","","","","","","","","","","",""
"610","","f","psychophysics","96","271829","0.0-7.0-3.0-0.82","6","5","6","5","4","5","3","5","4","5","5","2","-1","0","1","-1","0","1","1","5","5","5","2","4","4","4","4","5","3","5","6","5","7","3","5","6","5","5","5","2","2","6","2","3","5","2","4","3","1","6","3","6","2","2","5","2","5","4","3","2","7","3","3","3","7","4","6","6","7","6","6","7","3","4","5","6","5","3","5","701209824037175296","潘","159","Female","[""好她"",""坏我"",""坏她"",""好我""]","[""强她"",""弱我"",""弱她"",""强我""]","","","","","","","","no","","","","","","","","","SRET","EW_formal","","key","f","16.665768421052856","640","356","自己","黑心","Negative","morality","","","","","","","","","","",""
"601","","f","psychophysics","97","273433","0.0-7.0-3.0-0.83","6","5","6","5","4","5","3","5","4","5","5","2","-1","0","1","-1","0","1","1","5","5","5","2","4","4","4","4","5","3","5","6","5","7","3","5","6","5","5","5","2","2","6","2","3","5","2","4","3","1","6","3","6","2","2","5","2","5","4","3","2","7","3","3","3","7","4","6","6","7","6","6","7","3","4","5","6","5","3","5","701209824037175296","潘","159","Female","[""好她"",""坏我"",""坏她"",""好我""]","[""强她"",""弱我"",""弱她"",""强我""]","","","","","","","","no","","","","","","","","","SRET","EW_formal","","key","f","16.662468749999487","640","356","自己","罪恶","Negative","morality","","","","","","","","","","",""
"859","","j","psychophysics","98","275294","0.0-7.0-3.0-0.84","6","5","6","5","4","5","3","5","4","5","5","2","-1","0","1","-1","0","1","1","5","5","5","2","4","4","4","4","5","3","5","6","5","7","3","5","6","5","5","5","2","2","6","2","3","5","2","4","3","1","6","3","6","2","2","5","2","5","4","3","2","7","3","3","3","7","4","6","6","7","6","6","7","3","4","5","6","5","3","5","701209824037175296","潘","159","Female","[""好她"",""坏我"",""坏她"",""好我""]","[""强她"",""弱我"",""弱她"",""强我""]","","","","","","","","yes","","","","","","","","","SRET","EW_formal","","key","j","16.664854545454727","640","356","自己","缓慢","Negative","ability","","","","","","","","","","",""
"511","","j","psychophysics","99","276809","0.0-7.0-3.0-0.85","6","5","6","5","4","5","3","5","4","5","5","2","-1","0","1","-1","0","1","1","5","5","5","2","4","4","4","4","5","3","5","6","5","7","3","5","6","5","5","5","2","2","6","2","3","5","2","4","3","1","6","3","6","2","2","5","2","5","4","3","2","7","3","3","3","7","4","6","6","7","6","6","7","3","4","5","6","5","3","5","701209824037175296","潘","159","Female","[""好她"",""坏我"",""坏她"",""好我""]","[""强她"",""弱我"",""弱她"",""强我""]","","","","","","","","yes","","","","","","","","","SRET","EW_formal","","key","j","16.664711111110712","640","356","自己","主见","Positive","ability","","","","","","","","","","",""
"594","","j","psychophysics","100","278405","0.0-7.0-3.0-0.86","6","5","6","5","4","5","3","5","4","5","5","2","-1","0","1","-1","0","1","1","5","5","5","2","4","4","4","4","5","3","5","6","5","7","3","5","6","5","5","5","2","2","6","2","3","5","2","4","3","1","6","3","6","2","2","5","2","5","4","3","2","7","3","3","3","7","4","6","6","7","6","6","7","3","4","5","6","5","3","5","701209824037175296","潘","159","Female","[""好她"",""坏我"",""坏她"",""好我""]","[""强她"",""弱我"",""弱她"",""强我""]","","","","","","","","yes","","","","","","","","","SRET","EW_formal","","key","j","16.67013684210527","640","356","朋友","素养","Positive","morality","","","","","","","","","","",""
"710","","f","psychophysics","101","280118","0.0-7.0-3.0-0.87","6","5","6","5","4","5","3","5","4","5","5","2","-1","0","1","-1","0","1","1","5","5","5","2","4","4","4","4","5","3","5","6","5","7","3","5","6","5","5","5","2","2","6","2","3","5","2","4","3","1","6","3","6","2","2","5","2","5","4","3","2","7","3","3","3","7","4","6","6","7","6","6","7","3","4","5","6","5","3","5","701209824037175296","潘","159","Female","[""好她"",""坏我"",""坏她"",""好我""]","[""强她"",""弱我"",""弱她"",""强我""]","","","","","","","","no","","","","","","","","","SRET","EW_formal","","key","f","16.663843137254897","640","356","朋友","低俗","Negative","morality","","","","","","","","","","",""
"6926","
    <p><div style='color:white;font-size:35px; line-height:20px;'>计算任务</div></p><br>
    <p><div style='color:red;font-size:25px; line-height:20px;'>接下来，您将看到一些四则运算题，<b>请从键盘选择 0-9 进行反应。</b></div></p>
    <p><div style='color:red;font-size:25px; line-height:20px;'>请尽可能快地进行计算，计算的速度和正确率将影响报酬的发放。</div></p>
    <p><div class='footer' style='color:white;font-size:25px; line-height:20px;'>如果对本实验还有不清楚之处，请立即向实验员咨询。</p><p style='color:white;font-size:25px; line-height:20px;'>如果您明白了规则：</p><p style='color:white;font-size:22px; line-height:20px;'>请按 继续 进入练习</p>
    </div>
    ","0","html-button-response","102","287048","0.0-7.0-4.0","6","5","6","5","4","5","3","5","4","5","5","2","-1","0","1","-1","0","1","1","5","5","5","2","4","4","4","4","5","3","5","6","5","7","3","5","6","5","5","5","2","2","6","2","3","5","2","4","3","1","6","3","6","2","2","5","2","5","4","3","2","7","3","3","3","7","4","6","6","7","6","6","7","3","4","5","6","5","3","5","701209824037175296","潘","159","Female","[""好她"",""坏我"",""坏她"",""好我""]","[""强她"",""弱我"",""弱她"",""强我""]","","","","","","","","","","","","","","","","","SRET_math","math_instructions","Fri Jan 19 2024 15:37:53 GMT+0800 (中国标准时间)","","","","","","","","","","","","","","","","","","","",""
"1860","","5","psychophysics","103","288914","0.0-7.0-5.0-0.0","6","5","6","5","4","5","3","5","4","5","5","2","-1","0","1","-1","0","1","1","5","5","5","2","4","4","4","4","5","3","5","6","5","7","3","5","6","5","5","5","2","2","6","2","3","5","2","4","3","1","6","3","6","2","2","5","2","5","4","3","2","7","3","3","3","7","4","6","6","7","6","6","7","3","4","5","6","5","3","5","701209824037175296","潘","159","Female","[""好她"",""坏我"",""坏她"",""好我""]","[""强她"",""弱我"",""弱她"",""强我""]","","","","","","","","5","","","","","","","","","SRET","SRET_math_calculate","","key","5","16.664973214285833","640","356","","","","","2+3= ?","5","1","","","","","","","",""
"2150","","6","psychophysics","104","291067","0.0-7.0-5.0-0.1","6","5","6","5","4","5","3","5","4","5","5","2","-1","0","1","-1","0","1","1","5","5","5","2","4","4","4","4","5","3","5","6","5","7","3","5","6","5","5","5","2","2","6","2","3","5","2","4","3","1","6","3","6","2","2","5","2","5","4","3","2","7","3","3","3","7","4","6","6","7","6","6","7","3","4","5","6","5","3","5","701209824037175296","潘","159","Female","[""好她"",""坏我"",""坏她"",""好我""]","[""强她"",""弱我"",""弱她"",""强我""]","","","","","","","","6","","","","","","","","","SRET","SRET_math_calculate","","key","6","16.66473437500008","640","356","","","","","3*2= ?","6","1","","","","","","","",""
"2133","","8","psychophysics","105","293203","0.0-7.0-5.0-0.2","6","5","6","5","4","5","3","5","4","5","5","2","-1","0","1","-1","0","1","1","5","5","5","2","4","4","4","4","5","3","5","6","5","7","3","5","6","5","5","5","2","2","6","2","3","5","2","4","3","1","6","3","6","2","2","5","2","5","4","3","2","7","3","3","3","7","4","6","6","7","6","6","7","3","4","5","6","5","3","5","701209824037175296","潘","159","Female","[""好她"",""坏我"",""坏她"",""好我""]","[""强她"",""弱我"",""弱她"",""强我""]","","","","","","","","8","","","","","","","","","SRET","SRET_math_calculate","","key","8","16.66455905511792","640","356","","","","","6+2= ?","8","1","","","","","","","",""
"3461","","8","psychophysics","106","296666","0.0-7.0-5.0-0.3","6","5","6","5","4","5","3","5","4","5","5","2","-1","0","1","-1","0","1","1","5","5","5","2","4","4","4","4","5","3","5","6","5","7","3","5","6","5","5","5","2","2","6","2","3","5","2","4","3","1","6","3","6","2","2","5","2","5","4","3","2","7","3","3","3","7","4","6","6","7","6","6","7","3","4","5","6","5","3","5","701209824037175296","潘","159","Female","[""好她"",""坏我"",""坏她"",""好我""]","[""强她"",""弱我"",""弱她"",""强我""]","","","","","","","","8","","","","","","","","","SRET","SRET_math_calculate","","key","8","16.665971014492612","640","356","","","","","13-5= ?","8","1","","","","","","","",""
"2023","","9","psychophysics","107","298695","0.0-7.0-5.0-0.4","6","5","6","5","4","5","3","5","4","5","5","2","-1","0","1","-1","0","1","1","5","5","5","2","4","4","4","4","5","3","5","6","5","7","3","5","6","5","5","5","2","2","6","2","3","5","2","4","3","1","6","3","6","2","2","5","2","5","4","3","2","7","3","3","3","7","4","6","6","7","6","6","7","3","4","5","6","5","3","5","701209824037175296","潘","159","Female","[""好她"",""坏我"",""坏她"",""好我""]","[""强她"",""弱我"",""弱她"",""强我""]","","","","","","","","9","","","","","","","","","SRET","SRET_math_calculate","","key","9","16.664851239669304","640","356","","","","","1*9= ?","9","1","","","","","","","",""
"2016","","3","psychophysics","108","300716","0.0-7.0-5.0-0.5","6","5","6","5","4","5","3","5","4","5","5","2","-1","0","1","-1","0","1","1","5","5","5","2","4","4","4","4","5","3","5","6","5","7","3","5","6","5","5","5","2","2","6","2","3","5","2","4","3","1","6","3","6","2","2","5","2","5","4","3","2","7","3","3","3","7","4","6","6","7","6","6","7","3","4","5","6","5","3","5","701209824037175296","潘","159","Female","[""好她"",""坏我"",""坏她"",""好我""]","[""强她"",""弱我"",""弱她"",""强我""]","","","","","","","","3","","","","","","","","","SRET","SRET_math_calculate","","key","3","16.66479166666686","640","356","","","","","3*1= ?","3","1","","","","","","","",""
"2013","","6","psychophysics","109","302732","0.0-7.0-5.0-0.6","6","5","6","5","4","5","3","5","4","5","5","2","-1","0","1","-1","0","1","1","5","5","5","2","4","4","4","4","5","3","5","6","5","7","3","5","6","5","5","5","2","2","6","2","3","5","2","4","3","1","6","3","6","2","2","5","2","5","4","3","2","7","3","3","3","7","4","6","6","7","6","6","7","3","4","5","6","5","3","5","701209824037175296","潘","159","Female","[""好她"",""坏我"",""坏她"",""好我""]","[""强她"",""弱我"",""弱她"",""强我""]","","","","","","","","6","","","","","","","","","SRET","SRET_math_calculate","","key","6","16.664666666666744","640","356","","","","","2*3= ?","6","1","","","","","","","",""
"2189","","5","psychophysics","110","304923","0.0-7.0-5.0-0.7","6","5","6","5","4","5","3","5","4","5","5","2","-1","0","1","-1","0","1","1","5","5","5","2","4","4","4","4","5","3","5","6","5","7","3","5","6","5","5","5","2","2","6","2","3","5","2","4","3","1","6","3","6","2","2","5","2","5","4","3","2","7","3","3","3","7","4","6","6","7","6","6","7","3","4","5","6","5","3","5","701209824037175296","潘","159","Female","[""好她"",""坏我"",""坏她"",""好我""]","[""强她"",""弱我"",""弱她"",""强我""]","","","","","","","","5","","","","","","","","","SRET","SRET_math_calculate","","key","5","16.664815384615213","640","356","","","","","8-3= ? ","5","1","","","","","","","",""
"2151","","8","psychophysics","111","307080","0.0-7.0-5.0-0.8","6","5","6","5","4","5","3","5","4","5","5","2","-1","0","1","-1","0","1","1","5","5","5","2","4","4","4","4","5","3","5","6","5","7","3","5","6","5","5","5","2","2","6","2","3","5","2","4","3","1","6","3","6","2","2","5","2","5","4","3","2","7","3","3","3","7","4","6","6","7","6","6","7","3","4","5","6","5","3","5","701209824037175296","潘","159","Female","[""好她"",""坏我"",""坏她"",""好我""]","[""强她"",""弱我"",""弱她"",""强我""]","","","","","","","","8","","","","","","","","","SRET","SRET_math_calculate","","key","8","16.664550387596552","640","356","","","","","2*4= ?","8","1","","","","","","","",""
"2030","","9","psychophysics","112","309111","0.0-7.0-5.0-0.9","6","5","6","5","4","5","3","5","4","5","5","2","-1","0","1","-1","0","1","1","5","5","5","2","4","4","4","4","5","3","5","6","5","7","3","5","6","5","5","5","2","2","6","2","3","5","2","4","3","1","6","3","6","2","2","5","2","5","4","3","2","7","3","3","3","7","4","6","6","7","6","6","7","3","4","5","6","5","3","5","701209824037175296","潘","159","Female","[""好她"",""坏我"",""坏她"",""好我""]","[""强她"",""弱我"",""弱她"",""强我""]","","","","","","","","9","","","","","","","","","SRET","SRET_math_calculate","","key","9","16.660049586777173","640","356","","","","","7+2= ?","9","1","","","","","","","",""
"2299","","8","psychophysics","113","311413","0.0-7.0-5.0-0.10","6","5","6","5","4","5","3","5","4","5","5","2","-1","0","1","-1","0","1","1","5","5","5","2","4","4","4","4","5","3","5","6","5","7","3","5","6","5","5","5","2","2","6","2","3","5","2","4","3","1","6","3","6","2","2","5","2","5","4","3","2","7","3","3","3","7","4","6","6","7","6","6","7","3","4","5","6","5","3","5","701209824037175296","潘","159","Female","[""好她"",""坏我"",""坏她"",""好我""]","[""强她"",""弱我"",""弱她"",""强我""]","","","","","","","","8","","","","","","","","","SRET","SRET_math_calculate","","key","8","16.66426277372274","640","356","","","","","81/9= ?","9","0","","","","","","","",""
"2283","","3","psychophysics","114","313699","0.0-7.0-5.0-0.11","6","5","6","5","4","5","3","5","4","5","5","2","-1","0","1","-1","0","1","1","5","5","5","2","4","4","4","4","5","3","5","6","5","7","3","5","6","5","5","5","2","2","6","2","3","5","2","4","3","1","6","3","6","2","2","5","2","5","4","3","2","7","3","3","3","7","4","6","6","7","6","6","7","3","4","5","6","5","3","5","701209824037175296","潘","159","Female","[""好她"",""坏我"",""坏她"",""好我""]","[""强她"",""弱我"",""弱她"",""强我""]","","","","","","","","3","","","","","","","","","SRET","SRET_math_calculate","","key","3","16.664220588235526","640","356","","","","","5-3= ?","2","0","","","","","","","",""
"1891","","5","psychophysics","115","315592","0.0-7.0-5.0-0.12","6","5","6","5","4","5","3","5","4","5","5","2","-1","0","1","-1","0","1","1","5","5","5","2","4","4","4","4","5","3","5","6","5","7","3","5","6","5","5","5","2","2","6","2","3","5","2","4","3","1","6","3","6","2","2","5","2","5","4","3","2","7","3","3","3","7","4","6","6","7","6","6","7","3","4","5","6","5","3","5","701209824037175296","潘","159","Female","[""好她"",""坏我"",""坏她"",""好我""]","[""强她"",""弱我"",""弱她"",""强我""]","","","","","","","","5","","","","","","","","","SRET","SRET_math_calculate","","key","5","16.664601769911297","640","356","","","","","4+1= ?","5","1","","","","","","","",""
"2349","","8","psychophysics","116","317943","0.0-7.0-5.0-0.13","6","5","6","5","4","5","3","5","4","5","5","2","-1","0","1","-1","0","1","1","5","5","5","2","4","4","4","4","5","3","5","6","5","7","3","5","6","5","5","5","2","2","6","2","3","5","2","4","3","1","6","3","6","2","2","5","2","5","4","3","2","7","3","3","3","7","4","6","6","7","6","6","7","3","4","5","6","5","3","5","701209824037175296","潘","159","Female","[""好她"",""坏我"",""坏她"",""好我""]","[""强她"",""弱我"",""弱她"",""强我""]","","","","","","","","8","","","","","","","","","SRET","SRET_math_calculate","","key","8","16.664671428571456","640","356","","","","","72/9= ?","8","1","","","","","","","",""
"2412","","0","psychophysics","117","320358","0.0-7.0-5.0-0.14","6","5","6","5","4","5","3","5","4","5","5","2","-1","0","1","-1","0","1","1","5","5","5","2","4","4","4","4","5","3","5","6","5","7","3","5","6","5","5","5","2","2","6","2","3","5","2","4","3","1","6","3","6","2","2","5","2","5","4","3","2","7","3","3","3","7","4","6","6","7","6","6","7","3","4","5","6","5","3","5","701209824037175296","潘","159","Female","[""好她"",""坏我"",""坏她"",""好我""]","[""强她"",""弱我"",""弱她"",""强我""]","","","","","","","","0","","","","","","","","","SRET","SRET_math_calculate","","key","0","16.6643958333334","640","356","","","","","6*0= ?","0","1","","","","","","","",""
"2538","","5","psychophysics","118","322899","0.0-7.0-5.0-0.15","6","5","6","5","4","5","3","5","4","5","5","2","-1","0","1","-1","0","1","1","5","5","5","2","4","4","4","4","5","3","5","6","5","7","3","5","6","5","5","5","2","2","6","2","3","5","2","4","3","1","6","3","6","2","2","5","2","5","4","3","2","7","3","3","3","7","4","6","6","7","6","6","7","3","4","5","6","5","3","5","701209824037175296","潘","159","Female","[""好她"",""坏我"",""坏她"",""好我""]","[""强她"",""弱我"",""弱她"",""强我""]","","","","","","","","5","","","","","","","","","SRET","SRET_math_calculate","","key","5","16.664827814569314","640","356","","","","","12-7= ?","5","1","","","","","","","",""
"2126","","6","psychophysics","119","325028","0.0-7.0-5.0-0.16","6","5","6","5","4","5","3","5","4","5","5","2","-1","0","1","-1","0","1","1","5","5","5","2","4","4","4","4","5","3","5","6","5","7","3","5","6","5","5","5","2","2","6","2","3","5","2","4","3","1","6","3","6","2","2","5","2","5","4","3","2","7","3","3","3","7","4","6","6","7","6","6","7","3","4","5","6","5","3","5","701209824037175296","潘","159","Female","[""好她"",""坏我"",""坏她"",""好我""]","[""强她"",""弱我"",""弱她"",""强我""]","","","","","","","","6","","","","","","","","","SRET","SRET_math_calculate","","key","6","16.666448818897372","640","356","","","","","9-3= ?","6","1","","","","","","","",""
"3626","","2","psychophysics","120","328657","0.0-7.0-5.0-0.17","6","5","6","5","4","5","3","5","4","5","5","2","-1","0","1","-1","0","1","1","5","5","5","2","4","4","4","4","5","3","5","6","5","7","3","5","6","5","5","5","2","2","6","2","3","5","2","4","3","1","6","3","6","2","2","5","2","5","4","3","2","7","3","3","3","7","4","6","6","7","6","6","7","3","4","5","6","5","3","5","701209824037175296","潘","159","Female","[""好她"",""坏我"",""坏她"",""好我""]","[""强她"",""弱我"",""弱她"",""强我""]","","","","","","","","2","","","","","","","","","SRET","SRET_math_calculate","","key","2","16.664843317972387","640","356","","","","","22/11= ?","2","1","","","","","","","",""
"2024","","4","psychophysics","121","330685","0.0-7.0-5.0-0.18","6","5","6","5","4","5","3","5","4","5","5","2","-1","0","1","-1","0","1","1","5","5","5","2","4","4","4","4","5","3","5","6","5","7","3","5","6","5","5","5","2","2","6","2","3","5","2","4","3","1","6","3","6","2","2","5","2","5","4","3","2","7","3","3","3","7","4","6","6","7","6","6","7","3","4","5","6","5","3","5","701209824037175296","潘","159","Female","[""好她"",""坏我"",""坏她"",""好我""]","[""强她"",""弱我"",""弱她"",""强我""]","","","","","","","","4","","","","","","","","","SRET","SRET_math_calculate","","key","4","16.66811666666666","640","356","","","","","8-4= ?","4","1","","","","","","","",""
"1876","","4","psychophysics","122","332582","0.0-7.0-5.0-0.19","6","5","6","5","4","5","3","5","4","5","5","2","-1","0","1","-1","0","1","1","5","5","5","2","4","4","4","4","5","3","5","6","5","7","3","5","6","5","5","5","2","2","6","2","3","5","2","4","3","1","6","3","6","2","2","5","2","5","4","3","2","7","3","3","3","7","4","6","6","7","6","6","7","3","4","5","6","5","3","5","701209824037175296","潘","159","Female","[""好她"",""坏我"",""坏她"",""好我""]","[""强她"",""弱我"",""弱她"",""强我""]","","","","","","","","4","","","","","","","","","SRET","SRET_math_calculate","","key","4","16.663805309734595","640","356","","","","","3+1= ?","4","1","","","","","","","",""
"2292","","0","psychophysics","123","334877","0.0-7.0-5.0-0.20","6","5","6","5","4","5","3","5","4","5","5","2","-1","0","1","-1","0","1","1","5","5","5","2","4","4","4","4","5","3","5","6","5","7","3","5","6","5","5","5","2","2","6","2","3","5","2","4","3","1","6","3","6","2","2","5","2","5","4","3","2","7","3","3","3","7","4","6","6","7","6","6","7","3","4","5","6","5","3","5","701209824037175296","潘","159","Female","[""好她"",""坏我"",""坏她"",""好我""]","[""强她"",""弱我"",""弱她"",""强我""]","","","","","","","","0","","","","","","","","","SRET","SRET_math_calculate","","key","0","16.668817518248364","640","356","","","","","5*0= ?","0","1","","","","","","","",""
"2370","","8","psychophysics","124","337252","0.0-7.0-5.0-0.21","6","5","6","5","4","5","3","5","4","5","5","2","-1","0","1","-1","0","1","1","5","5","5","2","4","4","4","4","5","3","5","6","5","7","3","5","6","5","5","5","2","2","6","2","3","5","2","4","3","1","6","3","6","2","2","5","2","5","4","3","2","7","3","3","3","7","4","6","6","7","6","6","7","3","4","5","6","5","3","5","701209824037175296","潘","159","Female","[""好她"",""坏我"",""坏她"",""好我""]","[""强她"",""弱我"",""弱她"",""强我""]","","","","","","","","8","","","","","","","","","SRET","SRET_math_calculate","","key","8","16.666851063829878","640","356","","","","","50-42= ?","8","1","","","","","","","",""
"2970","","8","psychophysics","125","340232","0.0-7.0-5.0-0.22","6","5","6","5","4","5","3","5","4","5","5","2","-1","0","1","-1","0","1","1","5","5","5","2","4","4","4","4","5","3","5","6","5","7","3","5","6","5","5","5","2","2","6","2","3","5","2","4","3","1","6","3","6","2","2","5","2","5","4","3","2","7","3","3","3","7","4","6","6","7","6","6","7","3","4","5","6","5","3","5","701209824037175296","潘","159","Female","[""好她"",""坏我"",""坏她"",""好我""]","[""强她"",""弱我"",""弱她"",""强我""]","","","","","","","","8","","","","","","","","","SRET","SRET_math_calculate","","key","8","16.664623595505372","640","356","","","","","11-3= ?","8","1","","","","","","","",""
"2500","","2","psychophysics","126","342734","0.0-7.0-5.0-0.23","6","5","6","5","4","5","3","5","4","5","5","2","-1","0","1","-1","0","1","1","5","5","5","2","4","4","4","4","5","3","5","6","5","7","3","5","6","5","5","5","2","2","6","2","3","5","2","4","3","1","6","3","6","2","2","5","2","5","4","3","2","7","3","3","3","7","4","6","6","7","6","6","7","3","4","5","6","5","3","5","701209824037175296","潘","159","Female","[""好她"",""坏我"",""坏她"",""好我""]","[""强她"",""弱我"",""弱她"",""强我""]","","","","","","","","2","","","","","","","","","SRET","SRET_math_calculate","","key","2","16.66551006711424","640","356","","","","","19-17= ?","2","1","","","","","","","",""
"2249","","0","psychophysics","127","344988","0.0-7.0-5.0-0.24","6","5","6","5","4","5","3","5","4","5","5","2","-1","0","1","-1","0","1","1","5","5","5","2","4","4","4","4","5","3","5","6","5","7","3","5","6","5","5","5","2","2","6","2","3","5","2","4","3","1","6","3","6","2","2","5","2","5","4","3","2","7","3","3","3","7","4","6","6","7","6","6","7","3","4","5","6","5","3","5","701209824037175296","潘","159","Female","[""好她"",""坏我"",""坏她"",""好我""]","[""强她"",""弱我"",""弱她"",""强我""]","","","","","","","","0","","","","","","","","","SRET","SRET_math_calculate","","key","0","16.664777777777743","640","356","","","","","32-32= ?","0","1","","","","","","","",""
"2099","","9","psychophysics","128","347096","0.0-7.0-5.0-0.25","6","5","6","5","4","5","3","5","4","5","5","2","-1","0","1","-1","0","1","1","5","5","5","2","4","4","4","4","5","3","5","6","5","7","3","5","6","5","5","5","2","2","6","2","3","5","2","4","3","1","6","3","6","2","2","5","2","5","4","3","2","7","3","3","3","7","4","6","6","7","6","6","7","3","4","5","6","5","3","5","701209824037175296","潘","159","Female","[""好她"",""坏我"",""坏她"",""好我""]","[""强她"",""弱我"",""弱她"",""强我""]","","","","","","","","9","","","","","","","","","SRET","SRET_math_calculate","","key","9","16.669487999999895","640","356","","","","","3+6= ?","9","1","","","","","","","",""
"2196","","5","psychophysics","129","349294","0.0-7.0-5.0-0.26","6","5","6","5","4","5","3","5","4","5","5","2","-1","0","1","-1","0","1","1","5","5","5","2","4","4","4","4","5","3","5","6","5","7","3","5","6","5","5","5","2","2","6","2","3","5","2","4","3","1","6","3","6","2","2","5","2","5","4","3","2","7","3","3","3","7","4","6","6","7","6","6","7","3","4","5","6","5","3","5","701209824037175296","潘","159","Female","[""好她"",""坏我"",""坏她"",""好我""]","[""强她"",""弱我"",""弱她"",""强我""]","","","","","","","","5","","","","","","","","","SRET","SRET_math_calculate","","key","5","16.66562595419836","640","356","","","","","15-10= ?","5","1","","","","","","","",""
"1812","","2","psychophysics","130","351111","0.0-7.0-5.0-0.27","6","5","6","5","4","5","3","5","4","5","5","2","-1","0","1","-1","0","1","1","5","5","5","2","4","4","4","4","5","3","5","6","5","7","3","5","6","5","5","5","2","2","6","2","3","5","2","4","3","1","6","3","6","2","2","5","2","5","4","3","2","7","3","3","3","7","4","6","6","7","6","6","7","3","4","5","6","5","3","5","701209824037175296","潘","159","Female","[""好她"",""坏我"",""坏她"",""好我""]","[""强她"",""弱我"",""弱她"",""强我""]","","","","","","","","2","","","","","","","","","SRET","SRET_math_calculate","","key","2","16.66998148148155","640","356","","","","","1+1= ?","2","1","","","","","","","",""
"2362","","7","psychophysics","131","353479","0.0-7.0-5.0-0.28","6","5","6","5","4","5","3","5","4","5","5","2","-1","0","1","-1","0","1","1","5","5","5","2","4","4","4","4","5","3","5","6","5","7","3","5","6","5","5","5","2","2","6","2","3","5","2","4","3","1","6","3","6","2","2","5","2","5","4","3","2","7","3","3","3","7","4","6","6","7","6","6","7","3","4","5","6","5","3","5","701209824037175296","潘","159","Female","[""好她"",""坏我"",""坏她"",""好我""]","[""强她"",""弱我"",""弱她"",""强我""]","","","","","","","","7","","","","","","","","","SRET","SRET_math_calculate","","key","7","16.666546099290834","640","356","","","","","7*1=  ?","7","1","","","","","","","",""
"4320","","7","psychophysics","132","357810","0.0-7.0-5.0-0.29","6","5","6","5","4","5","3","5","4","5","5","2","-1","0","1","-1","0","1","1","5","5","5","2","4","4","4","4","5","3","5","6","5","7","3","5","6","5","5","5","2","2","6","2","3","5","2","4","3","1","6","3","6","2","2","5","2","5","4","3","2","7","3","3","3","7","4","6","6","7","6","6","7","3","4","5","6","5","3","5","701209824037175296","潘","159","Female","[""好她"",""坏我"",""坏她"",""好我""]","[""强她"",""弱我"",""弱她"",""强我""]","","","","","","","","7","","","","","","","","","SRET","SRET_math_calculate","","key","7","16.66430115830117","640","356","","","","","56/7= ?","8","0","","","","","","","",""
"2664","","5","psychophysics","133","360477","0.0-7.0-5.0-0.30","6","5","6","5","4","5","3","5","4","5","5","2","-1","0","1","-1","0","1","1","5","5","5","2","4","4","4","4","5","3","5","6","5","7","3","5","6","5","5","5","2","2","6","2","3","5","2","4","3","1","6","3","6","2","2","5","2","5","4","3","2","7","3","3","3","7","4","6","6","7","6","6","7","3","4","5","6","5","3","5","701209824037175296","潘","159","Female","[""好她"",""坏我"",""坏她"",""好我""]","[""强她"",""弱我"",""弱她"",""强我""]","","","","","","","","5","","","","","","","","","SRET","SRET_math_calculate","","key","5","16.66465408805027","640","356","","","","","17-12= ? ","5","1","","","","","","","",""
"2059","","9","psychophysics","134","362539","0.0-7.0-5.0-0.31","6","5","6","5","4","5","3","5","4","5","5","2","-1","0","1","-1","0","1","1","5","5","5","2","4","4","4","4","5","3","5","6","5","7","3","5","6","5","5","5","2","2","6","2","3","5","2","4","3","1","6","3","6","2","2","5","2","5","4","3","2","7","3","3","3","7","4","6","6","7","6","6","7","3","4","5","6","5","3","5","701209824037175296","潘","159","Female","[""好她"",""坏我"",""坏她"",""好我""]","[""强她"",""弱我"",""弱她"",""强我""]","","","","","","","","9","","","","","","","","","SRET","SRET_math_calculate","","key","9","16.66942276422794","640","356","","","","","2+7= ?","9","1","","","","","","","",""
"1893","","9","psychophysics","135","364434","0.0-7.0-5.0-0.32","6","5","6","5","4","5","3","5","4","5","5","2","-1","0","1","-1","0","1","1","5","5","5","2","4","4","4","4","5","3","5","6","5","7","3","5","6","5","5","5","2","2","6","2","3","5","2","4","3","1","6","3","6","2","2","5","2","5","4","3","2","7","3","3","3","7","4","6","6","7","6","6","7","3","4","5","6","5","3","5","701209824037175296","潘","159","Female","[""好她"",""坏我"",""坏她"",""好我""]","[""强她"",""弱我"",""弱她"",""强我""]","","","","","","","","9","","","","","","","","","SRET","SRET_math_calculate","","key","9","16.66609821428574","640","356","","","","","1+8= ?","9","1","","","","","","","",""
"2026","","8","psychophysics","136","366471","0.0-7.0-5.0-0.33","6","5","6","5","4","5","3","5","4","5","5","2","-1","0","1","-1","0","1","1","5","5","5","2","4","4","4","4","5","3","5","6","5","7","3","5","6","5","5","5","2","2","6","2","3","5","2","4","3","1","6","3","6","2","2","5","2","5","4","3","2","7","3","3","3","7","4","6","6","7","6","6","7","3","4","5","6","5","3","5","701209824037175296","潘","159","Female","[""好她"",""坏我"",""坏她"",""好我""]","[""强她"",""弱我"",""弱她"",""强我""]","","","","","","","","8","","","","","","","","","SRET","SRET_math_calculate","","key","8","16.664868852459026","640","356","","","","","1+7= ?","8","1","","","","","","","",""
"2302","","5","psychophysics","137","368779","0.0-7.0-5.0-0.34","6","5","6","5","4","5","3","5","4","5","5","2","-1","0","1","-1","0","1","1","5","5","5","2","4","4","4","4","5","3","5","6","5","7","3","5","6","5","5","5","2","2","6","2","3","5","2","4","3","1","6","3","6","2","2","5","2","5","4","3","2","7","3","3","3","7","4","6","6","7","6","6","7","3","4","5","6","5","3","5","701209824037175296","潘","159","Female","[""好她"",""坏我"",""坏她"",""好我""]","[""强她"",""弱我"",""弱她"",""强我""]","","","","","","","","5","","","","","","","","","SRET","SRET_math_calculate","","key","5","16.664737226277502","640","356","","","","","3+2= ?","5","1","","","","","","","",""
"2464","","7","psychophysics","138","371248","0.0-7.0-5.0-0.35","6","5","6","5","4","5","3","5","4","5","5","2","-1","0","1","-1","0","1","1","5","5","5","2","4","4","4","4","5","3","5","6","5","7","3","5","6","5","5","5","2","2","6","2","3","5","2","4","3","1","6","3","6","2","2","5","2","5","4","3","2","7","3","3","3","7","4","6","6","7","6","6","7","3","4","5","6","5","3","5","701209824037175296","潘","159","Female","[""好她"",""坏我"",""坏她"",""好我""]","[""强她"",""弱我"",""弱她"",""强我""]","","","","","","","","7","","","","","","","","","SRET","SRET_math_calculate","","key","7","16.66218367346949","640","356","","","","","12-5= ?","7","1","","","","","","","",""
"2025","","9","psychophysics","139","373282","0.0-7.0-5.0-0.36","6","5","6","5","4","5","3","5","4","5","5","2","-1","0","1","-1","0","1","1","5","5","5","2","4","4","4","4","5","3","5","6","5","7","3","5","6","5","5","5","2","2","6","2","3","5","2","4","3","1","6","3","6","2","2","5","2","5","4","3","2","7","3","3","3","7","4","6","6","7","6","6","7","3","4","5","6","5","3","5","701209824037175296","潘","159","Female","[""好她"",""坏我"",""坏她"",""好我""]","[""强她"",""弱我"",""弱她"",""强我""]","","","","","","","","9","","","","","","","","","SRET","SRET_math_calculate","","key","9","16.666297520661423","640","356","","","","","4+5= ?","9","1","","","","","","","",""
"2711","","3","psychophysics","140","376003","0.0-7.0-5.0-0.37","6","5","6","5","4","5","3","5","4","5","5","2","-1","0","1","-1","0","1","1","5","5","5","2","4","4","4","4","5","3","5","6","5","7","3","5","6","5","5","5","2","2","6","2","3","5","2","4","3","1","6","3","6","2","2","5","2","5","4","3","2","7","3","3","3","7","4","6","6","7","6","6","7","3","4","5","6","5","3","5","701209824037175296","潘","159","Female","[""好她"",""坏我"",""坏她"",""好我""]","[""强她"",""弱我"",""弱她"",""强我""]","","","","","","","","3","","","","","","","","","SRET","SRET_math_calculate","","key","3","16.66476073619614","640","356","","","","","9/3= ?","3","1","","","","","","","",""
"2263","","8","psychophysics","141","378271","0.0-7.0-5.0-0.38","6","5","6","5","4","5","3","5","4","5","5","2","-1","0","1","-1","0","1","1","5","5","5","2","4","4","4","4","5","3","5","6","5","7","3","5","6","5","5","5","2","2","6","2","3","5","2","4","3","1","6","3","6","2","2","5","2","5","4","3","2","7","3","3","3","7","4","6","6","7","6","6","7","3","4","5","6","5","3","5","701209824037175296","潘","159","Female","[""好她"",""坏我"",""坏她"",""好我""]","[""强她"",""弱我"",""弱她"",""强我""]","","","","","","","","8","","","","","","","","","SRET","SRET_math_calculate","","key","8","16.666511111111483","640","356","","","","","5+3= ?","8","1","","","","","","","",""
"2272","","6","psychophysics","142","380545","0.0-7.0-5.0-0.39","6","5","6","5","4","5","3","5","4","5","5","2","-1","0","1","-1","0","1","1","5","5","5","2","4","4","4","4","5","3","5","6","5","7","3","5","6","5","5","5","2","2","6","2","3","5","2","4","3","1","6","3","6","2","2","5","2","5","4","3","2","7","3","3","3","7","4","6","6","7","6","6","7","3","4","5","6","5","3","5","701209824037175296","潘","159","Female","[""好她"",""坏我"",""坏她"",""好我""]","[""强她"",""弱我"",""弱她"",""强我""]","","","","","","","","6","","","","","","","","","SRET","SRET_math_calculate","","key","6","16.66894814814786","640","356","","","","","8-2= ?","6","1","","","","","","","",""
