"rt","stimulus","response","trial_type","trial_index","time_elapsed","internal_node_id","swb_1","swb_2","swb_3","swb_4","swb_5","LOT_1","LOT_2","LOT_3","LOT_4","LOT_5","LOT_6","IPC_1","IPC_2","IPC_3","IPC_4","IPC_5","IPC_6","IPC_7","IPC_8","MorIden_1","MorIden_2","MorIden_3","MorIden_4","MorIden_5","MorIden_6","MorIden_7","MorIden_8","MorIden_9","MorIden_10","moralSeImag_1","moralSeImag_2","moralSeImag_3","moralSeImag_4","moralSeImag_5","moralSeImag_6","moralSeImag_7","moralSeImag_8","moralSeImag_9","sde_1","sde_2","sde_3","sde_4","sde_5","sde_6","sde_7","sde_8","sde_9","sde_10","trap2","sde_11","sde_12","sde_13","sde_14","sde_15","sde_16","sde_17","sde_18","sde_19","sde_20","IM_1","IM_2","IM_3","IM_4","IM_5","IM_6","IM_7","IM_8","IM_9","IM_10","IM_11","IM_12","IM_13","IM_14","IM_15","IM_16","IM_17","IM_18","IM_19","IM_20","subj_idx","friend_name","ParticipantID","Sex","Word","Word2","value","success","timeout","failed_images","failed_audio","failed_video","user_agent","responses","item_order","radio_event_ids","radio_event_times","key_event_times","mouse_event_times","straightlining","zigzagging","honeypot","view_history","response_type","key_press","avg_frame_time","center_x","center_y","correct_response","correct","identity","Image","word","condition","task_id","screen_id","time_stamp","person","valence","domain","math","status","duration","question_order","trap2_item"
"2942","
   <p><div style='color:white; font-size: 25px'>您好，欢迎参加本次实验。</div></p>
   <p><div style='color:white; font-size: 25px'>为充分保障您的权利，请确保您已经知晓并同意《参与实验同意书》以及《数据公开知情同意书》。</div></p>
   <p><div style='color:white; font-size: 25px'>如果您未见过上述内容，请咨询实验员。</div></p>
   <p style='color:white; font-size: 25px'>如果您选择继续实验，则表示您已经清楚两份知情同意书的内容并同意。</p>
   <p><div style = ""color: pink;font-size:30px;"">请确保您记得day0的实验编号，您将在本次实验输入该编号，若您忘记，请咨询实验员后作答。</div></p>
   <p><div style = ""color:lightblue;font-size:25px;"">请您尽可能认真地作答，我们将依据您在各问卷和按键任务中的作答质量发放报酬。</div></p>
   <p> <div style = ""color: green""><按空格键至下页></div> </p>
   "," ","html-keyboard-response","0","2945","0.0-0.0","3","2","3","2","1","2","3","2","3","4","4","1","0","-1","1","-2","0","1","0","4","5","5","4","4","3","4","3","4","4","3","4","3","4","5","3","4","3","4","3","3","5","4","6","3","3","6","4","5","1","3","3","4","5","2","5","2","3","4","2","3","3","2","3","3","7","3","3","3","6","3","2","5","3","2","3","2","5","2","3","771420253753446401","张","244","Male","[""好我"",""坏他"",""坏我"",""好他""]","[""强我"",""弱他"",""弱我"",""强他""]","","","","","","","","","","","","","","","","","","","","","","","","","","","","","","","","","","","","","","",""
"","","","call-function","1","2946","0.0-1.0-0.0","3","2","3","2","1","2","3","2","3","4","4","1","0","-1","1","-2","0","1","0","4","5","5","4","4","3","4","3","4","4","3","4","3","4","5","3","4","3","4","3","3","5","4","6","3","3","6","4","5","1","3","3","4","5","2","5","2","3","4","2","3","3","2","3","3","7","3","3","3","6","3","2","5","3","2","3","2","5","2","3","771420253753446401","张","244","Male","[""好我"",""坏他"",""坏我"",""好他""]","[""强我"",""弱他"",""弱我"",""强他""]","","","","","","","","","","","","","","","","","","","","","","","","","","","","","","","","","","","","","","",""
"16505","","[{""name"":""Sex"",""value"":""0""},{""name"":""friend_name"",""value"":""张""},{""name"":""ParticipantID"",""value"":""244""}]","survey-html-form","2","19452","0.0-1.0-1.0","3","2","3","2","1","2","3","2","3","4","4","1","0","-1","1","-2","0","1","0","4","5","5","4","4","3","4","3","4","4","3","4","3","4","5","3","4","3","4","3","3","5","4","6","3","3","6","4","5","1","3","3","4","5","2","5","2","3","4","2","3","3","2","3","3","7","3","3","3","6","3","2","5","3","2","3","2","5","2","3","771420253753446401","张","244","Male","[""好我"",""坏他"",""坏我"",""好他""]","[""强我"",""弱他"",""弱我"",""强他""]","","","","","","","","","","","","","","","","","","","","","","","","","","","","","","","","","","","","","","",""
"","","","preload","3","21049","0.0-2.0","3","2","3","2","1","2","3","2","3","4","4","1","0","-1","1","-2","0","1","0","4","5","5","4","4","3","4","3","4","4","3","4","3","4","5","3","4","3","4","3","3","5","4","6","3","3","6","4","5","1","3","3","4","5","2","5","2","3","4","2","3","3","2","3","3","7","3","3","3","6","3","2","5","3","2","3","2","5","2","3","771420253753446401","张","244","Male","[""好我"",""坏他"",""坏我"",""好他""]","[""强我"",""弱他"",""弱我"",""强他""]","","true","false","[]","[]","[]","","","","","","","","","","","","","","","","","","","","","","","","","","","","","","","","",""
"","","","fullscreen","4","24877","0.0-3.0","3","2","3","2","1","2","3","2","3","4","4","1","0","-1","1","-2","0","1","0","4","5","5","4","4","3","4","3","4","4","3","4","3","4","5","3","4","3","4","3","3","5","4","6","3","3","6","4","5","1","3","3","4","5","2","5","2","3","4","2","3","3","2","3","3","7","3","3","3","6","3","2","5","3","2","3","2","5","2","3","771420253753446401","张","244","Male","[""好我"",""坏他"",""坏我"",""好他""]","[""强我"",""弱他"",""弱我"",""强他""]","","true","","","","","{}","","","","","","","","","","","","","","","","","","","","","","","","","","","","","","","",""
"31351.5","","{""Q01"":""3"",""Q02"":""2"",""Q03"":""3"",""Q04"":""2"",""Q05"":""1""}","survey-template","5","56231","0.0-4.0","3","2","3","2","1","2","3","2","3","4","4","1","0","-1","1","-2","0","1","0","4","5","5","4","4","3","4","3","4","4","3","4","3","4","5","3","4","3","4","3","3","5","4","6","3","3","6","4","5","1","3","3","4","5","2","5","2","3","4","2","3","3","2","3","3","7","3","3","3","6","3","2","5","3","2","3","2","5","2","3","771420253753446401","张","244","Male","[""好我"",""坏他"",""坏我"",""好他""]","[""强我"",""弱他"",""弱我"",""强他""]","","","","","","","","{""Q01"":""3"",""Q02"":""2"",""Q03"":""3"",""Q04"":""2"",""Q05"":""1""}","[0,1,2,3,4]","[""Q01"",""Q02"",""Q03"",""Q04"",""Q05""]","[4103.60000000149,10222.19999999553,11230.19999999553,23863.79999999702,29042.10000000149]","[]","[3028.39999999851,4103.60000000149,5161,9347.60000000149,10222.19999999553,11230.19999999553,22744.10000000149,23863.79999999702,29042.10000000149,31350.19999999553]","0.4","1","0","","","","","","","","","","","","","","","","","","","","","","",""
"17063.19999999553","","{""Q01"":""2"",""Q02"":""3"",""Q03"":""2"",""Q04"":""3"",""Q05"":""4"",""Q06"":""4""}","survey-template","6","73299","0.0-5.0","3","2","3","2","1","2","3","2","3","4","4","1","0","-1","1","-2","0","1","0","4","5","5","4","4","3","4","3","4","4","3","4","3","4","5","3","4","3","4","3","3","5","4","6","3","3","6","4","5","1","3","3","4","5","2","5","2","3","4","2","3","3","2","3","3","7","3","3","3","6","3","2","5","3","2","3","2","5","2","3","771420253753446401","张","244","Male","[""好我"",""坏他"",""坏我"",""好他""]","[""强我"",""弱他"",""弱我"",""强他""]","","","","","","","","{""Q01"":""2"",""Q02"":""3"",""Q03"":""2"",""Q04"":""3"",""Q05"":""4"",""Q06"":""4""}","[0,1,2,3,4,5]","[""Q01"",""Q02"",""Q03"",""Q04"",""Q05"",""Q06"",""Q06""]","[3246.1999999955297,5363.79999999702,6997.19999999553,9926.19999999553,11060.09999999404,13917.59999999404,15676.19999999553]","[]","[3246.1999999955297,5363.79999999702,6997.19999999553,8567.89999999851,9926.19999999553,11060.09999999404,12176.09999999404,13917.59999999404,15676.19999999553,17062.29999999702]","0.5","0.8","0","","","","","","","","","","","","","","","","","","","","","","",""
"22782.70000000298","","{""Q01"":""1"",""Q02"":""0"",""Q03"":""-1"",""Q04"":""1"",""Q05"":""-2"",""Q06"":""0"",""Q07"":""1"",""Q08"":""0""}","survey-template","7","96085","0.0-6.0","3","2","3","2","1","2","3","2","3","4","4","1","0","-1","1","-2","0","1","0","4","5","5","4","4","3","4","3","4","4","3","4","3","4","5","3","4","3","4","3","3","5","4","6","3","3","6","4","5","1","3","3","4","5","2","5","2","3","4","2","3","3","2","3","3","7","3","3","3","6","3","2","5","3","2","3","2","5","2","3","771420253753446401","张","244","Male","[""好我"",""坏他"",""坏我"",""好他""]","[""强我"",""弱他"",""弱我"",""强他""]","","","","","","","","{""Q01"":""1"",""Q02"":""0"",""Q03"":""-1"",""Q04"":""1"",""Q05"":""-2"",""Q06"":""0"",""Q07"":""1"",""Q08"":""0""}","[0,1,2,3,4,5,6,7]","[""Q01"",""Q02"",""Q01"",""Q03"",""Q04"",""Q05"",""Q06"",""Q07"",""Q08""]","[2631.60000000149,6793.39999999851,8113.5,10609.29999999702,12533.5,15591.39999999851,17057.20000000298,19290.89999999851,20984.5]","[]","[2631.60000000149,4869.79999999702,6793.39999999851,8113.5,10609.29999999702,12533.5,14533.29999999702,15591.39999999851,17057.20000000298,18847.29999999702,19290.89999999851,20303.39999999851,20984.5,22781.39999999851]","0.375","0.5714285714285714","0","","","","","","","","","","","","","","","","","","","","","","",""
"2537","","","instructions","8","98625","0.0-7.0","3","2","3","2","1","2","3","2","3","4","4","1","0","-1","1","-2","0","1","0","4","5","5","4","4","3","4","3","4","4","3","4","3","4","5","3","4","3","4","3","3","5","4","6","3","3","6","4","5","1","3","3","4","5","2","5","2","3","4","2","3","3","2","3","3","7","3","3","3","6","3","2","5","3","2","3","2","5","2","3","771420253753446401","张","244","Male","[""好我"",""坏他"",""坏我"",""好他""]","[""强我"",""弱他"",""弱我"",""强他""]","","","","","","","","","","","","","","","","","[{""page_index"":0,""viewing_time"":2537}]","","","","","","","","","","","","","","","","","","","","","",""
"143869","","","instructions","9","242495","0.0-8.0-1.0-0.0","3","2","3","2","1","2","3","2","3","4","4","1","0","-1","1","-2","0","1","0","4","5","5","4","4","3","4","3","4","4","3","4","3","4","5","3","4","3","4","3","3","5","4","6","3","3","6","4","5","1","3","3","4","5","2","5","2","3","4","2","3","3","2","3","3","7","3","3","3","6","3","2","5","3","2","3","2","5","2","3","771420253753446401","张","244","Male","[""好我"",""坏他"",""坏我"",""好他""]","[""强我"",""弱他"",""弱我"",""强他""]","","","","","","","","","","","","","","","","","[{""page_index"":0,""viewing_time"":2687},{""page_index"":1,""viewing_time"":121784},{""page_index"":2,""viewing_time"":2082},{""page_index"":3,""viewing_time"":5115},{""page_index"":2,""viewing_time"":1362},{""page_index"":1,""viewing_time"":2542},{""page_index"":0,""viewing_time"":2214},{""page_index"":1,""viewing_time"":4082},{""page_index"":2,""viewing_time"":1180},{""page_index"":3,""viewing_time"":822}]","","","","","","","","","","","","","","","","","","","","","",""
"445","","f","psychophysics","10","243947","0.0-8.0-1.0-1.0-0.0-0.0","3","2","3","2","1","2","3","2","3","4","4","1","0","-1","1","-2","0","1","0","4","5","5","4","4","3","4","3","4","4","3","4","3","4","5","3","4","3","4","3","3","5","4","6","3","3","6","4","5","1","3","3","4","5","2","5","2","3","4","2","3","3","2","3","3","7","3","3","3","6","3","2","5","3","2","3","2","5","2","3","771420253753446401","张","244","Male","[""好我"",""坏他"",""坏我"",""好他""]","[""强我"",""弱他"",""弱我"",""强他""]","","","","","","","","match","","","","","","","","","","key","f","16.623255813953218","768","428","f","true","match","img/diamond.png","弱我","弱我","prac_ALT2_ability","practice_ability","","","","","","","","",""
"null","<span style='color:GreenYellow; font-size: 70px;'>正确! </span>","null","html-keyboard-response","11","244450","0.0-8.0-1.0-1.0-0.0-1.0","3","2","3","2","1","2","3","2","3","4","4","1","0","-1","1","-2","0","1","0","4","5","5","4","4","3","4","3","4","4","3","4","3","4","5","3","4","3","4","3","3","5","4","6","3","3","6","4","5","1","3","3","4","5","2","5","2","3","4","2","3","3","2","3","3","7","3","3","3","6","3","2","5","3","2","3","2","5","2","3","771420253753446401","张","244","Male","[""好我"",""坏他"",""坏我"",""好他""]","[""强我"",""弱他"",""弱我"",""强他""]","","","","","","","","","","","","","","","","","","","","","","","","","","","","","","feedback_test","","","","","","","","",""
"635","","f","psychophysics","12","246094","0.0-8.0-1.0-1.0-0.0-0.1","3","2","3","2","1","2","3","2","3","4","4","1","0","-1","1","-2","0","1","0","4","5","5","4","4","3","4","3","4","4","3","4","3","4","5","3","4","3","4","3","3","5","4","6","3","3","6","4","5","1","3","3","4","5","2","5","2","3","4","2","3","3","2","3","3","7","3","3","3","6","3","2","5","3","2","3","2","5","2","3","771420253753446401","张","244","Male","[""好我"",""坏他"",""坏我"",""好他""]","[""强我"",""弱他"",""弱我"",""强他""]","","","","","","","","match","","","","","","","","","","key","f","16.626530612245137","768","428","f","true","match","img/triangle.png","强我","强我","prac_ALT2_ability","practice_ability","","","","","","","","",""
"null","<span style='color:GreenYellow; font-size: 70px;'>正确! </span>","null","html-keyboard-response","13","246598","0.0-8.0-1.0-1.0-0.0-1.1","3","2","3","2","1","2","3","2","3","4","4","1","0","-1","1","-2","0","1","0","4","5","5","4","4","3","4","3","4","4","3","4","3","4","5","3","4","3","4","3","3","5","4","6","3","3","6","4","5","1","3","3","4","5","2","5","2","3","4","2","3","3","2","3","3","7","3","3","3","6","3","2","5","3","2","3","2","5","2","3","771420253753446401","张","244","Male","[""好我"",""坏他"",""坏我"",""好他""]","[""强我"",""弱他"",""弱我"",""强他""]","","","","","","","","","","","","","","","","","","","","","","","","","","","","","","feedback_test","","","","","","","","",""
"852","","j","psychophysics","14","248470","0.0-8.0-1.0-1.0-0.0-0.2","3","2","3","2","1","2","3","2","3","4","4","1","0","-1","1","-2","0","1","0","4","5","5","4","4","3","4","3","4","4","3","4","3","4","5","3","4","3","4","3","3","5","4","6","3","3","6","4","5","1","3","3","4","5","2","5","2","3","4","2","3","3","2","3","3","7","3","3","3","6","3","2","5","3","2","3","2","5","2","3","771420253753446401","张","244","Male","[""好我"",""坏他"",""坏我"",""好他""]","[""强我"",""弱他"",""弱我"",""强他""]","","","","","","","","nonmatch","","","","","","","","","","key","j","16.637837837837733","768","428","f","false","match","img/ellipse.png","弱他","弱他","prac_ALT2_ability","practice_ability","","","","","","","","",""
"null","<span style='color:red; font-size: 70px;'>错误! </span>","null","html-keyboard-response","15","248979","0.0-8.0-1.0-1.0-0.0-1.2","3","2","3","2","1","2","3","2","3","4","4","1","0","-1","1","-2","0","1","0","4","5","5","4","4","3","4","3","4","4","3","4","3","4","5","3","4","3","4","3","3","5","4","6","3","3","6","4","5","1","3","3","4","5","2","5","2","3","4","2","3","3","2","3","3","7","3","3","3","6","3","2","5","3","2","3","2","5","2","3","771420253753446401","张","244","Male","[""好我"",""坏他"",""坏我"",""好他""]","[""强我"",""弱他"",""弱我"",""强他""]","","","","","","","","","","","","","","","","","","","","","","","","","","","","","","feedback_test","","","","","","","","",""
"1038","","f","psychophysics","16","251026","0.0-8.0-1.0-1.0-0.0-0.3","3","2","3","2","1","2","3","2","3","4","4","1","0","-1","1","-2","0","1","0","4","5","5","4","4","3","4","3","4","4","3","4","3","4","5","3","4","3","4","3","3","5","4","6","3","3","6","4","5","1","3","3","4","5","2","5","2","3","4","2","3","3","2","3","3","7","3","3","3","6","3","2","5","3","2","3","2","5","2","3","771420253753446401","张","244","Male","[""好我"",""坏他"",""坏我"",""好他""]","[""强我"",""弱他"",""弱我"",""强他""]","","","","","","","","match","","","","","","","","","","key","f","16.631147540983605","768","428","f","true","match","img/hexagon.png","强他","强他","prac_ALT2_ability","practice_ability","","","","","","","","",""
"null","<span style='color:GreenYellow; font-size: 70px;'>正确! </span>","null","html-keyboard-response","17","251531","0.0-8.0-1.0-1.0-0.0-1.3","3","2","3","2","1","2","3","2","3","4","4","1","0","-1","1","-2","0","1","0","4","5","5","4","4","3","4","3","4","4","3","4","3","4","5","3","4","3","4","3","3","5","4","6","3","3","6","4","5","1","3","3","4","5","2","5","2","3","4","2","3","3","2","3","3","7","3","3","3","6","3","2","5","3","2","3","2","5","2","3","771420253753446401","张","244","Male","[""好我"",""坏他"",""坏我"",""好他""]","[""强我"",""弱他"",""弱我"",""强他""]","","","","","","","","","","","","","","","","","","","","","","","","","","","","","","feedback_test","","","","","","","","",""
"653","","f","psychophysics","18","253189","0.0-8.0-1.0-1.0-0.0-0.4","3","2","3","2","1","2","3","2","3","4","4","1","0","-1","1","-2","0","1","0","4","5","5","4","4","3","4","3","4","4","3","4","3","4","5","3","4","3","4","3","3","5","4","6","3","3","6","4","5","1","3","3","4","5","2","5","2","3","4","2","3","3","2","3","3","7","3","3","3","6","3","2","5","3","2","3","2","5","2","3","771420253753446401","张","244","Male","[""好我"",""坏他"",""坏我"",""好他""]","[""强我"",""弱他"",""弱我"",""强他""]","","","","","","","","match","","","","","","","","","","key","f","16.574747474747415","768","428","j","false","nonmatch","img/diamond.png","强他","弱我","prac_ALT2_ability","practice_ability","","","","","","","","",""
"null","<span style='color:red; font-size: 70px;'>错误! </span>","null","html-keyboard-response","19","253711","0.0-8.0-1.0-1.0-0.0-1.4","3","2","3","2","1","2","3","2","3","4","4","1","0","-1","1","-2","0","1","0","4","5","5","4","4","3","4","3","4","4","3","4","3","4","5","3","4","3","4","3","3","5","4","6","3","3","6","4","5","1","3","3","4","5","2","5","2","3","4","2","3","3","2","3","3","7","3","3","3","6","3","2","5","3","2","3","2","5","2","3","771420253753446401","张","244","Male","[""好我"",""坏他"",""坏我"",""好他""]","[""强我"",""弱他"",""弱我"",""强他""]","","","","","","","","","","","","","","","","","","","","","","","","","","","","","","feedback_test","","","","","","","","",""
"579","","f","psychophysics","20","255306","0.0-8.0-1.0-1.0-0.0-0.5","3","2","3","2","1","2","3","2","3","4","4","1","0","-1","1","-2","0","1","0","4","5","5","4","4","3","4","3","4","4","3","4","3","4","5","3","4","3","4","3","3","5","4","6","3","3","6","4","5","1","3","3","4","5","2","5","2","3","4","2","3","3","2","3","3","7","3","3","3","6","3","2","5","3","2","3","2","5","2","3","771420253753446401","张","244","Male","[""好我"",""坏他"",""坏我"",""好他""]","[""强我"",""弱他"",""弱我"",""强他""]","","","","","","","","match","","","","","","","","","","key","f","16.60421052631573","768","428","j","false","nonmatch","img/triangle.png","强他","强我","prac_ALT2_ability","practice_ability","","","","","","","","",""
"null","<span style='color:red; font-size: 70px;'>错误! </span>","null","html-keyboard-response","21","255813","0.0-8.0-1.0-1.0-0.0-1.5","3","2","3","2","1","2","3","2","3","4","4","1","0","-1","1","-2","0","1","0","4","5","5","4","4","3","4","3","4","4","3","4","3","4","5","3","4","3","4","3","3","5","4","6","3","3","6","4","5","1","3","3","4","5","2","5","2","3","4","2","3","3","2","3","3","7","3","3","3","6","3","2","5","3","2","3","2","5","2","3","771420253753446401","张","244","Male","[""好我"",""坏他"",""坏我"",""好他""]","[""强我"",""弱他"",""弱我"",""强他""]","","","","","","","","","","","","","","","","","","","","","","","","","","","","","","feedback_test","","","","","","","","",""
"663","","f","psychophysics","22","257479","0.0-8.0-1.0-1.0-0.0-0.6","3","2","3","2","1","2","3","2","3","4","4","1","0","-1","1","-2","0","1","0","4","5","5","4","4","3","4","3","4","4","3","4","3","4","5","3","4","3","4","3","3","5","4","6","3","3","6","4","5","1","3","3","4","5","2","5","2","3","4","2","3","3","2","3","3","7","3","3","3","6","3","2","5","3","2","3","2","5","2","3","771420253753446401","张","244","Male","[""好我"",""坏他"",""坏我"",""好他""]","[""强我"",""弱他"",""弱我"",""强他""]","","","","","","","","match","","","","","","","","","","key","f","16.555555555555557","768","428","f","true","match","img/triangle.png","强我","强我","prac_ALT2_ability","practice_ability","","","","","","","","",""
"null","<span style='color:GreenYellow; font-size: 70px;'>正确! </span>","null","html-keyboard-response","23","257984","0.0-8.0-1.0-1.0-0.0-1.6","3","2","3","2","1","2","3","2","3","4","4","1","0","-1","1","-2","0","1","0","4","5","5","4","4","3","4","3","4","4","3","4","3","4","5","3","4","3","4","3","3","5","4","6","3","3","6","4","5","1","3","3","4","5","2","5","2","3","4","2","3","3","2","3","3","7","3","3","3","6","3","2","5","3","2","3","2","5","2","3","771420253753446401","张","244","Male","[""好我"",""坏他"",""坏我"",""好他""]","[""强我"",""弱他"",""弱我"",""强他""]","","","","","","","","","","","","","","","","","","","","","","","","","","","","","","feedback_test","","","","","","","","",""
"825","","j","psychophysics","24","259814","0.0-8.0-1.0-1.0-0.0-0.7","3","2","3","2","1","2","3","2","3","4","4","1","0","-1","1","-2","0","1","0","4","5","5","4","4","3","4","3","4","4","3","4","3","4","5","3","4","3","4","3","3","5","4","6","3","3","6","4","5","1","3","3","4","5","2","5","2","3","4","2","3","3","2","3","3","7","3","3","3","6","3","2","5","3","2","3","2","5","2","3","771420253753446401","张","244","Male","[""好我"",""坏他"",""坏我"",""好他""]","[""强我"",""弱他"",""弱我"",""强他""]","","","","","","","","nonmatch","","","","","","","","","","key","j","16.652293577981705","768","428","j","true","nonmatch","img/ellipse.png","弱我","弱他","prac_ALT2_ability","practice_ability","","","","","","","","",""
"null","<span style='color:GreenYellow; font-size: 70px;'>正确! </span>","null","html-keyboard-response","25","260345","0.0-8.0-1.0-1.0-0.0-1.7","3","2","3","2","1","2","3","2","3","4","4","1","0","-1","1","-2","0","1","0","4","5","5","4","4","3","4","3","4","4","3","4","3","4","5","3","4","3","4","3","3","5","4","6","3","3","6","4","5","1","3","3","4","5","2","5","2","3","4","2","3","3","2","3","3","7","3","3","3","6","3","2","5","3","2","3","2","5","2","3","771420253753446401","张","244","Male","[""好我"",""坏他"",""坏我"",""好他""]","[""强我"",""弱他"",""弱我"",""强他""]","","","","","","","","","","","","","","","","","","","","","","","","","","","","","","feedback_test","","","","","","","","",""
"667","","f","psychophysics","26","262029","0.0-8.0-1.0-1.0-0.0-0.8","3","2","3","2","1","2","3","2","3","4","4","1","0","-1","1","-2","0","1","0","4","5","5","4","4","3","4","3","4","4","3","4","3","4","5","3","4","3","4","3","3","5","4","6","3","3","6","4","5","1","3","3","4","5","2","5","2","3","4","2","3","3","2","3","3","7","3","3","3","6","3","2","5","3","2","3","2","5","2","3","771420253753446401","张","244","Male","[""好我"",""坏他"",""坏我"",""好他""]","[""强我"",""弱他"",""弱我"",""强他""]","","","","","","","","match","","","","","","","","","","key","f","16.642000000000117","768","428","f","true","match","img/ellipse.png","弱他","弱他","prac_ALT2_ability","practice_ability","","","","","","","","",""
"null","<span style='color:GreenYellow; font-size: 70px;'>正确! </span>","null","html-keyboard-response","27","262539","0.0-8.0-1.0-1.0-0.0-1.8","3","2","3","2","1","2","3","2","3","4","4","1","0","-1","1","-2","0","1","0","4","5","5","4","4","3","4","3","4","4","3","4","3","4","5","3","4","3","4","3","3","5","4","6","3","3","6","4","5","1","3","3","4","5","2","5","2","3","4","2","3","3","2","3","3","7","3","3","3","6","3","2","5","3","2","3","2","5","2","3","771420253753446401","张","244","Male","[""好我"",""坏他"",""坏我"",""好他""]","[""强我"",""弱他"",""弱我"",""强他""]","","","","","","","","","","","","","","","","","","","","","","","","","","","","","","feedback_test","","","","","","","","",""
"844","","f","psychophysics","28","264385","0.0-8.0-1.0-1.0-0.0-0.9","3","2","3","2","1","2","3","2","3","4","4","1","0","-1","1","-2","0","1","0","4","5","5","4","4","3","4","3","4","4","3","4","3","4","5","3","4","3","4","3","3","5","4","6","3","3","6","4","5","1","3","3","4","5","2","5","2","3","4","2","3","3","2","3","3","7","3","3","3","6","3","2","5","3","2","3","2","5","2","3","771420253753446401","张","244","Male","[""好我"",""坏他"",""坏我"",""好他""]","[""强我"",""弱他"",""弱我"",""强他""]","","","","","","","","match","","","","","","","","","","key","f","16.58363636363647","768","428","j","false","nonmatch","img/diamond.png","强我","弱我","prac_ALT2_ability","practice_ability","","","","","","","","",""
"null","<span style='color:red; font-size: 70px;'>错误! </span>","null","html-keyboard-response","29","264895","0.0-8.0-1.0-1.0-0.0-1.9","3","2","3","2","1","2","3","2","3","4","4","1","0","-1","1","-2","0","1","0","4","5","5","4","4","3","4","3","4","4","3","4","3","4","5","3","4","3","4","3","3","5","4","6","3","3","6","4","5","1","3","3","4","5","2","5","2","3","4","2","3","3","2","3","3","7","3","3","3","6","3","2","5","3","2","3","2","5","2","3","771420253753446401","张","244","Male","[""好我"",""坏他"",""坏我"",""好他""]","[""强我"",""弱他"",""弱我"",""强他""]","","","","","","","","","","","","","","","","","","","","","","","","","","","","","","feedback_test","","","","","","","","",""
"780","","j","psychophysics","30","266680","0.0-8.0-1.0-1.0-0.0-0.10","3","2","3","2","1","2","3","2","3","4","4","1","0","-1","1","-2","0","1","0","4","5","5","4","4","3","4","3","4","4","3","4","3","4","5","3","4","3","4","3","3","5","4","6","3","3","6","4","5","1","3","3","4","5","2","5","2","3","4","2","3","3","2","3","3","7","3","3","3","6","3","2","5","3","2","3","2","5","2","3","771420253753446401","张","244","Male","[""好我"",""坏他"",""坏我"",""好他""]","[""强我"",""弱他"",""弱我"",""强他""]","","","","","","","","nonmatch","","","","","","","","","","key","j","16.654716981131745","768","428","j","true","nonmatch","img/hexagon.png","强我","强他","prac_ALT2_ability","practice_ability","","","","","","","","",""
"null","<span style='color:GreenYellow; font-size: 70px;'>正确! </span>","null","html-keyboard-response","31","267207","0.0-8.0-1.0-1.0-0.0-1.10","3","2","3","2","1","2","3","2","3","4","4","1","0","-1","1","-2","0","1","0","4","5","5","4","4","3","4","3","4","4","3","4","3","4","5","3","4","3","4","3","3","5","4","6","3","3","6","4","5","1","3","3","4","5","2","5","2","3","4","2","3","3","2","3","3","7","3","3","3","6","3","2","5","3","2","3","2","5","2","3","771420253753446401","张","244","Male","[""好我"",""坏他"",""坏我"",""好他""]","[""强我"",""弱他"",""弱我"",""强他""]","","","","","","","","","","","","","","","","","","","","","","","","","","","","","","feedback_test","","","","","","","","",""
"645","","j","psychophysics","32","268878","0.0-8.0-1.0-1.0-0.0-0.11","3","2","3","2","1","2","3","2","3","4","4","1","0","-1","1","-2","0","1","0","4","5","5","4","4","3","4","3","4","4","3","4","3","4","5","3","4","3","4","3","3","5","4","6","3","3","6","4","5","1","3","3","4","5","2","5","2","3","4","2","3","3","2","3","3","7","3","3","3","6","3","2","5","3","2","3","2","5","2","3","771420253753446401","张","244","Male","[""好我"",""坏他"",""坏我"",""好他""]","[""强我"",""弱他"",""弱我"",""强他""]","","","","","","","","nonmatch","","","","","","","","","","key","j","16.629292929292813","768","428","j","true","nonmatch","img/triangle.png","弱我","强我","prac_ALT2_ability","practice_ability","","","","","","","","",""
"null","<span style='color:GreenYellow; font-size: 70px;'>正确! </span>","null","html-keyboard-response","33","269380","0.0-8.0-1.0-1.0-0.0-1.11","3","2","3","2","1","2","3","2","3","4","4","1","0","-1","1","-2","0","1","0","4","5","5","4","4","3","4","3","4","4","3","4","3","4","5","3","4","3","4","3","3","5","4","6","3","3","6","4","5","1","3","3","4","5","2","5","2","3","4","2","3","3","2","3","3","7","3","3","3","6","3","2","5","3","2","3","2","5","2","3","771420253753446401","张","244","Male","[""好我"",""坏他"",""坏我"",""好他""]","[""强我"",""弱他"",""弱我"",""强他""]","","","","","","","","","","","","","","","","","","","","","","","","","","","","","","feedback_test","","","","","","","","",""
"774","","j","psychophysics","34","271160","0.0-8.0-1.0-1.0-0.0-0.12","3","2","3","2","1","2","3","2","3","4","4","1","0","-1","1","-2","0","1","0","4","5","5","4","4","3","4","3","4","4","3","4","3","4","5","3","4","3","4","3","3","5","4","6","3","3","6","4","5","1","3","3","4","5","2","5","2","3","4","2","3","3","2","3","3","7","3","3","3","6","3","2","5","3","2","3","2","5","2","3","771420253753446401","张","244","Male","[""好我"",""坏他"",""坏我"",""好他""]","[""强我"",""弱他"",""弱我"",""强他""]","","","","","","","","nonmatch","","","","","","","","","","key","j","16.59811320754684","768","428","j","true","nonmatch","img/triangle.png","弱他","强我","prac_ALT2_ability","practice_ability","","","","","","","","",""
"null","<span style='color:GreenYellow; font-size: 70px;'>正确! </span>","null","html-keyboard-response","35","271669","0.0-8.0-1.0-1.0-0.0-1.12","3","2","3","2","1","2","3","2","3","4","4","1","0","-1","1","-2","0","1","0","4","5","5","4","4","3","4","3","4","4","3","4","3","4","5","3","4","3","4","3","3","5","4","6","3","3","6","4","5","1","3","3","4","5","2","5","2","3","4","2","3","3","2","3","3","7","3","3","3","6","3","2","5","3","2","3","2","5","2","3","771420253753446401","张","244","Male","[""好我"",""坏他"",""坏我"",""好他""]","[""强我"",""弱他"",""弱我"",""强他""]","","","","","","","","","","","","","","","","","","","","","","","","","","","","","","feedback_test","","","","","","","","",""
"724","","j","psychophysics","36","273391","0.0-8.0-1.0-1.0-0.0-0.13","3","2","3","2","1","2","3","2","3","4","4","1","0","-1","1","-2","0","1","0","4","5","5","4","4","3","4","3","4","4","3","4","3","4","5","3","4","3","4","3","3","5","4","6","3","3","6","4","5","1","3","3","4","5","2","5","2","3","4","2","3","3","2","3","3","7","3","3","3","6","3","2","5","3","2","3","2","5","2","3","771420253753446401","张","244","Male","[""好我"",""坏他"",""坏我"",""好他""]","[""强我"",""弱他"",""弱我"",""强他""]","","","","","","","","nonmatch","","","","","","","","","","key","j","16.64019607843126","768","428","j","true","nonmatch","img/ellipse.png","强我","弱他","prac_ALT2_ability","practice_ability","","","","","","","","",""
"null","<span style='color:GreenYellow; font-size: 70px;'>正确! </span>","null","html-keyboard-response","37","273928","0.0-8.0-1.0-1.0-0.0-1.13","3","2","3","2","1","2","3","2","3","4","4","1","0","-1","1","-2","0","1","0","4","5","5","4","4","3","4","3","4","4","3","4","3","4","5","3","4","3","4","3","3","5","4","6","3","3","6","4","5","1","3","3","4","5","2","5","2","3","4","2","3","3","2","3","3","7","3","3","3","6","3","2","5","3","2","3","2","5","2","3","771420253753446401","张","244","Male","[""好我"",""坏他"",""坏我"",""好他""]","[""强我"",""弱他"",""弱我"",""强他""]","","","","","","","","","","","","","","","","","","","","","","","","","","","","","","feedback_test","","","","","","","","",""
"830","","j","psychophysics","38","275772","0.0-8.0-1.0-1.0-0.0-0.14","3","2","3","2","1","2","3","2","3","4","4","1","0","-1","1","-2","0","1","0","4","5","5","4","4","3","4","3","4","4","3","4","3","4","5","3","4","3","4","3","3","5","4","6","3","3","6","4","5","1","3","3","4","5","2","5","2","3","4","2","3","3","2","3","3","7","3","3","3","6","3","2","5","3","2","3","2","5","2","3","771420253753446401","张","244","Male","[""好我"",""坏他"",""坏我"",""好他""]","[""强我"",""弱他"",""弱我"",""强他""]","","","","","","","","nonmatch","","","","","","","","","","key","j","16.654128440366865","768","428","f","false","match","img/diamond.png","弱我","弱我","prac_ALT2_ability","practice_ability","","","","","","","","",""
"null","<span style='color:red; font-size: 70px;'>错误! </span>","null","html-keyboard-response","39","276277","0.0-8.0-1.0-1.0-0.0-1.14","3","2","3","2","1","2","3","2","3","4","4","1","0","-1","1","-2","0","1","0","4","5","5","4","4","3","4","3","4","4","3","4","3","4","5","3","4","3","4","3","3","5","4","6","3","3","6","4","5","1","3","3","4","5","2","5","2","3","4","2","3","3","2","3","3","7","3","3","3","6","3","2","5","3","2","3","2","5","2","3","771420253753446401","张","244","Male","[""好我"",""坏他"",""坏我"",""好他""]","[""强我"",""弱他"",""弱我"",""强他""]","","","","","","","","","","","","","","","","","","","","","","","","","","","","","","feedback_test","","","","","","","","",""
"777","","f","psychophysics","40","278058","0.0-8.0-1.0-1.0-0.0-0.15","3","2","3","2","1","2","3","2","3","4","4","1","0","-1","1","-2","0","1","0","4","5","5","4","4","3","4","3","4","4","3","4","3","4","5","3","4","3","4","3","3","5","4","6","3","3","6","4","5","1","3","3","4","5","2","5","2","3","4","2","3","3","2","3","3","7","3","3","3","6","3","2","5","3","2","3","2","5","2","3","771420253753446401","张","244","Male","[""好我"",""坏他"",""坏我"",""好他""]","[""强我"",""弱他"",""弱我"",""强他""]","","","","","","","","match","","","","","","","","","","key","f","16.65188679245261","768","428","f","true","match","img/ellipse.png","弱他","弱他","prac_ALT2_ability","practice_ability","","","","","","","","",""
"null","<span style='color:GreenYellow; font-size: 70px;'>正确! </span>","null","html-keyboard-response","41","278563","0.0-8.0-1.0-1.0-0.0-1.15","3","2","3","2","1","2","3","2","3","4","4","1","0","-1","1","-2","0","1","0","4","5","5","4","4","3","4","3","4","4","3","4","3","4","5","3","4","3","4","3","3","5","4","6","3","3","6","4","5","1","3","3","4","5","2","5","2","3","4","2","3","3","2","3","3","7","3","3","3","6","3","2","5","3","2","3","2","5","2","3","771420253753446401","张","244","Male","[""好我"",""坏他"",""坏我"",""好他""]","[""强我"",""弱他"",""弱我"",""强他""]","","","","","","","","","","","","","","","","","","","","","","","","","","","","","","feedback_test","","","","","","","","",""
"812","","j","psychophysics","42","280383","0.0-8.0-1.0-1.0-0.0-0.16","3","2","3","2","1","2","3","2","3","4","4","1","0","-1","1","-2","0","1","0","4","5","5","4","4","3","4","3","4","4","3","4","3","4","5","3","4","3","4","3","3","5","4","6","3","3","6","4","5","1","3","3","4","5","2","5","2","3","4","2","3","3","2","3","3","7","3","3","3","6","3","2","5","3","2","3","2","5","2","3","771420253753446401","张","244","Male","[""好我"",""坏他"",""坏我"",""好他""]","[""强我"",""弱他"",""弱我"",""强他""]","","","","","","","","nonmatch","","","","","","","","","","key","j","16.61666666666699","768","428","j","true","nonmatch","img/ellipse.png","强他","弱他","prac_ALT2_ability","practice_ability","","","","","","","","",""
"null","<span style='color:GreenYellow; font-size: 70px;'>正确! </span>","null","html-keyboard-response","43","280926","0.0-8.0-1.0-1.0-0.0-1.16","3","2","3","2","1","2","3","2","3","4","4","1","0","-1","1","-2","0","1","0","4","5","5","4","4","3","4","3","4","4","3","4","3","4","5","3","4","3","4","3","3","5","4","6","3","3","6","4","5","1","3","3","4","5","2","5","2","3","4","2","3","3","2","3","3","7","3","3","3","6","3","2","5","3","2","3","2","5","2","3","771420253753446401","张","244","Male","[""好我"",""坏他"",""坏我"",""好他""]","[""强我"",""弱他"",""弱我"",""强他""]","","","","","","","","","","","","","","","","","","","","","","","","","","","","","","feedback_test","","","","","","","","",""
"931","","f","psychophysics","44","282866","0.0-8.0-1.0-1.0-0.0-0.17","3","2","3","2","1","2","3","2","3","4","4","1","0","-1","1","-2","0","1","0","4","5","5","4","4","3","4","3","4","4","3","4","3","4","5","3","4","3","4","3","3","5","4","6","3","3","6","4","5","1","3","3","4","5","2","5","2","3","4","2","3","3","2","3","3","7","3","3","3","6","3","2","5","3","2","3","2","5","2","3","771420253753446401","张","244","Male","[""好我"",""坏他"",""坏我"",""好他""]","[""强我"",""弱他"",""弱我"",""强他""]","","","","","","","","match","","","","","","","","","","key","f","16.62608695652174","768","428","f","true","match","img/triangle.png","强我","强我","prac_ALT2_ability","practice_ability","","","","","","","","",""
"null","<span style='color:GreenYellow; font-size: 70px;'>正确! </span>","null","html-keyboard-response","45","283372","0.0-8.0-1.0-1.0-0.0-1.17","3","2","3","2","1","2","3","2","3","4","4","1","0","-1","1","-2","0","1","0","4","5","5","4","4","3","4","3","4","4","3","4","3","4","5","3","4","3","4","3","3","5","4","6","3","3","6","4","5","1","3","3","4","5","2","5","2","3","4","2","3","3","2","3","3","7","3","3","3","6","3","2","5","3","2","3","2","5","2","3","771420253753446401","张","244","Male","[""好我"",""坏他"",""坏我"",""好他""]","[""强我"",""弱他"",""弱我"",""强他""]","","","","","","","","","","","","","","","","","","","","","","","","","","","","","","feedback_test","","","","","","","","",""
"1094","","f","psychophysics","46","285471","0.0-8.0-1.0-1.0-0.0-0.18","3","2","3","2","1","2","3","2","3","4","4","1","0","-1","1","-2","0","1","0","4","5","5","4","4","3","4","3","4","4","3","4","3","4","5","3","4","3","4","3","3","5","4","6","3","3","6","4","5","1","3","3","4","5","2","5","2","3","4","2","3","3","2","3","3","7","3","3","3","6","3","2","5","3","2","3","2","5","2","3","771420253753446401","张","244","Male","[""好我"",""坏他"",""坏我"",""好他""]","[""强我"",""弱他"",""弱我"",""强他""]","","","","","","","","match","","","","","","","","","","key","f","16.647200000000186","768","428","j","false","nonmatch","img/diamond.png","弱他","弱我","prac_ALT2_ability","practice_ability","","","","","","","","",""
"null","<span style='color:red; font-size: 70px;'>错误! </span>","null","html-keyboard-response","47","285980","0.0-8.0-1.0-1.0-0.0-1.18","3","2","3","2","1","2","3","2","3","4","4","1","0","-1","1","-2","0","1","0","4","5","5","4","4","3","4","3","4","4","3","4","3","4","5","3","4","3","4","3","3","5","4","6","3","3","6","4","5","1","3","3","4","5","2","5","2","3","4","2","3","3","2","3","3","7","3","3","3","6","3","2","5","3","2","3","2","5","2","3","771420253753446401","张","244","Male","[""好我"",""坏他"",""坏我"",""好他""]","[""强我"",""弱他"",""弱我"",""强他""]","","","","","","","","","","","","","","","","","","","","","","","","","","","","","","feedback_test","","","","","","","","",""
"1218","","f","psychophysics","48","288200","0.0-8.0-1.0-1.0-0.0-0.19","3","2","3","2","1","2","3","2","3","4","4","1","0","-1","1","-2","0","1","0","4","5","5","4","4","3","4","3","4","4","3","4","3","4","5","3","4","3","4","3","3","5","4","6","3","3","6","4","5","1","3","3","4","5","2","5","2","3","4","2","3","3","2","3","3","7","3","3","3","6","3","2","5","3","2","3","2","5","2","3","771420253753446401","张","244","Male","[""好我"",""坏他"",""坏我"",""好他""]","[""强我"",""弱他"",""弱我"",""强他""]","","","","","","","","match","","","","","","","","","","key","f","16.605303030302764","768","428","j","false","nonmatch","img/hexagon.png","弱我","强他","prac_ALT2_ability","practice_ability","","","","","","","","",""
"null","<span class='add_' style='color:yellow; font-size: 70px;'> 太慢! </span>","null","html-keyboard-response","49","288712","0.0-8.0-1.0-1.0-0.0-1.19","3","2","3","2","1","2","3","2","3","4","4","1","0","-1","1","-2","0","1","0","4","5","5","4","4","3","4","3","4","4","3","4","3","4","5","3","4","3","4","3","3","5","4","6","3","3","6","4","5","1","3","3","4","5","2","5","2","3","4","2","3","3","2","3","3","7","3","3","3","6","3","2","5","3","2","3","2","5","2","3","771420253753446401","张","244","Male","[""好我"",""坏他"",""坏我"",""好他""]","[""强我"",""弱他"",""弱我"",""强他""]","","","","","","","","","","","","","","","","","","","","","","","","","","","","","","feedback_test","","","","","","","","",""
"920","","j","psychophysics","50","290642","0.0-8.0-1.0-1.0-0.0-0.20","3","2","3","2","1","2","3","2","3","4","4","1","0","-1","1","-2","0","1","0","4","5","5","4","4","3","4","3","4","4","3","4","3","4","5","3","4","3","4","3","3","5","4","6","3","3","6","4","5","1","3","3","4","5","2","5","2","3","4","2","3","3","2","3","3","7","3","3","3","6","3","2","5","3","2","3","2","5","2","3","771420253753446401","张","244","Male","[""好我"",""坏他"",""坏我"",""好他""]","[""强我"",""弱他"",""弱我"",""强他""]","","","","","","","","nonmatch","","","","","","","","","","key","j","16.644736842105264","768","428","j","true","nonmatch","img/hexagon.png","弱他","强他","prac_ALT2_ability","practice_ability","","","","","","","","",""
"null","<span style='color:GreenYellow; font-size: 70px;'>正确! </span>","null","html-keyboard-response","51","291149","0.0-8.0-1.0-1.0-0.0-1.20","3","2","3","2","1","2","3","2","3","4","4","1","0","-1","1","-2","0","1","0","4","5","5","4","4","3","4","3","4","4","3","4","3","4","5","3","4","3","4","3","3","5","4","6","3","3","6","4","5","1","3","3","4","5","2","5","2","3","4","2","3","3","2","3","3","7","3","3","3","6","3","2","5","3","2","3","2","5","2","3","771420253753446401","张","244","Male","[""好我"",""坏他"",""坏我"",""好他""]","[""强我"",""弱他"",""弱我"",""强他""]","","","","","","","","","","","","","","","","","","","","","","","","","","","","","","feedback_test","","","","","","","","",""
"764","","f","psychophysics","52","292918","0.0-8.0-1.0-1.0-0.0-0.21","3","2","3","2","1","2","3","2","3","4","4","1","0","-1","1","-2","0","1","0","4","5","5","4","4","3","4","3","4","4","3","4","3","4","5","3","4","3","4","3","3","5","4","6","3","3","6","4","5","1","3","3","4","5","2","5","2","3","4","2","3","3","2","3","3","7","3","3","3","6","3","2","5","3","2","3","2","5","2","3","771420253753446401","张","244","Male","[""好我"",""坏他"",""坏我"",""好他""]","[""强我"",""弱他"",""弱我"",""强他""]","","","","","","","","match","","","","","","","","","","key","f","16.621904761904652","768","428","f","true","match","img/hexagon.png","强他","强他","prac_ALT2_ability","practice_ability","","","","","","","","",""
"null","<span style='color:GreenYellow; font-size: 70px;'>正确! </span>","null","html-keyboard-response","53","293425","0.0-8.0-1.0-1.0-0.0-1.21","3","2","3","2","1","2","3","2","3","4","4","1","0","-1","1","-2","0","1","0","4","5","5","4","4","3","4","3","4","4","3","4","3","4","5","3","4","3","4","3","3","5","4","6","3","3","6","4","5","1","3","3","4","5","2","5","2","3","4","2","3","3","2","3","3","7","3","3","3","6","3","2","5","3","2","3","2","5","2","3","771420253753446401","张","244","Male","[""好我"",""坏他"",""坏我"",""好他""]","[""强我"",""弱他"",""弱我"",""强他""]","","","","","","","","","","","","","","","","","","","","","","","","","","","","","","feedback_test","","","","","","","","",""
"978","","j","psychophysics","54","295419","0.0-8.0-1.0-1.0-0.0-0.22","3","2","3","2","1","2","3","2","3","4","4","1","0","-1","1","-2","0","1","0","4","5","5","4","4","3","4","3","4","4","3","4","3","4","5","3","4","3","4","3","3","5","4","6","3","3","6","4","5","1","3","3","4","5","2","5","2","3","4","2","3","3","2","3","3","7","3","3","3","6","3","2","5","3","2","3","2","5","2","3","771420253753446401","张","244","Male","[""好我"",""坏他"",""坏我"",""好他""]","[""强我"",""弱他"",""弱我"",""强他""]","","","","","","","","nonmatch","","","","","","","","","","key","j","16.646610169491428","768","428","f","false","match","img/diamond.png","弱我","弱我","prac_ALT2_ability","practice_ability","","","","","","","","",""
"null","<span style='color:red; font-size: 70px;'>错误! </span>","null","html-keyboard-response","55","295925","0.0-8.0-1.0-1.0-0.0-1.22","3","2","3","2","1","2","3","2","3","4","4","1","0","-1","1","-2","0","1","0","4","5","5","4","4","3","4","3","4","4","3","4","3","4","5","3","4","3","4","3","3","5","4","6","3","3","6","4","5","1","3","3","4","5","2","5","2","3","4","2","3","3","2","3","3","7","3","3","3","6","3","2","5","3","2","3","2","5","2","3","771420253753446401","张","244","Male","[""好我"",""坏他"",""坏我"",""好他""]","[""强我"",""弱他"",""弱我"",""强他""]","","","","","","","","","","","","","","","","","","","","","","","","","","","","","","feedback_test","","","","","","","","",""
"910","","f","psychophysics","56","297842","0.0-8.0-1.0-1.0-0.0-0.23","3","2","3","2","1","2","3","2","3","4","4","1","0","-1","1","-2","0","1","0","4","5","5","4","4","3","4","3","4","4","3","4","3","4","5","3","4","3","4","3","3","5","4","6","3","3","6","4","5","1","3","3","4","5","2","5","2","3","4","2","3","3","2","3","3","7","3","3","3","6","3","2","5","3","2","3","2","5","2","3","771420253753446401","张","244","Male","[""好我"",""坏他"",""坏我"",""好他""]","[""强我"",""弱他"",""弱我"",""强他""]","","","","","","","","match","","","","","","","","","","key","f","16.654385964912077","768","428","f","true","match","img/hexagon.png","强他","强他","prac_ALT2_ability","practice_ability","","","","","","","","",""
"null","<span style='color:GreenYellow; font-size: 70px;'>正确! </span>","null","html-keyboard-response","57","298344","0.0-8.0-1.0-1.0-0.0-1.23","3","2","3","2","1","2","3","2","3","4","4","1","0","-1","1","-2","0","1","0","4","5","5","4","4","3","4","3","4","4","3","4","3","4","5","3","4","3","4","3","3","5","4","6","3","3","6","4","5","1","3","3","4","5","2","5","2","3","4","2","3","3","2","3","3","7","3","3","3","6","3","2","5","3","2","3","2","5","2","3","771420253753446401","张","244","Male","[""好我"",""坏他"",""坏我"",""好他""]","[""强我"",""弱他"",""弱我"",""强他""]","","","","","","","","","","","","","","","","","","","","","","","","","","","","","","feedback_test","","","","","","","","",""
"866","","j","psychophysics","58","300214","0.0-8.0-1.0-1.0-0.0-0.24","3","2","3","2","1","2","3","2","3","4","4","1","0","-1","1","-2","0","1","0","4","5","5","4","4","3","4","3","4","4","3","4","3","4","5","3","4","3","4","3","3","5","4","6","3","3","6","4","5","1","3","3","4","5","2","5","2","3","4","2","3","3","2","3","3","7","3","3","3","6","3","2","5","3","2","3","2","5","2","3","771420253753446401","张","244","Male","[""好我"",""坏他"",""坏我"",""好他""]","[""强我"",""弱他"",""弱我"",""强他""]","","","","","","","","nonmatch","","","","","","","","","","key","j","16.616216216216426","768","428","f","false","match","img/ellipse.png","弱他","弱他","prac_ALT2_ability","practice_ability","","","","","","","","",""
"null","<span style='color:red; font-size: 70px;'>错误! </span>","null","html-keyboard-response","59","300717","0.0-8.0-1.0-1.0-0.0-1.24","3","2","3","2","1","2","3","2","3","4","4","1","0","-1","1","-2","0","1","0","4","5","5","4","4","3","4","3","4","4","3","4","3","4","5","3","4","3","4","3","3","5","4","6","3","3","6","4","5","1","3","3","4","5","2","5","2","3","4","2","3","3","2","3","3","7","3","3","3","6","3","2","5","3","2","3","2","5","2","3","771420253753446401","张","244","Male","[""好我"",""坏他"",""坏我"",""好他""]","[""强我"",""弱他"",""弱我"",""强他""]","","","","","","","","","","","","","","","","","","","","","","","","","","","","","","feedback_test","","","","","","","","",""
"1116","","f","psychophysics","60","302839","0.0-8.0-1.0-1.0-0.0-0.25","3","2","3","2","1","2","3","2","3","4","4","1","0","-1","1","-2","0","1","0","4","5","5","4","4","3","4","3","4","4","3","4","3","4","5","3","4","3","4","3","3","5","4","6","3","3","6","4","5","1","3","3","4","5","2","5","2","3","4","2","3","3","2","3","3","7","3","3","3","6","3","2","5","3","2","3","2","5","2","3","771420253753446401","张","244","Male","[""好我"",""坏他"",""坏我"",""好他""]","[""强我"",""弱他"",""弱我"",""强他""]","","","","","","","","match","","","","","","","","","","key","f","16.646825396825395","768","428","f","true","match","img/diamond.png","弱我","弱我","prac_ALT2_ability","practice_ability","","","","","","","","",""
"null","<span style='color:GreenYellow; font-size: 70px;'>正确! </span>","null","html-keyboard-response","61","303342","0.0-8.0-1.0-1.0-0.0-1.25","3","2","3","2","1","2","3","2","3","4","4","1","0","-1","1","-2","0","1","0","4","5","5","4","4","3","4","3","4","4","3","4","3","4","5","3","4","3","4","3","3","5","4","6","3","3","6","4","5","1","3","3","4","5","2","5","2","3","4","2","3","3","2","3","3","7","3","3","3","6","3","2","5","3","2","3","2","5","2","3","771420253753446401","张","244","Male","[""好我"",""坏他"",""坏我"",""好他""]","[""强我"",""弱他"",""弱我"",""强他""]","","","","","","","","","","","","","","","","","","","","","","","","","","","","","","feedback_test","","","","","","","","",""
"701","","f","psychophysics","62","305045","0.0-8.0-1.0-1.0-0.0-0.26","3","2","3","2","1","2","3","2","3","4","4","1","0","-1","1","-2","0","1","0","4","5","5","4","4","3","4","3","4","4","3","4","3","4","5","3","4","3","4","3","3","5","4","6","3","3","6","4","5","1","3","3","4","5","2","5","2","3","4","2","3","3","2","3","3","7","3","3","3","6","3","2","5","3","2","3","2","5","2","3","771420253753446401","张","244","Male","[""好我"",""坏他"",""坏我"",""好他""]","[""强我"",""弱他"",""弱我"",""强他""]","","","","","","","","match","","","","","","","","","","key","f","16.60693069306919","768","428","f","true","match","img/triangle.png","强我","强我","prac_ALT2_ability","practice_ability","","","","","","","","",""
"null","<span style='color:GreenYellow; font-size: 70px;'>正确! </span>","null","html-keyboard-response","63","305586","0.0-8.0-1.0-1.0-0.0-1.26","3","2","3","2","1","2","3","2","3","4","4","1","0","-1","1","-2","0","1","0","4","5","5","4","4","3","4","3","4","4","3","4","3","4","5","3","4","3","4","3","3","5","4","6","3","3","6","4","5","1","3","3","4","5","2","5","2","3","4","2","3","3","2","3","3","7","3","3","3","6","3","2","5","3","2","3","2","5","2","3","771420253753446401","张","244","Male","[""好我"",""坏他"",""坏我"",""好他""]","[""强我"",""弱他"",""弱我"",""强他""]","","","","","","","","","","","","","","","","","","","","","","","","","","","","","","feedback_test","","","","","","","","",""
"1057","","j","psychophysics","64","307647","0.0-8.0-1.0-1.0-0.0-0.27","3","2","3","2","1","2","3","2","3","4","4","1","0","-1","1","-2","0","1","0","4","5","5","4","4","3","4","3","4","4","3","4","3","4","5","3","4","3","4","3","3","5","4","6","3","3","6","4","5","1","3","3","4","5","2","5","2","3","4","2","3","3","2","3","3","7","3","3","3","6","3","2","5","3","2","3","2","5","2","3","771420253753446401","张","244","Male","[""好我"",""坏他"",""坏我"",""好他""]","[""强我"",""弱他"",""弱我"",""强他""]","","","","","","","","nonmatch","","","","","","","","","","key","j","16.626829268292493","768","428","j","true","nonmatch","img/ellipse.png","强我","弱他","prac_ALT2_ability","practice_ability","","","","","","","","",""
"null","<span style='color:GreenYellow; font-size: 70px;'>正确! </span>","null","html-keyboard-response","65","308158","0.0-8.0-1.0-1.0-0.0-1.27","3","2","3","2","1","2","3","2","3","4","4","1","0","-1","1","-2","0","1","0","4","5","5","4","4","3","4","3","4","4","3","4","3","4","5","3","4","3","4","3","3","5","4","6","3","3","6","4","5","1","3","3","4","5","2","5","2","3","4","2","3","3","2","3","3","7","3","3","3","6","3","2","5","3","2","3","2","5","2","3","771420253753446401","张","244","Male","[""好我"",""坏他"",""坏我"",""好他""]","[""强我"",""弱他"",""弱我"",""强他""]","","","","","","","","","","","","","","","","","","","","","","","","","","","","","","feedback_test","","","","","","","","",""
"1106","","j","psychophysics","66","310266","0.0-8.0-1.0-1.0-0.0-0.28","3","2","3","2","1","2","3","2","3","4","4","1","0","-1","1","-2","0","1","0","4","5","5","4","4","3","4","3","4","4","3","4","3","4","5","3","4","3","4","3","3","5","4","6","3","3","6","4","5","1","3","3","4","5","2","5","2","3","4","2","3","3","2","3","3","7","3","3","3","6","3","2","5","3","2","3","2","5","2","3","771420253753446401","张","244","Male","[""好我"",""坏他"",""坏我"",""好他""]","[""强我"",""弱他"",""弱我"",""强他""]","","","","","","","","nonmatch","","","","","","","","","","key","j","16.571428571428573","768","428","j","true","nonmatch","img/ellipse.png","强他","弱他","prac_ALT2_ability","practice_ability","","","","","","","","",""
"null","<span style='color:GreenYellow; font-size: 70px;'>正确! </span>","null","html-keyboard-response","67","310770","0.0-8.0-1.0-1.0-0.0-1.28","3","2","3","2","1","2","3","2","3","4","4","1","0","-1","1","-2","0","1","0","4","5","5","4","4","3","4","3","4","4","3","4","3","4","5","3","4","3","4","3","3","5","4","6","3","3","6","4","5","1","3","3","4","5","2","5","2","3","4","2","3","3","2","3","3","7","3","3","3","6","3","2","5","3","2","3","2","5","2","3","771420253753446401","张","244","Male","[""好我"",""坏他"",""坏我"",""好他""]","[""强我"",""弱他"",""弱我"",""强他""]","","","","","","","","","","","","","","","","","","","","","","","","","","","","","","feedback_test","","","","","","","","",""
"1159","","f","psychophysics","68","312931","0.0-8.0-1.0-1.0-0.0-0.29","3","2","3","2","1","2","3","2","3","4","4","1","0","-1","1","-2","0","1","0","4","5","5","4","4","3","4","3","4","4","3","4","3","4","5","3","4","3","4","3","3","5","4","6","3","3","6","4","5","1","3","3","4","5","2","5","2","3","4","2","3","3","2","3","3","7","3","3","3","6","3","2","5","3","2","3","2","5","2","3","771420253753446401","张","244","Male","[""好我"",""坏他"",""坏我"",""好他""]","[""强我"",""弱他"",""弱我"",""强他""]","","","","","","","","match","","","","","","","","","","key","f","16.594573643410943","768","428","f","true","match","img/diamond.png","弱我","弱我","prac_ALT2_ability","practice_ability","","","","","","","","",""
"null","<span style='color:GreenYellow; font-size: 70px;'>正确! </span>","null","html-keyboard-response","69","313436","0.0-8.0-1.0-1.0-0.0-1.29","3","2","3","2","1","2","3","2","3","4","4","1","0","-1","1","-2","0","1","0","4","5","5","4","4","3","4","3","4","4","3","4","3","4","5","3","4","3","4","3","3","5","4","6","3","3","6","4","5","1","3","3","4","5","2","5","2","3","4","2","3","3","2","3","3","7","3","3","3","6","3","2","5","3","2","3","2","5","2","3","771420253753446401","张","244","Male","[""好我"",""坏他"",""坏我"",""好他""]","[""强我"",""弱他"",""弱我"",""强他""]","","","","","","","","","","","","","","","","","","","","","","","","","","","","","","feedback_test","","","","","","","","",""
"1135","","f","psychophysics","70","315573","0.0-8.0-1.0-1.0-0.0-0.30","3","2","3","2","1","2","3","2","3","4","4","1","0","-1","1","-2","0","1","0","4","5","5","4","4","3","4","3","4","4","3","4","3","4","5","3","4","3","4","3","3","5","4","6","3","3","6","4","5","1","3","3","4","5","2","5","2","3","4","2","3","3","2","3","3","7","3","3","3","6","3","2","5","3","2","3","2","5","2","3","771420253753446401","张","244","Male","[""好我"",""坏他"",""坏我"",""好他""]","[""强我"",""弱他"",""弱我"",""强他""]","","","","","","","","match","","","","","","","","","","key","f","16.577343750000182","768","428","j","false","nonmatch","img/diamond.png","弱他","弱我","prac_ALT2_ability","practice_ability","","","","","","","","",""
"null","<span style='color:red; font-size: 70px;'>错误! </span>","null","html-keyboard-response","71","316079","0.0-8.0-1.0-1.0-0.0-1.30","3","2","3","2","1","2","3","2","3","4","4","1","0","-1","1","-2","0","1","0","4","5","5","4","4","3","4","3","4","4","3","4","3","4","5","3","4","3","4","3","3","5","4","6","3","3","6","4","5","1","3","3","4","5","2","5","2","3","4","2","3","3","2","3","3","7","3","3","3","6","3","2","5","3","2","3","2","5","2","3","771420253753446401","张","244","Male","[""好我"",""坏他"",""坏我"",""好他""]","[""强我"",""弱他"",""弱我"",""强他""]","","","","","","","","","","","","","","","","","","","","","","","","","","","","","","feedback_test","","","","","","","","",""
"850","","f","psychophysics","72","317936","0.0-8.0-1.0-1.0-0.0-0.31","3","2","3","2","1","2","3","2","3","4","4","1","0","-1","1","-2","0","1","0","4","5","5","4","4","3","4","3","4","4","3","4","3","4","5","3","4","3","4","3","3","5","4","6","3","3","6","4","5","1","3","3","4","5","2","5","2","3","4","2","3","3","2","3","3","7","3","3","3","6","3","2","5","3","2","3","2","5","2","3","771420253753446401","张","244","Male","[""好我"",""坏他"",""坏我"",""好他""]","[""强我"",""弱他"",""弱我"",""强他""]","","","","","","","","match","","","","","","","","","","key","f","16.601801801801695","768","428","f","true","match","img/hexagon.png","强他","强他","prac_ALT2_ability","practice_ability","","","","","","","","",""
"null","<span style='color:GreenYellow; font-size: 70px;'>正确! </span>","null","html-keyboard-response","73","318439","0.0-8.0-1.0-1.0-0.0-1.31","3","2","3","2","1","2","3","2","3","4","4","1","0","-1","1","-2","0","1","0","4","5","5","4","4","3","4","3","4","4","3","4","3","4","5","3","4","3","4","3","3","5","4","6","3","3","6","4","5","1","3","3","4","5","2","5","2","3","4","2","3","3","2","3","3","7","3","3","3","6","3","2","5","3","2","3","2","5","2","3","771420253753446401","张","244","Male","[""好我"",""坏他"",""坏我"",""好他""]","[""强我"",""弱他"",""弱我"",""强他""]","","","","","","","","","","","","","","","","","","","","","","","","","","","","","","feedback_test","","","","","","","","",""
"945","","f","psychophysics","74","320386","0.0-8.0-1.0-1.0-0.0-0.32","3","2","3","2","1","2","3","2","3","4","4","1","0","-1","1","-2","0","1","0","4","5","5","4","4","3","4","3","4","4","3","4","3","4","5","3","4","3","4","3","3","5","4","6","3","3","6","4","5","1","3","3","4","5","2","5","2","3","4","2","3","3","2","3","3","7","3","3","3","6","3","2","5","3","2","3","2","5","2","3","771420253753446401","张","244","Male","[""好我"",""坏他"",""坏我"",""好他""]","[""强我"",""弱他"",""弱我"",""强他""]","","","","","","","","match","","","","","","","","","","key","f","16.64913793103438","768","428","j","false","nonmatch","img/diamond.png","强我","弱我","prac_ALT2_ability","practice_ability","","","","","","","","",""
"null","<span style='color:red; font-size: 70px;'>错误! </span>","null","html-keyboard-response","75","320895","0.0-8.0-1.0-1.0-0.0-1.32","3","2","3","2","1","2","3","2","3","4","4","1","0","-1","1","-2","0","1","0","4","5","5","4","4","3","4","3","4","4","3","4","3","4","5","3","4","3","4","3","3","5","4","6","3","3","6","4","5","1","3","3","4","5","2","5","2","3","4","2","3","3","2","3","3","7","3","3","3","6","3","2","5","3","2","3","2","5","2","3","771420253753446401","张","244","Male","[""好我"",""坏他"",""坏我"",""好他""]","[""强我"",""弱他"",""弱我"",""强他""]","","","","","","","","","","","","","","","","","","","","","","","","","","","","","","feedback_test","","","","","","","","",""
"964","","j","psychophysics","76","322862","0.0-8.0-1.0-1.0-0.0-0.33","3","2","3","2","1","2","3","2","3","4","4","1","0","-1","1","-2","0","1","0","4","5","5","4","4","3","4","3","4","4","3","4","3","4","5","3","4","3","4","3","3","5","4","6","3","3","6","4","5","1","3","3","4","5","2","5","2","3","4","2","3","3","2","3","3","7","3","3","3","6","3","2","5","3","2","3","2","5","2","3","771420253753446401","张","244","Male","[""好我"",""坏他"",""坏我"",""好他""]","[""强我"",""弱他"",""弱我"",""强他""]","","","","","","","","nonmatch","","","","","","","","","","key","j","16.57948717948708","768","428","j","true","nonmatch","img/hexagon.png","弱他","强他","prac_ALT2_ability","practice_ability","","","","","","","","",""
"null","<span style='color:GreenYellow; font-size: 70px;'>正确! </span>","null","html-keyboard-response","77","323368","0.0-8.0-1.0-1.0-0.0-1.33","3","2","3","2","1","2","3","2","3","4","4","1","0","-1","1","-2","0","1","0","4","5","5","4","4","3","4","3","4","4","3","4","3","4","5","3","4","3","4","3","3","5","4","6","3","3","6","4","5","1","3","3","4","5","2","5","2","3","4","2","3","3","2","3","3","7","3","3","3","6","3","2","5","3","2","3","2","5","2","3","771420253753446401","张","244","Male","[""好我"",""坏他"",""坏我"",""好他""]","[""强我"",""弱他"",""弱我"",""强他""]","","","","","","","","","","","","","","","","","","","","","","","","","","","","","","feedback_test","","","","","","","","",""
"897","","j","psychophysics","78","325270","0.0-8.0-1.0-1.0-0.0-0.34","3","2","3","2","1","2","3","2","3","4","4","1","0","-1","1","-2","0","1","0","4","5","5","4","4","3","4","3","4","4","3","4","3","4","5","3","4","3","4","3","3","5","4","6","3","3","6","4","5","1","3","3","4","5","2","5","2","3","4","2","3","3","2","3","3","7","3","3","3","6","3","2","5","3","2","3","2","5","2","3","771420253753446401","张","244","Male","[""好我"",""坏他"",""坏我"",""好他""]","[""强我"",""弱他"",""弱我"",""强他""]","","","","","","","","nonmatch","","","","","","","","","","key","j","16.63274336283186","768","428","j","true","nonmatch","img/diamond.png","强他","弱我","prac_ALT2_ability","practice_ability","","","","","","","","",""
"null","<span style='color:GreenYellow; font-size: 70px;'>正确! </span>","null","html-keyboard-response","79","325780","0.0-8.0-1.0-1.0-0.0-1.34","3","2","3","2","1","2","3","2","3","4","4","1","0","-1","1","-2","0","1","0","4","5","5","4","4","3","4","3","4","4","3","4","3","4","5","3","4","3","4","3","3","5","4","6","3","3","6","4","5","1","3","3","4","5","2","5","2","3","4","2","3","3","2","3","3","7","3","3","3","6","3","2","5","3","2","3","2","5","2","3","771420253753446401","张","244","Male","[""好我"",""坏他"",""坏我"",""好他""]","[""强我"",""弱他"",""弱我"",""强他""]","","","","","","","","","","","","","","","","","","","","","","","","","","","","","","feedback_test","","","","","","","","",""
"1045","","j","psychophysics","80","327829","0.0-8.0-1.0-1.0-0.0-0.35","3","2","3","2","1","2","3","2","3","4","4","1","0","-1","1","-2","0","1","0","4","5","5","4","4","3","4","3","4","4","3","4","3","4","5","3","4","3","4","3","3","5","4","6","3","3","6","4","5","1","3","3","4","5","2","5","2","3","4","2","3","3","2","3","3","7","3","3","3","6","3","2","5","3","2","3","2","5","2","3","771420253753446401","张","244","Male","[""好我"",""坏他"",""坏我"",""好他""]","[""强我"",""弱他"",""弱我"",""强他""]","","","","","","","","nonmatch","","","","","","","","","","key","j","16.652459016393728","768","428","j","true","nonmatch","img/hexagon.png","弱我","强他","prac_ALT2_ability","practice_ability","","","","","","","","",""
"null","<span style='color:GreenYellow; font-size: 70px;'>正确! </span>","null","html-keyboard-response","81","328341","0.0-8.0-1.0-1.0-0.0-1.35","3","2","3","2","1","2","3","2","3","4","4","1","0","-1","1","-2","0","1","0","4","5","5","4","4","3","4","3","4","4","3","4","3","4","5","3","4","3","4","3","3","5","4","6","3","3","6","4","5","1","3","3","4","5","2","5","2","3","4","2","3","3","2","3","3","7","3","3","3","6","3","2","5","3","2","3","2","5","2","3","771420253753446401","张","244","Male","[""好我"",""坏他"",""坏我"",""好他""]","[""强我"",""弱他"",""弱我"",""强他""]","","","","","","","","","","","","","","","","","","","","","","","","","","","","","","feedback_test","","","","","","","","",""
"881","","f","psychophysics","82","330241","0.0-8.0-1.0-1.0-0.0-0.36","3","2","3","2","1","2","3","2","3","4","4","1","0","-1","1","-2","0","1","0","4","5","5","4","4","3","4","3","4","4","3","4","3","4","5","3","4","3","4","3","3","5","4","6","3","3","6","4","5","1","3","3","4","5","2","5","2","3","4","2","3","3","2","3","3","7","3","3","3","6","3","2","5","3","2","3","2","5","2","3","771420253753446401","张","244","Male","[""好我"",""坏他"",""坏我"",""好他""]","[""强我"",""弱他"",""弱我"",""强他""]","","","","","","","","match","","","","","","","","","","key","f","16.644247787611032","768","428","j","false","nonmatch","img/triangle.png","强他","强我","prac_ALT2_ability","practice_ability","","","","","","","","",""
"null","<span style='color:red; font-size: 70px;'>错误! </span>","null","html-keyboard-response","83","330754","0.0-8.0-1.0-1.0-0.0-1.36","3","2","3","2","1","2","3","2","3","4","4","1","0","-1","1","-2","0","1","0","4","5","5","4","4","3","4","3","4","4","3","4","3","4","5","3","4","3","4","3","3","5","4","6","3","3","6","4","5","1","3","3","4","5","2","5","2","3","4","2","3","3","2","3","3","7","3","3","3","6","3","2","5","3","2","3","2","5","2","3","771420253753446401","张","244","Male","[""好我"",""坏他"",""坏我"",""好他""]","[""强我"",""弱他"",""弱我"",""强他""]","","","","","","","","","","","","","","","","","","","","","","","","","","","","","","feedback_test","","","","","","","","",""
"780","","f","psychophysics","84","332543","0.0-8.0-1.0-1.0-0.0-0.37","3","2","3","2","1","2","3","2","3","4","4","1","0","-1","1","-2","0","1","0","4","5","5","4","4","3","4","3","4","4","3","4","3","4","5","3","4","3","4","3","3","5","4","6","3","3","6","4","5","1","3","3","4","5","2","5","2","3","4","2","3","3","2","3","3","7","3","3","3","6","3","2","5","3","2","3","2","5","2","3","771420253753446401","张","244","Male","[""好我"",""坏他"",""坏我"",""好他""]","[""强我"",""弱他"",""弱我"",""强他""]","","","","","","","","match","","","","","","","","","","key","f","16.595238095238095","768","428","f","true","match","img/hexagon.png","强他","强他","prac_ALT2_ability","practice_ability","","","","","","","","",""
"null","<span style='color:GreenYellow; font-size: 70px;'>正确! </span>","null","html-keyboard-response","85","333051","0.0-8.0-1.0-1.0-0.0-1.37","3","2","3","2","1","2","3","2","3","4","4","1","0","-1","1","-2","0","1","0","4","5","5","4","4","3","4","3","4","4","3","4","3","4","5","3","4","3","4","3","3","5","4","6","3","3","6","4","5","1","3","3","4","5","2","5","2","3","4","2","3","3","2","3","3","7","3","3","3","6","3","2","5","3","2","3","2","5","2","3","771420253753446401","张","244","Male","[""好我"",""坏他"",""坏我"",""好他""]","[""强我"",""弱他"",""弱我"",""强他""]","","","","","","","","","","","","","","","","","","","","","","","","","","","","","","feedback_test","","","","","","","","",""
"862","","j","psychophysics","86","334915","0.0-8.0-1.0-1.0-0.0-0.38","3","2","3","2","1","2","3","2","3","4","4","1","0","-1","1","-2","0","1","0","4","5","5","4","4","3","4","3","4","4","3","4","3","4","5","3","4","3","4","3","3","5","4","6","3","3","6","4","5","1","3","3","4","5","2","5","2","3","4","2","3","3","2","3","3","7","3","3","3","6","3","2","5","3","2","3","2","5","2","3","771420253753446401","张","244","Male","[""好我"",""坏他"",""坏我"",""好他""]","[""强我"",""弱他"",""弱我"",""强他""]","","","","","","","","nonmatch","","","","","","","","","","key","j","16.638738738738947","768","428","f","false","match","img/triangle.png","强我","强我","prac_ALT2_ability","practice_ability","","","","","","","","",""
"null","<span style='color:red; font-size: 70px;'>错误! </span>","null","html-keyboard-response","87","335439","0.0-8.0-1.0-1.0-0.0-1.38","3","2","3","2","1","2","3","2","3","4","4","1","0","-1","1","-2","0","1","0","4","5","5","4","4","3","4","3","4","4","3","4","3","4","5","3","4","3","4","3","3","5","4","6","3","3","6","4","5","1","3","3","4","5","2","5","2","3","4","2","3","3","2","3","3","7","3","3","3","6","3","2","5","3","2","3","2","5","2","3","771420253753446401","张","244","Male","[""好我"",""坏他"",""坏我"",""好他""]","[""强我"",""弱他"",""弱我"",""强他""]","","","","","","","","","","","","","","","","","","","","","","","","","","","","","","feedback_test","","","","","","","","",""
"1039","","f","psychophysics","88","337492","0.0-8.0-1.0-1.0-0.0-0.39","3","2","3","2","1","2","3","2","3","4","4","1","0","-1","1","-2","0","1","0","4","5","5","4","4","3","4","3","4","4","3","4","3","4","5","3","4","3","4","3","3","5","4","6","3","3","6","4","5","1","3","3","4","5","2","5","2","3","4","2","3","3","2","3","3","7","3","3","3","6","3","2","5","3","2","3","2","5","2","3","771420253753446401","张","244","Male","[""好我"",""坏他"",""坏我"",""好他""]","[""强我"",""弱他"",""弱我"",""强他""]","","","","","","","","match","","","","","","","","","","key","f","16.56910569105691","768","428","j","false","nonmatch","img/ellipse.png","弱我","弱他","prac_ALT2_ability","practice_ability","","","","","","","","",""
"null","<span style='color:red; font-size: 70px;'>错误! </span>","null","html-keyboard-response","89","338000","0.0-8.0-1.0-1.0-0.0-1.39","3","2","3","2","1","2","3","2","3","4","4","1","0","-1","1","-2","0","1","0","4","5","5","4","4","3","4","3","4","4","3","4","3","4","5","3","4","3","4","3","3","5","4","6","3","3","6","4","5","1","3","3","4","5","2","5","2","3","4","2","3","3","2","3","3","7","3","3","3","6","3","2","5","3","2","3","2","5","2","3","771420253753446401","张","244","Male","[""好我"",""坏他"",""坏我"",""好他""]","[""强我"",""弱他"",""弱我"",""强他""]","","","","","","","","","","","","","","","","","","","","","","","","","","","","","","feedback_test","","","","","","","","",""
"854","","j","psychophysics","90","339859","0.0-8.0-1.0-1.0-0.0-0.40","3","2","3","2","1","2","3","2","3","4","4","1","0","-1","1","-2","0","1","0","4","5","5","4","4","3","4","3","4","4","3","4","3","4","5","3","4","3","4","3","3","5","4","6","3","3","6","4","5","1","3","3","4","5","2","5","2","3","4","2","3","3","2","3","3","7","3","3","3","6","3","2","5","3","2","3","2","5","2","3","771420253753446401","张","244","Male","[""好我"",""坏他"",""坏我"",""好他""]","[""强我"",""弱他"",""弱我"",""强他""]","","","","","","","","nonmatch","","","","","","","","","","key","j","16.628828828828723","768","428","f","false","match","img/ellipse.png","弱他","弱他","prac_ALT2_ability","practice_ability","","","","","","","","",""
"null","<span style='color:red; font-size: 70px;'>错误! </span>","null","html-keyboard-response","91","340363","0.0-8.0-1.0-1.0-0.0-1.40","3","2","3","2","1","2","3","2","3","4","4","1","0","-1","1","-2","0","1","0","4","5","5","4","4","3","4","3","4","4","3","4","3","4","5","3","4","3","4","3","3","5","4","6","3","3","6","4","5","1","3","3","4","5","2","5","2","3","4","2","3","3","2","3","3","7","3","3","3","6","3","2","5","3","2","3","2","5","2","3","771420253753446401","张","244","Male","[""好我"",""坏他"",""坏我"",""好他""]","[""强我"",""弱他"",""弱我"",""强他""]","","","","","","","","","","","","","","","","","","","","","","","","","","","","","","feedback_test","","","","","","","","",""
"816","","f","psychophysics","92","342186","0.0-8.0-1.0-1.0-0.0-0.41","3","2","3","2","1","2","3","2","3","4","4","1","0","-1","1","-2","0","1","0","4","5","5","4","4","3","4","3","4","4","3","4","3","4","5","3","4","3","4","3","3","5","4","6","3","3","6","4","5","1","3","3","4","5","2","5","2","3","4","2","3","3","2","3","3","7","3","3","3","6","3","2","5","3","2","3","2","5","2","3","771420253753446401","张","244","Male","[""好我"",""坏他"",""坏我"",""好他""]","[""强我"",""弱他"",""弱我"",""强他""]","","","","","","","","match","","","","","","","","","","key","f","16.60462962962952","768","428","j","false","nonmatch","img/hexagon.png","强我","强他","prac_ALT2_ability","practice_ability","","","","","","","","",""
"null","<span style='color:red; font-size: 70px;'>错误! </span>","null","html-keyboard-response","93","342690","0.0-8.0-1.0-1.0-0.0-1.41","3","2","3","2","1","2","3","2","3","4","4","1","0","-1","1","-2","0","1","0","4","5","5","4","4","3","4","3","4","4","3","4","3","4","5","3","4","3","4","3","3","5","4","6","3","3","6","4","5","1","3","3","4","5","2","5","2","3","4","2","3","3","2","3","3","7","3","3","3","6","3","2","5","3","2","3","2","5","2","3","771420253753446401","张","244","Male","[""好我"",""坏他"",""坏我"",""好他""]","[""强我"",""弱他"",""弱我"",""强他""]","","","","","","","","","","","","","","","","","","","","","","","","","","","","","","feedback_test","","","","","","","","",""
"738","","f","psychophysics","94","344447","0.0-8.0-1.0-1.0-0.0-0.42","3","2","3","2","1","2","3","2","3","4","4","1","0","-1","1","-2","0","1","0","4","5","5","4","4","3","4","3","4","4","3","4","3","4","5","3","4","3","4","3","3","5","4","6","3","3","6","4","5","1","3","3","4","5","2","5","2","3","4","2","3","3","2","3","3","7","3","3","3","6","3","2","5","3","2","3","2","5","2","3","771420253753446401","张","244","Male","[""好我"",""坏他"",""坏我"",""好他""]","[""强我"",""弱他"",""弱我"",""强他""]","","","","","","","","match","","","","","","","","","","key","f","16.638461538461762","768","428","f","true","match","img/hexagon.png","强他","强他","prac_ALT2_ability","practice_ability","","","","","","","","",""
"null","<span style='color:GreenYellow; font-size: 70px;'>正确! </span>","null","html-keyboard-response","95","344953","0.0-8.0-1.0-1.0-0.0-1.42","3","2","3","2","1","2","3","2","3","4","4","1","0","-1","1","-2","0","1","0","4","5","5","4","4","3","4","3","4","4","3","4","3","4","5","3","4","3","4","3","3","5","4","6","3","3","6","4","5","1","3","3","4","5","2","5","2","3","4","2","3","3","2","3","3","7","3","3","3","6","3","2","5","3","2","3","2","5","2","3","771420253753446401","张","244","Male","[""好我"",""坏他"",""坏我"",""好他""]","[""强我"",""弱他"",""弱我"",""强他""]","","","","","","","","","","","","","","","","","","","","","","","","","","","","","","feedback_test","","","","","","","","",""
"1114","","j","psychophysics","96","347070","0.0-8.0-1.0-1.0-0.0-0.43","3","2","3","2","1","2","3","2","3","4","4","1","0","-1","1","-2","0","1","0","4","5","5","4","4","3","4","3","4","4","3","4","3","4","5","3","4","3","4","3","3","5","4","6","3","3","6","4","5","1","3","3","4","5","2","5","2","3","4","2","3","3","2","3","3","7","3","3","3","6","3","2","5","3","2","3","2","5","2","3","771420253753446401","张","244","Male","[""好我"",""坏他"",""坏我"",""好他""]","[""强我"",""弱他"",""弱我"",""强他""]","","","","","","","","nonmatch","","","","","","","","","","key","j","16.650793650793652","768","428","f","false","match","img/ellipse.png","弱他","弱他","prac_ALT2_ability","practice_ability","","","","","","","","",""
"null","<span style='color:red; font-size: 70px;'>错误! </span>","null","html-keyboard-response","97","347576","0.0-8.0-1.0-1.0-0.0-1.43","3","2","3","2","1","2","3","2","3","4","4","1","0","-1","1","-2","0","1","0","4","5","5","4","4","3","4","3","4","4","3","4","3","4","5","3","4","3","4","3","3","5","4","6","3","3","6","4","5","1","3","3","4","5","2","5","2","3","4","2","3","3","2","3","3","7","3","3","3","6","3","2","5","3","2","3","2","5","2","3","771420253753446401","张","244","Male","[""好我"",""坏他"",""坏我"",""好他""]","[""强我"",""弱他"",""弱我"",""强他""]","","","","","","","","","","","","","","","","","","","","","","","","","","","","","","feedback_test","","","","","","","","",""
"807","","f","psychophysics","98","349386","0.0-8.0-1.0-1.0-0.0-0.44","3","2","3","2","1","2","3","2","3","4","4","1","0","-1","1","-2","0","1","0","4","5","5","4","4","3","4","3","4","4","3","4","3","4","5","3","4","3","4","3","3","5","4","6","3","3","6","4","5","1","3","3","4","5","2","5","2","3","4","2","3","3","2","3","3","7","3","3","3","6","3","2","5","3","2","3","2","5","2","3","771420253753446401","张","244","Male","[""好我"",""坏他"",""坏我"",""好他""]","[""强我"",""弱他"",""弱我"",""强他""]","","","","","","","","match","","","","","","","","","","key","f","16.577777777777456","768","428","j","false","nonmatch","img/triangle.png","弱他","强我","prac_ALT2_ability","practice_ability","","","","","","","","",""
"null","<span style='color:red; font-size: 70px;'>错误! </span>","null","html-keyboard-response","99","349889","0.0-8.0-1.0-1.0-0.0-1.44","3","2","3","2","1","2","3","2","3","4","4","1","0","-1","1","-2","0","1","0","4","5","5","4","4","3","4","3","4","4","3","4","3","4","5","3","4","3","4","3","3","5","4","6","3","3","6","4","5","1","3","3","4","5","2","5","2","3","4","2","3","3","2","3","3","7","3","3","3","6","3","2","5","3","2","3","2","5","2","3","771420253753446401","张","244","Male","[""好我"",""坏他"",""坏我"",""好他""]","[""强我"",""弱他"",""弱我"",""强他""]","","","","","","","","","","","","","","","","","","","","","","","","","","","","","","feedback_test","","","","","","","","",""
"1017","","j","psychophysics","100","351911","0.0-8.0-1.0-1.0-0.0-0.45","3","2","3","2","1","2","3","2","3","4","4","1","0","-1","1","-2","0","1","0","4","5","5","4","4","3","4","3","4","4","3","4","3","4","5","3","4","3","4","3","3","5","4","6","3","3","6","4","5","1","3","3","4","5","2","5","2","3","4","2","3","3","2","3","3","7","3","3","3","6","3","2","5","3","2","3","2","5","2","3","771420253753446401","张","244","Male","[""好我"",""坏他"",""坏我"",""好他""]","[""强我"",""弱他"",""弱我"",""强他""]","","","","","","","","nonmatch","","","","","","","","","","key","j","16.59834710743773","768","428","f","false","match","img/diamond.png","弱我","弱我","prac_ALT2_ability","practice_ability","","","","","","","","",""
"null","<span style='color:red; font-size: 70px;'>错误! </span>","null","html-keyboard-response","101","352414","0.0-8.0-1.0-1.0-0.0-1.45","3","2","3","2","1","2","3","2","3","4","4","1","0","-1","1","-2","0","1","0","4","5","5","4","4","3","4","3","4","4","3","4","3","4","5","3","4","3","4","3","3","5","4","6","3","3","6","4","5","1","3","3","4","5","2","5","2","3","4","2","3","3","2","3","3","7","3","3","3","6","3","2","5","3","2","3","2","5","2","3","771420253753446401","张","244","Male","[""好我"",""坏他"",""坏我"",""好他""]","[""强我"",""弱他"",""弱我"",""强他""]","","","","","","","","","","","","","","","","","","","","","","","","","","","","","","feedback_test","","","","","","","","",""
"784","","f","psychophysics","102","354206","0.0-8.0-1.0-1.0-0.0-0.46","3","2","3","2","1","2","3","2","3","4","4","1","0","-1","1","-2","0","1","0","4","5","5","4","4","3","4","3","4","4","3","4","3","4","5","3","4","3","4","3","3","5","4","6","3","3","6","4","5","1","3","3","4","5","2","5","2","3","4","2","3","3","2","3","3","7","3","3","3","6","3","2","5","3","2","3","2","5","2","3","771420253753446401","张","244","Male","[""好我"",""坏他"",""坏我"",""好他""]","[""强我"",""弱他"",""弱我"",""强他""]","","","","","","","","match","","","","","","","","","","key","f","16.635849056603995","768","428","f","true","match","img/triangle.png","强我","强我","prac_ALT2_ability","practice_ability","","","","","","","","",""
"null","<span style='color:GreenYellow; font-size: 70px;'>正确! </span>","null","html-keyboard-response","103","354727","0.0-8.0-1.0-1.0-0.0-1.46","3","2","3","2","1","2","3","2","3","4","4","1","0","-1","1","-2","0","1","0","4","5","5","4","4","3","4","3","4","4","3","4","3","4","5","3","4","3","4","3","3","5","4","6","3","3","6","4","5","1","3","3","4","5","2","5","2","3","4","2","3","3","2","3","3","7","3","3","3","6","3","2","5","3","2","3","2","5","2","3","771420253753446401","张","244","Male","[""好我"",""坏他"",""坏我"",""好他""]","[""强我"",""弱他"",""弱我"",""强他""]","","","","","","","","","","","","","","","","","","","","","","","","","","","","","","feedback_test","","","","","","","","",""
"857","","j","psychophysics","104","356596","0.0-8.0-1.0-1.0-0.0-0.47","3","2","3","2","1","2","3","2","3","4","4","1","0","-1","1","-2","0","1","0","4","5","5","4","4","3","4","3","4","4","3","4","3","4","5","3","4","3","4","3","3","5","4","6","3","3","6","4","5","1","3","3","4","5","2","5","2","3","4","2","3","3","2","3","3","7","3","3","3","6","3","2","5","3","2","3","2","5","2","3","771420253753446401","张","244","Male","[""好我"",""坏他"",""坏我"",""好他""]","[""强我"",""弱他"",""弱我"",""强他""]","","","","","","","","nonmatch","","","","","","","","","","key","j","16.651351351351245","768","428","j","true","nonmatch","img/triangle.png","弱我","强我","prac_ALT2_ability","practice_ability","","","","","","","","",""
"null","<span style='color:GreenYellow; font-size: 70px;'>正确! </span>","null","html-keyboard-response","105","357098","0.0-8.0-1.0-1.0-0.0-1.47","3","2","3","2","1","2","3","2","3","4","4","1","0","-1","1","-2","0","1","0","4","5","5","4","4","3","4","3","4","4","3","4","3","4","5","3","4","3","4","3","3","5","4","6","3","3","6","4","5","1","3","3","4","5","2","5","2","3","4","2","3","3","2","3","3","7","3","3","3","6","3","2","5","3","2","3","2","5","2","3","771420253753446401","张","244","Male","[""好我"",""坏他"",""坏我"",""好他""]","[""强我"",""弱他"",""弱我"",""强他""]","","","","","","","","","","","","","","","","","","","","","","","","","","","","","","feedback_test","","","","","","","","",""
"27816","<style>.context{color:white; font-size: 35px; line-height:40px}</style>                          <div><p class='context'>您正确回答了60% 的试次。</p><p class='context'>您的平均反应时为840毫秒。</p><p class='context'>恭喜您完成练习。按空格键进入正式实验。</p><p class='footer' style='color:white;font-size: 35px; line-height:40px;'>请在进入正式实验实验之前将您的<span style='color: lightgreen;'>食指</span>放在电脑键盘的相应键位上进行按键。</p>"," ","html-keyboard-response","106","384917","0.0-8.0-1.0-2.0","3","2","3","2","1","2","3","2","3","4","4","1","0","-1","1","-2","0","1","0","4","5","5","4","4","3","4","3","4","4","3","4","3","4","5","3","4","3","4","3","3","5","4","6","3","3","6","4","5","1","3","3","4","5","2","5","2","3","4","2","3","3","2","3","3","7","3","3","3","6","3","2","5","3","2","3","2","5","2","3","771420253753446401","张","244","Male","[""好我"",""坏他"",""坏我"",""好他""]","[""强我"",""弱他"",""弱我"",""强他""]","","","","","","","","","","","","","","","","","","","","","","","","","","","","","","","","","","","","","","",""
"5773","
  <p style='color: white; font-size: 22px'>请您将手指放在按键上，准备进入正式的匹配任务。</p>
  <p> <div style = ""color: green""><按空格键进入下一阶段的匹配任务></div></p>
  "," ","html-keyboard-response","107","390694","0.0-8.0-1.0-3.0","3","2","3","2","1","2","3","2","3","4","4","1","0","-1","1","-2","0","1","0","4","5","5","4","4","3","4","3","4","4","3","4","3","4","5","3","4","3","4","3","3","5","4","6","3","3","6","4","5","1","3","3","4","5","2","5","2","3","4","2","3","3","2","3","3","7","3","3","3","6","3","2","5","3","2","3","2","5","2","3","771420253753446401","张","244","Male","[""好我"",""坏他"",""坏我"",""好他""]","[""强我"",""弱他"",""弱我"",""强他""]","","","","","","","","","","","","","","","","","","","","","","","","","","","","","","","","","","","","","","",""
"641","","j","psychophysics","108","392338","0.0-8.0-1.0-4.0-0.0-0.0","3","2","3","2","1","2","3","2","3","4","4","1","0","-1","1","-2","0","1","0","4","5","5","4","4","3","4","3","4","4","3","4","3","4","5","3","4","3","4","3","3","5","4","6","3","3","6","4","5","1","3","3","4","5","2","5","2","3","4","2","3","3","2","3","3","7","3","3","3","6","3","2","5","3","2","3","2","5","2","3","771420253753446401","张","244","Male","[""好我"",""坏他"",""坏我"",""好他""]","[""强我"",""弱他"",""弱我"",""强他""]","","","","","","","","nonmatch","","","","","","","","","","key","j","16.645360824742628","768","428","j","true","nonmatch","img/ellipse.png","强我","弱他","ALT2","ability","","","","","","","","",""
"null","<span style='color:GreenYellow; font-size: 70px;'>正确! </span>","null","html-keyboard-response","109","392847","0.0-8.0-1.0-4.0-0.0-1.0","3","2","3","2","1","2","3","2","3","4","4","1","0","-1","1","-2","0","1","0","4","5","5","4","4","3","4","3","4","4","3","4","3","4","5","3","4","3","4","3","3","5","4","6","3","3","6","4","5","1","3","3","4","5","2","5","2","3","4","2","3","3","2","3","3","7","3","3","3","6","3","2","5","3","2","3","2","5","2","3","771420253753446401","张","244","Male","[""好我"",""坏他"",""坏我"",""好他""]","[""强我"",""弱他"",""弱我"",""强他""]","","","","","","","","","","","","","","","","","","","","","","","","","","","","","","feedback_test","","","","","","","","",""
"731","","j","psychophysics","110","394585","0.0-8.0-1.0-4.0-0.0-0.1","3","2","3","2","1","2","3","2","3","4","4","1","0","-1","1","-2","0","1","0","4","5","5","4","4","3","4","3","4","4","3","4","3","4","5","3","4","3","4","3","3","5","4","6","3","3","6","4","5","1","3","3","4","5","2","5","2","3","4","2","3","3","2","3","3","7","3","3","3","6","3","2","5","3","2","3","2","5","2","3","771420253753446401","张","244","Male","[""好我"",""坏他"",""坏我"",""好他""]","[""强我"",""弱他"",""弱我"",""强他""]","","","","","","","","nonmatch","","","","","","","","","","key","j","16.59805825242696","768","428","f","false","match","img/diamond.png","弱我","弱我","ALT2","ability","","","","","","","","",""
"null","<span style='color:red; font-size: 70px;'>错误! </span>","null","html-keyboard-response","111","395090","0.0-8.0-1.0-4.0-0.0-1.1","3","2","3","2","1","2","3","2","3","4","4","1","0","-1","1","-2","0","1","0","4","5","5","4","4","3","4","3","4","4","3","4","3","4","5","3","4","3","4","3","3","5","4","6","3","3","6","4","5","1","3","3","4","5","2","5","2","3","4","2","3","3","2","3","3","7","3","3","3","6","3","2","5","3","2","3","2","5","2","3","771420253753446401","张","244","Male","[""好我"",""坏他"",""坏我"",""好他""]","[""强我"",""弱他"",""弱我"",""强他""]","","","","","","","","","","","","","","","","","","","","","","","","","","","","","","feedback_test","","","","","","","","",""
"796","","j","psychophysics","112","396913","0.0-8.0-1.0-4.0-0.0-0.2","3","2","3","2","1","2","3","2","3","4","4","1","0","-1","1","-2","0","1","0","4","5","5","4","4","3","4","3","4","4","3","4","3","4","5","3","4","3","4","3","3","5","4","6","3","3","6","4","5","1","3","3","4","5","2","5","2","3","4","2","3","3","2","3","3","7","3","3","3","6","3","2","5","3","2","3","2","5","2","3","771420253753446401","张","244","Male","[""好我"",""坏他"",""坏我"",""好他""]","[""强我"",""弱他"",""弱我"",""强他""]","","","","","","","","nonmatch","","","","","","","","","","key","j","16.65000000000011","768","428","f","false","match","img/ellipse.png","弱他","弱他","ALT2","ability","","","","","","","","",""
"null","<span style='color:red; font-size: 70px;'>错误! </span>","null","html-keyboard-response","113","397416","0.0-8.0-1.0-4.0-0.0-1.2","3","2","3","2","1","2","3","2","3","4","4","1","0","-1","1","-2","0","1","0","4","5","5","4","4","3","4","3","4","4","3","4","3","4","5","3","4","3","4","3","3","5","4","6","3","3","6","4","5","1","3","3","4","5","2","5","2","3","4","2","3","3","2","3","3","7","3","3","3","6","3","2","5","3","2","3","2","5","2","3","771420253753446401","张","244","Male","[""好我"",""坏他"",""坏我"",""好他""]","[""强我"",""弱他"",""弱我"",""强他""]","","","","","","","","","","","","","","","","","","","","","","","","","","","","","","feedback_test","","","","","","","","",""
"712","","f","psychophysics","114","399135","0.0-8.0-1.0-4.0-0.0-0.3","3","2","3","2","1","2","3","2","3","4","4","1","0","-1","1","-2","0","1","0","4","5","5","4","4","3","4","3","4","4","3","4","3","4","5","3","4","3","4","3","3","5","4","6","3","3","6","4","5","1","3","3","4","5","2","5","2","3","4","2","3","3","2","3","3","7","3","3","3","6","3","2","5","3","2","3","2","5","2","3","771420253753446401","张","244","Male","[""好我"",""坏他"",""坏我"",""好他""]","[""强我"",""弱他"",""弱我"",""强他""]","","","","","","","","match","","","","","","","","","","key","f","16.584313725489967","768","428","f","true","match","img/diamond.png","弱我","弱我","ALT2","ability","","","","","","","","",""
"null","<span style='color:GreenYellow; font-size: 70px;'>正确! </span>","null","html-keyboard-response","115","399641","0.0-8.0-1.0-4.0-0.0-1.3","3","2","3","2","1","2","3","2","3","4","4","1","0","-1","1","-2","0","1","0","4","5","5","4","4","3","4","3","4","4","3","4","3","4","5","3","4","3","4","3","3","5","4","6","3","3","6","4","5","1","3","3","4","5","2","5","2","3","4","2","3","3","2","3","3","7","3","3","3","6","3","2","5","3","2","3","2","5","2","3","771420253753446401","张","244","Male","[""好我"",""坏他"",""坏我"",""好他""]","[""强我"",""弱他"",""弱我"",""强他""]","","","","","","","","","","","","","","","","","","","","","","","","","","","","","","feedback_test","","","","","","","","",""
"738","","f","psychophysics","116","401385","0.0-8.0-1.0-4.0-0.0-0.4","3","2","3","2","1","2","3","2","3","4","4","1","0","-1","1","-2","0","1","0","4","5","5","4","4","3","4","3","4","4","3","4","3","4","5","3","4","3","4","3","3","5","4","6","3","3","6","4","5","1","3","3","4","5","2","5","2","3","4","2","3","3","2","3","3","7","3","3","3","6","3","2","5","3","2","3","2","5","2","3","771420253753446401","张","244","Male","[""好我"",""坏他"",""坏我"",""好他""]","[""强我"",""弱他"",""弱我"",""强他""]","","","","","","","","match","","","","","","","","","","key","f","16.604807692307357","768","428","f","true","match","img/hexagon.png","强他","强他","ALT2","ability","","","","","","","","",""
"null","<span style='color:GreenYellow; font-size: 70px;'>正确! </span>","null","html-keyboard-response","117","401888","0.0-8.0-1.0-4.0-0.0-1.4","3","2","3","2","1","2","3","2","3","4","4","1","0","-1","1","-2","0","1","0","4","5","5","4","4","3","4","3","4","4","3","4","3","4","5","3","4","3","4","3","3","5","4","6","3","3","6","4","5","1","3","3","4","5","2","5","2","3","4","2","3","3","2","3","3","7","3","3","3","6","3","2","5","3","2","3","2","5","2","3","771420253753446401","张","244","Male","[""好我"",""坏他"",""坏我"",""好他""]","[""强我"",""弱他"",""弱我"",""强他""]","","","","","","","","","","","","","","","","","","","","","","","","","","","","","","feedback_test","","","","","","","","",""
"854","","f","psychophysics","118","403751","0.0-8.0-1.0-4.0-0.0-0.5","3","2","3","2","1","2","3","2","3","4","4","1","0","-1","1","-2","0","1","0","4","5","5","4","4","3","4","3","4","4","3","4","3","4","5","3","4","3","4","3","3","5","4","6","3","3","6","4","5","1","3","3","4","5","2","5","2","3","4","2","3","3","2","3","3","7","3","3","3","6","3","2","5","3","2","3","2","5","2","3","771420253753446401","张","244","Male","[""好我"",""坏他"",""坏我"",""好他""]","[""强我"",""弱他"",""弱我"",""强他""]","","","","","","","","match","","","","","","","","","","key","f","16.634234234234444","768","428","j","false","nonmatch","img/triangle.png","强他","强我","ALT2","ability","","","","","","","","",""
"null","<span style='color:red; font-size: 70px;'>错误! </span>","null","html-keyboard-response","119","404256","0.0-8.0-1.0-4.0-0.0-1.5","3","2","3","2","1","2","3","2","3","4","4","1","0","-1","1","-2","0","1","0","4","5","5","4","4","3","4","3","4","4","3","4","3","4","5","3","4","3","4","3","3","5","4","6","3","3","6","4","5","1","3","3","4","5","2","5","2","3","4","2","3","3","2","3","3","7","3","3","3","6","3","2","5","3","2","3","2","5","2","3","771420253753446401","张","244","Male","[""好我"",""坏他"",""坏我"",""好他""]","[""强我"",""弱他"",""弱我"",""强他""]","","","","","","","","","","","","","","","","","","","","","","","","","","","","","","feedback_test","","","","","","","","",""
"869","","f","psychophysics","120","406128","0.0-8.0-1.0-4.0-0.0-0.6","3","2","3","2","1","2","3","2","3","4","4","1","0","-1","1","-2","0","1","0","4","5","5","4","4","3","4","3","4","4","3","4","3","4","5","3","4","3","4","3","3","5","4","6","3","3","6","4","5","1","3","3","4","5","2","5","2","3","4","2","3","3","2","3","3","7","3","3","3","6","3","2","5","3","2","3","2","5","2","3","771420253753446401","张","244","Male","[""好我"",""坏他"",""坏我"",""好他""]","[""强我"",""弱他"",""弱我"",""强他""]","","","","","","","","match","","","","","","","","","","key","f","16.609821428571326","768","428","f","true","match","img/hexagon.png","强他","强他","ALT2","ability","","","","","","","","",""
"null","<span style='color:GreenYellow; font-size: 70px;'>正确! </span>","null","html-keyboard-response","121","406633","0.0-8.0-1.0-4.0-0.0-1.6","3","2","3","2","1","2","3","2","3","4","4","1","0","-1","1","-2","0","1","0","4","5","5","4","4","3","4","3","4","4","3","4","3","4","5","3","4","3","4","3","3","5","4","6","3","3","6","4","5","1","3","3","4","5","2","5","2","3","4","2","3","3","2","3","3","7","3","3","3","6","3","2","5","3","2","3","2","5","2","3","771420253753446401","张","244","Male","[""好我"",""坏他"",""坏我"",""好他""]","[""强我"",""弱他"",""弱我"",""强他""]","","","","","","","","","","","","","","","","","","","","","","","","","","","","","","feedback_test","","","","","","","","",""
"1173","","f","psychophysics","122","408812","0.0-8.0-1.0-4.0-0.0-0.7","3","2","3","2","1","2","3","2","3","4","4","1","0","-1","1","-2","0","1","0","4","5","5","4","4","3","4","3","4","4","3","4","3","4","5","3","4","3","4","3","3","5","4","6","3","3","6","4","5","1","3","3","4","5","2","5","2","3","4","2","3","3","2","3","3","7","3","3","3","6","3","2","5","3","2","3","2","5","2","3","771420253753446401","张","244","Male","[""好我"",""坏他"",""坏我"",""好他""]","[""强我"",""弱他"",""弱我"",""强他""]","","","","","","","","match","","","","","","","","","","key","f","16.626923076923077","768","428","f","true","match","img/hexagon.png","强他","强他","ALT2","ability","","","","","","","","",""
"null","<span style='color:GreenYellow; font-size: 70px;'>正确! </span>","null","html-keyboard-response","123","409314","0.0-8.0-1.0-4.0-0.0-1.7","3","2","3","2","1","2","3","2","3","4","4","1","0","-1","1","-2","0","1","0","4","5","5","4","4","3","4","3","4","4","3","4","3","4","5","3","4","3","4","3","3","5","4","6","3","3","6","4","5","1","3","3","4","5","2","5","2","3","4","2","3","3","2","3","3","7","3","3","3","6","3","2","5","3","2","3","2","5","2","3","771420253753446401","张","244","Male","[""好我"",""坏他"",""坏我"",""好他""]","[""强我"",""弱他"",""弱我"",""强他""]","","","","","","","","","","","","","","","","","","","","","","","","","","","","","","feedback_test","","","","","","","","",""
"952","","j","psychophysics","124","411274","0.0-8.0-1.0-4.0-0.0-0.8","3","2","3","2","1","2","3","2","3","4","4","1","0","-1","1","-2","0","1","0","4","5","5","4","4","3","4","3","4","4","3","4","3","4","5","3","4","3","4","3","3","5","4","6","3","3","6","4","5","1","3","3","4","5","2","5","2","3","4","2","3","3","2","3","3","7","3","3","3","6","3","2","5","3","2","3","2","5","2","3","771420253753446401","张","244","Male","[""好我"",""坏他"",""坏我"",""好他""]","[""强我"",""弱他"",""弱我"",""强他""]","","","","","","","","nonmatch","","","","","","","","","","key","j","16.611965811965614","768","428","j","true","nonmatch","img/hexagon.png","弱他","强他","ALT2","ability","","","","","","","","",""
"null","<span style='color:GreenYellow; font-size: 70px;'>正确! </span>","null","html-keyboard-response","125","411778","0.0-8.0-1.0-4.0-0.0-1.8","3","2","3","2","1","2","3","2","3","4","4","1","0","-1","1","-2","0","1","0","4","5","5","4","4","3","4","3","4","4","3","4","3","4","5","3","4","3","4","3","3","5","4","6","3","3","6","4","5","1","3","3","4","5","2","5","2","3","4","2","3","3","2","3","3","7","3","3","3","6","3","2","5","3","2","3","2","5","2","3","771420253753446401","张","244","Male","[""好我"",""坏他"",""坏我"",""好他""]","[""强我"",""弱他"",""弱我"",""强他""]","","","","","","","","","","","","","","","","","","","","","","","","","","","","","","feedback_test","","","","","","","","",""
"null","","null","psychophysics","126","414002","0.0-8.0-1.0-4.0-0.0-0.9","3","2","3","2","1","2","3","2","3","4","4","1","0","-1","1","-2","0","1","0","4","5","5","4","4","3","4","3","4","4","3","4","3","4","5","3","4","3","4","3","3","5","4","6","3","3","6","4","5","1","3","3","4","5","2","5","2","3","4","2","3","3","2","3","3","7","3","3","3","6","3","2","5","3","2","3","2","5","2","3","771420253753446401","张","244","Male","[""好我"",""坏他"",""坏我"",""好他""]","[""强我"",""弱他"",""弱我"",""强他""]","","","","","","","","null","","","","","","","","","","key","null","16.62121212121212","768","428","j","false","nonmatch","img/hexagon.png","弱我","强他","ALT2","ability","","","","","","","","",""
"null","<span class='add_' style='color:yellow; font-size: 70px;'> 太慢! </span>","null","html-keyboard-response","127","414509","0.0-8.0-1.0-4.0-0.0-1.9","3","2","3","2","1","2","3","2","3","4","4","1","0","-1","1","-2","0","1","0","4","5","5","4","4","3","4","3","4","4","3","4","3","4","5","3","4","3","4","3","3","5","4","6","3","3","6","4","5","1","3","3","4","5","2","5","2","3","4","2","3","3","2","3","3","7","3","3","3","6","3","2","5","3","2","3","2","5","2","3","771420253753446401","张","244","Male","[""好我"",""坏他"",""坏我"",""好他""]","[""强我"",""弱他"",""弱我"",""强他""]","","","","","","","","","","","","","","","","","","","","","","","","","","","","","","feedback_test","","","","","","","","",""
"784","","f","psychophysics","128","416301","0.0-8.0-1.0-4.0-0.0-0.10","3","2","3","2","1","2","3","2","3","4","4","1","0","-1","1","-2","0","1","0","4","5","5","4","4","3","4","3","4","4","3","4","3","4","5","3","4","3","4","3","3","5","4","6","3","3","6","4","5","1","3","3","4","5","2","5","2","3","4","2","3","3","2","3","3","7","3","3","3","6","3","2","5","3","2","3","2","5","2","3","771420253753446401","张","244","Male","[""好我"",""坏他"",""坏我"",""好他""]","[""强我"",""弱他"",""弱我"",""强他""]","","","","","","","","match","","","","","","","","","","key","f","16.614953271028472","768","428","f","true","match","img/triangle.png","强我","强我","ALT2","ability","","","","","","","","",""
"null","<span style='color:GreenYellow; font-size: 70px;'>正确! </span>","null","html-keyboard-response","129","416802","0.0-8.0-1.0-4.0-0.0-1.10","3","2","3","2","1","2","3","2","3","4","4","1","0","-1","1","-2","0","1","0","4","5","5","4","4","3","4","3","4","4","3","4","3","4","5","3","4","3","4","3","3","5","4","6","3","3","6","4","5","1","3","3","4","5","2","5","2","3","4","2","3","3","2","3","3","7","3","3","3","6","3","2","5","3","2","3","2","5","2","3","771420253753446401","张","244","Male","[""好我"",""坏他"",""坏我"",""好他""]","[""强我"",""弱他"",""弱我"",""强他""]","","","","","","","","","","","","","","","","","","","","","","","","","","","","","","feedback_test","","","","","","","","",""
"null","","null","psychophysics","130","419007","0.0-8.0-1.0-4.0-0.0-0.11","3","2","3","2","1","2","3","2","3","4","4","1","0","-1","1","-2","0","1","0","4","5","5","4","4","3","4","3","4","4","3","4","3","4","5","3","4","3","4","3","3","5","4","6","3","3","6","4","5","1","3","3","4","5","2","5","2","3","4","2","3","3","2","3","3","7","3","3","3","6","3","2","5","3","2","3","2","5","2","3","771420253753446401","张","244","Male","[""好我"",""坏他"",""坏我"",""好他""]","[""强我"",""弱他"",""弱我"",""强他""]","","","","","","","","null","","","","","","","","","","key","null","16.65114503816785","768","428","f","false","match","img/diamond.png","弱我","弱我","ALT2","ability","","","","","","","","",""
"null","<span class='add_' style='color:yellow; font-size: 70px;'> 太慢! </span>","null","html-keyboard-response","131","419511","0.0-8.0-1.0-4.0-0.0-1.11","3","2","3","2","1","2","3","2","3","4","4","1","0","-1","1","-2","0","1","0","4","5","5","4","4","3","4","3","4","4","3","4","3","4","5","3","4","3","4","3","3","5","4","6","3","3","6","4","5","1","3","3","4","5","2","5","2","3","4","2","3","3","2","3","3","7","3","3","3","6","3","2","5","3","2","3","2","5","2","3","771420253753446401","张","244","Male","[""好我"",""坏他"",""坏我"",""好他""]","[""强我"",""弱他"",""弱我"",""强他""]","","","","","","","","","","","","","","","","","","","","","","","","","","","","","","feedback_test","","","","","","","","",""
"1075","","j","psychophysics","132","421587","0.0-8.0-1.0-4.0-0.0-0.12","3","2","3","2","1","2","3","2","3","4","4","1","0","-1","1","-2","0","1","0","4","5","5","4","4","3","4","3","4","4","3","4","3","4","5","3","4","3","4","3","3","5","4","6","3","3","6","4","5","1","3","3","4","5","2","5","2","3","4","2","3","3","2","3","3","7","3","3","3","6","3","2","5","3","2","3","2","5","2","3","771420253753446401","张","244","Male","[""好我"",""坏他"",""坏我"",""好他""]","[""强我"",""弱他"",""弱我"",""强他""]","","","","","","","","nonmatch","","","","","","","","","","key","j","16.648387096774382","768","428","j","true","nonmatch","img/ellipse.png","强他","弱他","ALT2","ability","","","","","","","","",""
"null","<span style='color:GreenYellow; font-size: 70px;'>正确! </span>","null","html-keyboard-response","133","422089","0.0-8.0-1.0-4.0-0.0-1.12","3","2","3","2","1","2","3","2","3","4","4","1","0","-1","1","-2","0","1","0","4","5","5","4","4","3","4","3","4","4","3","4","3","4","5","3","4","3","4","3","3","5","4","6","3","3","6","4","5","1","3","3","4","5","2","5","2","3","4","2","3","3","2","3","3","7","3","3","3","6","3","2","5","3","2","3","2","5","2","3","771420253753446401","张","244","Male","[""好我"",""坏他"",""坏我"",""好他""]","[""强我"",""弱他"",""弱我"",""强他""]","","","","","","","","","","","","","","","","","","","","","","","","","","","","","","feedback_test","","","","","","","","",""
"801","","f","psychophysics","134","423894","0.0-8.0-1.0-4.0-0.0-0.13","3","2","3","2","1","2","3","2","3","4","4","1","0","-1","1","-2","0","1","0","4","5","5","4","4","3","4","3","4","4","3","4","3","4","5","3","4","3","4","3","3","5","4","6","3","3","6","4","5","1","3","3","4","5","2","5","2","3","4","2","3","3","2","3","3","7","3","3","3","6","3","2","5","3","2","3","2","5","2","3","771420253753446401","张","244","Male","[""好我"",""坏他"",""坏我"",""好他""]","[""强我"",""弱他"",""弱我"",""强他""]","","","","","","","","match","","","","","","","","","","key","f","16.587962962962962","768","428","j","false","nonmatch","img/diamond.png","强我","弱我","ALT2","ability","","","","","","","","",""
"null","<span style='color:red; font-size: 70px;'>错误! </span>","null","html-keyboard-response","135","424411","0.0-8.0-1.0-4.0-0.0-1.13","3","2","3","2","1","2","3","2","3","4","4","1","0","-1","1","-2","0","1","0","4","5","5","4","4","3","4","3","4","4","3","4","3","4","5","3","4","3","4","3","3","5","4","6","3","3","6","4","5","1","3","3","4","5","2","5","2","3","4","2","3","3","2","3","3","7","3","3","3","6","3","2","5","3","2","3","2","5","2","3","771420253753446401","张","244","Male","[""好我"",""坏他"",""坏我"",""好他""]","[""强我"",""弱他"",""弱我"",""强他""]","","","","","","","","","","","","","","","","","","","","","","","","","","","","","","feedback_test","","","","","","","","",""
"843","","f","psychophysics","136","426276","0.0-8.0-1.0-4.0-0.0-0.14","3","2","3","2","1","2","3","2","3","4","4","1","0","-1","1","-2","0","1","0","4","5","5","4","4","3","4","3","4","4","3","4","3","4","5","3","4","3","4","3","3","5","4","6","3","3","6","4","5","1","3","3","4","5","2","5","2","3","4","2","3","3","2","3","3","7","3","3","3","6","3","2","5","3","2","3","2","5","2","3","771420253753446401","张","244","Male","[""好我"",""坏他"",""坏我"",""好他""]","[""强我"",""弱他"",""弱我"",""强他""]","","","","","","","","match","","","","","","","","","","key","f","16.650450450450556","768","428","f","true","match","img/triangle.png","强我","强我","ALT2","ability","","","","","","","","",""
"null","<span style='color:GreenYellow; font-size: 70px;'>正确! </span>","null","html-keyboard-response","137","426779","0.0-8.0-1.0-4.0-0.0-1.14","3","2","3","2","1","2","3","2","3","4","4","1","0","-1","1","-2","0","1","0","4","5","5","4","4","3","4","3","4","4","3","4","3","4","5","3","4","3","4","3","3","5","4","6","3","3","6","4","5","1","3","3","4","5","2","5","2","3","4","2","3","3","2","3","3","7","3","3","3","6","3","2","5","3","2","3","2","5","2","3","771420253753446401","张","244","Male","[""好我"",""坏他"",""坏我"",""好他""]","[""强我"",""弱他"",""弱我"",""强他""]","","","","","","","","","","","","","","","","","","","","","","","","","","","","","","feedback_test","","","","","","","","",""
