"rt","stimulus","response","trial_type","trial_index","time_elapsed","internal_node_id","swb_1","swb_2","swb_3","swb_4","swb_5","LOT_1","LOT_2","LOT_3","LOT_4","LOT_5","LOT_6","IPC_1","IPC_2","IPC_3","IPC_4","IPC_5","IPC_6","IPC_7","IPC_8","MorIden_1","MorIden_2","MorIden_3","MorIden_4","MorIden_5","MorIden_6","MorIden_7","MorIden_8","MorIden_9","MorIden_10","moralSeImag_1","moralSeImag_2","moralSeImag_3","moralSeImag_4","moralSeImag_5","moralSeImag_6","moralSeImag_7","moralSeImag_8","moralSeImag_9","sde_1","sde_2","sde_3","sde_4","sde_5","sde_6","sde_7","sde_8","sde_9","sde_10","trap2","sde_11","sde_12","sde_13","sde_14","sde_15","sde_16","sde_17","sde_18","sde_19","sde_20","IM_1","IM_2","IM_3","IM_4","IM_5","IM_6","IM_7","IM_8","IM_9","IM_10","IM_11","IM_12","IM_13","IM_14","IM_15","IM_16","IM_17","IM_18","IM_19","IM_20","subj_idx","friend_name","ParticipantID","Sex","Word","Word2","value","success","timeout","failed_images","failed_audio","failed_video","user_agent","responses","item_order","radio_event_ids","radio_event_times","key_event_times","mouse_event_times","straightlining","zigzagging","honeypot","task_id","screen_id","time_stamp","response_type","key_press","avg_frame_time","center_x","center_y","person","word","valence","domain","math","correct_response","correct","status","view_history","identity","duration","Image","condition","question_order","trap2_item"
"6705","
   <p><div style='color:white; font-size: 25px'>您好，欢迎参加本次实验。</div></p>
   <p><div style='color:white; font-size: 25px'>为充分保障您的权利，请确保您已经知晓并同意《参与实验同意书》以及《数据公开知情同意书》。</div></p>
   <p><div style='color:white; font-size: 25px'>如果您未见过上述内容，请咨询实验员。</div></p>
   <p style='color:white; font-size: 25px'>如果您选择继续实验，则表示您已经清楚两份知情同意书的内容并同意。</p>
   <p><div style = ""color: pink;font-size:30px;"">请确保您记得day0的实验编号，您将在本次实验输入该编号，若您忘记，请咨询实验员后作答。</div></p>
   <p><div style = ""color:lightblue;font-size:25px;"">请您尽可能认真地作答，我们将依据您在各问卷和按键任务中的作答质量发放报酬。</div></p>
   <p> <div style = ""color: green""><按空格键至下页></div> </p>
   "," ","html-keyboard-response","0","6708","0.0-0.0","6","5","6","5","7","4","3","4","4","5","4","1","1","0","2","-2","1","2","1","5","5","5","5","5","4","4","3","4","5","6","7","4","7","6","5","8","4","6","4","6","2","4","6","1","6","2","5","2","1","3","2","5","2","2","5","5","4","3","3","2","2","3","3","3","6","3","6","6","4","2","2","3","2","2","3","1","6","3","3","790906536061968385","张","460","Male","[""好我"",""坏他"",""坏我"",""好他""]","[""强我"",""弱他"",""弱我"",""强他""]","","","","","","","","","","","","","","","","","","","","","","","","","","","","","","","","","","","","","","",""
"","","","call-function","1","6710","0.0-1.0-0.0","6","5","6","5","7","4","3","4","4","5","4","1","1","0","2","-2","1","2","1","5","5","5","5","5","4","4","3","4","5","6","7","4","7","6","5","8","4","6","4","6","2","4","6","1","6","2","5","2","1","3","2","5","2","2","5","5","4","3","3","2","2","3","3","3","6","3","6","6","4","2","2","3","2","2","3","1","6","3","3","790906536061968385","张","460","Male","[""好我"",""坏他"",""坏我"",""好他""]","[""强我"",""弱他"",""弱我"",""强他""]","","","","","","","","","","","","","","","","","","","","","","","","","","","","","","","","","","","","","","",""
"73948","","[{""name"":""Sex"",""value"":""0""},{""name"":""friend_name"",""value"":""张""},{""name"":""ParticipantID"",""value"":""460""}]","survey-html-form","2","80659","0.0-1.0-1.0","6","5","6","5","7","4","3","4","4","5","4","1","1","0","2","-2","1","2","1","5","5","5","5","5","4","4","3","4","5","6","7","4","7","6","5","8","4","6","4","6","2","4","6","1","6","2","5","2","1","3","2","5","2","2","5","5","4","3","3","2","2","3","3","3","6","3","6","6","4","2","2","3","2","2","3","1","6","3","3","790906536061968385","张","460","Male","[""好我"",""坏他"",""坏我"",""好他""]","[""强我"",""弱他"",""弱我"",""强他""]","","","","","","","","","","","","","","","","","","","","","","","","","","","","","","","","","","","","","","",""
"","","","preload","3","81017","0.0-2.0","6","5","6","5","7","4","3","4","4","5","4","1","1","0","2","-2","1","2","1","5","5","5","5","5","4","4","3","4","5","6","7","4","7","6","5","8","4","6","4","6","2","4","6","1","6","2","5","2","1","3","2","5","2","2","5","5","4","3","3","2","2","3","3","3","6","3","6","6","4","2","2","3","2","2","3","1","6","3","3","790906536061968385","张","460","Male","[""好我"",""坏他"",""坏我"",""好他""]","[""强我"",""弱他"",""弱我"",""强他""]","","true","false","[]","[]","[]","","","","","","","","","","","","","","","","","","","","","","","","","","","","","","","","",""
"","","","fullscreen","4","103640","0.0-3.0","6","5","6","5","7","4","3","4","4","5","4","1","1","0","2","-2","1","2","1","5","5","5","5","5","4","4","3","4","5","6","7","4","7","6","5","8","4","6","4","6","2","4","6","1","6","2","5","2","1","3","2","5","2","2","5","5","4","3","3","2","2","3","3","3","6","3","6","6","4","2","2","3","2","2","3","1","6","3","3","790906536061968385","张","460","Male","[""好我"",""坏他"",""坏我"",""好他""]","[""强我"",""弱他"",""弱我"",""强他""]","","true","","","","","{}","","","","","","","","","","","","","","","","","","","","","","","","","","","","","","","",""
"53399.699999809265","","{""Q01"":""6"",""Q02"":""5"",""Q03"":""6"",""Q04"":""5"",""Q05"":""7""}","survey-template","5","157045","0.0-4.0","6","5","6","5","7","4","3","4","4","5","4","1","1","0","2","-2","1","2","1","5","5","5","5","5","4","4","3","4","5","6","7","4","7","6","5","8","4","6","4","6","2","4","6","1","6","2","5","2","1","3","2","5","2","2","5","5","4","3","3","2","2","3","3","3","6","3","6","6","4","2","2","3","2","2","3","1","6","3","3","790906536061968385","张","460","Male","[""好我"",""坏他"",""坏我"",""好他""]","[""强我"",""弱他"",""弱我"",""强他""]","","","","","","","","{""Q01"":""6"",""Q02"":""5"",""Q03"":""6"",""Q04"":""5"",""Q05"":""7""}","[0,1,2,3,4]","[""Q01"",""Q02"",""Q03"",""Q04"",""Q05"",""Q02"",""Q04""]","[5119.699999809265,8878.199999809265,11910.5,17990.199999809265,18950.099999904633,24726.199999809265,29062.299999952316]","[]","[5119.699999809265,8878.199999809265,10759.299999952316,11127,11910.5,17990.199999809265,18950.099999904633,24726.199999809265,29062.299999952316,53398.799999952316]","0.4","0.75","0","","","","","","","","","","","","","","","","","","","","","","",""
"66859.5","","{""Q01"":""4"",""Q02"":""3"",""Q03"":""4"",""Q04"":""4"",""Q05"":""5"",""Q06"":""4""}","survey-template","6","223908","0.0-5.0","6","5","6","5","7","4","3","4","4","5","4","1","1","0","2","-2","1","2","1","5","5","5","5","5","4","4","3","4","5","6","7","4","7","6","5","8","4","6","4","6","2","4","6","1","6","2","5","2","1","3","2","5","2","2","5","5","4","3","3","2","2","3","3","3","6","3","6","6","4","2","2","3","2","2","3","1","6","3","3","790906536061968385","张","460","Male","[""好我"",""坏他"",""坏我"",""好他""]","[""强我"",""弱他"",""弱我"",""强他""]","","","","","","","","{""Q01"":""4"",""Q02"":""3"",""Q03"":""4"",""Q04"":""4"",""Q05"":""5"",""Q06"":""4""}","[0,1,2,3,4,5]","[""Q01"",""Q02"",""Q03"",""Q04"",""Q05"",""Q06""]","[10514.200000047684,21466.299999952316,23058.900000095367,29922.900000095367,34082.40000009537,42018.40000009537]","[]","[10514.200000047684,21466.299999952316,23058.900000095367,29922.900000095367,34082.40000009537,42018.40000009537,66858.79999995232]","0.5","0.6","0","","","","","","","","","","","","","","","","","","","","","","",""
"85037.39999985695","","{""Q01"":""1"",""Q02"":""1"",""Q03"":""0"",""Q04"":""2"",""Q05"":""-2"",""Q06"":""1"",""Q07"":""2"",""Q08"":""1""}","survey-template","7","308949","0.0-6.0","6","5","6","5","7","4","3","4","4","5","4","1","1","0","2","-2","1","2","1","5","5","5","5","5","4","4","3","4","5","6","7","4","7","6","5","8","4","6","4","6","2","4","6","1","6","2","5","2","1","3","2","5","2","2","5","5","4","3","3","2","2","3","3","3","6","3","6","6","4","2","2","3","2","2","3","1","6","3","3","790906536061968385","张","460","Male","[""好我"",""坏他"",""坏我"",""好他""]","[""强我"",""弱他"",""弱我"",""强他""]","","","","","","","","{""Q01"":""1"",""Q02"":""1"",""Q03"":""0"",""Q04"":""2"",""Q05"":""-2"",""Q06"":""1"",""Q07"":""2"",""Q08"":""1""}","[0,1,2,3,4,5,6,7]","[""Q01"",""Q02"",""Q03"",""Q04"",""Q05"",""Q06"",""Q07"",""Q08"",""Q03"",""Q02""]","[4107.399999856949,9555.700000047684,17628.799999952316,19876.5,24332.5,27764.799999952316,32123.299999952316,36283.700000047684,61555.59999990463,62284.700000047684]","[]","[4107.399999856949,9555.700000047684,17628.799999952316,19876.5,23580.700000047684,24332.5,27764.799999952316,32123.299999952316,35356.59999990463,36283.700000047684,61555.59999990463,62284.700000047684,85036.29999995232]","0.5","0.42857142857142855","0","","","","","","","","","","","","","","","","","","","","","","",""
"14052","
    <p><div style='color:white;font-size:35px; line-height:20px;'>词汇评估任务</div></p><br>
    <p><div style='color:white;font-size:25px; line-height:20px;'>请再次回忆该亲密的朋友，你们至少2年前就认识了，并且最近2年经常见面。</div></p>
    <p><div style='color:white;font-size:25px; line-height:20px;'>在本实验中，您将会看到一些形容词。</div></p>
    <p><div style='color:yellow;font-size:25px; line-height:20px;'>您的任务是判断这些形容词是否符合对您自己或您的朋友的描述。</div></p><p style='font-size:35px'>符合按<span style=""color:lightgreen""> f 键</span>，不符合按<span style=""color:red""> j 键</span></p>","0","html-button-response","8","323003","0.0-7.0-0.0","6","5","6","5","7","4","3","4","4","5","4","1","1","0","2","-2","1","2","1","5","5","5","5","5","4","4","3","4","5","6","7","4","7","6","5","8","4","6","4","6","2","4","6","1","6","2","5","2","1","3","2","5","2","2","5","5","4","3","3","2","2","3","3","3","6","3","6","6","4","2","2","3","2","2","3","1","6","3","3","790906536061968385","张","460","Male","[""好我"",""坏他"",""坏我"",""好他""]","[""强我"",""弱他"",""弱我"",""强他""]","","","","","","","","","","","","","","","","","SRET_EW","EW_instructions","Fri Jan 19 2024 14:06:06 GMT+0800 (中国标准时间)","","","","","","","","","","","","","","","","","","","",""
"null","","null","psychophysics","9","326009","0.0-7.0-1.0-0.0","6","5","6","5","7","4","3","4","4","5","4","1","1","0","2","-2","1","2","1","5","5","5","5","5","4","4","3","4","5","6","7","4","7","6","5","8","4","6","4","6","2","4","6","1","6","2","5","2","1","3","2","5","2","2","5","5","4","3","3","2","2","3","3","3","6","3","6","6","4","2","2","3","2","2","3","1","6","3","3","790906536061968385","张","460","Male","[""好我"",""坏他"",""坏我"",""好他""]","[""强我"",""弱他"",""弱我"",""强他""]","","","","","","","","","","","","","","","","","SRET_EW","EW_practice","","key","null","16.569060773480665","768","428","自己","刻板","Negative","ability","","","","","","","","","","",""
"1365","","j","psychophysics","10","328377","0.0-7.0-1.0-0.1","6","5","6","5","7","4","3","4","4","5","4","1","1","0","2","-2","1","2","1","5","5","5","5","5","4","4","3","4","5","6","7","4","7","6","5","8","4","6","4","6","2","4","6","1","6","2","5","2","1","3","2","5","2","2","5","5","4","3","3","2","2","3","3","3","6","3","6","6","4","2","2","3","2","2","3","1","6","3","3","790906536061968385","张","460","Male","[""好我"",""坏他"",""坏我"",""好他""]","[""强我"",""弱他"",""弱我"",""强他""]","","","","","","","","no","","","","","","","","","SRET_EW","EW_practice","","key","j","16.666666666666668","768","428","朋友","徇私","Negative","morality","","","","","","","","","","",""
"938","","f","psychophysics","11","330317","0.0-7.0-1.0-0.2","6","5","6","5","7","4","3","4","4","5","4","1","1","0","2","-2","1","2","1","5","5","5","5","5","4","4","3","4","5","6","7","4","7","6","5","8","4","6","4","6","2","4","6","1","6","2","5","2","1","3","2","5","2","2","5","5","4","3","3","2","2","3","3","3","6","3","6","6","4","2","2","3","2","2","3","1","6","3","3","790906536061968385","张","460","Male","[""好我"",""坏他"",""坏我"",""好他""]","[""强我"",""弱他"",""弱我"",""强他""]","","","","","","","","yes","","","","","","","","","SRET_EW","EW_practice","","key","f","16.671304347826187","768","428","自己","严谨","Positive","ability","","","","","","","","","","",""
"1050","","f","psychophysics","12","332369","0.0-7.0-1.0-0.3","6","5","6","5","7","4","3","4","4","5","4","1","1","0","2","-2","1","2","1","5","5","5","5","5","4","4","3","4","5","6","7","4","7","6","5","8","4","6","4","6","2","4","6","1","6","2","5","2","1","3","2","5","2","2","5","5","4","3","3","2","2","3","3","3","6","3","6","6","4","2","2","3","2","2","3","1","6","3","3","790906536061968385","张","460","Male","[""好我"",""坏他"",""坏我"",""好他""]","[""强我"",""弱他"",""弱我"",""强他""]","","","","","","","","yes","","","","","","","","","SRET_EW","EW_practice","","key","f","16.66885245901668","768","428","朋友","忠实","Positive","morality","","","","","","","","","","",""
"7048","
    <p><div style='color:white;font-size:35px; line-height:20px;'>请您再次阅读实验要求</div></p><br>
    <p><div style='color:white;font-size:25px; line-height:20px;'>请回忆某一个亲密的朋友，你们至少2年前就认识了，并且最近2年经常见面。</div></p>
    <p><div style='color:white;font-size:25px; line-height:20px;'>在本实验中，您将会看到一些形容词。</div></p>
    <p><div style='color:yellow;font-size:25px; line-height:20px;'>您的任务是判断这些形容词是否符合对您自己或您的朋友的描述。</div></p>
    <p><div class='footer' style='font-size:25px; line-height:20px;'>如果对本实验还有不清楚之处，请立即向实验员咨询。</p><p style='font-size:25px; line-height:20px;'>如果您明白了规则：</p><p style='font-size:22px; line-height:20px;'>请按 继续 进入正式实验</p>
    </div>
    <p style='font-size:35px'>符合按<span style=""color:lightgreen""> f 键</span>，不符合按<span style=""color:red""> j 键</span></p>","0","html-button-response","13","339418","0.0-7.0-2.0","6","5","6","5","7","4","3","4","4","5","4","1","1","0","2","-2","1","2","1","5","5","5","5","5","4","4","3","4","5","6","7","4","7","6","5","8","4","6","4","6","2","4","6","1","6","2","5","2","1","3","2","5","2","2","5","5","4","3","3","2","2","3","3","3","6","3","6","6","4","2","2","3","2","2","3","1","6","3","3","790906536061968385","张","460","Male","[""好我"",""坏他"",""坏我"",""好他""]","[""强我"",""弱他"",""弱我"",""强他""]","","","","","","","","","","","","","","","","","SRET_EW","prac_instructions","Fri Jan 19 2024 14:06:06 GMT+0800 (中国标准时间)","","","","","","","","","","","","","","","","","","","",""
"699","","f","psychophysics","14","341119","0.0-7.0-3.0-0.0","6","5","6","5","7","4","3","4","4","5","4","1","1","0","2","-2","1","2","1","5","5","5","5","5","4","4","3","4","5","6","7","4","7","6","5","8","4","6","4","6","2","4","6","1","6","2","5","2","1","3","2","5","2","2","5","5","4","3","3","2","2","3","3","3","6","3","6","6","4","2","2","3","2","2","3","1","6","3","3","790906536061968385","张","460","Male","[""好我"",""坏他"",""坏我"",""好他""]","[""强我"",""弱他"",""弱我"",""强他""]","","","","","","","","yes","","","","","","","","","SRET","EW_formal","","key","f","16.50196078431384","768","428","朋友","务实","Positive","ability","","","","","","","","","","",""
"956","","j","psychophysics","15","343077","0.0-7.0-3.0-0.1","6","5","6","5","7","4","3","4","4","5","4","1","1","0","2","-2","1","2","1","5","5","5","5","5","4","4","3","4","5","6","7","4","7","6","5","8","4","6","4","6","2","4","6","1","6","2","5","2","1","3","2","5","2","2","5","5","4","3","3","2","2","3","3","3","6","3","6","6","4","2","2","3","2","2","3","1","6","3","3","790906536061968385","张","460","Male","[""好我"",""坏他"",""坏我"",""好他""]","[""强我"",""弱他"",""弱我"",""强他""]","","","","","","","","no","","","","","","","","","SRET","EW_formal","","key","j","16.665811965812164","768","428","自己","说谎","Negative","morality","","","","","","","","","","",""
"761","","f","psychophysics","16","344840","0.0-7.0-3.0-0.2","6","5","6","5","7","4","3","4","4","5","4","1","1","0","2","-2","1","2","1","5","5","5","5","5","4","4","3","4","5","6","7","4","7","6","5","8","4","6","4","6","2","4","6","1","6","2","5","2","1","3","2","5","2","2","5","5","4","3","3","2","2","3","3","3","6","3","6","6","4","2","2","3","2","2","3","1","6","3","3","790906536061968385","张","460","Male","[""好我"",""坏他"",""坏我"",""好他""]","[""强我"",""弱他"",""弱我"",""强他""]","","","","","","","","yes","","","","","","","","","SRET","EW_formal","","key","f","16.665714285714508","768","428","自己","坚贞","Positive","morality","","","","","","","","","","",""
"1235","","j","psychophysics","17","347077","0.0-7.0-3.0-0.3","6","5","6","5","7","4","3","4","4","5","4","1","1","0","2","-2","1","2","1","5","5","5","5","5","4","4","3","4","5","6","7","4","7","6","5","8","4","6","4","6","2","4","6","1","6","2","5","2","1","3","2","5","2","2","5","5","4","3","3","2","2","3","3","3","6","3","6","6","4","2","2","3","2","2","3","1","6","3","3","790906536061968385","张","460","Male","[""好我"",""坏他"",""坏我"",""好他""]","[""强我"",""弱他"",""弱我"",""强他""]","","","","","","","","no","","","","","","","","","SRET","EW_formal","","key","j","16.66616541353366","768","428","朋友","迷糊","Negative","ability","","","","","","","","","","",""
"966","","f","psychophysics","18","349045","0.0-7.0-3.0-0.4","6","5","6","5","7","4","3","4","4","5","4","1","1","0","2","-2","1","2","1","5","5","5","5","5","4","4","3","4","5","6","7","4","7","6","5","8","4","6","4","6","2","4","6","1","6","2","5","2","1","3","2","5","2","2","5","5","4","3","3","2","2","3","3","3","6","3","6","6","4","2","2","3","2","2","3","1","6","3","3","790906536061968385","张","460","Male","[""好我"",""坏他"",""坏我"",""好他""]","[""强我"",""弱他"",""弱我"",""强他""]","","","","","","","","yes","","","","","","","","","SRET","EW_formal","","key","f","16.666666666666668","768","428","朋友","礼貌","Positive","morality","","","","","","","","","","",""
"1000","","f","psychophysics","19","351047","0.0-7.0-3.0-0.5","6","5","6","5","7","4","3","4","4","5","4","1","1","0","2","-2","1","2","1","5","5","5","5","5","4","4","3","4","5","6","7","4","7","6","5","8","4","6","4","6","2","4","6","1","6","2","5","2","1","3","2","5","2","2","5","5","4","3","3","2","2","3","3","3","6","3","6","6","4","2","2","3","2","2","3","1","6","3","3","790906536061968385","张","460","Male","[""好我"",""坏他"",""坏我"",""好他""]","[""强我"",""弱他"",""弱我"",""强他""]","","","","","","","","yes","","","","","","","","","SRET","EW_formal","","key","f","16.666386554621752","768","428","朋友","刚正","Positive","morality","","","","","","","","","","",""
"741","","j","psychophysics","20","352790","0.0-7.0-3.0-0.6","6","5","6","5","7","4","3","4","4","5","4","1","1","0","2","-2","1","2","1","5","5","5","5","5","4","4","3","4","5","6","7","4","7","6","5","8","4","6","4","6","2","4","6","1","6","2","5","2","1","3","2","5","2","2","5","5","4","3","3","2","2","3","3","3","6","3","6","6","4","2","2","3","2","2","3","1","6","3","3","790906536061968385","张","460","Male","[""好我"",""坏他"",""坏我"",""好他""]","[""强我"",""弱他"",""弱我"",""强他""]","","","","","","","","no","","","","","","","","","SRET","EW_formal","","key","j","16.665384615384166","768","428","朋友","低劣","Negative","morality","","","","","","","","","","",""
"708","","f","psychophysics","21","354500","0.0-7.0-3.0-0.7","6","5","6","5","7","4","3","4","4","5","4","1","1","0","2","-2","1","2","1","5","5","5","5","5","4","4","3","4","5","6","7","4","7","6","5","8","4","6","4","6","2","4","6","1","6","2","5","2","1","3","2","5","2","2","5","5","4","3","3","2","2","3","3","3","6","3","6","6","4","2","2","3","2","2","3","1","6","3","3","790906536061968385","张","460","Male","[""好我"",""坏他"",""坏我"",""好他""]","[""强我"",""弱他"",""弱我"",""强他""]","","","","","","","","yes","","","","","","","","","SRET","EW_formal","","key","f","16.669306930693416","768","428","朋友","能干","Positive","ability","","","","","","","","","","",""
"1047","","j","psychophysics","22","356549","0.0-7.0-3.0-0.8","6","5","6","5","7","4","3","4","4","5","4","1","1","0","2","-2","1","2","1","5","5","5","5","5","4","4","3","4","5","6","7","4","7","6","5","8","4","6","4","6","2","4","6","1","6","2","5","2","1","3","2","5","2","2","5","5","4","3","3","2","2","3","3","3","6","3","6","6","4","2","2","3","2","2","3","1","6","3","3","790906536061968385","张","460","Male","[""好我"",""坏他"",""坏我"",""好他""]","[""强我"",""弱他"",""弱我"",""强他""]","","","","","","","","no","","","","","","","","","SRET","EW_formal","","key","j","16.666393442622855","768","428","自己","愚钝","Negative","ability","","","","","","","","","","",""
"1091","","f","psychophysics","23","358642","0.0-7.0-3.0-0.9","6","5","6","5","7","4","3","4","4","5","4","1","1","0","2","-2","1","2","1","5","5","5","5","5","4","4","3","4","5","6","7","4","7","6","5","8","4","6","4","6","2","4","6","1","6","2","5","2","1","3","2","5","2","2","5","5","4","3","3","2","2","3","3","3","6","3","6","6","4","2","2","3","2","2","3","1","6","3","3","790906536061968385","张","460","Male","[""好我"",""坏他"",""坏我"",""好他""]","[""强我"",""弱他"",""弱我"",""强他""]","","","","","","","","yes","","","","","","","","","SRET","EW_formal","","key","f","16.665600000000094","768","428","自己","思辨","Positive","ability","","","","","","","","","","",""
"1044","","f","psychophysics","24","360688","0.0-7.0-3.0-0.10","6","5","6","5","7","4","3","4","4","5","4","1","1","0","2","-2","1","2","1","5","5","5","5","5","4","4","3","4","5","6","7","4","7","6","5","8","4","6","4","6","2","4","6","1","6","2","5","2","1","3","2","5","2","2","5","5","4","3","3","2","2","3","3","3","6","3","6","6","4","2","2","3","2","2","3","1","6","3","3","790906536061968385","张","460","Male","[""好我"",""坏他"",""坏我"",""好他""]","[""强我"",""弱他"",""弱我"",""强他""]","","","","","","","","yes","","","","","","","","","SRET","EW_formal","","key","f","16.6655737704919","768","428","朋友","清廉","Positive","morality","","","","","","","","","","",""
"732","","j","psychophysics","25","362422","0.0-7.0-3.0-0.11","6","5","6","5","7","4","3","4","4","5","4","1","1","0","2","-2","1","2","1","5","5","5","5","5","4","4","3","4","5","6","7","4","7","6","5","8","4","6","4","6","2","4","6","1","6","2","5","2","1","3","2","5","2","2","5","5","4","3","3","2","2","3","3","3","6","3","6","6","4","2","2","3","2","2","3","1","6","3","3","790906536061968385","张","460","Male","[""好我"",""坏他"",""坏我"",""好他""]","[""强我"",""弱他"",""弱我"",""强他""]","","","","","","","","no","","","","","","","","","SRET","EW_formal","","key","j","16.66764705882387","768","428","朋友","失信","Negative","morality","","","","","","","","","","",""
"733","","j","psychophysics","26","364158","0.0-7.0-3.0-0.12","6","5","6","5","7","4","3","4","4","5","4","1","1","0","2","-2","1","2","1","5","5","5","5","5","4","4","3","4","5","6","7","4","7","6","5","8","4","6","4","6","2","4","6","1","6","2","5","2","1","3","2","5","2","2","5","5","4","3","3","2","2","3","3","3","6","3","6","6","4","2","2","3","2","2","3","1","6","3","3","790906536061968385","张","460","Male","[""好我"",""坏他"",""坏我"",""好他""]","[""强我"",""弱他"",""弱我"",""强他""]","","","","","","","","no","","","","","","","","","SRET","EW_formal","","key","j","16.66442307692285","768","428","自己","狡诈","Negative","morality","","","","","","","","","","",""
"964","","j","psychophysics","27","366124","0.0-7.0-3.0-0.13","6","5","6","5","7","4","3","4","4","5","4","1","1","0","2","-2","1","2","1","5","5","5","5","5","4","4","3","4","5","6","7","4","7","6","5","8","4","6","4","6","2","4","6","1","6","2","5","2","1","3","2","5","2","2","5","5","4","3","3","2","2","3","3","3","6","3","6","6","4","2","2","3","2","2","3","1","6","3","3","790906536061968385","张","460","Male","[""好我"",""坏他"",""坏我"",""好他""]","[""强我"",""弱他"",""弱我"",""强他""]","","","","","","","","no","","","","","","","","","SRET","EW_formal","","key","j","16.664957264957167","768","428","自己","中用","Positive","ability","","","","","","","","","","",""
"733","","f","psychophysics","28","367859","0.0-7.0-3.0-0.14","6","5","6","5","7","4","3","4","4","5","4","1","1","0","2","-2","1","2","1","5","5","5","5","5","4","4","3","4","5","6","7","4","7","6","5","8","4","6","4","6","2","4","6","1","6","2","5","2","1","3","2","5","2","2","5","5","4","3","3","2","2","3","3","3","6","3","6","6","4","2","2","3","2","2","3","1","6","3","3","790906536061968385","张","460","Male","[""好我"",""坏他"",""坏我"",""好他""]","[""强我"",""弱他"",""弱我"",""强他""]","","","","","","","","yes","","","","","","","","","SRET","EW_formal","","key","f","16.666019417475503","768","428","自己","忠义","Positive","morality","","","","","","","","","","",""
"898","","f","psychophysics","29","369759","0.0-7.0-3.0-0.15","6","5","6","5","7","4","3","4","4","5","4","1","1","0","2","-2","1","2","1","5","5","5","5","5","4","4","3","4","5","6","7","4","7","6","5","8","4","6","4","6","2","4","6","1","6","2","5","2","1","3","2","5","2","2","5","5","4","3","3","2","2","3","3","3","6","3","6","6","4","2","2","3","2","2","3","1","6","3","3","790906536061968385","张","460","Male","[""好我"",""坏他"",""坏我"",""好他""]","[""强我"",""弱他"",""弱我"",""强他""]","","","","","","","","yes","","","","","","","","","SRET","EW_formal","","key","f","16.666371681415825","768","428","自己","骁勇","Positive","ability","","","","","","","","","","",""
"933","","j","psychophysics","30","371693","0.0-7.0-3.0-0.16","6","5","6","5","7","4","3","4","4","5","4","1","1","0","2","-2","1","2","1","5","5","5","5","5","4","4","3","4","5","6","7","4","7","6","5","8","4","6","4","6","2","4","6","1","6","2","5","2","1","3","2","5","2","2","5","5","4","3","3","2","2","3","3","3","6","3","6","6","4","2","2","3","2","2","3","1","6","3","3","790906536061968385","张","460","Male","[""好我"",""坏他"",""坏我"",""好他""]","[""强我"",""弱他"",""弱我"",""强他""]","","","","","","","","no","","","","","","","","","SRET","EW_formal","","key","j","16.666086956522044","768","428","朋友","草率","Negative","ability","","","","","","","","","","",""
"936","","f","psychophysics","31","373632","0.0-7.0-3.0-0.17","6","5","6","5","7","4","3","4","4","5","4","1","1","0","2","-2","1","2","1","5","5","5","5","5","4","4","3","4","5","6","7","4","7","6","5","8","4","6","4","6","2","4","6","1","6","2","5","2","1","3","2","5","2","2","5","5","4","3","3","2","2","3","3","3","6","3","6","6","4","2","2","3","2","2","3","1","6","3","3","790906536061968385","张","460","Male","[""好我"",""坏他"",""坏我"",""好他""]","[""强我"",""弱他"",""弱我"",""强他""]","","","","","","","","yes","","","","","","","","","SRET","EW_formal","","key","f","16.666956521738726","768","428","自己","仁厚","Positive","morality","","","","","","","","","","",""
"930","","j","psychophysics","32","375563","0.0-7.0-3.0-0.18","6","5","6","5","7","4","3","4","4","5","4","1","1","0","2","-2","1","2","1","5","5","5","5","5","4","4","3","4","5","6","7","4","7","6","5","8","4","6","4","6","2","4","6","1","6","2","5","2","1","3","2","5","2","2","5","5","4","3","3","2","2","3","3","3","6","3","6","6","4","2","2","3","2","2","3","1","6","3","3","790906536061968385","张","460","Male","[""好我"",""坏他"",""坏我"",""好他""]","[""强我"",""弱他"",""弱我"",""强他""]","","","","","","","","no","","","","","","","","","SRET","EW_formal","","key","j","16.635652173912842","768","428","自己","刻薄","Negative","morality","","","","","","","","","","",""
"828","","j","psychophysics","33","377393","0.0-7.0-3.0-0.19","6","5","6","5","7","4","3","4","4","5","4","1","1","0","2","-2","1","2","1","5","5","5","5","5","4","4","3","4","5","6","7","4","7","6","5","8","4","6","4","6","2","4","6","1","6","2","5","2","1","3","2","5","2","2","5","5","4","3","3","2","2","3","3","3","6","3","6","6","4","2","2","3","2","2","3","1","6","3","3","790906536061968385","张","460","Male","[""好我"",""坏他"",""坏我"",""好他""]","[""强我"",""弱他"",""弱我"",""强他""]","","","","","","","","no","","","","","","","","","SRET","EW_formal","","key","j","16.639449541283977","768","428","自己","蛇蝎","Negative","morality","","","","","","","","","","",""
"1048","","f","psychophysics","34","379443","0.0-7.0-3.0-0.20","6","5","6","5","7","4","3","4","4","5","4","1","1","0","2","-2","1","2","1","5","5","5","5","5","4","4","3","4","5","6","7","4","7","6","5","8","4","6","4","6","2","4","6","1","6","2","5","2","1","3","2","5","2","2","5","5","4","3","3","2","2","3","3","3","6","3","6","6","4","2","2","3","2","2","3","1","6","3","3","790906536061968385","张","460","Male","[""好我"",""坏他"",""坏我"",""好他""]","[""强我"",""弱他"",""弱我"",""强他""]","","","","","","","","yes","","","","","","","","","SRET","EW_formal","","key","f","16.666393442622855","768","428","自己","无私","Positive","morality","","","","","","","","","","",""
"845","","j","psychophysics","35","381291","0.0-7.0-3.0-0.21","6","5","6","5","7","4","3","4","4","5","4","1","1","0","2","-2","1","2","1","5","5","5","5","5","4","4","3","4","5","6","7","4","7","6","5","8","4","6","4","6","2","4","6","1","6","2","5","2","1","3","2","5","2","2","5","5","4","3","3","2","2","3","3","3","6","3","6","6","4","2","2","3","2","2","3","1","6","3","3","790906536061968385","张","460","Male","[""好我"",""坏他"",""坏我"",""好他""]","[""强我"",""弱他"",""弱我"",""强他""]","","","","","","","","no","","","","","","","","","SRET","EW_formal","","key","j","16.66636363636353","768","428","朋友","无为","Negative","ability","","","","","","","","","","",""
"1284","","f","psychophysics","36","383578","0.0-7.0-3.0-0.22","6","5","6","5","7","4","3","4","4","5","4","1","1","0","2","-2","1","2","1","5","5","5","5","5","4","4","3","4","5","6","7","4","7","6","5","8","4","6","4","6","2","4","6","1","6","2","5","2","1","3","2","5","2","2","5","5","4","3","3","2","2","3","3","3","6","3","6","6","4","2","2","3","2","2","3","1","6","3","3","790906536061968385","张","460","Male","[""好我"",""坏他"",""坏我"",""好他""]","[""强我"",""弱他"",""弱我"",""强他""]","","","","","","","","yes","","","","","","","","","SRET","EW_formal","","key","f","16.666176470588063","768","428","自己","果决","Positive","ability","","","","","","","","","","",""
"1233","","f","psychophysics","37","385813","0.0-7.0-3.0-0.23","6","5","6","5","7","4","3","4","4","5","4","1","1","0","2","-2","1","2","1","5","5","5","5","5","4","4","3","4","5","6","7","4","7","6","5","8","4","6","4","6","2","4","6","1","6","2","5","2","1","3","2","5","2","2","5","5","4","3","3","2","2","3","3","3","6","3","6","6","4","2","2","3","2","2","3","1","6","3","3","790906536061968385","张","460","Male","[""好我"",""坏他"",""坏我"",""好他""]","[""强我"",""弱他"",""弱我"",""强他""]","","","","","","","","yes","","","","","","","","","SRET","EW_formal","","key","f","16.66616541353366","768","428","朋友","全才","Positive","ability","","","","","","","","","","",""
"1032","","f","psychophysics","38","387846","0.0-7.0-3.0-0.24","6","5","6","5","7","4","3","4","4","5","4","1","1","0","2","-2","1","2","1","5","5","5","5","5","4","4","3","4","5","6","7","4","7","6","5","8","4","6","4","6","2","4","6","1","6","2","5","2","1","3","2","5","2","2","5","5","4","3","3","2","2","3","3","3","6","3","6","6","4","2","2","3","2","2","3","1","6","3","3","790906536061968385","张","460","Male","[""好我"",""坏他"",""坏我"",""好他""]","[""强我"",""弱他"",""弱我"",""强他""]","","","","","","","","yes","","","","","","","","","SRET","EW_formal","","key","f","16.666115702479626","768","428","自己","高洁","Positive","morality","","","","","","","","","","",""
"1021","","j","psychophysics","39","389869","0.0-7.0-3.0-0.25","6","5","6","5","7","4","3","4","4","5","4","1","1","0","2","-2","1","2","1","5","5","5","5","5","4","4","3","4","5","6","7","4","7","6","5","8","4","6","4","6","2","4","6","1","6","2","5","2","1","3","2","5","2","2","5","5","4","3","3","2","2","3","3","3","6","3","6","6","4","2","2","3","2","2","3","1","6","3","3","790906536061968385","张","460","Male","[""好我"",""坏他"",""坏我"",""好他""]","[""强我"",""弱他"",""弱我"",""强他""]","","","","","","","","no","","","","","","","","","SRET","EW_formal","","key","j","16.666666666666668","768","428","自己","驽钝","Negative","ability","","","","","","","","","","",""
"1037","","j","psychophysics","40","391908","0.0-7.0-3.0-0.26","6","5","6","5","7","4","3","4","4","5","4","1","1","0","2","-2","1","2","1","5","5","5","5","5","4","4","3","4","5","6","7","4","7","6","5","8","4","6","4","6","2","4","6","1","6","2","5","2","1","3","2","5","2","2","5","5","4","3","3","2","2","3","3","3","6","3","6","6","4","2","2","3","2","2","3","1","6","3","3","790906536061968385","张","460","Male","[""好我"",""坏他"",""坏我"",""好他""]","[""强我"",""弱他"",""弱我"",""强他""]","","","","","","","","no","","","","","","","","","SRET","EW_formal","","key","j","16.6655737704919","768","428","朋友","马虎","Negative","ability","","","","","","","","","","",""
"1200","","f","psychophysics","41","394110","0.0-7.0-3.0-0.27","6","5","6","5","7","4","3","4","4","5","4","1","1","0","2","-2","1","2","1","5","5","5","5","5","4","4","3","4","5","6","7","4","7","6","5","8","4","6","4","6","2","4","6","1","6","2","5","2","1","3","2","5","2","2","5","5","4","3","3","2","2","3","3","3","6","3","6","6","4","2","2","3","2","2","3","1","6","3","3","790906536061968385","张","460","Male","[""好我"",""坏他"",""坏我"",""好他""]","[""强我"",""弱他"",""弱我"",""强他""]","","","","","","","","yes","","","","","","","","","SRET","EW_formal","","key","f","16.66641221374037","768","428","自己","正气","Positive","morality","","","","","","","","","","",""
"1219","","j","psychophysics","42","396332","0.0-7.0-3.0-0.28","6","5","6","5","7","4","3","4","4","5","4","1","1","0","2","-2","1","2","1","5","5","5","5","5","4","4","3","4","5","6","7","4","7","6","5","8","4","6","4","6","2","4","6","1","6","2","5","2","1","3","2","5","2","2","5","5","4","3","3","2","2","3","3","3","6","3","6","6","4","2","2","3","2","2","3","1","6","3","3","790906536061968385","张","460","Male","[""好我"",""坏他"",""坏我"",""好他""]","[""强我"",""弱他"",""弱我"",""强他""]","","","","","","","","no","","","","","","","","","SRET","EW_formal","","key","j","16.668939393939304","768","428","朋友","偏私","Negative","morality","","","","","","","","","","",""
"1047","","f","psychophysics","43","398381","0.0-7.0-3.0-0.29","6","5","6","5","7","4","3","4","4","5","4","1","1","0","2","-2","1","2","1","5","5","5","5","5","4","4","3","4","5","6","7","4","7","6","5","8","4","6","4","6","2","4","6","1","6","2","5","2","1","3","2","5","2","2","5","5","4","3","3","2","2","3","3","3","6","3","6","6","4","2","2","3","2","2","3","1","6","3","3","790906536061968385","张","460","Male","[""好我"",""坏他"",""坏我"",""好他""]","[""强我"",""弱他"",""弱我"",""强他""]","","","","","","","","yes","","","","","","","","","SRET","EW_formal","","key","f","16.666393442622855","768","428","朋友","刻苦","Positive","ability","","","","","","","","","","",""
"1100","","j","psychophysics","44","400483","0.0-7.0-3.0-0.30","6","5","6","5","7","4","3","4","4","5","4","1","1","0","2","-2","1","2","1","5","5","5","5","5","4","4","3","4","5","6","7","4","7","6","5","8","4","6","4","6","2","4","6","1","6","2","5","2","1","3","2","5","2","2","5","5","4","3","3","2","2","3","3","3","6","3","6","6","4","2","2","3","2","2","3","1","6","3","3","790906536061968385","张","460","Male","[""好我"",""坏他"",""坏我"",""好他""]","[""强我"",""弱他"",""弱我"",""强他""]","","","","","","","","no","","","","","","","","","SRET","EW_formal","","key","j","16.66559999999963","768","428","朋友","贪污","Negative","morality","","","","","","","","","","",""
"810","","f","psychophysics","45","402295","0.0-7.0-3.0-0.31","6","5","6","5","7","4","3","4","4","5","4","1","1","0","2","-2","1","2","1","5","5","5","5","5","4","4","3","4","5","6","7","4","7","6","5","8","4","6","4","6","2","4","6","1","6","2","5","2","1","3","2","5","2","2","5","5","4","3","3","2","2","3","3","3","6","3","6","6","4","2","2","3","2","2","3","1","6","3","3","790906536061968385","张","460","Male","[""好我"",""坏他"",""坏我"",""好他""]","[""强我"",""弱他"",""弱我"",""强他""]","","","","","","","","yes","","","","","","","","","SRET","EW_formal","","key","f","16.664814814814708","768","428","朋友","敏捷","Positive","ability","","","","","","","","","","",""
"712","","f","psychophysics","46","404010","0.0-7.0-3.0-0.32","6","5","6","5","7","4","3","4","4","5","4","1","1","0","2","-2","1","2","1","5","5","5","5","5","4","4","3","4","5","6","7","4","7","6","5","8","4","6","4","6","2","4","6","1","6","2","5","2","1","3","2","5","2","2","5","5","4","3","3","2","2","3","3","3","6","3","6","6","4","2","2","3","2","2","3","1","6","3","3","790906536061968385","张","460","Male","[""好我"",""坏他"",""坏我"",""好他""]","[""强我"",""弱他"",""弱我"",""强他""]","","","","","","","","yes","","","","","","","","","SRET","EW_formal","","key","f","16.66568627450946","768","428","自己","善心","Positive","morality","","","","","","","","","","",""
"738","","j","psychophysics","47","405749","0.0-7.0-3.0-0.33","6","5","6","5","7","4","3","4","4","5","4","1","1","0","2","-2","1","2","1","5","5","5","5","5","4","4","3","4","5","6","7","4","7","6","5","8","4","6","4","6","2","4","6","1","6","2","5","2","1","3","2","5","2","2","5","5","4","3","3","2","2","3","3","3","6","3","6","6","4","2","2","3","2","2","3","1","6","3","3","790906536061968385","张","460","Male","[""好我"",""坏他"",""坏我"",""好他""]","[""强我"",""弱他"",""弱我"",""强他""]","","","","","","","","no","","","","","","","","","SRET","EW_formal","","key","j","16.66990291262136","768","428","自己","无赖","Negative","morality","","","","","","","","","","",""
"925","","f","psychophysics","48","407676","0.0-7.0-3.0-0.34","6","5","6","5","7","4","3","4","4","5","4","1","1","0","2","-2","1","2","1","5","5","5","5","5","4","4","3","4","5","6","7","4","7","6","5","8","4","6","4","6","2","4","6","1","6","2","5","2","1","3","2","5","2","2","5","5","4","3","3","2","2","3","3","3","6","3","6","6","4","2","2","3","2","2","3","1","6","3","3","790906536061968385","张","460","Male","[""好我"",""坏他"",""坏我"",""好他""]","[""强我"",""弱他"",""弱我"",""强他""]","","","","","","","","yes","","","","","","","","","SRET","EW_formal","","key","f","16.663478260869464","768","428","朋友","敬业","Positive","morality","","","","","","","","","","",""
"1286","","j","psychophysics","49","409964","0.0-7.0-3.0-0.35","6","5","6","5","7","4","3","4","4","5","4","1","1","0","2","-2","1","2","1","5","5","5","5","5","4","4","3","4","5","6","7","4","7","6","5","8","4","6","4","6","2","4","6","1","6","2","5","2","1","3","2","5","2","2","5","5","4","3","3","2","2","3","3","3","6","3","6","6","4","2","2","3","2","2","3","1","6","3","3","790906536061968385","张","460","Male","[""好我"",""坏他"",""坏我"",""好他""]","[""强我"",""弱他"",""弱我"",""强他""]","","","","","","","","no","","","","","","","","","SRET","EW_formal","","key","j","16.6698529411763","768","428","朋友","庸碌","Negative","ability","","","","","","","","","","",""
"1002","","j","psychophysics","50","411968","0.0-7.0-3.0-0.36","6","5","6","5","7","4","3","4","4","5","4","1","1","0","2","-2","1","2","1","5","5","5","5","5","4","4","3","4","5","6","7","4","7","6","5","8","4","6","4","6","2","4","6","1","6","2","5","2","1","3","2","5","2","2","5","5","4","3","3","2","2","3","3","3","6","3","6","6","4","2","2","3","2","2","3","1","6","3","3","790906536061968385","张","460","Male","[""好我"",""坏他"",""坏我"",""好他""]","[""强我"",""弱他"",""弱我"",""强他""]","","","","","","","","no","","","","","","","","","SRET","EW_formal","","key","j","16.66722689075601","768","428","朋友","盲目","Negative","ability","","","","","","","","","","",""
"1318","","j","psychophysics","51","414288","0.0-7.0-3.0-0.37","6","5","6","5","7","4","3","4","4","5","4","1","1","0","2","-2","1","2","1","5","5","5","5","5","4","4","3","4","5","6","7","4","7","6","5","8","4","6","4","6","2","4","6","1","6","2","5","2","1","3","2","5","2","2","5","5","4","3","3","2","2","3","3","3","6","3","6","6","4","2","2","3","2","2","3","1","6","3","3","790906536061968385","张","460","Male","[""好我"",""坏他"",""坏我"",""好他""]","[""强我"",""弱他"",""弱我"",""强他""]","","","","","","","","no","","","","","","","","","SRET","EW_formal","","key","j","16.666187050359543","768","428","朋友","迟钝","Negative","ability","","","","","","","","","","",""
"777","","f","psychophysics","52","416067","0.0-7.0-3.0-0.38","6","5","6","5","7","4","3","4","4","5","4","1","1","0","2","-2","1","2","1","5","5","5","5","5","4","4","3","4","5","6","7","4","7","6","5","8","4","6","4","6","2","4","6","1","6","2","5","2","1","3","2","5","2","2","5","5","4","3","3","2","2","3","3","3","6","3","6","6","4","2","2","3","2","2","3","1","6","3","3","790906536061968385","张","460","Male","[""好我"",""坏他"",""坏我"",""好他""]","[""强我"",""弱他"",""弱我"",""强他""]","","","","","","","","yes","","","","","","","","","SRET","EW_formal","","key","f","16.66857142857154","768","428","自己","诚信","Positive","morality","","","","","","","","","","",""
"983","","j","psychophysics","53","418052","0.0-7.0-3.0-0.39","6","5","6","5","7","4","3","4","4","5","4","1","1","0","2","-2","1","2","1","5","5","5","5","5","4","4","3","4","5","6","7","4","7","6","5","8","4","6","4","6","2","4","6","1","6","2","5","2","1","3","2","5","2","2","5","5","4","3","3","2","2","3","3","3","6","3","6","6","4","2","2","3","2","2","3","1","6","3","3","790906536061968385","张","460","Male","[""好我"",""坏他"",""坏我"",""好他""]","[""强我"",""弱他"",""弱我"",""强他""]","","","","","","","","no","","","","","","","","","SRET","EW_formal","","key","j","16.667796610169393","768","428","自己","不孝","Negative","morality","","","","","","","","","","",""
"1112","","j","psychophysics","54","420167","0.0-7.0-3.0-0.40","6","5","6","5","7","4","3","4","4","5","4","1","1","0","2","-2","1","2","1","5","5","5","5","5","4","4","3","4","5","6","7","4","7","6","5","8","4","6","4","6","2","4","6","1","6","2","5","2","1","3","2","5","2","2","5","5","4","3","3","2","2","3","3","3","6","3","6","6","4","2","2","3","2","2","3","1","6","3","3","790906536061968385","张","460","Male","[""好我"",""坏他"",""坏我"",""好他""]","[""强我"",""弱他"",""弱我"",""强他""]","","","","","","","","no","","","","","","","","","SRET","EW_formal","","key","j","16.666666666666668","768","428","自己","窝囊","Negative","ability","","","","","","","","","","",""
"1459","","j","psychophysics","55","422628","0.0-7.0-3.0-0.41","6","5","6","5","7","4","3","4","4","5","4","1","1","0","2","-2","1","2","1","5","5","5","5","5","4","4","3","4","5","6","7","4","7","6","5","8","4","6","4","6","2","4","6","1","6","2","5","2","1","3","2","5","2","2","5","5","4","3","3","2","2","3","3","3","6","3","6","6","4","2","2","3","2","2","3","1","6","3","3","790906536061968385","张","460","Male","[""好我"",""坏他"",""坏我"",""好他""]","[""强我"",""弱他"",""弱我"",""强他""]","","","","","","","","no","","","","","","","","","SRET","EW_formal","","key","j","16.661904761904683","768","428","自己","愚痴","Negative","ability","","","","","","","","","","",""
"1359","","j","psychophysics","56","424990","0.0-7.0-3.0-0.42","6","5","6","5","7","4","3","4","4","5","4","1","1","0","2","-2","1","2","1","5","5","5","5","5","4","4","3","4","5","6","7","4","7","6","5","8","4","6","4","6","2","4","6","1","6","2","5","2","1","3","2","5","2","2","5","5","4","3","3","2","2","3","3","3","6","3","6","6","4","2","2","3","2","2","3","1","6","3","3","790906536061968385","张","460","Male","[""好我"",""坏他"",""坏我"",""好他""]","[""强我"",""弱他"",""弱我"",""强他""]","","","","","","","","no","","","","","","","","","SRET","EW_formal","","key","j","16.665957446808676","768","428","自己","差生","Negative","ability","","","","","","","","","","",""
"1136","","f","psychophysics","57","427128","0.0-7.0-3.0-0.43","6","5","6","5","7","4","3","4","4","5","4","1","1","0","2","-2","1","2","1","5","5","5","5","5","4","4","3","4","5","6","7","4","7","6","5","8","4","6","4","6","2","4","6","1","6","2","5","2","1","3","2","5","2","2","5","5","4","3","3","2","2","3","3","3","6","3","6","6","4","2","2","3","2","2","3","1","6","3","3","790906536061968385","张","460","Male","[""好我"",""坏他"",""坏我"",""好他""]","[""强我"",""弱他"",""弱我"",""强他""]","","","","","","","","yes","","","","","","","","","SRET","EW_formal","","key","f","16.66692913385836","768","428","朋友","沉着","Positive","ability","","","","","","","","","","",""
"882","","f","psychophysics","58","429012","0.0-7.0-3.0-0.44","6","5","6","5","7","4","3","4","4","5","4","1","1","0","2","-2","1","2","1","5","5","5","5","5","4","4","3","4","5","6","7","4","7","6","5","8","4","6","4","6","2","4","6","1","6","2","5","2","1","3","2","5","2","2","5","5","4","3","3","2","2","3","3","3","6","3","6","6","4","2","2","3","2","2","3","1","6","3","3","790906536061968385","张","460","Male","[""好我"",""坏他"",""坏我"",""好他""]","[""强我"",""弱他"",""弱我"",""强他""]","","","","","","","","yes","","","","","","","","","SRET","EW_formal","","key","f","16.66428571428592","768","428","朋友","慈悲","Positive","morality","","","","","","","","","","",""
"993","","f","psychophysics","59","431008","0.0-7.0-3.0-0.45","6","5","6","5","7","4","3","4","4","5","4","1","1","0","2","-2","1","2","1","5","5","5","5","5","4","4","3","4","5","6","7","4","7","6","5","8","4","6","4","6","2","4","6","1","6","2","5","2","1","3","2","5","2","2","5","5","4","3","3","2","2","3","3","3","6","3","6","6","4","2","2","3","2","2","3","1","6","3","3","790906536061968385","张","460","Male","[""好我"",""坏他"",""坏我"",""好他""]","[""强我"",""弱他"",""弱我"",""强他""]","","","","","","","","yes","","","","","","","","","SRET","EW_formal","","key","f","16.666386554621752","768","428","自己","侠义","Positive","morality","","","","","","","","","","",""
"1293","","j","psychophysics","60","433303","0.0-7.0-3.0-0.46","6","5","6","5","7","4","3","4","4","5","4","1","1","0","2","-2","1","2","1","5","5","5","5","5","4","4","3","4","5","6","7","4","7","6","5","8","4","6","4","6","2","4","6","1","6","2","5","2","1","3","2","5","2","2","5","5","4","3","3","2","2","3","3","3","6","3","6","6","4","2","2","3","2","2","3","1","6","3","3","790906536061968385","张","460","Male","[""好我"",""坏他"",""坏我"",""好他""]","[""强我"",""弱他"",""弱我"",""强他""]","","","","","","","","no","","","","","","","","","SRET","EW_formal","","key","j","16.66838235294092","768","428","朋友","不仁","Negative","morality","","","","","","","","","","",""
"887","","j","psychophysics","61","435192","0.0-7.0-3.0-0.47","6","5","6","5","7","4","3","4","4","5","4","1","1","0","2","-2","1","2","1","5","5","5","5","5","4","4","3","4","5","6","7","4","7","6","5","8","4","6","4","6","2","4","6","1","6","2","5","2","1","3","2","5","2","2","5","5","4","3","3","2","2","3","3","3","6","3","6","6","4","2","2","3","2","2","3","1","6","3","3","790906536061968385","张","460","Male","[""好我"",""坏他"",""坏我"",""好他""]","[""强我"",""弱他"",""弱我"",""强他""]","","","","","","","","no","","","","","","","","","SRET","EW_formal","","key","j","16.66548672566382","768","428","朋友","卑鄙","Negative","morality","","","","","","","","","","",""
"null","","null","psychophysics","62","438196","0.0-7.0-3.0-0.48","6","5","6","5","7","4","3","4","4","5","4","1","1","0","2","-2","1","2","1","5","5","5","5","5","4","4","3","4","5","6","7","4","7","6","5","8","4","6","4","6","2","4","6","1","6","2","5","2","1","3","2","5","2","2","5","5","4","3","3","2","2","3","3","3","6","3","6","6","4","2","2","3","2","2","3","1","6","3","3","790906536061968385","张","460","Male","[""好我"",""坏他"",""坏我"",""好他""]","[""强我"",""弱他"",""弱我"",""强他""]","","","","","","","","","","","","","","","","","SRET","EW_formal","","key","null","16.66759776536313","768","428","朋友","犹豫","Negative","ability","","","","","","","","","","",""
"783","","f","psychophysics","63","439981","0.0-7.0-3.0-0.49","6","5","6","5","7","4","3","4","4","5","4","1","1","0","2","-2","1","2","1","5","5","5","5","5","4","4","3","4","5","6","7","4","7","6","5","8","4","6","4","6","2","4","6","1","6","2","5","2","1","3","2","5","2","2","5","5","4","3","3","2","2","3","3","3","6","3","6","6","4","2","2","3","2","2","3","1","6","3","3","790906536061968385","张","460","Male","[""好我"",""坏他"",""坏我"",""好他""]","[""强我"",""弱他"",""弱我"",""强他""]","","","","","","","","yes","","","","","","","","","SRET","EW_formal","","key","f","16.63867924528313","768","428","自己","上进","Positive","ability","","","","","","","","","","",""
"1143","","f","psychophysics","64","442125","0.0-7.0-3.0-0.50","6","5","6","5","7","4","3","4","4","5","4","1","1","0","2","-2","1","2","1","5","5","5","5","5","4","4","3","4","5","6","7","4","7","6","5","8","4","6","4","6","2","4","6","1","6","2","5","2","1","3","2","5","2","2","5","5","4","3","3","2","2","3","3","3","6","3","6","6","4","2","2","3","2","2","3","1","6","3","3","790906536061968385","张","460","Male","[""好我"",""坏他"",""坏我"",""好他""]","[""强我"",""弱他"",""弱我"",""强他""]","","","","","","","","yes","","","","","","","","","SRET","EW_formal","","key","f","16.66640624999991","768","428","朋友","博学","Positive","ability","","","","","","","","","","",""
"849","","j","psychophysics","65","443978","0.0-7.0-3.0-0.51","6","5","6","5","7","4","3","4","4","5","4","1","1","0","2","-2","1","2","1","5","5","5","5","5","4","4","3","4","5","6","7","4","7","6","5","8","4","6","4","6","2","4","6","1","6","2","5","2","1","3","2","5","2","2","5","5","4","3","3","2","2","3","3","3","6","3","6","6","4","2","2","3","2","2","3","1","6","3","3","790906536061968385","张","460","Male","[""好我"",""坏他"",""坏我"",""好他""]","[""强我"",""弱他"",""弱我"",""强他""]","","","","","","","","no","","","","","","","","","SRET","EW_formal","","key","j","16.66545454545412","768","428","自己","淫乱","Negative","morality","","","","","","","","","","",""
"798","","f","psychophysics","66","445777","0.0-7.0-3.0-0.52","6","5","6","5","7","4","3","4","4","5","4","1","1","0","2","-2","1","2","1","5","5","5","5","5","4","4","3","4","5","6","7","4","7","6","5","8","4","6","4","6","2","4","6","1","6","2","5","2","1","3","2","5","2","2","5","5","4","3","3","2","2","3","3","3","6","3","6","6","4","2","2","3","2","2","3","1","6","3","3","790906536061968385","张","460","Male","[""好我"",""坏他"",""坏我"",""好他""]","[""强我"",""弱他"",""弱我"",""强他""]","","","","","","","","yes","","","","","","","","","SRET","EW_formal","","key","f","16.66542056074723","768","428","朋友","高效","Positive","ability","","","","","","","","","","",""
"850","","f","psychophysics","67","447629","0.0-7.0-3.0-0.53","6","5","6","5","7","4","3","4","4","5","4","1","1","0","2","-2","1","2","1","5","5","5","5","5","4","4","3","4","5","6","7","4","7","6","5","8","4","6","4","6","2","4","6","1","6","2","5","2","1","3","2","5","2","2","5","5","4","3","3","2","2","3","3","3","6","3","6","6","4","2","2","3","2","2","3","1","6","3","3","790906536061968385","张","460","Male","[""好我"",""坏他"",""坏我"",""好他""]","[""强我"",""弱他"",""弱我"",""强他""]","","","","","","","","yes","","","","","","","","","SRET","EW_formal","","key","f","16.66636363636353","768","428","朋友","忠勇","Positive","morality","","","","","","","","","","",""
"945","","f","psychophysics","68","449576","0.0-7.0-3.0-0.54","6","5","6","5","7","4","3","4","4","5","4","1","1","0","2","-2","1","2","1","5","5","5","5","5","4","4","3","4","5","6","7","4","7","6","5","8","4","6","4","6","2","4","6","1","6","2","5","2","1","3","2","5","2","2","5","5","4","3","3","2","2","3","3","3","6","3","6","6","4","2","2","3","2","2","3","1","6","3","3","790906536061968385","张","460","Male","[""好我"",""坏他"",""坏我"",""好他""]","[""强我"",""弱他"",""弱我"",""强他""]","","","","","","","","yes","","","","","","","","","SRET","EW_formal","","key","f","16.666379310344727","768","428","自己","肯干","Positive","ability","","","","","","","","","","",""
"849","","j","psychophysics","69","451428","0.0-7.0-3.0-0.55","6","5","6","5","7","4","3","4","4","5","4","1","1","0","2","-2","1","2","1","5","5","5","5","5","4","4","3","4","5","6","7","4","7","6","5","8","4","6","4","6","2","4","6","1","6","2","5","2","1","3","2","5","2","2","5","5","4","3","3","2","2","3","3","3","6","3","6","6","4","2","2","3","2","2","3","1","6","3","3","790906536061968385","张","460","Male","[""好我"",""坏他"",""坏我"",""好他""]","[""强我"",""弱他"",""弱我"",""强他""]","","","","","","","","no","","","","","","","","","SRET","EW_formal","","key","j","16.667272727272408","768","428","朋友","愚蠢","Negative","ability","","","","","","","","","","",""
"928","","j","psychophysics","70","453359","0.0-7.0-3.0-0.56","6","5","6","5","7","4","3","4","4","5","4","1","1","0","2","-2","1","2","1","5","5","5","5","5","4","4","3","4","5","6","7","4","7","6","5","8","4","6","4","6","2","4","6","1","6","2","5","2","1","3","2","5","2","2","5","5","4","3","3","2","2","3","3","3","6","3","6","6","4","2","2","3","2","2","3","1","6","3","3","790906536061968385","张","460","Male","[""好我"",""坏他"",""坏我"",""好他""]","[""强我"",""弱他"",""弱我"",""强他""]","","","","","","","","no","","","","","","","","","SRET","EW_formal","","key","j","16.666086956521536","768","428","自己","迂拙","Negative","ability","","","","","","","","","","",""
"761","","f","psychophysics","71","455122","0.0-7.0-3.0-0.57","6","5","6","5","7","4","3","4","4","5","4","1","1","0","2","-2","1","2","1","5","5","5","5","5","4","4","3","4","5","6","7","4","7","6","5","8","4","6","4","6","2","4","6","1","6","2","5","2","1","3","2","5","2","2","5","5","4","3","3","2","2","3","3","3","6","3","6","6","4","2","2","3","2","2","3","1","6","3","3","790906536061968385","张","460","Male","[""好我"",""坏他"",""坏我"",""好他""]","[""强我"",""弱他"",""弱我"",""强他""]","","","","","","","","yes","","","","","","","","","SRET","EW_formal","","key","f","16.667619047618825","768","428","自己","智慧","Positive","ability","","","","","","","","","","",""
"661","","j","psychophysics","72","456785","0.0-7.0-3.0-0.58","6","5","6","5","7","4","3","4","4","5","4","1","1","0","2","-2","1","2","1","5","5","5","5","5","4","4","3","4","5","6","7","4","7","6","5","8","4","6","4","6","2","4","6","1","6","2","5","2","1","3","2","5","2","2","5","5","4","3","3","2","2","3","3","3","6","3","6","6","4","2","2","3","2","2","3","1","6","3","3","790906536061968385","张","460","Male","[""好我"",""坏他"",""坏我"",""好他""]","[""强我"",""弱他"",""弱我"",""强他""]","","","","","","","","no","","","","","","","","","SRET","EW_formal","","key","j","16.670408163265424","768","428","朋友","歹毒","Negative","morality","","","","","","","","","","",""
"912","","j","psychophysics","73","458701","0.0-7.0-3.0-0.59","6","5","6","5","7","4","3","4","4","5","4","1","1","0","2","-2","1","2","1","5","5","5","5","5","4","4","3","4","5","6","7","4","7","6","5","8","4","6","4","6","2","4","6","1","6","2","5","2","1","3","2","5","2","2","5","5","4","3","3","2","2","3","3","3","6","3","6","6","4","2","2","3","2","2","3","1","6","3","3","790906536061968385","张","460","Male","[""好我"",""坏他"",""坏我"",""好他""]","[""强我"",""弱他"",""弱我"",""强他""]","","","","","","","","no","","","","","","","","","SRET","EW_formal","","key","j","16.669298245614442","768","428","自己","毛糙","Negative","ability","","","","","","","","","","",""
"717","","f","psychophysics","74","460421","0.0-7.0-3.0-0.60","6","5","6","5","7","4","3","4","4","5","4","1","1","0","2","-2","1","2","1","5","5","5","5","5","4","4","3","4","5","6","7","4","7","6","5","8","4","6","4","6","2","4","6","1","6","2","5","2","1","3","2","5","2","2","5","5","4","3","3","2","2","3","3","3","6","3","6","6","4","2","2","3","2","2","3","1","6","3","3","790906536061968385","张","460","Male","[""好我"",""坏他"",""坏我"",""好他""]","[""强我"",""弱他"",""弱我"",""强他""]","","","","","","","","yes","","","","","","","","","SRET","EW_formal","","key","f","16.66504854368932","768","428","自己","独断","Negative","ability","","","","","","","","","","",""
"916","","j","psychophysics","75","462340","0.0-7.0-3.0-0.61","6","5","6","5","7","4","3","4","4","5","4","1","1","0","2","-2","1","2","1","5","5","5","5","5","4","4","3","4","5","6","7","4","7","6","5","8","4","6","4","6","2","4","6","1","6","2","5","2","1","3","2","5","2","2","5","5","4","3","3","2","2","3","3","3","6","3","6","6","4","2","2","3","2","2","3","1","6","3","3","790906536061968385","张","460","Male","[""好我"",""坏他"",""坏我"",""好他""]","[""强我"",""弱他"",""弱我"",""强他""]","","","","","","","","no","","","","","","","","","SRET","EW_formal","","key","j","16.665789473684416","768","428","朋友","浅薄","Negative","ability","","","","","","","","","","",""
"729","","f","psychophysics","76","464071","0.0-7.0-3.0-0.62","6","5","6","5","7","4","3","4","4","5","4","1","1","0","2","-2","1","2","1","5","5","5","5","5","4","4","3","4","5","6","7","4","7","6","5","8","4","6","4","6","2","4","6","1","6","2","5","2","1","3","2","5","2","2","5","5","4","3","3","2","2","3","3","3","6","3","6","6","4","2","2","3","2","2","3","1","6","3","3","790906536061968385","张","460","Male","[""好我"",""坏他"",""坏我"",""好他""]","[""强我"",""弱他"",""弱我"",""强他""]","","","","","","","","yes","","","","","","","","","SRET","EW_formal","","key","f","16.66699029126225","768","428","自己","宽容","Positive","morality","","","","","","","","","","",""
"962","","f","psychophysics","77","466035","0.0-7.0-3.0-0.63","6","5","6","5","7","4","3","4","4","5","4","1","1","0","2","-2","1","2","1","5","5","5","5","5","4","4","3","4","5","6","7","4","7","6","5","8","4","6","4","6","2","4","6","1","6","2","5","2","1","3","2","5","2","2","5","5","4","3","3","2","2","3","3","3","6","3","6","6","4","2","2","3","2","2","3","1","6","3","3","790906536061968385","张","460","Male","[""好我"",""坏他"",""坏我"",""好他""]","[""强我"",""弱他"",""弱我"",""强他""]","","","","","","","","yes","","","","","","","","","SRET","EW_formal","","key","f","16.667241379310045","768","428","自己","远见","Positive","ability","","","","","","","","","","",""
"865","","j","psychophysics","78","467903","0.0-7.0-3.0-0.64","6","5","6","5","7","4","3","4","4","5","4","1","1","0","2","-2","1","2","1","5","5","5","5","5","4","4","3","4","5","6","7","4","7","6","5","8","4","6","4","6","2","4","6","1","6","2","5","2","1","3","2","5","2","2","5","5","4","3","3","2","2","3","3","3","6","3","6","6","4","2","2","3","2","2","3","1","6","3","3","790906536061968385","张","460","Male","[""好我"",""坏他"",""坏我"",""好他""]","[""强我"",""弱他"",""弱我"",""强他""]","","","","","","","","no","","","","","","","","","SRET","EW_formal","","key","j","16.668468468468575","768","428","自己","邪恶","Negative","morality","","","","","","","","","","",""
"1017","","j","psychophysics","79","469922","0.0-7.0-3.0-0.65","6","5","6","5","7","4","3","4","4","5","4","1","1","0","2","-2","1","2","1","5","5","5","5","5","4","4","3","4","5","6","7","4","7","6","5","8","4","6","4","6","2","4","6","1","6","2","5","2","1","3","2","5","2","2","5","5","4","3","3","2","2","3","3","3","6","3","6","6","4","2","2","3","2","2","3","1","6","3","3","790906536061968385","张","460","Male","[""好我"",""坏他"",""坏我"",""好他""]","[""强我"",""弱他"",""弱我"",""强他""]","","","","","","","","no","","","","","","","","","SRET","EW_formal","","key","j","16.666942148760427","768","428","朋友","缺德","Negative","morality","","","","","","","","","","",""
"986","","f","psychophysics","80","471910","0.0-7.0-3.0-0.66","6","5","6","5","7","4","3","4","4","5","4","1","1","0","2","-2","1","2","1","5","5","5","5","5","4","4","3","4","5","6","7","4","7","6","5","8","4","6","4","6","2","4","6","1","6","2","5","2","1","3","2","5","2","2","5","5","4","3","3","2","2","3","3","3","6","3","6","6","4","2","2","3","2","2","3","1","6","3","3","790906536061968385","张","460","Male","[""好我"",""坏他"",""坏我"",""好他""]","[""强我"",""弱他"",""弱我"",""强他""]","","","","","","","","yes","","","","","","","","","SRET","EW_formal","","key","f","16.666949152542472","768","428","自己","独立","Positive","ability","","","","","","","","","","",""
"784","","j","psychophysics","81","473695","0.0-7.0-3.0-0.67","6","5","6","5","7","4","3","4","4","5","4","1","1","0","2","-2","1","2","1","5","5","5","5","5","4","4","3","4","5","6","7","4","7","6","5","8","4","6","4","6","2","4","6","1","6","2","5","2","1","3","2","5","2","2","5","5","4","3","3","2","2","3","3","3","6","3","6","6","4","2","2","3","2","2","3","1","6","3","3","790906536061968385","张","460","Male","[""好我"",""坏他"",""坏我"",""好他""]","[""强我"",""弱他"",""弱我"",""强他""]","","","","","","","","no","","","","","","","","","SRET","EW_formal","","key","j","16.672641509434403","768","428","自己","阴毒","Negative","morality","","","","","","","","","","",""
"877","","f","psychophysics","82","475574","0.0-7.0-3.0-0.68","6","5","6","5","7","4","3","4","4","5","4","1","1","0","2","-2","1","2","1","5","5","5","5","5","4","4","3","4","5","6","7","4","7","6","5","8","4","6","4","6","2","4","6","1","6","2","5","2","1","3","2","5","2","2","5","5","4","3","3","2","2","3","3","3","6","3","6","6","4","2","2","3","2","2","3","1","6","3","3","790906536061968385","张","460","Male","[""好我"",""坏他"",""坏我"",""好他""]","[""强我"",""弱他"",""弱我"",""强他""]","","","","","","","","yes","","","","","","","","","SRET","EW_formal","","key","f","16.66696428571439","768","428","朋友","仗义","Positive","morality","","","","","","","","","","",""
"1150","","j","psychophysics","83","477726","0.0-7.0-3.0-0.69","6","5","6","5","7","4","3","4","4","5","4","1","1","0","2","-2","1","2","1","5","5","5","5","5","4","4","3","4","5","6","7","4","7","6","5","8","4","6","4","6","2","4","6","1","6","2","5","2","1","3","2","5","2","2","5","5","4","3","3","2","2","3","3","3","6","3","6","6","4","2","2","3","2","2","3","1","6","3","3","790906536061968385","张","460","Male","[""好我"",""坏他"",""坏我"",""好他""]","[""强我"",""弱他"",""弱我"",""强他""]","","","","","","","","no","","","","","","","","","SRET","EW_formal","","key","j","16.668749999999818","768","428","自己","弱智","Negative","ability","","","","","","","","","","",""
"930","","j","psychophysics","84","479657","0.0-7.0-3.0-0.70","6","5","6","5","7","4","3","4","4","5","4","1","1","0","2","-2","1","2","1","5","5","5","5","5","4","4","3","4","5","6","7","4","7","6","5","8","4","6","4","6","2","4","6","1","6","2","5","2","1","3","2","5","2","2","5","5","4","3","3","2","2","3","3","3","6","3","6","6","4","2","2","3","2","2","3","1","6","3","3","790906536061968385","张","460","Male","[""好我"",""坏他"",""坏我"",""好他""]","[""强我"",""弱他"",""弱我"",""强他""]","","","","","","","","no","","","","","","","","","SRET","EW_formal","","key","j","16.65391304347836","768","428","朋友","小人","Negative","morality","","","","","","","","","","",""
"894","","f","psychophysics","85","481553","0.0-7.0-3.0-0.71","6","5","6","5","7","4","3","4","4","5","4","1","1","0","2","-2","1","2","1","5","5","5","5","5","4","4","3","4","5","6","7","4","7","6","5","8","4","6","4","6","2","4","6","1","6","2","5","2","1","3","2","5","2","2","5","5","4","3","3","2","2","3","3","3","6","3","6","6","4","2","2","3","2","2","3","1","6","3","3","790906536061968385","张","460","Male","[""好我"",""坏他"",""坏我"",""好他""]","[""强我"",""弱他"",""弱我"",""强他""]","","","","","","","","yes","","","","","","","","","SRET","EW_formal","","key","f","16.666371681415825","768","428","自己","仁爱","Positive","morality","","","","","","","","","","",""
"887","","j","psychophysics","86","483442","0.0-7.0-3.0-0.72","6","5","6","5","7","4","3","4","4","5","4","1","1","0","2","-2","1","2","1","5","5","5","5","5","4","4","3","4","5","6","7","4","7","6","5","8","4","6","4","6","2","4","6","1","6","2","5","2","1","3","2","5","2","2","5","5","4","3","3","2","2","3","3","3","6","3","6","6","4","2","2","3","2","2","3","1","6","3","3","790906536061968385","张","460","Male","[""好我"",""坏他"",""坏我"",""好他""]","[""强我"",""弱他"",""弱我"",""强他""]","","","","","","","","no","","","","","","","","","SRET","EW_formal","","key","j","16.669642857142858","768","428","朋友","贪腐","Negative","morality","","","","","","","","","","",""
"1483","","j","psychophysics","87","485927","0.0-7.0-3.0-0.73","6","5","6","5","7","4","3","4","4","5","4","1","1","0","2","-2","1","2","1","5","5","5","5","5","4","4","3","4","5","6","7","4","7","6","5","8","4","6","4","6","2","4","6","1","6","2","5","2","1","3","2","5","2","2","5","5","4","3","3","2","2","3","3","3","6","3","6","6","4","2","2","3","2","2","3","1","6","3","3","790906536061968385","张","460","Male","[""好我"",""坏他"",""坏我"",""好他""]","[""强我"",""弱他"",""弱我"",""强他""]","","","","","","","","no","","","","","","","","","SRET","EW_formal","","key","j","16.660810810810734","768","428","朋友","顶事","Positive","ability","","","","","","","","","","",""
"981","","f","psychophysics","88","487909","0.0-7.0-3.0-0.74","6","5","6","5","7","4","3","4","4","5","4","1","1","0","2","-2","1","2","1","5","5","5","5","5","4","4","3","4","5","6","7","4","7","6","5","8","4","6","4","6","2","4","6","1","6","2","5","2","1","3","2","5","2","2","5","5","4","3","3","2","2","3","3","3","6","3","6","6","4","2","2","3","2","2","3","1","6","3","3","790906536061968385","张","460","Male","[""好我"",""坏他"",""坏我"",""好他""]","[""强我"",""弱他"",""弱我"",""强他""]","","","","","","","","yes","","","","","","","","","SRET","EW_formal","","key","f","16.65762711864387","768","428","朋友","廉明","Positive","morality","","","","","","","","","","",""
"860","","f","psychophysics","89","489772","0.0-7.0-3.0-0.75","6","5","6","5","7","4","3","4","4","5","4","1","1","0","2","-2","1","2","1","5","5","5","5","5","4","4","3","4","5","6","7","4","7","6","5","8","4","6","4","6","2","4","6","1","6","2","5","2","1","3","2","5","2","2","5","5","4","3","3","2","2","3","3","3","6","3","6","6","4","2","2","3","2","2","3","1","6","3","3","790906536061968385","张","460","Male","[""好我"",""坏他"",""坏我"",""好他""]","[""强我"",""弱他"",""弱我"",""强他""]","","","","","","","","yes","","","","","","","","","SRET","EW_formal","","key","f","16.65765765765766","768","428","朋友","坦荡","Positive","morality","","","","","","","","","","",""
"776","","j","psychophysics","90","491551","0.0-7.0-3.0-0.76","6","5","6","5","7","4","3","4","4","5","4","1","1","0","2","-2","1","2","1","5","5","5","5","5","4","4","3","4","5","6","7","4","7","6","5","8","4","6","4","6","2","4","6","1","6","2","5","2","1","3","2","5","2","2","5","5","4","3","3","2","2","3","3","3","6","3","6","6","4","2","2","3","2","2","3","1","6","3","3","790906536061968385","张","460","Male","[""好我"",""坏他"",""坏我"",""好他""]","[""强我"",""弱他"",""弱我"",""强他""]","","","","","","","","no","","","","","","","","","SRET","EW_formal","","key","j","16.665714285713953","768","428","自己","下流","Negative","morality","","","","","","","","","","",""
"864","","f","psychophysics","91","493416","0.0-7.0-3.0-0.77","6","5","6","5","7","4","3","4","4","5","4","1","1","0","2","-2","1","2","1","5","5","5","5","5","4","4","3","4","5","6","7","4","7","6","5","8","4","6","4","6","2","4","6","1","6","2","5","2","1","3","2","5","2","2","5","5","4","3","3","2","2","3","3","3","6","3","6","6","4","2","2","3","2","2","3","1","6","3","3","790906536061968385","张","460","Male","[""好我"",""坏他"",""坏我"",""好他""]","[""强我"",""弱他"",""弱我"",""强他""]","","","","","","","","yes","","","","","","","","","SRET","EW_formal","","key","f","16.666666666666668","768","428","自己","勤奋","Positive","ability","","","","","","","","","","",""
"878","","j","psychophysics","92","495296","0.0-7.0-3.0-0.78","6","5","6","5","7","4","3","4","4","5","4","1","1","0","2","-2","1","2","1","5","5","5","5","5","4","4","3","4","5","6","7","4","7","6","5","8","4","6","4","6","2","4","6","1","6","2","5","2","1","3","2","5","2","2","5","5","4","3","3","2","2","3","3","3","6","3","6","6","4","2","2","3","2","2","3","1","6","3","3","790906536061968385","张","460","Male","[""好我"",""坏他"",""坏我"",""好他""]","[""强我"",""弱他"",""弱我"",""强他""]","","","","","","","","no","","","","","","","","","SRET","EW_formal","","key","j","16.663392857143272","768","428","自己","恶劣","Negative","morality","","","","","","","","","","",""
"926","","f","psychophysics","93","497224","0.0-7.0-3.0-0.79","6","5","6","5","7","4","3","4","4","5","4","1","1","0","2","-2","1","2","1","5","5","5","5","5","4","4","3","4","5","6","7","4","7","6","5","8","4","6","4","6","2","4","6","1","6","2","5","2","1","3","2","5","2","2","5","5","4","3","3","2","2","3","3","3","6","3","6","6","4","2","2","3","2","2","3","1","6","3","3","790906536061968385","张","460","Male","[""好我"",""坏他"",""坏我"",""好他""]","[""强我"",""弱他"",""弱我"",""强他""]","","","","","","","","yes","","","","","","","","","SRET","EW_formal","","key","f","16.66521739130435","768","428","朋友","奉献","Positive","morality","","","","","","","","","","",""
"706","","f","psychophysics","94","498933","0.0-7.0-3.0-0.80","6","5","6","5","7","4","3","4","4","5","4","1","1","0","2","-2","1","2","1","5","5","5","5","5","4","4","3","4","5","6","7","4","7","6","5","8","4","6","4","6","2","4","6","1","6","2","5","2","1","3","2","5","2","2","5","5","4","3","3","2","2","3","3","3","6","3","6","6","4","2","2","3","2","2","3","1","6","3","3","790906536061968385","张","460","Male","[""好我"",""坏他"",""坏我"",""好他""]","[""强我"",""弱他"",""弱我"",""强他""]","","","","","","","","yes","","","","","","","","","SRET","EW_formal","","key","f","16.667326732673498","768","428","朋友","周到","Positive","ability","","","","","","","","","","",""
"801","","f","psychophysics","95","500735","0.0-7.0-3.0-0.81","6","5","6","5","7","4","3","4","4","5","4","1","1","0","2","-2","1","2","1","5","5","5","5","5","4","4","3","4","5","6","7","4","7","6","5","8","4","6","4","6","2","4","6","1","6","2","5","2","1","3","2","5","2","2","5","5","4","3","3","2","2","3","3","3","6","3","6","6","4","2","2","3","2","2","3","1","6","3","3","790906536061968385","张","460","Male","[""好我"",""坏他"",""坏我"",""好他""]","[""强我"",""弱他"",""弱我"",""强他""]","","","","","","","","yes","","","","","","","","","SRET","EW_formal","","key","f","16.5822429906541","768","428","朋友","稳健","Positive","ability","","","","","","","","","","",""
"1120","","j","psychophysics","96","502858","0.0-7.0-3.0-0.82","6","5","6","5","7","4","3","4","4","5","4","1","1","0","2","-2","1","2","1","5","5","5","5","5","4","4","3","4","5","6","7","4","7","6","5","8","4","6","4","6","2","4","6","1","6","2","5","2","1","3","2","5","2","2","5","5","4","3","3","2","2","3","3","3","6","3","6","6","4","2","2","3","2","2","3","1","6","3","3","790906536061968385","张","460","Male","[""好我"",""坏他"",""坏我"",""好他""]","[""强我"",""弱他"",""弱我"",""强他""]","","","","","","","","no","","","","","","","","","SRET","EW_formal","","key","j","16.66692913385836","768","428","自己","屈才","Negative","ability","","","","","","","","","","",""
"929","","j","psychophysics","97","504790","0.0-7.0-3.0-0.83","6","5","6","5","7","4","3","4","4","5","4","1","1","0","2","-2","1","2","1","5","5","5","5","5","4","4","3","4","5","6","7","4","7","6","5","8","4","6","4","6","2","4","6","1","6","2","5","2","1","3","2","5","2","2","5","5","4","3","3","2","2","3","3","3","6","3","6","6","4","2","2","3","2","2","3","1","6","3","3","790906536061968385","张","460","Male","[""好我"",""坏他"",""坏我"",""好他""]","[""强我"",""弱他"",""弱我"",""强他""]","","","","","","","","no","","","","","","","","","SRET","EW_formal","","key","j","16.666086956521536","768","428","朋友","无知","Negative","ability","","","","","","","","","","",""
"1115","","f","psychophysics","98","506906","0.0-7.0-3.0-0.84","6","5","6","5","7","4","3","4","4","5","4","1","1","0","2","-2","1","2","1","5","5","5","5","5","4","4","3","4","5","6","7","4","7","6","5","8","4","6","4","6","2","4","6","1","6","2","5","2","1","3","2","5","2","2","5","5","4","3","3","2","2","3","3","3","6","3","6","6","4","2","2","3","2","2","3","1","6","3","3","790906536061968385","张","460","Male","[""好我"",""坏他"",""坏我"",""好他""]","[""强我"",""弱他"",""弱我"",""强他""]","","","","","","","","yes","","","","","","","","","SRET","EW_formal","","key","f","16.6658730158732","768","428","朋友","素养","Positive","morality","","","","","","","","","","",""
"1002","","f","psychophysics","99","508909","0.0-7.0-3.0-0.85","6","5","6","5","7","4","3","4","4","5","4","1","1","0","2","-2","1","2","1","5","5","5","5","5","4","4","3","4","5","6","7","4","7","6","5","8","4","6","4","6","2","4","6","1","6","2","5","2","1","3","2","5","2","2","5","5","4","3","3","2","2","3","3","3","6","3","6","6","4","2","2","3","2","2","3","1","6","3","3","790906536061968385","张","460","Male","[""好我"",""坏他"",""坏我"",""好他""]","[""强我"",""弱他"",""弱我"",""强他""]","","","","","","","","yes","","","","","","","","","SRET","EW_formal","","key","f","16.665546218487005","768","428","自己","主见","Positive","ability","","","","","","","","","","",""
"775","","j","psychophysics","100","510687","0.0-7.0-3.0-0.86","6","5","6","5","7","4","3","4","4","5","4","1","1","0","2","-2","1","2","1","5","5","5","5","5","4","4","3","4","5","6","7","4","7","6","5","8","4","6","4","6","2","4","6","1","6","2","5","2","1","3","2","5","2","2","5","5","4","3","3","2","2","3","3","3","6","3","6","6","4","2","2","3","2","2","3","1","6","3","3","790906536061968385","张","460","Male","[""好我"",""坏他"",""坏我"",""好他""]","[""强我"",""弱他"",""弱我"",""强他""]","","","","","","","","no","","","","","","","","","SRET","EW_formal","","key","j","16.666037735848835","768","428","朋友","低俗","Negative","morality","","","","","","","","","","",""
"694","","j","psychophysics","101","512383","0.0-7.0-3.0-0.87","6","5","6","5","7","4","3","4","4","5","4","1","1","0","2","-2","1","2","1","5","5","5","5","5","4","4","3","4","5","6","7","4","7","6","5","8","4","6","4","6","2","4","6","1","6","2","5","2","1","3","2","5","2","2","5","5","4","3","3","2","2","3","3","3","6","3","6","6","4","2","2","3","2","2","3","1","6","3","3","790906536061968385","张","460","Male","[""好我"",""坏他"",""坏我"",""好他""]","[""强我"",""弱他"",""弱我"",""强他""]","","","","","","","","no","","","","","","","","","SRET","EW_formal","","key","j","16.66900000000023","768","428","自己","缓慢","Negative","ability","","","","","","","","","","",""
"13409","
    <p><div style='color:white;font-size:35px; line-height:20px;'>计算任务</div></p><br>
    <p><div style='color:red;font-size:25px; line-height:20px;'>接下来，您将看到一些四则运算题，<b>请从键盘选择 0-9 进行反应。</b></div></p>
    <p><div style='color:red;font-size:25px; line-height:20px;'>请尽可能快地进行计算，计算的速度和正确率将影响报酬的发放。</div></p>
    <p><div class='footer' style='color:white;font-size:25px; line-height:20px;'>如果对本实验还有不清楚之处，请立即向实验员咨询。</p><p style='color:white;font-size:25px; line-height:20px;'>如果您明白了规则：</p><p style='color:white;font-size:22px; line-height:20px;'>请按 继续 进入练习</p>
    </div>
    ","0","html-button-response","102","525794","0.0-7.0-4.0","6","5","6","5","7","4","3","4","4","5","4","1","1","0","2","-2","1","2","1","5","5","5","5","5","4","4","3","4","5","6","7","4","7","6","5","8","4","6","4","6","2","4","6","1","6","2","5","2","1","3","2","5","2","2","5","5","4","3","3","2","2","3","3","3","6","3","6","6","4","2","2","3","2","2","3","1","6","3","3","790906536061968385","张","460","Male","[""好我"",""坏他"",""坏我"",""好他""]","[""强我"",""弱他"",""弱我"",""强他""]","","","","","","","","","","","","","","","","","SRET_math","math_instructions","Fri Jan 19 2024 14:06:06 GMT+0800 (中国标准时间)","","","","","","","","","","","","","","","","","","","",""
"2054","","7","psychophysics","103","527850","0.0-7.0-5.0-0.0","6","5","6","5","7","4","3","4","4","5","4","1","1","0","2","-2","1","2","1","5","5","5","5","5","4","4","3","4","5","6","7","4","7","6","5","8","4","6","4","6","2","4","6","1","6","2","5","2","1","3","2","5","2","2","5","5","4","3","3","2","2","3","3","3","6","3","6","6","4","2","2","3","2","2","3","1","6","3","3","790906536061968385","张","460","Male","[""好我"",""坏他"",""坏我"",""好他""]","[""强我"",""弱他"",""弱我"",""强他""]","","","","","","","","7","","","","","","","","","SRET","SRET_math_calculate","","key","7","16.660162601626585","768","428","","","","","9-2= ?","7","1","","","","","","","",""
"2386","","7","psychophysics","104","530241","0.0-7.0-5.0-0.1","6","5","6","5","7","4","3","4","4","5","4","1","1","0","2","-2","1","2","1","5","5","5","5","5","4","4","3","4","5","6","7","4","7","6","5","8","4","6","4","6","2","4","6","1","6","2","5","2","1","3","2","5","2","2","5","5","4","3","3","2","2","3","3","3","6","3","6","6","4","2","2","3","2","2","3","1","6","3","3","790906536061968385","张","460","Male","[""好我"",""坏他"",""坏我"",""好他""]","[""强我"",""弱他"",""弱我"",""强他""]","","","","","","","","7","","","","","","","","","SRET","SRET_math_calculate","","key","7","16.66573426573394","768","428","","","","","13-6= ?","7","1","","","","","","","",""
"2417","","8","psychophysics","105","532661","0.0-7.0-5.0-0.2","6","5","6","5","7","4","3","4","4","5","4","1","1","0","2","-2","1","2","1","5","5","5","5","5","4","4","3","4","5","6","7","4","7","6","5","8","4","6","4","6","2","4","6","1","6","2","5","2","1","3","2","5","2","2","5","5","4","3","3","2","2","3","3","3","6","3","6","6","4","2","2","3","2","2","3","1","6","3","3","790906536061968385","张","460","Male","[""好我"",""坏他"",""坏我"",""好他""]","[""强我"",""弱他"",""弱我"",""强他""]","","","","","","","","8","","","","","","","","","SRET","SRET_math_calculate","","key","8","16.669444444444608","768","428","","","","","50-42= ?","8","1","","","","","","","",""
"2213","","5","psychophysics","106","534877","0.0-7.0-5.0-0.3","6","5","6","5","7","4","3","4","4","5","4","1","1","0","2","-2","1","2","1","5","5","5","5","5","4","4","3","4","5","6","7","4","7","6","5","8","4","6","4","6","2","4","6","1","6","2","5","2","1","3","2","5","2","2","5","5","4","3","3","2","2","3","3","3","6","3","6","6","4","2","2","3","2","2","3","1","6","3","3","790906536061968385","张","460","Male","[""好我"",""坏他"",""坏我"",""好他""]","[""强我"",""弱他"",""弱我"",""强他""]","","","","","","","","5","","","","","","","","","SRET","SRET_math_calculate","","key","5","16.666666666666668","768","428","","","","","8-3= ? ","5","1","","","","","","","",""
"1953","","3","psychophysics","107","536832","0.0-7.0-5.0-0.4","6","5","6","5","7","4","3","4","4","5","4","1","1","0","2","-2","1","2","1","5","5","5","5","5","4","4","3","4","5","6","7","4","7","6","5","8","4","6","4","6","2","4","6","1","6","2","5","2","1","3","2","5","2","2","5","5","4","3","3","2","2","3","3","3","6","3","6","6","4","2","2","3","2","2","3","1","6","3","3","790906536061968385","张","460","Male","[""好我"",""坏他"",""坏我"",""好他""]","[""强我"",""弱他"",""弱我"",""强他""]","","","","","","","","3","","","","","","","","","SRET","SRET_math_calculate","","key","3","16.66810344827586","768","428","","","","","1+2= ?","3","1","","","","","","","",""
"2250","","6","psychophysics","108","539087","0.0-7.0-5.0-0.5","6","5","6","5","7","4","3","4","4","5","4","1","1","0","2","-2","1","2","1","5","5","5","5","5","4","4","3","4","5","6","7","4","7","6","5","8","4","6","4","6","2","4","6","1","6","2","5","2","1","3","2","5","2","2","5","5","4","3","3","2","2","3","3","3","6","3","6","6","4","2","2","3","2","2","3","1","6","3","3","790906536061968385","张","460","Male","[""好我"",""坏他"",""坏我"",""好他""]","[""强我"",""弱他"",""弱我"",""强他""]","","","","","","","","6","","","","","","","","","SRET","SRET_math_calculate","","key","6","16.6659259259261","768","428","","","","","3+3= ?","6","1","","","","","","","",""
"1878","","3","psychophysics","109","540967","0.0-7.0-5.0-0.6","6","5","6","5","7","4","3","4","4","5","4","1","1","0","2","-2","1","2","1","5","5","5","5","5","4","4","3","4","5","6","7","4","7","6","5","8","4","6","4","6","2","4","6","1","6","2","5","2","1","3","2","5","2","2","5","5","4","3","3","2","2","3","3","3","6","3","6","6","4","2","2","3","2","2","3","1","6","3","3","790906536061968385","张","460","Male","[""好我"",""坏他"",""坏我"",""好他""]","[""强我"",""弱他"",""弱我"",""强他""]","","","","","","","","3","","","","","","","","","SRET","SRET_math_calculate","","key","3","16.666666666666668","768","428","","","","","2+1= ?","3","1","","","","","","","",""
"2332","","9","psychophysics","110","543304","0.0-7.0-5.0-0.7","6","5","6","5","7","4","3","4","4","5","4","1","1","0","2","-2","1","2","1","5","5","5","5","5","4","4","3","4","5","6","7","4","7","6","5","8","4","6","4","6","2","4","6","1","6","2","5","2","1","3","2","5","2","2","5","5","4","3","3","2","2","3","3","3","6","3","6","6","4","2","2","3","2","2","3","1","6","3","3","790906536061968385","张","460","Male","[""好我"",""坏他"",""坏我"",""好他""]","[""强我"",""弱他"",""弱我"",""强他""]","","","","","","","","9","","","","","","","","","SRET","SRET_math_calculate","","key","9","16.665714285713953","768","428","","","","","1+8= ?","9","1","","","","","","","",""
"2823","","9","psychophysics","111","546130","0.0-7.0-5.0-0.8","6","5","6","5","7","4","3","4","4","5","4","1","1","0","2","-2","1","2","1","5","5","5","5","5","4","4","3","4","5","6","7","4","7","6","5","8","4","6","4","6","2","4","6","1","6","2","5","2","1","3","2","5","2","2","5","5","4","3","3","2","2","3","3","3","6","3","6","6","4","2","2","3","2","2","3","1","6","3","3","790906536061968385","张","460","Male","[""好我"",""坏他"",""坏我"",""好他""]","[""强我"",""弱他"",""弱我"",""强他""]","","","","","","","","9","","","","","","","","","SRET","SRET_math_calculate","","key","9","16.666071428571566","768","428","","","","","43-34= ?","9","1","","","","","","","",""
"2034","","1","psychophysics","112","548167","0.0-7.0-5.0-0.9","6","5","6","5","7","4","3","4","4","5","4","1","1","0","2","-2","1","2","1","5","5","5","5","5","4","4","3","4","5","6","7","4","7","6","5","8","4","6","4","6","2","4","6","1","6","2","5","2","1","3","2","5","2","2","5","5","4","3","3","2","2","3","3","3","6","3","6","6","4","2","2","3","2","2","3","1","6","3","3","790906536061968385","张","460","Male","[""好我"",""坏他"",""坏我"",""好他""]","[""强我"",""弱他"",""弱我"",""强他""]","","","","","","","","1","","","","","","","","","SRET","SRET_math_calculate","","key","1","16.669421487603305","768","428","","","","","10-9= ?","1","1","","","","","","","",""
"2143","","1","psychophysics","113","550315","0.0-7.0-5.0-0.10","6","5","6","5","7","4","3","4","4","5","4","1","1","0","2","-2","1","2","1","5","5","5","5","5","4","4","3","4","5","6","7","4","7","6","5","8","4","6","4","6","2","4","6","1","6","2","5","2","1","3","2","5","2","2","5","5","4","3","3","2","2","3","3","3","6","3","6","6","4","2","2","3","2","2","3","1","6","3","3","790906536061968385","张","460","Male","[""好我"",""坏他"",""坏我"",""好他""]","[""强我"",""弱他"",""弱我"",""强他""]","","","","","","","","1","","","","","","","","","SRET","SRET_math_calculate","","key","1","16.664843749999818","768","428","","","","","4/4= ?","1","1","","","","","","","",""
"2196","","7","psychophysics","114","552513","0.0-7.0-5.0-0.11","6","5","6","5","7","4","3","4","4","5","4","1","1","0","2","-2","1","2","1","5","5","5","5","5","4","4","3","4","5","6","7","4","7","6","5","8","4","6","4","6","2","4","6","1","6","2","5","2","1","3","2","5","2","2","5","5","4","3","3","2","2","3","3","3","6","3","6","6","4","2","2","3","2","2","3","1","6","3","3","790906536061968385","张","460","Male","[""好我"",""坏他"",""坏我"",""好他""]","[""强我"",""弱他"",""弱我"",""强他""]","","","","","","","","7","","","","","","","","","SRET","SRET_math_calculate","","key","7","16.666412213740813","768","428","","","","","5+2= ?","7","1","","","","","","","",""
"2556","","2","psychophysics","115","555071","0.0-7.0-5.0-0.12","6","5","6","5","7","4","3","4","4","5","4","1","1","0","2","-2","1","2","1","5","5","5","5","5","4","4","3","4","5","6","7","4","7","6","5","8","4","6","4","6","2","4","6","1","6","2","5","2","1","3","2","5","2","2","5","5","4","3","3","2","2","3","3","3","6","3","6","6","4","2","2","3","2","2","3","1","6","3","3","790906536061968385","张","460","Male","[""好我"",""坏他"",""坏我"",""好他""]","[""强我"",""弱他"",""弱我"",""强他""]","","","","","","","","2","","","","","","","","","SRET","SRET_math_calculate","","key","2","16.664705882352635","768","428","","","","","22/11= ?","2","1","","","","","","","",""
"2316","","5","psychophysics","116","557390","0.0-7.0-5.0-0.13","6","5","6","5","7","4","3","4","4","5","4","1","1","0","2","-2","1","2","1","5","5","5","5","5","4","4","3","4","5","6","7","4","7","6","5","8","4","6","4","6","2","4","6","1","6","2","5","2","1","3","2","5","2","2","5","5","4","3","3","2","2","3","3","3","6","3","6","6","4","2","2","3","2","2","3","1","6","3","3","790906536061968385","张","460","Male","[""好我"",""坏他"",""坏我"",""好他""]","[""强我"",""弱他"",""弱我"",""强他""]","","","","","","","","5","","","","","","","","","SRET","SRET_math_calculate","","key","5","16.666666666666668","768","428","","","","","15-10= ?","5","1","","","","","","","",""
"2050","","4","psychophysics","117","559443","0.0-7.0-5.0-0.14","6","5","6","5","7","4","3","4","4","5","4","1","1","0","2","-2","1","2","1","5","5","5","5","5","4","4","3","4","5","6","7","4","7","6","5","8","4","6","4","6","2","4","6","1","6","2","5","2","1","3","2","5","2","2","5","5","4","3","3","2","2","3","3","3","6","3","6","6","4","2","2","3","2","2","3","1","6","3","3","790906536061968385","张","460","Male","[""好我"",""坏他"",""坏我"",""好他""]","[""强我"",""弱他"",""弱我"",""强他""]","","","","","","","","4","","","","","","","","","SRET","SRET_math_calculate","","key","4","16.66639344262238","768","428","","","","","9-5= ?","4","1","","","","","","","",""
"2478","","9","psychophysics","118","561924","0.0-7.0-5.0-0.15","6","5","6","5","7","4","3","4","4","5","4","1","1","0","2","-2","1","2","1","5","5","5","5","5","4","4","3","4","5","6","7","4","7","6","5","8","4","6","4","6","2","4","6","1","6","2","5","2","1","3","2","5","2","2","5","5","4","3","3","2","2","3","3","3","6","3","6","6","4","2","2","3","2","2","3","1","6","3","3","790906536061968385","张","460","Male","[""好我"",""坏他"",""坏我"",""好他""]","[""强我"",""弱他"",""弱我"",""强他""]","","","","","","","","9","","","","","","","","","SRET","SRET_math_calculate","","key","9","16.646621621622092","768","428","","","","","1*9= ?","9","1","","","","","","","",""
"3712","","3","psychophysics","119","565639","0.0-7.0-5.0-0.16","6","5","6","5","7","4","3","4","4","5","4","1","1","0","2","-2","1","2","1","5","5","5","5","5","4","4","3","4","5","6","7","4","7","6","5","8","4","6","4","6","2","4","6","1","6","2","5","2","1","3","2","5","2","2","5","5","4","3","3","2","2","3","3","3","6","3","6","6","4","2","2","3","2","2","3","1","6","3","3","790906536061968385","张","460","Male","[""好我"",""坏他"",""坏我"",""好他""]","[""强我"",""弱他"",""弱我"",""强他""]","","","","","","","","3","","","","","","","","","SRET","SRET_math_calculate","","key","3","16.66621621621632","768","428","","","","","11-8= ?","3","1","","","","","","","",""
"2221","","2","psychophysics","120","567862","0.0-7.0-5.0-0.17","6","5","6","5","7","4","3","4","4","5","4","1","1","0","2","-2","1","2","1","5","5","5","5","5","4","4","3","4","5","6","7","4","7","6","5","8","4","6","4","6","2","4","6","1","6","2","5","2","1","3","2","5","2","2","5","5","4","3","3","2","2","3","3","3","6","3","6","6","4","2","2","3","2","2","3","1","6","3","3","790906536061968385","张","460","Male","[""好我"",""坏他"",""坏我"",""好他""]","[""强我"",""弱他"",""弱我"",""强他""]","","","","","","","","2","","","","","","","","","SRET","SRET_math_calculate","","key","2","16.667424242424065","768","428","","","","","5-3= ?","2","1","","","","","","","",""
"2340","","5","psychophysics","121","570205","0.0-7.0-5.0-0.18","6","5","6","5","7","4","3","4","4","5","4","1","1","0","2","-2","1","2","1","5","5","5","5","5","4","4","3","4","5","6","7","4","7","6","5","8","4","6","4","6","2","4","6","1","6","2","5","2","1","3","2","5","2","2","5","5","4","3","3","2","2","3","3","3","6","3","6","6","4","2","2","3","2","2","3","1","6","3","3","790906536061968385","张","460","Male","[""好我"",""坏他"",""坏我"",""好他""]","[""强我"",""弱他"",""弱我"",""强他""]","","","","","","","","5","","","","","","","","","SRET","SRET_math_calculate","","key","5","16.664999999999832","768","428","","","","","16-11= ?","5","1","","","","","","","",""
"2639","","8","psychophysics","122","572847","0.0-7.0-5.0-0.19","6","5","6","5","7","4","3","4","4","5","4","1","1","0","2","-2","1","2","1","5","5","5","5","5","4","4","3","4","5","6","7","4","7","6","5","8","4","6","4","6","2","4","6","1","6","2","5","2","1","3","2","5","2","2","5","5","4","3","3","2","2","3","3","3","6","3","6","6","4","2","2","3","2","2","3","1","6","3","3","790906536061968385","张","460","Male","[""好我"",""坏他"",""坏我"",""好他""]","[""强我"",""弱他"",""弱我"",""强他""]","","","","","","","","8","","","","","","","","","SRET","SRET_math_calculate","","key","8","16.66815286624219","768","428","","","","","13-5= ?","8","1","","","","","","","",""
"2271","","1","psychophysics","123","575120","0.0-7.0-5.0-0.20","6","5","6","5","7","4","3","4","4","5","4","1","1","0","2","-2","1","2","1","5","5","5","5","5","4","4","3","4","5","6","7","4","7","6","5","8","4","6","4","6","2","4","6","1","6","2","5","2","1","3","2","5","2","2","5","5","4","3","3","2","2","3","3","3","6","3","6","6","4","2","2","3","2","2","3","1","6","3","3","790906536061968385","张","460","Male","[""好我"",""坏他"",""坏我"",""好他""]","[""强我"",""弱他"",""弱我"",""强他""]","","","","","","","","1","","","","","","","","","SRET","SRET_math_calculate","","key","1","16.666176470588063","768","428","","","","","9-8= ?","1","1","","","","","","","",""
"2265","","9","psychophysics","124","577388","0.0-7.0-5.0-0.21","6","5","6","5","7","4","3","4","4","5","4","1","1","0","2","-2","1","2","1","5","5","5","5","5","4","4","3","4","5","6","7","4","7","6","5","8","4","6","4","6","2","4","6","1","6","2","5","2","1","3","2","5","2","2","5","5","4","3","3","2","2","3","3","3","6","3","6","6","4","2","2","3","2","2","3","1","6","3","3","790906536061968385","张","460","Male","[""好我"",""坏他"",""坏我"",""好他""]","[""强我"",""弱他"",""弱我"",""强他""]","","","","","","","","9","","","","","","","","","SRET","SRET_math_calculate","","key","9","16.665925925925237","768","428","","","","","3+6= ?","9","1","","","","","","","",""
"2177","","1","psychophysics","125","579568","0.0-7.0-5.0-0.22","6","5","6","5","7","4","3","4","4","5","4","1","1","0","2","-2","1","2","1","5","5","5","5","5","4","4","3","4","5","6","7","4","7","6","5","8","4","6","4","6","2","4","6","1","6","2","5","2","1","3","2","5","2","2","5","5","4","3","3","2","2","3","3","3","6","3","6","6","4","2","2","3","2","2","3","1","6","3","3","790906536061968385","张","460","Male","[""好我"",""坏他"",""坏我"",""好他""]","[""强我"",""弱他"",""弱我"",""强他""]","","","","","","","","1","","","","","","","","","SRET","SRET_math_calculate","","key","1","16.665384615384614","768","428","","","","","12/12= ?","1","1","","","","","","","",""
"2370","","3","psychophysics","126","581942","0.0-7.0-5.0-0.23","6","5","6","5","7","4","3","4","4","5","4","1","1","0","2","-2","1","2","1","5","5","5","5","5","4","4","3","4","5","6","7","4","7","6","5","8","4","6","4","6","2","4","6","1","6","2","5","2","1","3","2","5","2","2","5","5","4","3","3","2","2","3","3","3","6","3","6","6","4","2","2","3","2","2","3","1","6","3","3","790906536061968385","张","460","Male","[""好我"",""坏他"",""坏我"",""好他""]","[""强我"",""弱他"",""弱我"",""强他""]","","","","","","","","3","","","","","","","","","SRET","SRET_math_calculate","","key","3","16.665957446808676","768","428","","","","","21/7=  ?","3","1","","","","","","","",""
"2095","","8","psychophysics","127","584039","0.0-7.0-5.0-0.24","6","5","6","5","7","4","3","4","4","5","4","1","1","0","2","-2","1","2","1","5","5","5","5","5","4","4","3","4","5","6","7","4","7","6","5","8","4","6","4","6","2","4","6","1","6","2","5","2","1","3","2","5","2","2","5","5","4","3","3","2","2","3","3","3","6","3","6","6","4","2","2","3","2","2","3","1","6","3","3","790906536061968385","张","460","Male","[""好我"",""坏他"",""坏我"",""好他""]","[""强我"",""弱他"",""弱我"",""强他""]","","","","","","","","8","","","","","","","","","SRET","SRET_math_calculate","","key","8","16.667200000000186","768","428","","","","","1+7= ?","8","1","","","","","","","",""
"2015","","8","psychophysics","128","586056","0.0-7.0-5.0-0.25","6","5","6","5","7","4","3","4","4","5","4","1","1","0","2","-2","1","2","1","5","5","5","5","5","4","4","3","4","5","6","7","4","7","6","5","8","4","6","4","6","2","4","6","1","6","2","5","2","1","3","2","5","2","2","5","5","4","3","3","2","2","3","3","3","6","3","6","6","4","2","2","3","2","2","3","1","6","3","3","790906536061968385","张","460","Male","[""好我"",""坏他"",""坏我"",""好他""]","[""强我"",""弱他"",""弱我"",""强他""]","","","","","","","","8","","","","","","","","","SRET","SRET_math_calculate","","key","8","16.665833333333527","768","428","","","","","8*1= ?","8","1","","","","","","","",""
"2632","","7","psychophysics","129","588691","0.0-7.0-5.0-0.26","6","5","6","5","7","4","3","4","4","5","4","1","1","0","2","-2","1","2","1","5","5","5","5","5","4","4","3","4","5","6","7","4","7","6","5","8","4","6","4","6","2","4","6","1","6","2","5","2","1","3","2","5","2","2","5","5","4","3","3","2","2","3","3","3","6","3","6","6","4","2","2","3","2","2","3","1","6","3","3","790906536061968385","张","460","Male","[""好我"",""坏他"",""坏我"",""好他""]","[""强我"",""弱他"",""弱我"",""强他""]","","","","","","","","7","","","","","","","","","SRET","SRET_math_calculate","","key","7","16.667515923566434","768","428","","","","","21/3= ? ","7","1","","","","","","","",""
"9588","","9","psychophysics","130","598283","0.0-7.0-5.0-0.27","6","5","6","5","7","4","3","4","4","5","4","1","1","0","2","-2","1","2","1","5","5","5","5","5","4","4","3","4","5","6","7","4","7","6","5","8","4","6","4","6","2","4","6","1","6","2","5","2","1","3","2","5","2","2","5","5","4","3","3","2","2","3","3","3","6","3","6","6","4","2","2","3","2","2","3","1","6","3","3","790906536061968385","张","460","Male","[""好我"",""坏他"",""坏我"",""好他""]","[""强我"",""弱他"",""弱我"",""强他""]","","","","","","","","9","","","","","","","","","SRET","SRET_math_calculate","","key","9","16.665853658536708","768","428","","","","","32-23= ?","9","1","","","","","","","",""
"2544","","3","psychophysics","131","600830","0.0-7.0-5.0-0.28","6","5","6","5","7","4","3","4","4","5","4","1","1","0","2","-2","1","2","1","5","5","5","5","5","4","4","3","4","5","6","7","4","7","6","5","8","4","6","4","6","2","4","6","1","6","2","5","2","1","3","2","5","2","2","5","5","4","3","3","2","2","3","3","3","6","3","6","6","4","2","2","3","2","2","3","1","6","3","3","790906536061968385","张","460","Male","[""好我"",""坏他"",""坏我"",""好他""]","[""强我"",""弱他"",""弱我"",""强他""]","","","","","","","","3","","","","","","","","","SRET","SRET_math_calculate","","key","3","16.669736842104804","768","428","","","","","3+0= ?","3","1","","","","","","","",""
"2638","","0","psychophysics","132","603471","0.0-7.0-5.0-0.29","6","5","6","5","7","4","3","4","4","5","4","1","1","0","2","-2","1","2","1","5","5","5","5","5","4","4","3","4","5","6","7","4","7","6","5","8","4","6","4","6","2","4","6","1","6","2","5","2","1","3","2","5","2","2","5","5","4","3","3","2","2","3","3","3","6","3","6","6","4","2","2","3","2","2","3","1","6","3","3","790906536061968385","张","460","Male","[""好我"",""坏他"",""坏我"",""好他""]","[""强我"",""弱他"",""弱我"",""强他""]","","","","","","","","0","","","","","","","","","SRET","SRET_math_calculate","","key","0","16.651898734177216","768","428","","","","","1-1= ?","0","1","","","","","","","",""
"2353","","8","psychophysics","133","605826","0.0-7.0-5.0-0.30","6","5","6","5","7","4","3","4","4","5","4","1","1","0","2","-2","1","2","1","5","5","5","5","5","4","4","3","4","5","6","7","4","7","6","5","8","4","6","4","6","2","4","6","1","6","2","5","2","1","3","2","5","2","2","5","5","4","3","3","2","2","3","3","3","6","3","6","6","4","2","2","3","2","2","3","1","6","3","3","790906536061968385","张","460","Male","[""好我"",""坏他"",""坏我"",""好他""]","[""强我"",""弱他"",""弱我"",""强他""]","","","","","","","","8","","","","","","","","","SRET","SRET_math_calculate","","key","8","16.656428571427906","768","428","","","","","4+4= ?","8","1","","","","","","","",""
"2596","","6","psychophysics","134","608424","0.0-7.0-5.0-0.31","6","5","6","5","7","4","3","4","4","5","4","1","1","0","2","-2","1","2","1","5","5","5","5","5","4","4","3","4","5","6","7","4","7","6","5","8","4","6","4","6","2","4","6","1","6","2","5","2","1","3","2","5","2","2","5","5","4","3","3","2","2","3","3","3","6","3","6","6","4","2","2","3","2","2","3","1","6","3","3","790906536061968385","张","460","Male","[""好我"",""坏他"",""坏我"",""好他""]","[""强我"",""弱他"",""弱我"",""强他""]","","","","","","","","6","","","","","","","","","SRET","SRET_math_calculate","","key","6","16.669032258064966","768","428","","","","","2+4= ?","6","1","","","","","","","",""
"1994","","7","psychophysics","135","610421","0.0-7.0-5.0-0.32","6","5","6","5","7","4","3","4","4","5","4","1","1","0","2","-2","1","2","1","5","5","5","5","5","4","4","3","4","5","6","7","4","7","6","5","8","4","6","4","6","2","4","6","1","6","2","5","2","1","3","2","5","2","2","5","5","4","3","3","2","2","3","3","3","6","3","6","6","4","2","2","3","2","2","3","1","6","3","3","790906536061968385","张","460","Male","[""好我"",""坏他"",""坏我"",""好他""]","[""强我"",""弱他"",""弱我"",""强他""]","","","","","","","","7","","","","","","","","","SRET","SRET_math_calculate","","key","7","16.66638655462224","768","428","","","","","2+5= ?","7","1","","","","","","","",""
"4001","","9","psychophysics","136","614425","0.0-7.0-5.0-0.33","6","5","6","5","7","4","3","4","4","5","4","1","1","0","2","-2","1","2","1","5","5","5","5","5","4","4","3","4","5","6","7","4","7","6","5","8","4","6","4","6","2","4","6","1","6","2","5","2","1","3","2","5","2","2","5","5","4","3","3","2","2","3","3","3","6","3","6","6","4","2","2","3","2","2","3","1","6","3","3","790906536061968385","张","460","Male","[""好我"",""坏他"",""坏我"",""好他""]","[""强我"",""弱他"",""弱我"",""强他""]","","","","","","","","9","","","","","","","","","SRET","SRET_math_calculate","","key","9","16.666527196652915","768","428","","","","","81/9= ?","9","1","","","","","","","",""
"4252","","3","psychophysics","137","618680","0.0-7.0-5.0-0.34","6","5","6","5","7","4","3","4","4","5","4","1","1","0","2","-2","1","2","1","5","5","5","5","5","4","4","3","4","5","6","7","4","7","6","5","8","4","6","4","6","2","4","6","1","6","2","5","2","1","3","2","5","2","2","5","5","4","3","3","2","2","3","3","3","6","3","6","6","4","2","2","3","2","2","3","1","6","3","3","790906536061968385","张","460","Male","[""好我"",""坏他"",""坏我"",""好他""]","[""强我"",""弱他"",""弱我"",""强他""]","","","","","","","","3","","","","","","","","","SRET","SRET_math_calculate","","key","3","16.66614173228374","768","428","","","","","6/2= ?","3","1","","","","","","","",""
"3942","","8","psychophysics","138","622627","0.0-7.0-5.0-0.35","6","5","6","5","7","4","3","4","4","5","4","1","1","0","2","-2","1","2","1","5","5","5","5","5","4","4","3","4","5","6","7","4","7","6","5","8","4","6","4","6","2","4","6","1","6","2","5","2","1","3","2","5","2","2","5","5","4","3","3","2","2","3","3","3","6","3","6","6","4","2","2","3","2","2","3","1","6","3","3","790906536061968385","张","460","Male","[""好我"",""坏他"",""坏我"",""好他""]","[""强我"",""弱他"",""弱我"",""强他""]","","","","","","","","8","","","","","","","","","SRET","SRET_math_calculate","","key","8","16.666949152542472","768","428","","","","","6+2= ?","8","1","","","","","","","",""
"2923","","5","psychophysics","139","625552","0.0-7.0-5.0-0.36","6","5","6","5","7","4","3","4","4","5","4","1","1","0","2","-2","1","2","1","5","5","5","5","5","4","4","3","4","5","6","7","4","7","6","5","8","4","6","4","6","2","4","6","1","6","2","5","2","1","3","2","5","2","2","5","5","4","3","3","2","2","3","3","3","6","3","6","6","4","2","2","3","2","2","3","1","6","3","3","790906536061968385","张","460","Male","[""好我"",""坏他"",""坏我"",""好他""]","[""强我"",""弱他"",""弱我"",""强他""]","","","","","","","","5","","","","","","","","","SRET","SRET_math_calculate","","key","5","16.665714285714287","768","428","","","","","9-4= ?","5","1","","","","","","","",""
"2453","","8","psychophysics","140","628007","0.0-7.0-5.0-0.37","6","5","6","5","7","4","3","4","4","5","4","1","1","0","2","-2","1","2","1","5","5","5","5","5","4","4","3","4","5","6","7","4","7","6","5","8","4","6","4","6","2","4","6","1","6","2","5","2","1","3","2","5","2","2","5","5","4","3","3","2","2","3","3","3","6","3","6","6","4","2","2","3","2","2","3","1","6","3","3","790906536061968385","张","460","Male","[""好我"",""坏他"",""坏我"",""好他""]","[""强我"",""弱他"",""弱我"",""强他""]","","","","","","","","8","","","","","","","","","SRET","SRET_math_calculate","","key","8","16.666438356164704","768","428","","","","","3+5= ?","8","1","","","","","","","",""
"2983","","6","psychophysics","141","630992","0.0-7.0-5.0-0.38","6","5","6","5","7","4","3","4","4","5","4","1","1","0","2","-2","1","2","1","5","5","5","5","5","4","4","3","4","5","6","7","4","7","6","5","8","4","6","4","6","2","4","6","1","6","2","5","2","1","3","2","5","2","2","5","5","4","3","3","2","2","3","3","3","6","3","6","6","4","2","2","3","2","2","3","1","6","3","3","790906536061968385","张","460","Male","[""好我"",""坏他"",""坏我"",""好他""]","[""强我"",""弱他"",""弱我"",""强他""]","","","","","","","","6","","","","","","","","","SRET","SRET_math_calculate","","key","6","16.66629213483133","768","428","","","","","4+2= ?","6","1","","","","","","","",""
"2910","","0","psychophysics","142","633905","0.0-7.0-5.0-0.39","6","5","6","5","7","4","3","4","4","5","4","1","1","0","2","-2","1","2","1","5","5","5","5","5","4","4","3","4","5","6","7","4","7","6","5","8","4","6","4","6","2","4","6","1","6","2","5","2","1","3","2","5","2","2","5","5","4","3","3","2","2","3","3","3","6","3","6","6","4","2","2","3","2","2","3","1","6","3","3","790906536061968385","张","460","Male","[""好我"",""坏他"",""坏我"",""好他""]","[""强我"",""弱他"",""弱我"",""强他""]","","","","","","","","0","","","","","","","","","SRET","SRET_math_calculate","","key","0","16.67011494252927","768","428","","","","","7*0= ?","0","1","","","","","","","",""
