"rt","stimulus","response","trial_type","trial_index","time_elapsed","internal_node_id","swb_1","swb_2","swb_3","swb_4","swb_5","LOT_1","LOT_2","LOT_3","LOT_4","LOT_5","LOT_6","IPC_1","IPC_2","IPC_3","IPC_4","IPC_5","IPC_6","IPC_7","IPC_8","MorIden_1","MorIden_2","MorIden_3","MorIden_4","MorIden_5","MorIden_6","MorIden_7","MorIden_8","MorIden_9","MorIden_10","moralSeImag_1","moralSeImag_2","moralSeImag_3","moralSeImag_4","moralSeImag_5","moralSeImag_6","moralSeImag_7","moralSeImag_8","moralSeImag_9","sde_1","sde_2","sde_3","sde_4","sde_5","sde_6","sde_7","sde_8","sde_9","sde_10","trap2","sde_11","sde_12","sde_13","sde_14","sde_15","sde_16","sde_17","sde_18","sde_19","sde_20","IM_1","IM_2","IM_3","IM_4","IM_5","IM_6","IM_7","IM_8","IM_9","IM_10","IM_11","IM_12","IM_13","IM_14","IM_15","IM_16","IM_17","IM_18","IM_19","IM_20","subj_idx","friend_name","ParticipantID","Sex","Word","Word2","value","success","timeout","failed_images","failed_audio","failed_video","user_agent","responses","item_order","radio_event_ids","radio_event_times","key_event_times","mouse_event_times","straightlining","zigzagging","honeypot","view_history","response_type","key_press","avg_frame_time","center_x","center_y","correct_response","correct","identity","Image","word","condition","task_id","screen_id","time_stamp","person","valence","domain","math","status","duration","question_order","trap2_item"
"6732","
   <p><div style='color:white; font-size: 25px'>您好，欢迎参加本次实验。</div></p>
   <p><div style='color:white; font-size: 25px'>为充分保障您的权利，请确保您已经知晓并同意《参与实验同意书》以及《数据公开知情同意书》。</div></p>
   <p><div style='color:white; font-size: 25px'>如果您未见过上述内容，请咨询实验员。</div></p>
   <p style='color:white; font-size: 25px'>如果您选择继续实验，则表示您已经清楚两份知情同意书的内容并同意。</p>
   <p><div style = ""color: pink;font-size:30px;"">请确保您记得day0的实验编号，您将在本次实验输入该编号，若您忘记，请咨询实验员后作答。</div></p>
   <p><div style = ""color:lightblue;font-size:25px;"">请您尽可能认真地作答，我们将依据您在各问卷和按键任务中的作答质量发放报酬。</div></p>
   <p> <div style = ""color: green""><按空格键至下页></div> </p>
   "," ","html-keyboard-response","0","6735","0.0-0.0","6","5","6","5","3","5","4","4","1","5","5","1","1","2","2","0","1","2","2","5","5","5","5","5","4","5","5","4","4","8","5","6","5","6","6","7","5","6","5","6","6","7","6","5","5","6","6","6","1","6","7","7","5","6","6","5","5","6","7","3","6","3","3","3","6","7","4","6","7","7","5","5","6","2","7","5","6","7","6","781446149684072450","袁","437","Male","[""好我"",""坏他"",""好他"",""坏我""]","[""强我"",""弱他"",""强他"",""弱我""]","","","","","","","","","","","","","","","","","","","","","","","","","","","","","","","","","","","","","","",""
"","","","call-function","1","6738","0.0-1.0-0.0","6","5","6","5","3","5","4","4","1","5","5","1","1","2","2","0","1","2","2","5","5","5","5","5","4","5","5","4","4","8","5","6","5","6","6","7","5","6","5","6","6","7","6","5","5","6","6","6","1","6","7","7","5","6","6","5","5","6","7","3","6","3","3","3","6","7","4","6","7","7","5","5","6","2","7","5","6","7","6","781446149684072450","袁","437","Male","[""好我"",""坏他"",""好他"",""坏我""]","[""强我"",""弱他"",""强他"",""弱我""]","","","","","","","","","","","","","","","","","","","","","","","","","","","","","","","","","","","","","","",""
"271960","","[{""name"":""Sex"",""value"":""0""},{""name"":""friend_name"",""value"":""袁""},{""name"":""ParticipantID"",""value"":""437""}]","survey-html-form","2","278705","0.0-1.0-1.0","6","5","6","5","3","5","4","4","1","5","5","1","1","2","2","0","1","2","2","5","5","5","5","5","4","5","5","4","4","8","5","6","5","6","6","7","5","6","5","6","6","7","6","5","5","6","6","6","1","6","7","7","5","6","6","5","5","6","7","3","6","3","3","3","6","7","4","6","7","7","5","5","6","2","7","5","6","7","6","781446149684072450","袁","437","Male","[""好我"",""坏他"",""好他"",""坏我""]","[""强我"",""弱他"",""强他"",""弱我""]","","","","","","","","","","","","","","","","","","","","","","","","","","","","","","","","","","","","","","",""
"","","","preload","3","278897","0.0-2.0","6","5","6","5","3","5","4","4","1","5","5","1","1","2","2","0","1","2","2","5","5","5","5","5","4","5","5","4","4","8","5","6","5","6","6","7","5","6","5","6","6","7","6","5","5","6","6","6","1","6","7","7","5","6","6","5","5","6","7","3","6","3","3","3","6","7","4","6","7","7","5","5","6","2","7","5","6","7","6","781446149684072450","袁","437","Male","[""好我"",""坏他"",""好他"",""坏我""]","[""强我"",""弱他"",""强他"",""弱我""]","","true","false","[]","[]","[]","","","","","","","","","","","","","","","","","","","","","","","","","","","","","","","","",""
"","","","fullscreen","4","289258","0.0-3.0","6","5","6","5","3","5","4","4","1","5","5","1","1","2","2","0","1","2","2","5","5","5","5","5","4","5","5","4","4","8","5","6","5","6","6","7","5","6","5","6","6","7","6","5","5","6","6","6","1","6","7","7","5","6","6","5","5","6","7","3","6","3","3","3","6","7","4","6","7","7","5","5","6","2","7","5","6","7","6","781446149684072450","袁","437","Male","[""好我"",""坏他"",""好他"",""坏我""]","[""强我"",""弱他"",""强他"",""弱我""]","","true","","","","","{}","","","","","","","","","","","","","","","","","","","","","","","","","","","","","","","",""
"10277.399999976158","","{""Q01"":""6"",""Q02"":""5"",""Q03"":""6"",""Q04"":""5"",""Q05"":""3""}","survey-template","5","299541","0.0-4.0","6","5","6","5","3","5","4","4","1","5","5","1","1","2","2","0","1","2","2","5","5","5","5","5","4","5","5","4","4","8","5","6","5","6","6","7","5","6","5","6","6","7","6","5","5","6","6","6","1","6","7","7","5","6","6","5","5","6","7","3","6","3","3","3","6","7","4","6","7","7","5","5","6","2","7","5","6","7","6","781446149684072450","袁","437","Male","[""好我"",""坏他"",""好他"",""坏我""]","[""强我"",""弱他"",""强他"",""弱我""]","","","","","","","","{""Q01"":""6"",""Q02"":""5"",""Q03"":""6"",""Q04"":""5"",""Q05"":""3""}","[0,1,2,3,4]","[""Q01"",""Q02"",""Q03"",""Q04"",""Q05""]","[2329.399999976158,3937.5,4993.699999988079,7265.600000023842,9545.300000011921]","[]","[2329.399999976158,3937.5,4993.699999988079,7265.600000023842,9545.300000011921,10273.600000023842]","0.4","0.75","0","","","","","","","","","","","","","","","","","","","","","","",""
"14059.100000023842","","{""Q01"":""5"",""Q02"":""4"",""Q03"":""4"",""Q04"":""1"",""Q05"":""5"",""Q06"":""5""}","survey-template","6","313619","0.0-5.0","6","5","6","5","3","5","4","4","1","5","5","1","1","2","2","0","1","2","2","5","5","5","5","5","4","5","5","4","4","8","5","6","5","6","6","7","5","6","5","6","6","7","6","5","5","6","6","6","1","6","7","7","5","6","6","5","5","6","7","3","6","3","3","3","6","7","4","6","7","7","5","5","6","2","7","5","6","7","6","781446149684072450","袁","437","Male","[""好我"",""坏他"",""好他"",""坏我""]","[""强我"",""弱他"",""强他"",""弱我""]","","","","","","","","{""Q01"":""5"",""Q02"":""4"",""Q03"":""4"",""Q04"":""1"",""Q05"":""5"",""Q06"":""5""}","[0,1,2,3,4,5]","[""Q01"",""Q02"",""Q03"",""Q04"",""Q05"",""Q06""]","[2248.899999976158,5984.899999976158,7504.300000011921,8528.699999988079,12104.699999988079,13648.399999976158]","[]","[2248.899999976158,4752.899999976158,5984.899999976158,7504.300000011921,8528.699999988079,9816.800000011921,11504.600000023842,11624.300000011921,12104.699999988079,12864.300000011921,13648.399999976158,14056.800000011921]","0.5","0.6","0","","","","","","","","","","","","","","","","","","","","","","",""
"49538.60000002384","","{""Q01"":""1"",""Q02"":""1"",""Q03"":""2"",""Q04"":""2"",""Q05"":""0"",""Q06"":""1"",""Q07"":""2"",""Q08"":""2""}","survey-template","7","363173","0.0-6.0","6","5","6","5","3","5","4","4","1","5","5","1","1","2","2","0","1","2","2","5","5","5","5","5","4","5","5","4","4","8","5","6","5","6","6","7","5","6","5","6","6","7","6","5","5","6","6","6","1","6","7","7","5","6","6","5","5","6","7","3","6","3","3","3","6","7","4","6","7","7","5","5","6","2","7","5","6","7","6","781446149684072450","袁","437","Male","[""好我"",""坏他"",""好他"",""坏我""]","[""强我"",""弱他"",""强他"",""弱我""]","","","","","","","","{""Q01"":""1"",""Q02"":""1"",""Q03"":""2"",""Q04"":""2"",""Q05"":""0"",""Q06"":""1"",""Q07"":""2"",""Q08"":""2""}","[0,1,2,3,4,5,6,7]","[""Q01"",""Q02"",""Q03"",""Q04"",""Q05"",""Q06"",""Q07"",""Q08""]","[36814.5,38366.5,39806.5,41607,45022.80000001192,45590.39999997616,48574.19999998808,49110.39999997616]","[]","[36814.5,38366.5,39806.5,41607,43718.5,45022.80000001192,45590.39999997616,47198.89999997616,48574.19999998808,49110.39999997616,49534.80000001192]","0.5","0.42857142857142855","0","","","","","","","","","","","","","","","","","","","","","","",""
"15664","","","instructions","8","378848","0.0-7.0","6","5","6","5","3","5","4","4","1","5","5","1","1","2","2","0","1","2","2","5","5","5","5","5","4","5","5","4","4","8","5","6","5","6","6","7","5","6","5","6","6","7","6","5","5","6","6","6","1","6","7","7","5","6","6","5","5","6","7","3","6","3","3","3","6","7","4","6","7","7","5","5","6","2","7","5","6","7","6","781446149684072450","袁","437","Male","[""好我"",""坏他"",""好他"",""坏我""]","[""强我"",""弱他"",""强他"",""弱我""]","","","","","","","","","","","","","","","","","[{""page_index"":0,""viewing_time"":15662}]","","","","","","","","","","","","","","","","","","","","","",""
"139959","","","instructions","9","518815","0.0-8.0-0.0-0.0","6","5","6","5","3","5","4","4","1","5","5","1","1","2","2","0","1","2","2","5","5","5","5","5","4","5","5","4","4","8","5","6","5","6","6","7","5","6","5","6","6","7","6","5","5","6","6","6","1","6","7","7","5","6","6","5","5","6","7","3","6","3","3","3","6","7","4","6","7","7","5","5","6","2","7","5","6","7","6","781446149684072450","袁","437","Male","[""好我"",""坏他"",""好他"",""坏我""]","[""强我"",""弱他"",""强他"",""弱我""]","","","","","","","","","","","","","","","","","[{""page_index"":0,""viewing_time"":3447},{""page_index"":1,""viewing_time"":126806},{""page_index"":2,""viewing_time"":1785},{""page_index"":3,""viewing_time"":7920}]","","","","","","","","","","","","","","","","","","","","","",""
"993","","f","psychophysics","10","520831","0.0-8.0-0.0-1.0-0.0-0.0","6","5","6","5","3","5","4","4","1","5","5","1","1","2","2","0","1","2","2","5","5","5","5","5","4","5","5","4","4","8","5","6","5","6","6","7","5","6","5","6","6","7","6","5","5","6","6","6","1","6","7","7","5","6","6","5","5","6","7","3","6","3","3","3","6","7","4","6","7","7","5","5","6","2","7","5","6","7","6","781446149684072450","袁","437","Male","[""好我"",""坏他"",""好他"",""坏我""]","[""强我"",""弱他"",""强他"",""弱我""]","","","","","","","","nonmatch","","","","","","","","","","key","f","17.10217094017117","960","536","f","true","nonmatch","img/circle.png","坏他","好我","prac_ALT2_moral","practice_moral","","","","","","","","",""
"null","<span style='color:GreenYellow; font-size: 70px;'>正确! </span>","null","html-keyboard-response","11","521334","0.0-8.0-0.0-1.0-0.0-1.0","6","5","6","5","3","5","4","4","1","5","5","1","1","2","2","0","1","2","2","5","5","5","5","5","4","5","5","4","4","8","5","6","5","6","6","7","5","6","5","6","6","7","6","5","5","6","6","6","1","6","7","7","5","6","6","5","5","6","7","3","6","3","3","3","6","7","4","6","7","7","5","5","6","2","7","5","6","7","6","781446149684072450","袁","437","Male","[""好我"",""坏他"",""好他"",""坏我""]","[""强我"",""弱他"",""强他"",""弱我""]","","","","","","","","","","","","","","","","","","","","","","","","","","","","","","feedback_test","","","","","","","","",""
"812","","j","psychophysics","12","523150","0.0-8.0-0.0-1.0-0.0-0.1","6","5","6","5","3","5","4","4","1","5","5","1","1","2","2","0","1","2","2","5","5","5","5","5","4","5","5","4","4","8","5","6","5","6","6","7","5","6","5","6","6","7","6","5","5","6","6","6","1","6","7","7","5","6","6","5","5","6","7","3","6","3","3","3","6","7","4","6","7","7","5","5","6","2","7","5","6","7","6","781446149684072450","袁","437","Male","[""好我"",""坏他"",""好他"",""坏我""]","[""强我"",""弱他"",""强他"",""弱我""]","","","","","","","","match","","","","","","","","","","key","j","16.698439252336517","960","536","j","true","match","img/circle.png","好我","好我","prac_ALT2_moral","practice_moral","","","","","","","","",""
"null","<span style='color:GreenYellow; font-size: 70px;'>正确! </span>","null","html-keyboard-response","13","523654","0.0-8.0-0.0-1.0-0.0-1.1","6","5","6","5","3","5","4","4","1","5","5","1","1","2","2","0","1","2","2","5","5","5","5","5","4","5","5","4","4","8","5","6","5","6","6","7","5","6","5","6","6","7","6","5","5","6","6","6","1","6","7","7","5","6","6","5","5","6","7","3","6","3","3","3","6","7","4","6","7","7","5","5","6","2","7","5","6","7","6","781446149684072450","袁","437","Male","[""好我"",""坏他"",""好他"",""坏我""]","[""强我"",""弱他"",""强他"",""弱我""]","","","","","","","","","","","","","","","","","","","","","","","","","","","","","","feedback_test","","","","","","","","",""
"841","","f","psychophysics","14","525504","0.0-8.0-0.0-1.0-0.0-0.2","6","5","6","5","3","5","4","4","1","5","5","1","1","2","2","0","1","2","2","5","5","5","5","5","4","5","5","4","4","8","5","6","5","6","6","7","5","6","5","6","6","7","6","5","5","6","6","6","1","6","7","7","5","6","6","5","5","6","7","3","6","3","3","3","6","7","4","6","7","7","5","5","6","2","7","5","6","7","6","781446149684072450","袁","437","Male","[""好我"",""坏他"",""好他"",""坏我""]","[""强我"",""弱他"",""强他"",""弱我""]","","","","","","","","nonmatch","","","","","","","","","","key","f","16.65873394495436","960","536","j","false","match","img/trapezoid.png","坏他","坏他","prac_ALT2_moral","practice_moral","","","","","","","","",""
"null","<span style='color:red; font-size: 70px;'>错误! </span>","null","html-keyboard-response","15","526014","0.0-8.0-0.0-1.0-0.0-1.2","6","5","6","5","3","5","4","4","1","5","5","1","1","2","2","0","1","2","2","5","5","5","5","5","4","5","5","4","4","8","5","6","5","6","6","7","5","6","5","6","6","7","6","5","5","6","6","6","1","6","7","7","5","6","6","5","5","6","7","3","6","3","3","3","6","7","4","6","7","7","5","5","6","2","7","5","6","7","6","781446149684072450","袁","437","Male","[""好我"",""坏他"",""好他"",""坏我""]","[""强我"",""弱他"",""强他"",""弱我""]","","","","","","","","","","","","","","","","","","","","","","","","","","","","","","feedback_test","","","","","","","","",""
"1076","","j","psychophysics","16","528103","0.0-8.0-0.0-1.0-0.0-0.3","6","5","6","5","3","5","4","4","1","5","5","1","1","2","2","0","1","2","2","5","5","5","5","5","4","5","5","4","4","8","5","6","5","6","6","7","5","6","5","6","6","7","6","5","5","6","6","6","1","6","7","7","5","6","6","5","5","6","7","3","6","3","3","3","6","7","4","6","7","7","5","5","6","2","7","5","6","7","6","781446149684072450","袁","437","Male","[""好我"",""坏他"",""好他"",""坏我""]","[""强我"",""弱他"",""强他"",""弱我""]","","","","","","","","match","","","","","","","","","","key","j","16.814308943089696","960","536","f","false","nonmatch","img/pentagon.png","坏他","坏我","prac_ALT2_moral","practice_moral","","","","","","","","",""
"null","<span style='color:red; font-size: 70px;'>错误! </span>","null","html-keyboard-response","17","528605","0.0-8.0-0.0-1.0-0.0-1.3","6","5","6","5","3","5","4","4","1","5","5","1","1","2","2","0","1","2","2","5","5","5","5","5","4","5","5","4","4","8","5","6","5","6","6","7","5","6","5","6","6","7","6","5","5","6","6","6","1","6","7","7","5","6","6","5","5","6","7","3","6","3","3","3","6","7","4","6","7","7","5","5","6","2","7","5","6","7","6","781446149684072450","袁","437","Male","[""好我"",""坏他"",""好他"",""坏我""]","[""强我"",""弱他"",""强他"",""弱我""]","","","","","","","","","","","","","","","","","","","","","","","","","","","","","","feedback_test","","","","","","","","",""
"952","","j","psychophysics","18","530566","0.0-8.0-0.0-1.0-0.0-0.4","6","5","6","5","3","5","4","4","1","5","5","1","1","2","2","0","1","2","2","5","5","5","5","5","4","5","5","4","4","8","5","6","5","6","6","7","5","6","5","6","6","7","6","5","5","6","6","6","1","6","7","7","5","6","6","5","5","6","7","3","6","3","3","3","6","7","4","6","7","7","5","5","6","2","7","5","6","7","6","781446149684072450","袁","437","Male","[""好我"",""坏他"",""好他"",""坏我""]","[""强我"",""弱他"",""强他"",""弱我""]","","","","","","","","match","","","","","","","","","","key","j","16.64967826087048","960","536","j","true","match","img/trapezoid.png","坏他","坏他","prac_ALT2_moral","practice_moral","","","","","","","","",""
"null","<span style='color:GreenYellow; font-size: 70px;'>正确! </span>","null","html-keyboard-response","19","531069","0.0-8.0-0.0-1.0-0.0-1.4","6","5","6","5","3","5","4","4","1","5","5","1","1","2","2","0","1","2","2","5","5","5","5","5","4","5","5","4","4","8","5","6","5","6","6","7","5","6","5","6","6","7","6","5","5","6","6","6","1","6","7","7","5","6","6","5","5","6","7","3","6","3","3","3","6","7","4","6","7","7","5","5","6","2","7","5","6","7","6","781446149684072450","袁","437","Male","[""好我"",""坏他"",""好他"",""坏我""]","[""强我"",""弱他"",""强他"",""弱我""]","","","","","","","","","","","","","","","","","","","","","","","","","","","","","","feedback_test","","","","","","","","",""
"1185","","j","psychophysics","20","533263","0.0-8.0-0.0-1.0-0.0-0.5","6","5","6","5","3","5","4","4","1","5","5","1","1","2","2","0","1","2","2","5","5","5","5","5","4","5","5","4","4","8","5","6","5","6","6","7","5","6","5","6","6","7","6","5","5","6","6","6","1","6","7","7","5","6","6","5","5","6","7","3","6","3","3","3","6","7","4","6","7","7","5","5","6","2","7","5","6","7","6","781446149684072450","袁","437","Male","[""好我"",""坏他"",""好他"",""坏我""]","[""强我"",""弱他"",""强他"",""弱我""]","","","","","","","","match","","","","","","","","","","key","j","16.69356923077005","960","536","f","false","nonmatch","img/pentagon.png","好我","坏我","prac_ALT2_moral","practice_moral","","","","","","","","",""
"null","<span style='color:red; font-size: 70px;'>错误! </span>","null","html-keyboard-response","21","533765","0.0-8.0-0.0-1.0-0.0-1.5","6","5","6","5","3","5","4","4","1","5","5","1","1","2","2","0","1","2","2","5","5","5","5","5","4","5","5","4","4","8","5","6","5","6","6","7","5","6","5","6","6","7","6","5","5","6","6","6","1","6","7","7","5","6","6","5","5","6","7","3","6","3","3","3","6","7","4","6","7","7","5","5","6","2","7","5","6","7","6","781446149684072450","袁","437","Male","[""好我"",""坏他"",""好他"",""坏我""]","[""强我"",""弱他"",""强他"",""弱我""]","","","","","","","","","","","","","","","","","","","","","","","","","","","","","","feedback_test","","","","","","","","",""
"null","","null","psychophysics","22","535973","0.0-8.0-0.0-1.0-0.0-0.6","6","5","6","5","3","5","4","4","1","5","5","1","1","2","2","0","1","2","2","5","5","5","5","5","4","5","5","4","4","8","5","6","5","6","6","7","5","6","5","6","6","7","6","5","5","6","6","6","1","6","7","7","5","6","6","5","5","6","7","3","6","3","3","3","6","7","4","6","7","7","5","5","6","2","7","5","6","7","6","781446149684072450","袁","437","Male","[""好我"",""坏他"",""好他"",""坏我""]","[""强我"",""弱他"",""强他"",""弱我""]","","","","","","","","null","","","","","","","","","","key","null","16.79602290076321","960","536","j","false","match","img/trapezoid.png","坏他","坏他","prac_ALT2_moral","practice_moral","","","","","","","","",""
"null","<span class='add_' style='color:yellow; font-size: 70px;'> 太慢! </span>","null","html-keyboard-response","23","536477","0.0-8.0-0.0-1.0-0.0-1.6","6","5","6","5","3","5","4","4","1","5","5","1","1","2","2","0","1","2","2","5","5","5","5","5","4","5","5","4","4","8","5","6","5","6","6","7","5","6","5","6","6","7","6","5","5","6","6","6","1","6","7","7","5","6","6","5","5","6","7","3","6","3","3","3","6","7","4","6","7","7","5","5","6","2","7","5","6","7","6","781446149684072450","袁","437","Male","[""好我"",""坏他"",""好他"",""坏我""]","[""强我"",""弱他"",""强他"",""弱我""]","","","","","","","","","","","","","","","","","","","","","","","","","","","","","","feedback_test","","","","","","","","",""
"862","","f","psychophysics","24","538349","0.0-8.0-0.0-1.0-0.0-0.7","6","5","6","5","3","5","4","4","1","5","5","1","1","2","2","0","1","2","2","5","5","5","5","5","4","5","5","4","4","8","5","6","5","6","6","7","5","6","5","6","6","7","6","5","5","6","6","6","1","6","7","7","5","6","6","5","5","6","7","3","6","3","3","3","6","7","4","6","7","7","5","5","6","2","7","5","6","7","6","781446149684072450","袁","437","Male","[""好我"",""坏他"",""好他"",""坏我""]","[""强我"",""弱他"",""强他"",""弱我""]","","","","","","","","nonmatch","","","","","","","","","","key","f","16.63785585585608","960","536","j","false","match","img/pentagon.png","坏我","坏我","prac_ALT2_moral","practice_moral","","","","","","","","",""
"null","<span style='color:red; font-size: 70px;'>错误! </span>","null","html-keyboard-response","25","538854","0.0-8.0-0.0-1.0-0.0-1.7","6","5","6","5","3","5","4","4","1","5","5","1","1","2","2","0","1","2","2","5","5","5","5","5","4","5","5","4","4","8","5","6","5","6","6","7","5","6","5","6","6","7","6","5","5","6","6","6","1","6","7","7","5","6","6","5","5","6","7","3","6","3","3","3","6","7","4","6","7","7","5","5","6","2","7","5","6","7","6","781446149684072450","袁","437","Male","[""好我"",""坏他"",""好他"",""坏我""]","[""强我"",""弱他"",""强他"",""弱我""]","","","","","","","","","","","","","","","","","","","","","","","","","","","","","","feedback_test","","","","","","","","",""
"968","","j","psychophysics","26","540830","0.0-8.0-0.0-1.0-0.0-0.8","6","5","6","5","3","5","4","4","1","5","5","1","1","2","2","0","1","2","2","5","5","5","5","5","4","5","5","4","4","8","5","6","5","6","6","7","5","6","5","6","6","7","6","5","5","6","6","6","1","6","7","7","5","6","6","5","5","6","7","3","6","3","3","3","6","7","4","6","7","7","5","5","6","2","7","5","6","7","6","781446149684072450","袁","437","Male","[""好我"",""坏他"",""好他"",""坏我""]","[""强我"",""弱他"",""强他"",""弱我""]","","","","","","","","match","","","","","","","","","","key","j","16.66660683760698","960","536","j","true","match","img/diamond.png","好他","好他","prac_ALT2_moral","practice_moral","","","","","","","","",""
"null","<span style='color:GreenYellow; font-size: 70px;'>正确! </span>","null","html-keyboard-response","27","541334","0.0-8.0-0.0-1.0-0.0-1.8","6","5","6","5","3","5","4","4","1","5","5","1","1","2","2","0","1","2","2","5","5","5","5","5","4","5","5","4","4","8","5","6","5","6","6","7","5","6","5","6","6","7","6","5","5","6","6","6","1","6","7","7","5","6","6","5","5","6","7","3","6","3","3","3","6","7","4","6","7","7","5","5","6","2","7","5","6","7","6","781446149684072450","袁","437","Male","[""好我"",""坏他"",""好他"",""坏我""]","[""强我"",""弱他"",""强他"",""弱我""]","","","","","","","","","","","","","","","","","","","","","","","","","","","","","","feedback_test","","","","","","","","",""
"971","","j","psychophysics","28","543310","0.0-8.0-0.0-1.0-0.0-0.9","6","5","6","5","3","5","4","4","1","5","5","1","1","2","2","0","1","2","2","5","5","5","5","5","4","5","5","4","4","8","5","6","5","6","6","7","5","6","5","6","6","7","6","5","5","6","6","6","1","6","7","7","5","6","6","5","5","6","7","3","6","3","3","3","6","7","4","6","7","7","5","5","6","2","7","5","6","7","6","781446149684072450","袁","437","Male","[""好我"",""坏他"",""好他"",""坏我""]","[""强我"",""弱他"",""强他"",""弱我""]","","","","","","","","match","","","","","","","","","","key","j","16.703658119657945","960","536","j","true","match","img/pentagon.png","坏我","坏我","prac_ALT2_moral","practice_moral","","","","","","","","",""
"null","<span style='color:GreenYellow; font-size: 70px;'>正确! </span>","null","html-keyboard-response","29","543814","0.0-8.0-0.0-1.0-0.0-1.9","6","5","6","5","3","5","4","4","1","5","5","1","1","2","2","0","1","2","2","5","5","5","5","5","4","5","5","4","4","8","5","6","5","6","6","7","5","6","5","6","6","7","6","5","5","6","6","6","1","6","7","7","5","6","6","5","5","6","7","3","6","3","3","3","6","7","4","6","7","7","5","5","6","2","7","5","6","7","6","781446149684072450","袁","437","Male","[""好我"",""坏他"",""好他"",""坏我""]","[""强我"",""弱他"",""强他"",""弱我""]","","","","","","","","","","","","","","","","","","","","","","","","","","","","","","feedback_test","","","","","","","","",""
"954","","f","psychophysics","30","545775","0.0-8.0-0.0-1.0-0.0-0.10","6","5","6","5","3","5","4","4","1","5","5","1","1","2","2","0","1","2","2","5","5","5","5","5","4","5","5","4","4","8","5","6","5","6","6","7","5","6","5","6","6","7","6","5","5","6","6","6","1","6","7","7","5","6","6","5","5","6","7","3","6","3","3","3","6","7","4","6","7","7","5","5","6","2","7","5","6","7","6","781446149684072450","袁","437","Male","[""好我"",""坏他"",""好他"",""坏我""]","[""强我"",""弱他"",""强他"",""弱我""]","","","","","","","","nonmatch","","","","","","","","","","key","f","16.689491379310592","960","536","j","false","match","img/circle.png","好我","好我","prac_ALT2_moral","practice_moral","","","","","","","","",""
"null","<span style='color:red; font-size: 70px;'>错误! </span>","null","html-keyboard-response","31","546279","0.0-8.0-0.0-1.0-0.0-1.10","6","5","6","5","3","5","4","4","1","5","5","1","1","2","2","0","1","2","2","5","5","5","5","5","4","5","5","4","4","8","5","6","5","6","6","7","5","6","5","6","6","7","6","5","5","6","6","6","1","6","7","7","5","6","6","5","5","6","7","3","6","3","3","3","6","7","4","6","7","7","5","5","6","2","7","5","6","7","6","781446149684072450","袁","437","Male","[""好我"",""坏他"",""好他"",""坏我""]","[""强我"",""弱他"",""强他"",""弱我""]","","","","","","","","","","","","","","","","","","","","","","","","","","","","","","feedback_test","","","","","","","","",""
"912","","j","psychophysics","32","548199","0.0-8.0-0.0-1.0-0.0-0.11","6","5","6","5","3","5","4","4","1","5","5","1","1","2","2","0","1","2","2","5","5","5","5","5","4","5","5","4","4","8","5","6","5","6","6","7","5","6","5","6","6","7","6","5","5","6","6","6","1","6","7","7","5","6","6","5","5","6","7","3","6","3","3","3","6","7","4","6","7","7","5","5","6","2","7","5","6","7","6","781446149684072450","袁","437","Male","[""好我"",""坏他"",""好他"",""坏我""]","[""强我"",""弱他"",""强他"",""弱我""]","","","","","","","","match","","","","","","","","","","key","j","16.639035398230178","960","536","j","true","match","img/pentagon.png","坏我","坏我","prac_ALT2_moral","practice_moral","","","","","","","","",""
"null","<span style='color:GreenYellow; font-size: 70px;'>正确! </span>","null","html-keyboard-response","33","548704","0.0-8.0-0.0-1.0-0.0-1.11","6","5","6","5","3","5","4","4","1","5","5","1","1","2","2","0","1","2","2","5","5","5","5","5","4","5","5","4","4","8","5","6","5","6","6","7","5","6","5","6","6","7","6","5","5","6","6","6","1","6","7","7","5","6","6","5","5","6","7","3","6","3","3","3","6","7","4","6","7","7","5","5","6","2","7","5","6","7","6","781446149684072450","袁","437","Male","[""好我"",""坏他"",""好他"",""坏我""]","[""强我"",""弱他"",""强他"",""弱我""]","","","","","","","","","","","","","","","","","","","","","","","","","","","","","","feedback_test","","","","","","","","",""
"1010","","f","psychophysics","34","550722","0.0-8.0-0.0-1.0-0.0-0.12","6","5","6","5","3","5","4","4","1","5","5","1","1","2","2","0","1","2","2","5","5","5","5","5","4","5","5","4","4","8","5","6","5","6","6","7","5","6","5","6","6","7","6","5","5","6","6","6","1","6","7","7","5","6","6","5","5","6","7","3","6","3","3","3","6","7","4","6","7","7","5","5","6","2","7","5","6","7","6","781446149684072450","袁","437","Male","[""好我"",""坏他"",""好他"",""坏我""]","[""强我"",""弱他"",""强他"",""弱我""]","","","","","","","","nonmatch","","","","","","","","","","key","f","16.652649999999753","960","536","j","false","match","img/circle.png","好我","好我","prac_ALT2_moral","practice_moral","","","","","","","","",""
"null","<span style='color:red; font-size: 70px;'>错误! </span>","null","html-keyboard-response","35","551224","0.0-8.0-0.0-1.0-0.0-1.12","6","5","6","5","3","5","4","4","1","5","5","1","1","2","2","0","1","2","2","5","5","5","5","5","4","5","5","4","4","8","5","6","5","6","6","7","5","6","5","6","6","7","6","5","5","6","6","6","1","6","7","7","5","6","6","5","5","6","7","3","6","3","3","3","6","7","4","6","7","7","5","5","6","2","7","5","6","7","6","781446149684072450","袁","437","Male","[""好我"",""坏他"",""好他"",""坏我""]","[""强我"",""弱他"",""强他"",""弱我""]","","","","","","","","","","","","","","","","","","","","","","","","","","","","","","feedback_test","","","","","","","","",""
"906","","j","psychophysics","36","553137","0.0-8.0-0.0-1.0-0.0-0.13","6","5","6","5","3","5","4","4","1","5","5","1","1","2","2","0","1","2","2","5","5","5","5","5","4","5","5","4","4","8","5","6","5","6","6","7","5","6","5","6","6","7","6","5","5","6","6","6","1","6","7","7","5","6","6","5","5","6","7","3","6","3","3","3","6","7","4","6","7","7","5","5","6","2","7","5","6","7","6","781446149684072450","袁","437","Male","[""好我"",""坏他"",""好他"",""坏我""]","[""强我"",""弱他"",""强他"",""弱我""]","","","","","","","","match","","","","","","","","","","key","j","16.650982456140856","960","536","f","false","nonmatch","img/diamond.png","坏我","好他","prac_ALT2_moral","practice_moral","","","","","","","","",""
"null","<span style='color:red; font-size: 70px;'>错误! </span>","null","html-keyboard-response","37","553679","0.0-8.0-0.0-1.0-0.0-1.13","6","5","6","5","3","5","4","4","1","5","5","1","1","2","2","0","1","2","2","5","5","5","5","5","4","5","5","4","4","8","5","6","5","6","6","7","5","6","5","6","6","7","6","5","5","6","6","6","1","6","7","7","5","6","6","5","5","6","7","3","6","3","3","3","6","7","4","6","7","7","5","5","6","2","7","5","6","7","6","781446149684072450","袁","437","Male","[""好我"",""坏他"",""好他"",""坏我""]","[""强我"",""弱他"",""强他"",""弱我""]","","","","","","","","","","","","","","","","","","","","","","","","","","","","","","feedback_test","","","","","","","","",""
"1138","","j","psychophysics","38","555824","0.0-8.0-0.0-1.0-0.0-0.14","6","5","6","5","3","5","4","4","1","5","5","1","1","2","2","0","1","2","2","5","5","5","5","5","4","5","5","4","4","8","5","6","5","6","6","7","5","6","5","6","6","7","6","5","5","6","6","6","1","6","7","7","5","6","6","5","5","6","7","3","6","3","3","3","6","7","4","6","7","7","5","5","6","2","7","5","6","7","6","781446149684072450","袁","437","Male","[""好我"",""坏他"",""好他"",""坏我""]","[""强我"",""弱他"",""强他"",""弱我""]","","","","","","","","match","","","","","","","","","","key","j","16.66937007874023","960","536","f","false","nonmatch","img/circle.png","好他","好我","prac_ALT2_moral","practice_moral","","","","","","","","",""
"null","<span style='color:red; font-size: 70px;'>错误! </span>","null","html-keyboard-response","39","556327","0.0-8.0-0.0-1.0-0.0-1.14","6","5","6","5","3","5","4","4","1","5","5","1","1","2","2","0","1","2","2","5","5","5","5","5","4","5","5","4","4","8","5","6","5","6","6","7","5","6","5","6","6","7","6","5","5","6","6","6","1","6","7","7","5","6","6","5","5","6","7","3","6","3","3","3","6","7","4","6","7","7","5","5","6","2","7","5","6","7","6","781446149684072450","袁","437","Male","[""好我"",""坏他"",""好他"",""坏我""]","[""强我"",""弱他"",""强他"",""弱我""]","","","","","","","","","","","","","","","","","","","","","","","","","","","","","","feedback_test","","","","","","","","",""
"1104","","j","psychophysics","40","558438","0.0-8.0-0.0-1.0-0.0-0.15","6","5","6","5","3","5","4","4","1","5","5","1","1","2","2","0","1","2","2","5","5","5","5","5","4","5","5","4","4","8","5","6","5","6","6","7","5","6","5","6","6","7","6","5","5","6","6","6","1","6","7","7","5","6","6","5","5","6","7","3","6","3","3","3","6","7","4","6","7","7","5","5","6","2","7","5","6","7","6","781446149684072450","袁","437","Male","[""好我"",""坏他"",""好他"",""坏我""]","[""强我"",""弱他"",""强他"",""弱我""]","","","","","","","","match","","","","","","","","","","key","j","16.665825396825166","960","536","f","false","nonmatch","img/trapezoid.png","坏我","坏他","prac_ALT2_moral","practice_moral","","","","","","","","",""
"null","<span style='color:red; font-size: 70px;'>错误! </span>","null","html-keyboard-response","41","558943","0.0-8.0-0.0-1.0-0.0-1.15","6","5","6","5","3","5","4","4","1","5","5","1","1","2","2","0","1","2","2","5","5","5","5","5","4","5","5","4","4","8","5","6","5","6","6","7","5","6","5","6","6","7","6","5","5","6","6","6","1","6","7","7","5","6","6","5","5","6","7","3","6","3","3","3","6","7","4","6","7","7","5","5","6","2","7","5","6","7","6","781446149684072450","袁","437","Male","[""好我"",""坏他"",""好他"",""坏我""]","[""强我"",""弱他"",""强他"",""弱我""]","","","","","","","","","","","","","","","","","","","","","","","","","","","","","","feedback_test","","","","","","","","",""
"910","","f","psychophysics","42","560863","0.0-8.0-0.0-1.0-0.0-0.16","6","5","6","5","3","5","4","4","1","5","5","1","1","2","2","0","1","2","2","5","5","5","5","5","4","5","5","4","4","8","5","6","5","6","6","7","5","6","5","6","6","7","6","5","5","6","6","6","1","6","7","7","5","6","6","5","5","6","7","3","6","3","3","3","6","7","4","6","7","7","5","5","6","2","7","5","6","7","6","781446149684072450","袁","437","Male","[""好我"",""坏他"",""好他"",""坏我""]","[""强我"",""弱他"",""强他"",""弱我""]","","","","","","","","nonmatch","","","","","","","","","","key","f","16.638714285713963","960","536","j","false","match","img/diamond.png","好他","好他","prac_ALT2_moral","practice_moral","","","","","","","","",""
"null","<span style='color:red; font-size: 70px;'>错误! </span>","null","html-keyboard-response","43","561368","0.0-8.0-0.0-1.0-0.0-1.16","6","5","6","5","3","5","4","4","1","5","5","1","1","2","2","0","1","2","2","5","5","5","5","5","4","5","5","4","4","8","5","6","5","6","6","7","5","6","5","6","6","7","6","5","5","6","6","6","1","6","7","7","5","6","6","5","5","6","7","3","6","3","3","3","6","7","4","6","7","7","5","5","6","2","7","5","6","7","6","781446149684072450","袁","437","Male","[""好我"",""坏他"",""好他"",""坏我""]","[""强我"",""弱他"",""强他"",""弱我""]","","","","","","","","","","","","","","","","","","","","","","","","","","","","","","feedback_test","","","","","","","","",""
"901","","j","psychophysics","44","563272","0.0-8.0-0.0-1.0-0.0-0.17","6","5","6","5","3","5","4","4","1","5","5","1","1","2","2","0","1","2","2","5","5","5","5","5","4","5","5","4","4","8","5","6","5","6","6","7","5","6","5","6","6","7","6","5","5","6","6","6","1","6","7","7","5","6","6","5","5","6","7","3","6","3","3","3","6","7","4","6","7","7","5","5","6","2","7","5","6","7","6","781446149684072450","袁","437","Male","[""好我"",""坏他"",""好他"",""坏我""]","[""强我"",""弱他"",""强他"",""弱我""]","","","","","","","","match","","","","","","","","","","key","j","16.651035398229403","960","536","f","false","nonmatch","img/trapezoid.png","好他","坏他","prac_ALT2_moral","practice_moral","","","","","","","","",""
"null","<span style='color:red; font-size: 70px;'>错误! </span>","null","html-keyboard-response","45","563775","0.0-8.0-0.0-1.0-0.0-1.17","6","5","6","5","3","5","4","4","1","5","5","1","1","2","2","0","1","2","2","5","5","5","5","5","4","5","5","4","4","8","5","6","5","6","6","7","5","6","5","6","6","7","6","5","5","6","6","6","1","6","7","7","5","6","6","5","5","6","7","3","6","3","3","3","6","7","4","6","7","7","5","5","6","2","7","5","6","7","6","781446149684072450","袁","437","Male","[""好我"",""坏他"",""好他"",""坏我""]","[""强我"",""弱他"",""强他"",""弱我""]","","","","","","","","","","","","","","","","","","","","","","","","","","","","","","feedback_test","","","","","","","","",""
"992","","f","psychophysics","46","565775","0.0-8.0-0.0-1.0-0.0-0.18","6","5","6","5","3","5","4","4","1","5","5","1","1","2","2","0","1","2","2","5","5","5","5","5","4","5","5","4","4","8","5","6","5","6","6","7","5","6","5","6","6","7","6","5","5","6","6","6","1","6","7","7","5","6","6","5","5","6","7","3","6","3","3","3","6","7","4","6","7","7","5","5","6","2","7","5","6","7","6","781446149684072450","袁","437","Male","[""好我"",""坏他"",""好他"",""坏我""]","[""强我"",""弱他"",""强他"",""弱我""]","","","","","","","","nonmatch","","","","","","","","","","key","f","16.6954017094024","960","536","f","true","nonmatch","img/diamond.png","坏他","好他","prac_ALT2_moral","practice_moral","","","","","","","","",""
"null","<span style='color:GreenYellow; font-size: 70px;'>正确! </span>","null","html-keyboard-response","47","566279","0.0-8.0-0.0-1.0-0.0-1.18","6","5","6","5","3","5","4","4","1","5","5","1","1","2","2","0","1","2","2","5","5","5","5","5","4","5","5","4","4","8","5","6","5","6","6","7","5","6","5","6","6","7","6","5","5","6","6","6","1","6","7","7","5","6","6","5","5","6","7","3","6","3","3","3","6","7","4","6","7","7","5","5","6","2","7","5","6","7","6","781446149684072450","袁","437","Male","[""好我"",""坏他"",""好他"",""坏我""]","[""强我"",""弱他"",""强他"",""弱我""]","","","","","","","","","","","","","","","","","","","","","","","","","","","","","","feedback_test","","","","","","","","",""
"962","","j","psychophysics","48","568248","0.0-8.0-0.0-1.0-0.0-0.19","6","5","6","5","3","5","4","4","1","5","5","1","1","2","2","0","1","2","2","5","5","5","5","5","4","5","5","4","4","8","5","6","5","6","6","7","5","6","5","6","6","7","6","5","5","6","6","6","1","6","7","7","5","6","6","5","5","6","7","3","6","3","3","3","6","7","4","6","7","7","5","5","6","2","7","5","6","7","6","781446149684072450","袁","437","Male","[""好我"",""坏他"",""好他"",""坏我""]","[""强我"",""弱他"",""强他"",""弱我""]","","","","","","","","match","","","","","","","","","","key","j","16.640760683761034","960","536","j","true","match","img/diamond.png","好他","好他","prac_ALT2_moral","practice_moral","","","","","","","","",""
"null","<span style='color:GreenYellow; font-size: 70px;'>正确! </span>","null","html-keyboard-response","49","568751","0.0-8.0-0.0-1.0-0.0-1.19","6","5","6","5","3","5","4","4","1","5","5","1","1","2","2","0","1","2","2","5","5","5","5","5","4","5","5","4","4","8","5","6","5","6","6","7","5","6","5","6","6","7","6","5","5","6","6","6","1","6","7","7","5","6","6","5","5","6","7","3","6","3","3","3","6","7","4","6","7","7","5","5","6","2","7","5","6","7","6","781446149684072450","袁","437","Male","[""好我"",""坏他"",""好他"",""坏我""]","[""强我"",""弱他"",""强他"",""弱我""]","","","","","","","","","","","","","","","","","","","","","","","","","","","","","","feedback_test","","","","","","","","",""
"1184","","f","psychophysics","50","570943","0.0-8.0-0.0-1.0-0.0-0.20","6","5","6","5","3","5","4","4","1","5","5","1","1","2","2","0","1","2","2","5","5","5","5","5","4","5","5","4","4","8","5","6","5","6","6","7","5","6","5","6","6","7","6","5","5","6","6","6","1","6","7","7","5","6","6","5","5","6","7","3","6","3","3","3","6","7","4","6","7","7","5","5","6","2","7","5","6","7","6","781446149684072450","袁","437","Male","[""好我"",""坏他"",""好他"",""坏我""]","[""强我"",""弱他"",""强他"",""弱我""]","","","","","","","","nonmatch","","","","","","","","","","key","f","16.820271317829025","960","536","f","true","nonmatch","img/pentagon.png","好他","坏我","prac_ALT2_moral","practice_moral","","","","","","","","",""
"null","<span style='color:GreenYellow; font-size: 70px;'>正确! </span>","null","html-keyboard-response","51","571447","0.0-8.0-0.0-1.0-0.0-1.20","6","5","6","5","3","5","4","4","1","5","5","1","1","2","2","0","1","2","2","5","5","5","5","5","4","5","5","4","4","8","5","6","5","6","6","7","5","6","5","6","6","7","6","5","5","6","6","6","1","6","7","7","5","6","6","5","5","6","7","3","6","3","3","3","6","7","4","6","7","7","5","5","6","2","7","5","6","7","6","781446149684072450","袁","437","Male","[""好我"",""坏他"",""好他"",""坏我""]","[""强我"",""弱他"",""强他"",""弱我""]","","","","","","","","","","","","","","","","","","","","","","","","","","","","","","feedback_test","","","","","","","","",""
"1105","","j","psychophysics","52","573558","0.0-8.0-0.0-1.0-0.0-0.21","6","5","6","5","3","5","4","4","1","5","5","1","1","2","2","0","1","2","2","5","5","5","5","5","4","5","5","4","4","8","5","6","5","6","6","7","5","6","5","6","6","7","6","5","5","6","6","6","1","6","7","7","5","6","6","5","5","6","7","3","6","3","3","3","6","7","4","6","7","7","5","5","6","2","7","5","6","7","6","781446149684072450","袁","437","Male","[""好我"",""坏他"",""好他"",""坏我""]","[""强我"",""弱他"",""强他"",""弱我""]","","","","","","","","match","","","","","","","","","","key","j","16.640790322580518","960","536","f","false","nonmatch","img/diamond.png","好我","好他","prac_ALT2_moral","practice_moral","","","","","","","","",""
"null","<span style='color:red; font-size: 70px;'>错误! </span>","null","html-keyboard-response","53","574078","0.0-8.0-0.0-1.0-0.0-1.21","6","5","6","5","3","5","4","4","1","5","5","1","1","2","2","0","1","2","2","5","5","5","5","5","4","5","5","4","4","8","5","6","5","6","6","7","5","6","5","6","6","7","6","5","5","6","6","6","1","6","7","7","5","6","6","5","5","6","7","3","6","3","3","3","6","7","4","6","7","7","5","5","6","2","7","5","6","7","6","781446149684072450","袁","437","Male","[""好我"",""坏他"",""好他"",""坏我""]","[""强我"",""弱他"",""强他"",""弱我""]","","","","","","","","","","","","","","","","","","","","","","","","","","","","","","feedback_test","","","","","","","","",""
"1084","","f","psychophysics","54","576168","0.0-8.0-0.0-1.0-0.0-0.22","6","5","6","5","3","5","4","4","1","5","5","1","1","2","2","0","1","2","2","5","5","5","5","5","4","5","5","4","4","8","5","6","5","6","6","7","5","6","5","6","6","7","6","5","5","6","6","6","1","6","7","7","5","6","6","5","5","6","7","3","6","3","3","3","6","7","4","6","7","7","5","5","6","2","7","5","6","7","6","781446149684072450","袁","437","Male","[""好我"",""坏他"",""好他"",""坏我""]","[""强我"",""弱他"",""强他"",""弱我""]","","","","","","","","nonmatch","","","","","","","","","","key","f","16.61295121951252","960","536","f","true","nonmatch","img/trapezoid.png","好我","坏他","prac_ALT2_moral","practice_moral","","","","","","","","",""
"null","<span style='color:GreenYellow; font-size: 70px;'>正确! </span>","null","html-keyboard-response","55","576672","0.0-8.0-0.0-1.0-0.0-1.22","6","5","6","5","3","5","4","4","1","5","5","1","1","2","2","0","1","2","2","5","5","5","5","5","4","5","5","4","4","8","5","6","5","6","6","7","5","6","5","6","6","7","6","5","5","6","6","6","1","6","7","7","5","6","6","5","5","6","7","3","6","3","3","3","6","7","4","6","7","7","5","5","6","2","7","5","6","7","6","781446149684072450","袁","437","Male","[""好我"",""坏他"",""好他"",""坏我""]","[""强我"",""弱他"",""强他"",""弱我""]","","","","","","","","","","","","","","","","","","","","","","","","","","","","","","feedback_test","","","","","","","","",""
"887","","f","psychophysics","56","578566","0.0-8.0-0.0-1.0-0.0-0.23","6","5","6","5","3","5","4","4","1","5","5","1","1","2","2","0","1","2","2","5","5","5","5","5","4","5","5","4","4","8","5","6","5","6","6","7","5","6","5","6","6","7","6","5","5","6","6","6","1","6","7","7","5","6","6","5","5","6","7","3","6","3","3","3","6","7","4","6","7","7","5","5","6","2","7","5","6","7","6","781446149684072450","袁","437","Male","[""好我"",""坏他"",""好他"",""坏我""]","[""强我"",""弱他"",""强他"",""弱我""]","","","","","","","","nonmatch","","","","","","","","","","key","f","16.666018018017624","960","536","f","true","nonmatch","img/circle.png","坏我","好我","prac_ALT2_moral","practice_moral","","","","","","","","",""
"null","<span style='color:GreenYellow; font-size: 70px;'>正确! </span>","null","html-keyboard-response","57","579072","0.0-8.0-0.0-1.0-0.0-1.23","6","5","6","5","3","5","4","4","1","5","5","1","1","2","2","0","1","2","2","5","5","5","5","5","4","5","5","4","4","8","5","6","5","6","6","7","5","6","5","6","6","7","6","5","5","6","6","6","1","6","7","7","5","6","6","5","5","6","7","3","6","3","3","3","6","7","4","6","7","7","5","5","6","2","7","5","6","7","6","781446149684072450","袁","437","Male","[""好我"",""坏他"",""好他"",""坏我""]","[""强我"",""弱他"",""强他"",""弱我""]","","","","","","","","","","","","","","","","","","","","","","","","","","","","","","feedback_test","","","","","","","","",""
"null","","null","psychophysics","58","581287","0.0-8.0-0.0-1.0-0.0-0.24","6","5","6","5","3","5","4","4","1","5","5","1","1","2","2","0","1","2","2","5","5","5","5","5","4","5","5","4","4","8","5","6","5","6","6","7","5","6","5","6","6","7","6","5","5","6","6","6","1","6","7","7","5","6","6","5","5","6","7","3","6","3","3","3","6","7","4","6","7","7","5","5","6","2","7","5","6","7","6","781446149684072450","袁","437","Male","[""好我"",""坏他"",""好他"",""坏我""]","[""强我"",""弱他"",""强他"",""弱我""]","","","","","","","","null","","","","","","","","","","key","null","16.630287878787687","960","536","j","false","match","img/diamond.png","好他","好他","prac_ALT2_moral","practice_moral","","","","","","","","",""
"null","<span class='add_' style='color:yellow; font-size: 70px;'> 太慢! </span>","null","html-keyboard-response","59","581792","0.0-8.0-0.0-1.0-0.0-1.24","6","5","6","5","3","5","4","4","1","5","5","1","1","2","2","0","1","2","2","5","5","5","5","5","4","5","5","4","4","8","5","6","5","6","6","7","5","6","5","6","6","7","6","5","5","6","6","6","1","6","7","7","5","6","6","5","5","6","7","3","6","3","3","3","6","7","4","6","7","7","5","5","6","2","7","5","6","7","6","781446149684072450","袁","437","Male","[""好我"",""坏他"",""好他"",""坏我""]","[""强我"",""弱他"",""强他"",""弱我""]","","","","","","","","","","","","","","","","","","","","","","","","","","","","","","feedback_test","","","","","","","","",""
"769","","f","psychophysics","60","583569","0.0-8.0-0.0-1.0-0.0-0.25","6","5","6","5","3","5","4","4","1","5","5","1","1","2","2","0","1","2","2","5","5","5","5","5","4","5","5","4","4","8","5","6","5","6","6","7","5","6","5","6","6","7","6","5","5","6","6","6","1","6","7","7","5","6","6","5","5","6","7","3","6","3","3","3","6","7","4","6","7","7","5","5","6","2","7","5","6","7","6","781446149684072450","袁","437","Male","[""好我"",""坏他"",""好他"",""坏我""]","[""强我"",""弱他"",""强他"",""弱我""]","","","","","","","","nonmatch","","","","","","","","","","key","f","16.641028571428198","960","536","j","false","match","img/trapezoid.png","坏他","坏他","prac_ALT2_moral","practice_moral","","","","","","","","",""
"null","<span style='color:red; font-size: 70px;'>错误! </span>","null","html-keyboard-response","61","584086","0.0-8.0-0.0-1.0-0.0-1.25","6","5","6","5","3","5","4","4","1","5","5","1","1","2","2","0","1","2","2","5","5","5","5","5","4","5","5","4","4","8","5","6","5","6","6","7","5","6","5","6","6","7","6","5","5","6","6","6","1","6","7","7","5","6","6","5","5","6","7","3","6","3","3","3","6","7","4","6","7","7","5","5","6","2","7","5","6","7","6","781446149684072450","袁","437","Male","[""好我"",""坏他"",""好他"",""坏我""]","[""强我"",""弱他"",""强他"",""弱我""]","","","","","","","","","","","","","","","","","","","","","","","","","","","","","","feedback_test","","","","","","","","",""
"790","","f","psychophysics","62","585886","0.0-8.0-0.0-1.0-0.0-0.26","6","5","6","5","3","5","4","4","1","5","5","1","1","2","2","0","1","2","2","5","5","5","5","5","4","5","5","4","4","8","5","6","5","6","6","7","5","6","5","6","6","7","6","5","5","6","6","6","1","6","7","7","5","6","6","5","5","6","7","3","6","3","3","3","6","7","4","6","7","7","5","5","6","2","7","5","6","7","6","781446149684072450","袁","437","Male","[""好我"",""坏他"",""好他"",""坏我""]","[""强我"",""弱他"",""强他"",""弱我""]","","","","","","","","nonmatch","","","","","","","","","","key","f","16.70089622641549","960","536","f","true","nonmatch","img/trapezoid.png","坏我","坏他","prac_ALT2_moral","practice_moral","","","","","","","","",""
"null","<span style='color:GreenYellow; font-size: 70px;'>正确! </span>","null","html-keyboard-response","63","586392","0.0-8.0-0.0-1.0-0.0-1.26","6","5","6","5","3","5","4","4","1","5","5","1","1","2","2","0","1","2","2","5","5","5","5","5","4","5","5","4","4","8","5","6","5","6","6","7","5","6","5","6","6","7","6","5","5","6","6","6","1","6","7","7","5","6","6","5","5","6","7","3","6","3","3","3","6","7","4","6","7","7","5","5","6","2","7","5","6","7","6","781446149684072450","袁","437","Male","[""好我"",""坏他"",""好他"",""坏我""]","[""强我"",""弱他"",""强他"",""弱我""]","","","","","","","","","","","","","","","","","","","","","","","","","","","","","","feedback_test","","","","","","","","",""
"692","","j","psychophysics","64","588094","0.0-8.0-0.0-1.0-0.0-0.27","6","5","6","5","3","5","4","4","1","5","5","1","1","2","2","0","1","2","2","5","5","5","5","5","4","5","5","4","4","8","5","6","5","6","6","7","5","6","5","6","6","7","6","5","5","6","6","6","1","6","7","7","5","6","6","5","5","6","7","3","6","3","3","3","6","7","4","6","7","7","5","5","6","2","7","5","6","7","6","781446149684072450","袁","437","Male","[""好我"",""坏他"",""好他"",""坏我""]","[""强我"",""弱他"",""强他"",""弱我""]","","","","","","","","match","","","","","","","","","","key","j","16.6685699999996","960","536","j","true","match","img/pentagon.png","坏我","坏我","prac_ALT2_moral","practice_moral","","","","","","","","",""
"null","<span style='color:GreenYellow; font-size: 70px;'>正确! </span>","null","html-keyboard-response","65","588599","0.0-8.0-0.0-1.0-0.0-1.27","6","5","6","5","3","5","4","4","1","5","5","1","1","2","2","0","1","2","2","5","5","5","5","5","4","5","5","4","4","8","5","6","5","6","6","7","5","6","5","6","6","7","6","5","5","6","6","6","1","6","7","7","5","6","6","5","5","6","7","3","6","3","3","3","6","7","4","6","7","7","5","5","6","2","7","5","6","7","6","781446149684072450","袁","437","Male","[""好我"",""坏他"",""好他"",""坏我""]","[""强我"",""弱他"",""强他"",""弱我""]","","","","","","","","","","","","","","","","","","","","","","","","","","","","","","feedback_test","","","","","","","","",""
"925","","j","psychophysics","66","590527","0.0-8.0-0.0-1.0-0.0-0.28","6","5","6","5","3","5","4","4","1","5","5","1","1","2","2","0","1","2","2","5","5","5","5","5","4","5","5","4","4","8","5","6","5","6","6","7","5","6","5","6","6","7","6","5","5","6","6","6","1","6","7","7","5","6","6","5","5","6","7","3","6","3","3","3","6","7","4","6","7","7","5","5","6","2","7","5","6","7","6","781446149684072450","袁","437","Male","[""好我"",""坏他"",""好他"",""坏我""]","[""强我"",""弱他"",""强他"",""弱我""]","","","","","","","","match","","","","","","","","","","key","j","16.615408695653162","960","536","j","true","match","img/diamond.png","好他","好他","prac_ALT2_moral","practice_moral","","","","","","","","",""
"null","<span style='color:GreenYellow; font-size: 70px;'>正确! </span>","null","html-keyboard-response","67","591032","0.0-8.0-0.0-1.0-0.0-1.28","6","5","6","5","3","5","4","4","1","5","5","1","1","2","2","0","1","2","2","5","5","5","5","5","4","5","5","4","4","8","5","6","5","6","6","7","5","6","5","6","6","7","6","5","5","6","6","6","1","6","7","7","5","6","6","5","5","6","7","3","6","3","3","3","6","7","4","6","7","7","5","5","6","2","7","5","6","7","6","781446149684072450","袁","437","Male","[""好我"",""坏他"",""好他"",""坏我""]","[""强我"",""弱他"",""强他"",""弱我""]","","","","","","","","","","","","","","","","","","","","","","","","","","","","","","feedback_test","","","","","","","","",""
"874","","f","psychophysics","68","592910","0.0-8.0-0.0-1.0-0.0-0.29","6","5","6","5","3","5","4","4","1","5","5","1","1","2","2","0","1","2","2","5","5","5","5","5","4","5","5","4","4","8","5","6","5","6","6","7","5","6","5","6","6","7","6","5","5","6","6","6","1","6","7","7","5","6","6","5","5","6","7","3","6","3","3","3","6","7","4","6","7","7","5","5","6","2","7","5","6","7","6","781446149684072450","袁","437","Male","[""好我"",""坏他"",""好他"",""坏我""]","[""强我"",""弱他"",""强他"",""弱我""]","","","","","","","","nonmatch","","","","","","","","","","key","f","16.702009090909268","960","536","j","false","match","img/circle.png","好我","好我","prac_ALT2_moral","practice_moral","","","","","","","","",""
"null","<span style='color:red; font-size: 70px;'>错误! </span>","null","html-keyboard-response","69","593415","0.0-8.0-0.0-1.0-0.0-1.29","6","5","6","5","3","5","4","4","1","5","5","1","1","2","2","0","1","2","2","5","5","5","5","5","4","5","5","4","4","8","5","6","5","6","6","7","5","6","5","6","6","7","6","5","5","6","6","6","1","6","7","7","5","6","6","5","5","6","7","3","6","3","3","3","6","7","4","6","7","7","5","5","6","2","7","5","6","7","6","781446149684072450","袁","437","Male","[""好我"",""坏他"",""好他"",""坏我""]","[""强我"",""弱他"",""强他"",""弱我""]","","","","","","","","","","","","","","","","","","","","","","","","","","","","","","feedback_test","","","","","","","","",""
"976","","j","psychophysics","70","595400","0.0-8.0-0.0-1.0-0.0-0.30","6","5","6","5","3","5","4","4","1","5","5","1","1","2","2","0","1","2","2","5","5","5","5","5","4","5","5","4","4","8","5","6","5","6","6","7","5","6","5","6","6","7","6","5","5","6","6","6","1","6","7","7","5","6","6","5","5","6","7","3","6","3","3","3","6","7","4","6","7","7","5","5","6","2","7","5","6","7","6","781446149684072450","袁","437","Male","[""好我"",""坏他"",""好他"",""坏我""]","[""强我"",""弱他"",""强他"",""弱我""]","","","","","","","","match","","","","","","","","","","key","j","16.68657264957288","960","536","j","true","match","img/trapezoid.png","坏他","坏他","prac_ALT2_moral","practice_moral","","","","","","","","",""
"null","<span style='color:GreenYellow; font-size: 70px;'>正确! </span>","null","html-keyboard-response","71","595903","0.0-8.0-0.0-1.0-0.0-1.30","6","5","6","5","3","5","4","4","1","5","5","1","1","2","2","0","1","2","2","5","5","5","5","5","4","5","5","4","4","8","5","6","5","6","6","7","5","6","5","6","6","7","6","5","5","6","6","6","1","6","7","7","5","6","6","5","5","6","7","3","6","3","3","3","6","7","4","6","7","7","5","5","6","2","7","5","6","7","6","781446149684072450","袁","437","Male","[""好我"",""坏他"",""好他"",""坏我""]","[""强我"",""弱他"",""强他"",""弱我""]","","","","","","","","","","","","","","","","","","","","","","","","","","","","","","feedback_test","","","","","","","","",""
"895","","f","psychophysics","72","597806","0.0-8.0-0.0-1.0-0.0-0.31","6","5","6","5","3","5","4","4","1","5","5","1","1","2","2","0","1","2","2","5","5","5","5","5","4","5","5","4","4","8","5","6","5","6","6","7","5","6","5","6","6","7","6","5","5","6","6","6","1","6","7","7","5","6","6","5","5","6","7","3","6","3","3","3","6","7","4","6","7","7","5","5","6","2","7","5","6","7","6","781446149684072450","袁","437","Male","[""好我"",""坏他"",""好他"",""坏我""]","[""强我"",""弱他"",""强他"",""弱我""]","","","","","","","","nonmatch","","","","","","","","","","key","f","16.6730450450449","960","536","f","true","nonmatch","img/pentagon.png","坏他","坏我","prac_ALT2_moral","practice_moral","","","","","","","","",""
"null","<span style='color:GreenYellow; font-size: 70px;'>正确! </span>","null","html-keyboard-response","73","598311","0.0-8.0-0.0-1.0-0.0-1.31","6","5","6","5","3","5","4","4","1","5","5","1","1","2","2","0","1","2","2","5","5","5","5","5","4","5","5","4","4","8","5","6","5","6","6","7","5","6","5","6","6","7","6","5","5","6","6","6","1","6","7","7","5","6","6","5","5","6","7","3","6","3","3","3","6","7","4","6","7","7","5","5","6","2","7","5","6","7","6","781446149684072450","袁","437","Male","[""好我"",""坏他"",""好他"",""坏我""]","[""强我"",""弱他"",""强他"",""弱我""]","","","","","","","","","","","","","","","","","","","","","","","","","","","","","","feedback_test","","","","","","","","",""
"787","","j","psychophysics","74","600101","0.0-8.0-0.0-1.0-0.0-0.32","6","5","6","5","3","5","4","4","1","5","5","1","1","2","2","0","1","2","2","5","5","5","5","5","4","5","5","4","4","8","5","6","5","6","6","7","5","6","5","6","6","7","6","5","5","6","6","6","1","6","7","7","5","6","6","5","5","6","7","3","6","3","3","3","6","7","4","6","7","7","5","5","6","2","7","5","6","7","6","781446149684072450","袁","437","Male","[""好我"",""坏他"",""好他"",""坏我""]","[""强我"",""弱他"",""强他"",""弱我""]","","","","","","","","match","","","","","","","","","","key","j","16.669317757009058","960","536","f","false","nonmatch","img/trapezoid.png","好我","坏他","prac_ALT2_moral","practice_moral","","","","","","","","",""
"null","<span style='color:red; font-size: 70px;'>错误! </span>","null","html-keyboard-response","75","600607","0.0-8.0-0.0-1.0-0.0-1.32","6","5","6","5","3","5","4","4","1","5","5","1","1","2","2","0","1","2","2","5","5","5","5","5","4","5","5","4","4","8","5","6","5","6","6","7","5","6","5","6","6","7","6","5","5","6","6","6","1","6","7","7","5","6","6","5","5","6","7","3","6","3","3","3","6","7","4","6","7","7","5","5","6","2","7","5","6","7","6","781446149684072450","袁","437","Male","[""好我"",""坏他"",""好他"",""坏我""]","[""强我"",""弱他"",""强他"",""弱我""]","","","","","","","","","","","","","","","","","","","","","","","","","","","","","","feedback_test","","","","","","","","",""
"842","","f","psychophysics","76","602455","0.0-8.0-0.0-1.0-0.0-0.33","6","5","6","5","3","5","4","4","1","5","5","1","1","2","2","0","1","2","2","5","5","5","5","5","4","5","5","4","4","8","5","6","5","6","6","7","5","6","5","6","6","7","6","5","5","6","6","6","1","6","7","7","5","6","6","5","5","6","7","3","6","3","3","3","6","7","4","6","7","7","5","5","6","2","7","5","6","7","6","781446149684072450","袁","437","Male","[""好我"",""坏他"",""好他"",""坏我""]","[""强我"",""弱他"",""强他"",""弱我""]","","","","","","","","nonmatch","","","","","","","","","","key","f","16.792944954128277","960","536","f","true","nonmatch","img/pentagon.png","好他","坏我","prac_ALT2_moral","practice_moral","","","","","","","","",""
"null","<span style='color:GreenYellow; font-size: 70px;'>正确! </span>","null","html-keyboard-response","77","602959","0.0-8.0-0.0-1.0-0.0-1.33","6","5","6","5","3","5","4","4","1","5","5","1","1","2","2","0","1","2","2","5","5","5","5","5","4","5","5","4","4","8","5","6","5","6","6","7","5","6","5","6","6","7","6","5","5","6","6","6","1","6","7","7","5","6","6","5","5","6","7","3","6","3","3","3","6","7","4","6","7","7","5","5","6","2","7","5","6","7","6","781446149684072450","袁","437","Male","[""好我"",""坏他"",""好他"",""坏我""]","[""强我"",""弱他"",""强他"",""弱我""]","","","","","","","","","","","","","","","","","","","","","","","","","","","","","","feedback_test","","","","","","","","",""
"919","","j","psychophysics","78","604886","0.0-8.0-0.0-1.0-0.0-0.34","6","5","6","5","3","5","4","4","1","5","5","1","1","2","2","0","1","2","2","5","5","5","5","5","4","5","5","4","4","8","5","6","5","6","6","7","5","6","5","6","6","7","6","5","5","6","6","6","1","6","7","7","5","6","6","5","5","6","7","3","6","3","3","3","6","7","4","6","7","7","5","5","6","2","7","5","6","7","6","781446149684072450","袁","437","Male","[""好我"",""坏他"",""好他"",""坏我""]","[""强我"",""弱他"",""强他"",""弱我""]","","","","","","","","match","","","","","","","","","","key","j","16.66857391304397","960","536","f","false","nonmatch","img/circle.png","坏他","好我","prac_ALT2_moral","practice_moral","","","","","","","","",""
"null","<span style='color:red; font-size: 70px;'>错误! </span>","null","html-keyboard-response","79","605391","0.0-8.0-0.0-1.0-0.0-1.34","6","5","6","5","3","5","4","4","1","5","5","1","1","2","2","0","1","2","2","5","5","5","5","5","4","5","5","4","4","8","5","6","5","6","6","7","5","6","5","6","6","7","6","5","5","6","6","6","1","6","7","7","5","6","6","5","5","6","7","3","6","3","3","3","6","7","4","6","7","7","5","5","6","2","7","5","6","7","6","781446149684072450","袁","437","Male","[""好我"",""坏他"",""好他"",""坏我""]","[""强我"",""弱他"",""强他"",""弱我""]","","","","","","","","","","","","","","","","","","","","","","","","","","","","","","feedback_test","","","","","","","","",""
"1038","","j","psychophysics","80","607439","0.0-8.0-0.0-1.0-0.0-0.35","6","5","6","5","3","5","4","4","1","5","5","1","1","2","2","0","1","2","2","5","5","5","5","5","4","5","5","4","4","8","5","6","5","6","6","7","5","6","5","6","6","7","6","5","5","6","6","6","1","6","7","7","5","6","6","5","5","6","7","3","6","3","3","3","6","7","4","6","7","7","5","5","6","2","7","5","6","7","6","781446149684072450","袁","437","Male","[""好我"",""坏他"",""好他"",""坏我""]","[""强我"",""弱他"",""强他"",""弱我""]","","","","","","","","match","","","","","","","","","","key","j","16.82455371900785","960","536","f","false","nonmatch","img/diamond.png","好我","好他","prac_ALT2_moral","practice_moral","","","","","","","","",""
"null","<span style='color:red; font-size: 70px;'>错误! </span>","null","html-keyboard-response","81","607944","0.0-8.0-0.0-1.0-0.0-1.35","6","5","6","5","3","5","4","4","1","5","5","1","1","2","2","0","1","2","2","5","5","5","5","5","4","5","5","4","4","8","5","6","5","6","6","7","5","6","5","6","6","7","6","5","5","6","6","6","1","6","7","7","5","6","6","5","5","6","7","3","6","3","3","3","6","7","4","6","7","7","5","5","6","2","7","5","6","7","6","781446149684072450","袁","437","Male","[""好我"",""坏他"",""好他"",""坏我""]","[""强我"",""弱他"",""强他"",""弱我""]","","","","","","","","","","","","","","","","","","","","","","","","","","","","","","feedback_test","","","","","","","","",""
"978","","f","psychophysics","82","609927","0.0-8.0-0.0-1.0-0.0-0.36","6","5","6","5","3","5","4","4","1","5","5","1","1","2","2","0","1","2","2","5","5","5","5","5","4","5","5","4","4","8","5","6","5","6","6","7","5","6","5","6","6","7","6","5","5","6","6","6","1","6","7","7","5","6","6","5","5","6","7","3","6","3","3","3","6","7","4","6","7","7","5","5","6","2","7","5","6","7","6","781446149684072450","袁","437","Male","[""好我"",""坏他"",""好他"",""坏我""]","[""强我"",""弱他"",""强他"",""弱我""]","","","","","","","","nonmatch","","","","","","","","","","key","f","16.666215517241024","960","536","f","true","nonmatch","img/trapezoid.png","好他","坏他","prac_ALT2_moral","practice_moral","","","","","","","","",""
"null","<span style='color:GreenYellow; font-size: 70px;'>正确! </span>","null","html-keyboard-response","83","610432","0.0-8.0-0.0-1.0-0.0-1.36","6","5","6","5","3","5","4","4","1","5","5","1","1","2","2","0","1","2","2","5","5","5","5","5","4","5","5","4","4","8","5","6","5","6","6","7","5","6","5","6","6","7","6","5","5","6","6","6","1","6","7","7","5","6","6","5","5","6","7","3","6","3","3","3","6","7","4","6","7","7","5","5","6","2","7","5","6","7","6","781446149684072450","袁","437","Male","[""好我"",""坏他"",""好他"",""坏我""]","[""强我"",""弱他"",""强他"",""弱我""]","","","","","","","","","","","","","","","","","","","","","","","","","","","","","","feedback_test","","","","","","","","",""
"918","","f","psychophysics","84","612358","0.0-8.0-0.0-1.0-0.0-0.37","6","5","6","5","3","5","4","4","1","5","5","1","1","2","2","0","1","2","2","5","5","5","5","5","4","5","5","4","4","8","5","6","5","6","6","7","5","6","5","6","6","7","6","5","5","6","6","6","1","6","7","7","5","6","6","5","5","6","7","3","6","3","3","3","6","7","4","6","7","7","5","5","6","2","7","5","6","7","6","781446149684072450","袁","437","Male","[""好我"",""坏他"",""好他"",""坏我""]","[""强我"",""弱他"",""强他"",""弱我""]","","","","","","","","nonmatch","","","","","","","","","","key","f","16.667141592920245","960","536","j","false","match","img/circle.png","好我","好我","prac_ALT2_moral","practice_moral","","","","","","","","",""
"null","<span style='color:red; font-size: 70px;'>错误! </span>","null","html-keyboard-response","85","612864","0.0-8.0-0.0-1.0-0.0-1.37","6","5","6","5","3","5","4","4","1","5","5","1","1","2","2","0","1","2","2","5","5","5","5","5","4","5","5","4","4","8","5","6","5","6","6","7","5","6","5","6","6","7","6","5","5","6","6","6","1","6","7","7","5","6","6","5","5","6","7","3","6","3","3","3","6","7","4","6","7","7","5","5","6","2","7","5","6","7","6","781446149684072450","袁","437","Male","[""好我"",""坏他"",""好他"",""坏我""]","[""强我"",""弱他"",""强他"",""弱我""]","","","","","","","","","","","","","","","","","","","","","","","","","","","","","","feedback_test","","","","","","","","",""
"1069","","f","psychophysics","86","614936","0.0-8.0-0.0-1.0-0.0-0.38","6","5","6","5","3","5","4","4","1","5","5","1","1","2","2","0","1","2","2","5","5","5","5","5","4","5","5","4","4","8","5","6","5","6","6","7","5","6","5","6","6","7","6","5","5","6","6","6","1","6","7","7","5","6","6","5","5","6","7","3","6","3","3","3","6","7","4","6","7","7","5","5","6","2","7","5","6","7","6","781446149684072450","袁","437","Male","[""好我"",""坏他"",""好他"",""坏我""]","[""强我"",""弱他"",""强他"",""弱我""]","","","","","","","","nonmatch","","","","","","","","","","key","f","16.665341463415103","960","536","j","false","match","img/pentagon.png","坏我","坏我","prac_ALT2_moral","practice_moral","","","","","","","","",""
"null","<span style='color:red; font-size: 70px;'>错误! </span>","null","html-keyboard-response","87","615440","0.0-8.0-0.0-1.0-0.0-1.38","6","5","6","5","3","5","4","4","1","5","5","1","1","2","2","0","1","2","2","5","5","5","5","5","4","5","5","4","4","8","5","6","5","6","6","7","5","6","5","6","6","7","6","5","5","6","6","6","1","6","7","7","5","6","6","5","5","6","7","3","6","3","3","3","6","7","4","6","7","7","5","5","6","2","7","5","6","7","6","781446149684072450","袁","437","Male","[""好我"",""坏他"",""好他"",""坏我""]","[""强我"",""弱他"",""强他"",""弱我""]","","","","","","","","","","","","","","","","","","","","","","","","","","","","","","feedback_test","","","","","","","","",""
"856","","f","psychophysics","88","617302","0.0-8.0-0.0-1.0-0.0-0.39","6","5","6","5","3","5","4","4","1","5","5","1","1","2","2","0","1","2","2","5","5","5","5","5","4","5","5","4","4","8","5","6","5","6","6","7","5","6","5","6","6","7","6","5","5","6","6","6","1","6","7","7","5","6","6","5","5","6","7","3","6","3","3","3","6","7","4","6","7","7","5","5","6","2","7","5","6","7","6","781446149684072450","袁","437","Male","[""好我"",""坏他"",""好他"",""坏我""]","[""强我"",""弱他"",""强他"",""弱我""]","","","","","","","","nonmatch","","","","","","","","","","key","f","16.681378378378657","960","536","f","true","nonmatch","img/pentagon.png","好我","坏我","prac_ALT2_moral","practice_moral","","","","","","","","",""
"null","<span style='color:GreenYellow; font-size: 70px;'>正确! </span>","null","html-keyboard-response","89","617807","0.0-8.0-0.0-1.0-0.0-1.39","6","5","6","5","3","5","4","4","1","5","5","1","1","2","2","0","1","2","2","5","5","5","5","5","4","5","5","4","4","8","5","6","5","6","6","7","5","6","5","6","6","7","6","5","5","6","6","6","1","6","7","7","5","6","6","5","5","6","7","3","6","3","3","3","6","7","4","6","7","7","5","5","6","2","7","5","6","7","6","781446149684072450","袁","437","Male","[""好我"",""坏他"",""好他"",""坏我""]","[""强我"",""弱他"",""强他"",""弱我""]","","","","","","","","","","","","","","","","","","","","","","","","","","","","","","feedback_test","","","","","","","","",""
"968","","j","psychophysics","90","619784","0.0-8.0-0.0-1.0-0.0-0.40","6","5","6","5","3","5","4","4","1","5","5","1","1","2","2","0","1","2","2","5","5","5","5","5","4","5","5","4","4","8","5","6","5","6","6","7","5","6","5","6","6","7","6","5","5","6","6","6","1","6","7","7","5","6","6","5","5","6","7","3","6","3","3","3","6","7","4","6","7","7","5","5","6","2","7","5","6","7","6","781446149684072450","袁","437","Male","[""好我"",""坏他"",""好他"",""坏我""]","[""强我"",""弱他"",""强他"",""弱我""]","","","","","","","","match","","","","","","","","","","key","j","16.65535593220384","960","536","f","false","nonmatch","img/diamond.png","坏我","好他","prac_ALT2_moral","practice_moral","","","","","","","","",""
"null","<span style='color:red; font-size: 70px;'>错误! </span>","null","html-keyboard-response","91","620287","0.0-8.0-0.0-1.0-0.0-1.40","6","5","6","5","3","5","4","4","1","5","5","1","1","2","2","0","1","2","2","5","5","5","5","5","4","5","5","4","4","8","5","6","5","6","6","7","5","6","5","6","6","7","6","5","5","6","6","6","1","6","7","7","5","6","6","5","5","6","7","3","6","3","3","3","6","7","4","6","7","7","5","5","6","2","7","5","6","7","6","781446149684072450","袁","437","Male","[""好我"",""坏他"",""好他"",""坏我""]","[""强我"",""弱他"",""强他"",""弱我""]","","","","","","","","","","","","","","","","","","","","","","","","","","","","","","feedback_test","","","","","","","","",""
"1068","","f","psychophysics","92","622366","0.0-8.0-0.0-1.0-0.0-0.41","6","5","6","5","3","5","4","4","1","5","5","1","1","2","2","0","1","2","2","5","5","5","5","5","4","5","5","4","4","8","5","6","5","6","6","7","5","6","5","6","6","7","6","5","5","6","6","6","1","6","7","7","5","6","6","5","5","6","7","3","6","3","3","3","6","7","4","6","7","7","5","5","6","2","7","5","6","7","6","781446149684072450","袁","437","Male","[""好我"",""坏他"",""好他"",""坏我""]","[""强我"",""弱他"",""强他"",""弱我""]","","","","","","","","nonmatch","","","","","","","","","","key","f","16.652130081301284","960","536","j","false","match","img/circle.png","好我","好我","prac_ALT2_moral","practice_moral","","","","","","","","",""
"null","<span style='color:red; font-size: 70px;'>错误! </span>","null","html-keyboard-response","93","622871","0.0-8.0-0.0-1.0-0.0-1.41","6","5","6","5","3","5","4","4","1","5","5","1","1","2","2","0","1","2","2","5","5","5","5","5","4","5","5","4","4","8","5","6","5","6","6","7","5","6","5","6","6","7","6","5","5","6","6","6","1","6","7","7","5","6","6","5","5","6","7","3","6","3","3","3","6","7","4","6","7","7","5","5","6","2","7","5","6","7","6","781446149684072450","袁","437","Male","[""好我"",""坏他"",""好他"",""坏我""]","[""强我"",""弱他"",""强他"",""弱我""]","","","","","","","","","","","","","","","","","","","","","","","","","","","","","","feedback_test","","","","","","","","",""
"741","","f","psychophysics","94","624622","0.0-8.0-0.0-1.0-0.0-0.42","6","5","6","5","3","5","4","4","1","5","5","1","1","2","2","0","1","2","2","5","5","5","5","5","4","5","5","4","4","8","5","6","5","6","6","7","5","6","5","6","6","7","6","5","5","6","6","6","1","6","7","7","5","6","6","5","5","6","7","3","6","3","3","3","6","7","4","6","7","7","5","5","6","2","7","5","6","7","6","781446149684072450","袁","437","Male","[""好我"",""坏他"",""好他"",""坏我""]","[""强我"",""弱他"",""强他"",""弱我""]","","","","","","","","nonmatch","","","","","","","","","","key","f","16.633923076922656","960","536","j","false","match","img/trapezoid.png","坏他","坏他","prac_ALT2_moral","practice_moral","","","","","","","","",""
"null","<span style='color:red; font-size: 70px;'>错误! </span>","null","html-keyboard-response","95","625128","0.0-8.0-0.0-1.0-0.0-1.42","6","5","6","5","3","5","4","4","1","5","5","1","1","2","2","0","1","2","2","5","5","5","5","5","4","5","5","4","4","8","5","6","5","6","6","7","5","6","5","6","6","7","6","5","5","6","6","6","1","6","7","7","5","6","6","5","5","6","7","3","6","3","3","3","6","7","4","6","7","7","5","5","6","2","7","5","6","7","6","781446149684072450","袁","437","Male","[""好我"",""坏他"",""好他"",""坏我""]","[""强我"",""弱他"",""强他"",""弱我""]","","","","","","","","","","","","","","","","","","","","","","","","","","","","","","feedback_test","","","","","","","","",""
"974","","j","psychophysics","96","627104","0.0-8.0-0.0-1.0-0.0-0.43","6","5","6","5","3","5","4","4","1","5","5","1","1","2","2","0","1","2","2","5","5","5","5","5","4","5","5","4","4","8","5","6","5","6","6","7","5","6","5","6","6","7","6","5","5","6","6","6","1","6","7","7","5","6","6","5","5","6","7","3","6","3","3","3","6","7","4","6","7","7","5","5","6","2","7","5","6","7","6","781446149684072450","袁","437","Male","[""好我"",""坏他"",""好他"",""坏我""]","[""强我"",""弱他"",""强他"",""弱我""]","","","","","","","","match","","","","","","","","","","key","j","16.632008474575695","960","536","j","true","match","img/pentagon.png","坏我","坏我","prac_ALT2_moral","practice_moral","","","","","","","","",""
"null","<span style='color:GreenYellow; font-size: 70px;'>正确! </span>","null","html-keyboard-response","97","627608","0.0-8.0-0.0-1.0-0.0-1.43","6","5","6","5","3","5","4","4","1","5","5","1","1","2","2","0","1","2","2","5","5","5","5","5","4","5","5","4","4","8","5","6","5","6","6","7","5","6","5","6","6","7","6","5","5","6","6","6","1","6","7","7","5","6","6","5","5","6","7","3","6","3","3","3","6","7","4","6","7","7","5","5","6","2","7","5","6","7","6","781446149684072450","袁","437","Male","[""好我"",""坏他"",""好他"",""坏我""]","[""强我"",""弱他"",""强他"",""弱我""]","","","","","","","","","","","","","","","","","","","","","","","","","","","","","","feedback_test","","","","","","","","",""
"1130","","f","psychophysics","98","629742","0.0-8.0-0.0-1.0-0.0-0.44","6","5","6","5","3","5","4","4","1","5","5","1","1","2","2","0","1","2","2","5","5","5","5","5","4","5","5","4","4","8","5","6","5","6","6","7","5","6","5","6","6","7","6","5","5","6","6","6","1","6","7","7","5","6","6","5","5","6","7","3","6","3","3","3","6","7","4","6","7","7","5","5","6","2","7","5","6","7","6","781446149684072450","袁","437","Male","[""好我"",""坏他"",""好他"",""坏我""]","[""强我"",""弱他"",""强他"",""弱我""]","","","","","","","","nonmatch","","","","","","","","","","key","f","16.689064000000247","960","536","j","false","match","img/diamond.png","好他","好他","prac_ALT2_moral","practice_moral","","","","","","","","",""
"null","<span style='color:red; font-size: 70px;'>错误! </span>","null","html-keyboard-response","99","630248","0.0-8.0-0.0-1.0-0.0-1.44","6","5","6","5","3","5","4","4","1","5","5","1","1","2","2","0","1","2","2","5","5","5","5","5","4","5","5","4","4","8","5","6","5","6","6","7","5","6","5","6","6","7","6","5","5","6","6","6","1","6","7","7","5","6","6","5","5","6","7","3","6","3","3","3","6","7","4","6","7","7","5","5","6","2","7","5","6","7","6","781446149684072450","袁","437","Male","[""好我"",""坏他"",""好他"",""坏我""]","[""强我"",""弱他"",""强他"",""弱我""]","","","","","","","","","","","","","","","","","","","","","","","","","","","","","","feedback_test","","","","","","","","",""
"842","","j","psychophysics","100","632098","0.0-8.0-0.0-1.0-0.0-0.45","6","5","6","5","3","5","4","4","1","5","5","1","1","2","2","0","1","2","2","5","5","5","5","5","4","5","5","4","4","8","5","6","5","6","6","7","5","6","5","6","6","7","6","5","5","6","6","6","1","6","7","7","5","6","6","5","5","6","7","3","6","3","3","3","6","7","4","6","7","7","5","5","6","2","7","5","6","7","6","781446149684072450","袁","437","Male","[""好我"",""坏他"",""好他"",""坏我""]","[""强我"",""弱他"",""强他"",""弱我""]","","","","","","","","match","","","","","","","","","","key","j","16.644064814814893","960","536","f","false","nonmatch","img/circle.png","好他","好我","prac_ALT2_moral","practice_moral","","","","","","","","",""
"null","<span style='color:red; font-size: 70px;'>错误! </span>","null","html-keyboard-response","101","632608","0.0-8.0-0.0-1.0-0.0-1.45","6","5","6","5","3","5","4","4","1","5","5","1","1","2","2","0","1","2","2","5","5","5","5","5","4","5","5","4","4","8","5","6","5","6","6","7","5","6","5","6","6","7","6","5","5","6","6","6","1","6","7","7","5","6","6","5","5","6","7","3","6","3","3","3","6","7","4","6","7","7","5","5","6","2","7","5","6","7","6","781446149684072450","袁","437","Male","[""好我"",""坏他"",""好他"",""坏我""]","[""强我"",""弱他"",""强他"",""弱我""]","","","","","","","","","","","","","","","","","","","","","","","","","","","","","","feedback_test","","","","","","","","",""
"938","","f","psychophysics","102","634550","0.0-8.0-0.0-1.0-0.0-0.46","6","5","6","5","3","5","4","4","1","5","5","1","1","2","2","0","1","2","2","5","5","5","5","5","4","5","5","4","4","8","5","6","5","6","6","7","5","6","5","6","6","7","6","5","5","6","6","6","1","6","7","7","5","6","6","5","5","6","7","3","6","3","3","3","6","7","4","6","7","7","5","5","6","2","7","5","6","7","6","781446149684072450","袁","437","Male","[""好我"",""坏他"",""好他"",""坏我""]","[""强我"",""弱他"",""强他"",""弱我""]","","","","","","","","nonmatch","","","","","","","","","","key","f","16.618278260869175","960","536","f","true","nonmatch","img/diamond.png","坏他","好他","prac_ALT2_moral","practice_moral","","","","","","","","",""
"null","<span style='color:GreenYellow; font-size: 70px;'>正确! </span>","null","html-keyboard-response","103","635056","0.0-8.0-0.0-1.0-0.0-1.46","6","5","6","5","3","5","4","4","1","5","5","1","1","2","2","0","1","2","2","5","5","5","5","5","4","5","5","4","4","8","5","6","5","6","6","7","5","6","5","6","6","7","6","5","5","6","6","6","1","6","7","7","5","6","6","5","5","6","7","3","6","3","3","3","6","7","4","6","7","7","5","5","6","2","7","5","6","7","6","781446149684072450","袁","437","Male","[""好我"",""坏他"",""好他"",""坏我""]","[""强我"",""弱他"",""强他"",""弱我""]","","","","","","","","","","","","","","","","","","","","","","","","","","","","","","feedback_test","","","","","","","","",""
"837","","f","psychophysics","104","636902","0.0-8.0-0.0-1.0-0.0-0.47","6","5","6","5","3","5","4","4","1","5","5","1","1","2","2","0","1","2","2","5","5","5","5","5","4","5","5","4","4","8","5","6","5","6","6","7","5","6","5","6","6","7","6","5","5","6","6","6","1","6","7","7","5","6","6","5","5","6","7","3","6","3","3","3","6","7","4","6","7","7","5","5","6","2","7","5","6","7","6","781446149684072450","袁","437","Male","[""好我"",""坏他"",""好他"",""坏我""]","[""强我"",""弱他"",""强他"",""弱我""]","","","","","","","","nonmatch","","","","","","","","","","key","f","16.667490740741076","960","536","f","true","nonmatch","img/circle.png","坏我","好我","prac_ALT2_moral","practice_moral","","","","","","","","",""
"null","<span style='color:GreenYellow; font-size: 70px;'>正确! </span>","null","html-keyboard-response","105","637408","0.0-8.0-0.0-1.0-0.0-1.47","6","5","6","5","3","5","4","4","1","5","5","1","1","2","2","0","1","2","2","5","5","5","5","5","4","5","5","4","4","8","5","6","5","6","6","7","5","6","5","6","6","7","6","5","5","6","6","6","1","6","7","7","5","6","6","5","5","6","7","3","6","3","3","3","6","7","4","6","7","7","5","5","6","2","7","5","6","7","6","781446149684072450","袁","437","Male","[""好我"",""坏他"",""好他"",""坏我""]","[""强我"",""弱他"",""强他"",""弱我""]","","","","","","","","","","","","","","","","","","","","","","","","","","","","","","feedback_test","","","","","","","","",""
"23096","<style>.context{color:white; font-size: 35px; line-height:40px}</style>                            <div><p class='context'>您正确回答了46% 的试次。</p><p class='context'>您的平均反应时为928毫秒。</p><p class='context'>按空格键继续。</p></div>"," ","html-keyboard-response","106","660511","0.0-8.0-0.0-1.0-1.0-0.0","6","5","6","5","3","5","4","4","1","5","5","1","1","2","2","0","1","2","2","5","5","5","5","5","4","5","5","4","4","8","5","6","5","6","6","7","5","6","5","6","6","7","6","5","5","6","6","6","1","6","7","7","5","6","6","5","5","6","7","3","6","3","3","3","6","7","4","6","7","7","5","5","6","2","7","5","6","7","6","781446149684072450","袁","437","Male","[""好我"",""坏他"",""好他"",""坏我""]","[""强我"",""弱他"",""强他"",""弱我""]","","","","","","","","","","","","","","","","","","","","","","","","","","","","","","","","","","","","","","",""
"40246","","","instructions","107","700767","0.0-8.0-0.0-1.0-1.0-1.0","6","5","6","5","3","5","4","4","1","5","5","1","1","2","2","0","1","2","2","5","5","5","5","5","4","5","5","4","4","8","5","6","5","6","6","7","5","6","5","6","6","7","6","5","5","6","6","6","1","6","7","7","5","6","6","5","5","6","7","3","6","3","3","3","6","7","4","6","7","7","5","5","6","2","7","5","6","7","6","781446149684072450","袁","437","Male","[""好我"",""坏他"",""好他"",""坏我""]","[""强我"",""弱他"",""强他"",""弱我""]","","","","","","","","","","","","","","","","","[{""page_index"":0,""viewing_time"":21358},{""page_index"":1,""viewing_time"":17590},{""page_index"":2,""viewing_time"":1296}]","","","","","","","","","","","","","","","","","","","","","",""
"870","","f","psychophysics","108","702645","0.0-8.0-0.0-1.1-0.1-0.48","6","5","6","5","3","5","4","4","1","5","5","1","1","2","2","0","1","2","2","5","5","5","5","5","4","5","5","4","4","8","5","6","5","6","6","7","5","6","5","6","6","7","6","5","5","6","6","6","1","6","7","7","5","6","6","5","5","6","7","3","6","3","3","3","6","7","4","6","7","7","5","5","6","2","7","5","6","7","6","781446149684072450","袁","437","Male","[""好我"",""坏他"",""好他"",""坏我""]","[""强我"",""弱他"",""强他"",""弱我""]","","","","","","","","nonmatch","","","","","","","","","","key","f","16.970918181819037","960","536","j","false","match","img/diamond.png","好他","好他","prac_ALT2_moral","practice_moral","","","","","","","","",""
"null","<span style='color:red; font-size: 70px;'>错误! </span>","null","html-keyboard-response","109","703153","0.0-8.0-0.0-1.1-0.1-1.48","6","5","6","5","3","5","4","4","1","5","5","1","1","2","2","0","1","2","2","5","5","5","5","5","4","5","5","4","4","8","5","6","5","6","6","7","5","6","5","6","6","7","6","5","5","6","6","6","1","6","7","7","5","6","6","5","5","6","7","3","6","3","3","3","6","7","4","6","7","7","5","5","6","2","7","5","6","7","6","781446149684072450","袁","437","Male","[""好我"",""坏他"",""好他"",""坏我""]","[""强我"",""弱他"",""强他"",""弱我""]","","","","","","","","","","","","","","","","","","","","","","","","","","","","","","feedback_test","","","","","","","","",""
"882","","j","psychophysics","110","705038","0.0-8.0-0.0-1.1-0.1-0.49","6","5","6","5","3","5","4","4","1","5","5","1","1","2","2","0","1","2","2","5","5","5","5","5","4","5","5","4","4","8","5","6","5","6","6","7","5","6","5","6","6","7","6","5","5","6","6","6","1","6","7","7","5","6","6","5","5","6","7","3","6","3","3","3","6","7","4","6","7","7","5","5","6","2","7","5","6","7","6","781446149684072450","袁","437","Male","[""好我"",""坏他"",""好他"",""坏我""]","[""强我"",""弱他"",""强他"",""弱我""]","","","","","","","","match","","","","","","","","","","key","j","16.797855855856167","960","536","f","false","nonmatch","img/circle.png","好他","好我","prac_ALT2_moral","practice_moral","","","","","","","","",""
"null","<span style='color:red; font-size: 70px;'>错误! </span>","null","html-keyboard-response","111","705545","0.0-8.0-0.0-1.1-0.1-1.49","6","5","6","5","3","5","4","4","1","5","5","1","1","2","2","0","1","2","2","5","5","5","5","5","4","5","5","4","4","8","5","6","5","6","6","7","5","6","5","6","6","7","6","5","5","6","6","6","1","6","7","7","5","6","6","5","5","6","7","3","6","3","3","3","6","7","4","6","7","7","5","5","6","2","7","5","6","7","6","781446149684072450","袁","437","Male","[""好我"",""坏他"",""好他"",""坏我""]","[""强我"",""弱他"",""强他"",""弱我""]","","","","","","","","","","","","","","","","","","","","","","","","","","","","","","feedback_test","","","","","","","","",""
"1013","","f","psychophysics","112","707566","0.0-8.0-0.0-1.1-0.1-0.50","6","5","6","5","3","5","4","4","1","5","5","1","1","2","2","0","1","2","2","5","5","5","5","5","4","5","5","4","4","8","5","6","5","6","6","7","5","6","5","6","6","7","6","5","5","6","6","6","1","6","7","7","5","6","6","5","5","6","7","3","6","3","3","3","6","7","4","6","7","7","5","5","6","2","7","5","6","7","6","781446149684072450","袁","437","Male","[""好我"",""坏他"",""好他"",""坏我""]","[""强我"",""弱他"",""强他"",""弱我""]","","","","","","","","nonmatch","","","","","","","","","","key","f","16.644983193276552","960","536","f","true","nonmatch","img/pentagon.png","坏他","坏我","prac_ALT2_moral","practice_moral","","","","","","","","",""
"null","<span style='color:GreenYellow; font-size: 70px;'>正确! </span>","null","html-keyboard-response","113","708073","0.0-8.0-0.0-1.1-0.1-1.50","6","5","6","5","3","5","4","4","1","5","5","1","1","2","2","0","1","2","2","5","5","5","5","5","4","5","5","4","4","8","5","6","5","6","6","7","5","6","5","6","6","7","6","5","5","6","6","6","1","6","7","7","5","6","6","5","5","6","7","3","6","3","3","3","6","7","4","6","7","7","5","5","6","2","7","5","6","7","6","781446149684072450","袁","437","Male","[""好我"",""坏他"",""好他"",""坏我""]","[""强我"",""弱他"",""强他"",""弱我""]","","","","","","","","","","","","","","","","","","","","","","","","","","","","","","feedback_test","","","","","","","","",""
"892","","f","psychophysics","114","709967","0.0-8.0-0.0-1.1-0.1-0.51","6","5","6","5","3","5","4","4","1","5","5","1","1","2","2","0","1","2","2","5","5","5","5","5","4","5","5","4","4","8","5","6","5","6","6","7","5","6","5","6","6","7","6","5","5","6","6","6","1","6","7","7","5","6","6","5","5","6","7","3","6","3","3","3","6","7","4","6","7","7","5","5","6","2","7","5","6","7","6","781446149684072450","袁","437","Male","[""好我"",""坏他"",""好他"",""坏我""]","[""强我"",""弱他"",""强他"",""弱我""]","","","","","","","","nonmatch","","","","","","","","","","key","f","16.63105405405424","960","536","j","false","match","img/trapezoid.png","坏他","坏他","prac_ALT2_moral","practice_moral","","","","","","","","",""
"null","<span style='color:red; font-size: 70px;'>错误! </span>","null","html-keyboard-response","115","710473","0.0-8.0-0.0-1.1-0.1-1.51","6","5","6","5","3","5","4","4","1","5","5","1","1","2","2","0","1","2","2","5","5","5","5","5","4","5","5","4","4","8","5","6","5","6","6","7","5","6","5","6","6","7","6","5","5","6","6","6","1","6","7","7","5","6","6","5","5","6","7","3","6","3","3","3","6","7","4","6","7","7","5","5","6","2","7","5","6","7","6","781446149684072450","袁","437","Male","[""好我"",""坏他"",""好他"",""坏我""]","[""强我"",""弱他"",""强他"",""弱我""]","","","","","","","","","","","","","","","","","","","","","","","","","","","","","","feedback_test","","","","","","","","",""
"965","","f","psychophysics","116","712446","0.0-8.0-0.0-1.1-0.1-0.52","6","5","6","5","3","5","4","4","1","5","5","1","1","2","2","0","1","2","2","5","5","5","5","5","4","5","5","4","4","8","5","6","5","6","6","7","5","6","5","6","6","7","6","5","5","6","6","6","1","6","7","7","5","6","6","5","5","6","7","3","6","3","3","3","6","7","4","6","7","7","5","5","6","2","7","5","6","7","6","781446149684072450","袁","437","Male","[""好我"",""坏他"",""好他"",""坏我""]","[""强我"",""弱他"",""强他"",""弱我""]","","","","","","","","nonmatch","","","","","","","","","","key","f","16.668897435896927","960","536","j","false","match","img/pentagon.png","坏我","坏我","prac_ALT2_moral","practice_moral","","","","","","","","",""
"null","<span style='color:red; font-size: 70px;'>错误! </span>","null","html-keyboard-response","117","712952","0.0-8.0-0.0-1.1-0.1-1.52","6","5","6","5","3","5","4","4","1","5","5","1","1","2","2","0","1","2","2","5","5","5","5","5","4","5","5","4","4","8","5","6","5","6","6","7","5","6","5","6","6","7","6","5","5","6","6","6","1","6","7","7","5","6","6","5","5","6","7","3","6","3","3","3","6","7","4","6","7","7","5","5","6","2","7","5","6","7","6","781446149684072450","袁","437","Male","[""好我"",""坏他"",""好他"",""坏我""]","[""强我"",""弱他"",""强他"",""弱我""]","","","","","","","","","","","","","","","","","","","","","","","","","","","","","","feedback_test","","","","","","","","",""
"1055","","f","psychophysics","118","715014","0.0-8.0-0.0-1.1-0.1-0.53","6","5","6","5","3","5","4","4","1","5","5","1","1","2","2","0","1","2","2","5","5","5","5","5","4","5","5","4","4","8","5","6","5","6","6","7","5","6","5","6","6","7","6","5","5","6","6","6","1","6","7","7","5","6","6","5","5","6","7","3","6","3","3","3","6","7","4","6","7","7","5","5","6","2","7","5","6","7","6","781446149684072450","袁","437","Male","[""好我"",""坏他"",""好他"",""坏我""]","[""强我"",""弱他"",""强他"",""弱我""]","","","","","","","","nonmatch","","","","","","","","","","key","f","16.64791056910545","960","536","j","false","match","img/trapezoid.png","坏他","坏他","prac_ALT2_moral","practice_moral","","","","","","","","",""
"null","<span style='color:red; font-size: 70px;'>错误! </span>","null","html-keyboard-response","119","715520","0.0-8.0-0.0-1.1-0.1-1.53","6","5","6","5","3","5","4","4","1","5","5","1","1","2","2","0","1","2","2","5","5","5","5","5","4","5","5","4","4","8","5","6","5","6","6","7","5","6","5","6","6","7","6","5","5","6","6","6","1","6","7","7","5","6","6","5","5","6","7","3","6","3","3","3","6","7","4","6","7","7","5","5","6","2","7","5","6","7","6","781446149684072450","袁","437","Male","[""好我"",""坏他"",""好他"",""坏我""]","[""强我"",""弱他"",""强他"",""弱我""]","","","","","","","","","","","","","","","","","","","","","","","","","","","","","","feedback_test","","","","","","","","",""
"864","","j","psychophysics","120","717391","0.0-8.0-0.0-1.1-0.1-0.54","6","5","6","5","3","5","4","4","1","5","5","1","1","2","2","0","1","2","2","5","5","5","5","5","4","5","5","4","4","8","5","6","5","6","6","7","5","6","5","6","6","7","6","5","5","6","6","6","1","6","7","7","5","6","6","5","5","6","7","3","6","3","3","3","6","7","4","6","7","7","5","5","6","2","7","5","6","7","6","781446149684072450","袁","437","Male","[""好我"",""坏他"",""好他"",""坏我""]","[""强我"",""弱他"",""强他"",""弱我""]","","","","","","","","match","","","","","","","","","","key","j","16.664900900899887","960","536","f","false","nonmatch","img/circle.png","坏他","好我","prac_ALT2_moral","practice_moral","","","","","","","","",""
"null","<span style='color:red; font-size: 70px;'>错误! </span>","null","html-keyboard-response","121","717896","0.0-8.0-0.0-1.1-0.1-1.54","6","5","6","5","3","5","4","4","1","5","5","1","1","2","2","0","1","2","2","5","5","5","5","5","4","5","5","4","4","8","5","6","5","6","6","7","5","6","5","6","6","7","6","5","5","6","6","6","1","6","7","7","5","6","6","5","5","6","7","3","6","3","3","3","6","7","4","6","7","7","5","5","6","2","7","5","6","7","6","781446149684072450","袁","437","Male","[""好我"",""坏他"",""好他"",""坏我""]","[""强我"",""弱他"",""强他"",""弱我""]","","","","","","","","","","","","","","","","","","","","","","","","","","","","","","feedback_test","","","","","","","","",""
"1198","","j","psychophysics","122","720102","0.0-8.0-0.0-1.1-0.1-0.55","6","5","6","5","3","5","4","4","1","5","5","1","1","2","2","0","1","2","2","5","5","5","5","5","4","5","5","4","4","8","5","6","5","6","6","7","5","6","5","6","6","7","6","5","5","6","6","6","1","6","7","7","5","6","6","5","5","6","7","3","6","3","3","3","6","7","4","6","7","7","5","5","6","2","7","5","6","7","6","781446149684072450","袁","437","Male","[""好我"",""坏他"",""好他"",""坏我""]","[""强我"",""弱他"",""强他"",""弱我""]","","","","","","","","match","","","","","","","","","","key","j","16.695906976744165","960","536","f","false","nonmatch","img/pentagon.png","好他","坏我","prac_ALT2_moral","practice_moral","","","","","","","","",""
"null","<span style='color:red; font-size: 70px;'>错误! </span>","null","html-keyboard-response","123","720609","0.0-8.0-0.0-1.1-0.1-1.55","6","5","6","5","3","5","4","4","1","5","5","1","1","2","2","0","1","2","2","5","5","5","5","5","4","5","5","4","4","8","5","6","5","6","6","7","5","6","5","6","6","7","6","5","5","6","6","6","1","6","7","7","5","6","6","5","5","6","7","3","6","3","3","3","6","7","4","6","7","7","5","5","6","2","7","5","6","7","6","781446149684072450","袁","437","Male","[""好我"",""坏他"",""好他"",""坏我""]","[""强我"",""弱他"",""强他"",""弱我""]","","","","","","","","","","","","","","","","","","","","","","","","","","","","","","feedback_test","","","","","","","","",""
"910","","f","psychophysics","124","722527","0.0-8.0-0.0-1.1-0.1-0.56","6","5","6","5","3","5","4","4","1","5","5","1","1","2","2","0","1","2","2","5","5","5","5","5","4","5","5","4","4","8","5","6","5","6","6","7","5","6","5","6","6","7","6","5","5","6","6","6","1","6","7","7","5","6","6","5","5","6","7","3","6","3","3","3","6","7","4","6","7","7","5","5","6","2","7","5","6","7","6","781446149684072450","袁","437","Male","[""好我"",""坏他"",""好他"",""坏我""]","[""强我"",""弱他"",""强他"",""弱我""]","","","","","","","","nonmatch","","","","","","","","","","key","f","16.66416814159272","960","536","j","false","match","img/pentagon.png","坏我","坏我","prac_ALT2_moral","practice_moral","","","","","","","","",""
"null","<span style='color:red; font-size: 70px;'>错误! </span>","null","html-keyboard-response","125","723033","0.0-8.0-0.0-1.1-0.1-1.56","6","5","6","5","3","5","4","4","1","5","5","1","1","2","2","0","1","2","2","5","5","5","5","5","4","5","5","4","4","8","5","6","5","6","6","7","5","6","5","6","6","7","6","5","5","6","6","6","1","6","7","7","5","6","6","5","5","6","7","3","6","3","3","3","6","7","4","6","7","7","5","5","6","2","7","5","6","7","6","781446149684072450","袁","437","Male","[""好我"",""坏他"",""好他"",""坏我""]","[""强我"",""弱他"",""强他"",""弱我""]","","","","","","","","","","","","","","","","","","","","","","","","","","","","","","feedback_test","","","","","","","","",""
"1076","","j","psychophysics","126","725118","0.0-8.0-0.0-1.1-0.1-0.57","6","5","6","5","3","5","4","4","1","5","5","1","1","2","2","0","1","2","2","5","5","5","5","5","4","5","5","4","4","8","5","6","5","6","6","7","5","6","5","6","6","7","6","5","5","6","6","6","1","6","7","7","5","6","6","5","5","6","7","3","6","3","3","3","6","7","4","6","7","7","5","5","6","2","7","5","6","7","6","781446149684072450","袁","437","Male","[""好我"",""坏他"",""好他"",""坏我""]","[""强我"",""弱他"",""强他"",""弱我""]","","","","","","","","match","","","","","","","","","","key","j","16.663186991870276","960","536","f","false","nonmatch","img/circle.png","坏我","好我","prac_ALT2_moral","practice_moral","","","","","","","","",""
"null","<span style='color:red; font-size: 70px;'>错误! </span>","null","html-keyboard-response","127","725625","0.0-8.0-0.0-1.1-0.1-1.57","6","5","6","5","3","5","4","4","1","5","5","1","1","2","2","0","1","2","2","5","5","5","5","5","4","5","5","4","4","8","5","6","5","6","6","7","5","6","5","6","6","7","6","5","5","6","6","6","1","6","7","7","5","6","6","5","5","6","7","3","6","3","3","3","6","7","4","6","7","7","5","5","6","2","7","5","6","7","6","781446149684072450","袁","437","Male","[""好我"",""坏他"",""好他"",""坏我""]","[""强我"",""弱他"",""强他"",""弱我""]","","","","","","","","","","","","","","","","","","","","","","","","","","","","","","feedback_test","","","","","","","","",""
"1133","","j","psychophysics","128","727767","0.0-8.0-0.0-1.1-0.1-0.58","6","5","6","5","3","5","4","4","1","5","5","1","1","2","2","0","1","2","2","5","5","5","5","5","4","5","5","4","4","8","5","6","5","6","6","7","5","6","5","6","6","7","6","5","5","6","6","6","1","6","7","7","5","6","6","5","5","6","7","3","6","3","3","3","6","7","4","6","7","7","5","5","6","2","7","5","6","7","6","781446149684072450","袁","437","Male","[""好我"",""坏他"",""好他"",""坏我""]","[""强我"",""弱他"",""强他"",""弱我""]","","","","","","","","match","","","","","","","","","","key","j","16.651658730158243","960","536","f","false","nonmatch","img/trapezoid.png","好他","坏他","prac_ALT2_moral","practice_moral","","","","","","","","",""
"null","<span style='color:red; font-size: 70px;'>错误! </span>","null","html-keyboard-response","129","728275","0.0-8.0-0.0-1.1-0.1-1.58","6","5","6","5","3","5","4","4","1","5","5","1","1","2","2","0","1","2","2","5","5","5","5","5","4","5","5","4","4","8","5","6","5","6","6","7","5","6","5","6","6","7","6","5","5","6","6","6","1","6","7","7","5","6","6","5","5","6","7","3","6","3","3","3","6","7","4","6","7","7","5","5","6","2","7","5","6","7","6","781446149684072450","袁","437","Male","[""好我"",""坏他"",""好他"",""坏我""]","[""强我"",""弱他"",""强他"",""弱我""]","","","","","","","","","","","","","","","","","","","","","","","","","","","","","","feedback_test","","","","","","","","",""
"813","","f","psychophysics","130","730095","0.0-8.0-0.0-1.1-0.1-0.59","6","5","6","5","3","5","4","4","1","5","5","1","1","2","2","0","1","2","2","5","5","5","5","5","4","5","5","4","4","8","5","6","5","6","6","7","5","6","5","6","6","7","6","5","5","6","6","6","1","6","7","7","5","6","6","5","5","6","7","3","6","3","3","3","6","7","4","6","7","7","5","5","6","2","7","5","6","7","6","781446149684072450","袁","437","Male","[""好我"",""坏他"",""好他"",""坏我""]","[""强我"",""弱他"",""强他"",""弱我""]","","","","","","","","nonmatch","","","","","","","","","","key","f","16.701638888888905","960","536","j","false","match","img/trapezoid.png","坏他","坏他","prac_ALT2_moral","practice_moral","","","","","","","","",""
"null","<span style='color:red; font-size: 70px;'>错误! </span>","null","html-keyboard-response","131","730602","0.0-8.0-0.0-1.1-0.1-1.59","6","5","6","5","3","5","4","4","1","5","5","1","1","2","2","0","1","2","2","5","5","5","5","5","4","5","5","4","4","8","5","6","5","6","6","7","5","6","5","6","6","7","6","5","5","6","6","6","1","6","7","7","5","6","6","5","5","6","7","3","6","3","3","3","6","7","4","6","7","7","5","5","6","2","7","5","6","7","6","781446149684072450","袁","437","Male","[""好我"",""坏他"",""好他"",""坏我""]","[""强我"",""弱他"",""强他"",""弱我""]","","","","","","","","","","","","","","","","","","","","","","","","","","","","","","feedback_test","","","","","","","","",""
"807","","j","psychophysics","132","732415","0.0-8.0-0.0-1.1-0.1-0.60","6","5","6","5","3","5","4","4","1","5","5","1","1","2","2","0","1","2","2","5","5","5","5","5","4","5","5","4","4","8","5","6","5","6","6","7","5","6","5","6","6","7","6","5","5","6","6","6","1","6","7","7","5","6","6","5","5","6","7","3","6","3","3","3","6","7","4","6","7","7","5","5","6","2","7","5","6","7","6","781446149684072450","袁","437","Male","[""好我"",""坏他"",""好他"",""坏我""]","[""强我"",""弱他"",""强他"",""弱我""]","","","","","","","","match","","","","","","","","","","key","j","16.61848148148231","960","536","j","true","match","img/circle.png","好我","好我","prac_ALT2_moral","practice_moral","","","","","","","","",""
"null","<span style='color:GreenYellow; font-size: 70px;'>正确! </span>","null","html-keyboard-response","133","732922","0.0-8.0-0.0-1.1-0.1-1.60","6","5","6","5","3","5","4","4","1","5","5","1","1","2","2","0","1","2","2","5","5","5","5","5","4","5","5","4","4","8","5","6","5","6","6","7","5","6","5","6","6","7","6","5","5","6","6","6","1","6","7","7","5","6","6","5","5","6","7","3","6","3","3","3","6","7","4","6","7","7","5","5","6","2","7","5","6","7","6","781446149684072450","袁","437","Male","[""好我"",""坏他"",""好他"",""坏我""]","[""强我"",""弱他"",""强他"",""弱我""]","","","","","","","","","","","","","","","","","","","","","","","","","","","","","","feedback_test","","","","","","","","",""
"1068","","j","psychophysics","134","734999","0.0-8.0-0.0-1.1-0.1-0.61","6","5","6","5","3","5","4","4","1","5","5","1","1","2","2","0","1","2","2","5","5","5","5","5","4","5","5","4","4","8","5","6","5","6","6","7","5","6","5","6","6","7","6","5","5","6","6","6","1","6","7","7","5","6","6","5","5","6","7","3","6","3","3","3","6","7","4","6","7","7","5","5","6","2","7","5","6","7","6","781446149684072450","袁","437","Male","[""好我"",""坏他"",""好他"",""坏我""]","[""强我"",""弱他"",""强他"",""弱我""]","","","","","","","","match","","","","","","","","","","key","j","16.666593495934322","960","536","f","false","nonmatch","img/diamond.png","坏我","好他","prac_ALT2_moral","practice_moral","","","","","","","","",""
"null","<span style='color:red; font-size: 70px;'>错误! </span>","null","html-keyboard-response","135","735506","0.0-8.0-0.0-1.1-0.1-1.61","6","5","6","5","3","5","4","4","1","5","5","1","1","2","2","0","1","2","2","5","5","5","5","5","4","5","5","4","4","8","5","6","5","6","6","7","5","6","5","6","6","7","6","5","5","6","6","6","1","6","7","7","5","6","6","5","5","6","7","3","6","3","3","3","6","7","4","6","7","7","5","5","6","2","7","5","6","7","6","781446149684072450","袁","437","Male","[""好我"",""坏他"",""好他"",""坏我""]","[""强我"",""弱他"",""强他"",""弱我""]","","","","","","","","","","","","","","","","","","","","","","","","","","","","","","feedback_test","","","","","","","","",""
"965","","j","psychophysics","136","737478","0.0-8.0-0.0-1.1-0.1-0.62","6","5","6","5","3","5","4","4","1","5","5","1","1","2","2","0","1","2","2","5","5","5","5","5","4","5","5","4","4","8","5","6","5","6","6","7","5","6","5","6","6","7","6","5","5","6","6","6","1","6","7","7","5","6","6","5","5","6","7","3","6","3","3","3","6","7","4","6","7","7","5","5","6","2","7","5","6","7","6","781446149684072450","袁","437","Male","[""好我"",""坏他"",""好他"",""坏我""]","[""强我"",""弱他"",""强他"",""弱我""]","","","","","","","","match","","","","","","","","","","key","j","16.695698275862078","960","536","f","false","nonmatch","img/diamond.png","好我","好他","prac_ALT2_moral","practice_moral","","","","","","","","",""
"null","<span style='color:red; font-size: 70px;'>错误! </span>","null","html-keyboard-response","137","737985","0.0-8.0-0.0-1.1-0.1-1.62","6","5","6","5","3","5","4","4","1","5","5","1","1","2","2","0","1","2","2","5","5","5","5","5","4","5","5","4","4","8","5","6","5","6","6","7","5","6","5","6","6","7","6","5","5","6","6","6","1","6","7","7","5","6","6","5","5","6","7","3","6","3","3","3","6","7","4","6","7","7","5","5","6","2","7","5","6","7","6","781446149684072450","袁","437","Male","[""好我"",""坏他"",""好他"",""坏我""]","[""强我"",""弱他"",""强他"",""弱我""]","","","","","","","","","","","","","","","","","","","","","","","","","","","","","","feedback_test","","","","","","","","",""
"1007","","f","psychophysics","138","739999","0.0-8.0-0.0-1.1-0.1-0.63","6","5","6","5","3","5","4","4","1","5","5","1","1","2","2","0","1","2","2","5","5","5","5","5","4","5","5","4","4","8","5","6","5","6","6","7","5","6","5","6","6","7","6","5","5","6","6","6","1","6","7","7","5","6","6","5","5","6","7","3","6","3","3","3","6","7","4","6","7","7","5","5","6","2","7","5","6","7","6","781446149684072450","袁","437","Male","[""好我"",""坏他"",""好他"",""坏我""]","[""强我"",""弱他"",""强他"",""弱我""]","","","","","","","","nonmatch","","","","","","","","","","key","f","16.663016666666955","960","536","f","true","nonmatch","img/diamond.png","坏他","好他","prac_ALT2_moral","practice_moral","","","","","","","","",""
