"rt","stimulus","response","trial_type","trial_index","time_elapsed","internal_node_id","swb_1","swb_2","swb_3","swb_4","swb_5","LOT_1","LOT_2","LOT_3","LOT_4","LOT_5","LOT_6","IPC_1","IPC_2","IPC_3","IPC_4","IPC_5","IPC_6","IPC_7","IPC_8","MorIden_1","MorIden_2","MorIden_3","MorIden_4","MorIden_5","MorIden_6","MorIden_7","MorIden_8","MorIden_9","MorIden_10","moralSeImag_1","moralSeImag_2","moralSeImag_3","moralSeImag_4","moralSeImag_5","moralSeImag_6","moralSeImag_7","moralSeImag_8","moralSeImag_9","sde_1","sde_2","sde_3","sde_4","sde_5","sde_6","sde_7","sde_8","sde_9","sde_10","trap2","sde_11","sde_12","sde_13","sde_14","sde_15","sde_16","sde_17","sde_18","sde_19","sde_20","IM_1","IM_2","IM_3","IM_4","IM_5","IM_6","IM_7","IM_8","IM_9","IM_10","IM_11","IM_12","IM_13","IM_14","IM_15","IM_16","IM_17","IM_18","IM_19","IM_20","subj_idx","friend_name","ParticipantID","Sex","Word","Word2","value","success","timeout","failed_images","failed_audio","failed_video","user_agent","responses","item_order","radio_event_ids","radio_event_times","key_event_times","mouse_event_times","straightlining","zigzagging","honeypot","task_id","screen_id","time_stamp","response_type","key_press","avg_frame_time","center_x","center_y","person","word","valence","domain","math","correct_response","correct","status","identity","view_history","duration","Image","condition","question_order","trap2_item"
"28368","
   <p><div style='color:white; font-size: 25px'>您好，欢迎参加本次实验。</div></p>
   <p><div style='color:white; font-size: 25px'>为充分保障您的权利，请确保您已经知晓并同意《参与实验同意书》以及《数据公开知情同意书》。</div></p>
   <p><div style='color:white; font-size: 25px'>如果您未见过上述内容，请咨询实验员。</div></p>
   <p style='color:white; font-size: 25px'>如果您选择继续实验，则表示您已经清楚两份知情同意书的内容并同意。</p>
   <p><div style = ""color: pink;font-size:30px;"">请确保您记得day0的实验编号，您将在本次实验输入该编号，若您忘记，请咨询实验员后作答。</div></p>
   <p><div style = ""color:lightblue;font-size:25px;"">请您尽可能认真地作答，我们将依据您在各问卷和按键任务中的作答质量发放报酬。</div></p>
   <p> <div style = ""color: green""><按空格键至下页></div> </p>
   "," ","html-keyboard-response","0","28369","0.0-0.0","7","6","7","6","5","4","5","5","5","5","5","2","-1","0","1","1","2","2","1","5","5","5","5","4","4","5","4","5","5","7","8","8","6","7","8","7","8","8","7","7","5","7","7","5","5","3","7","7","1","6","5","6","6","6","7","5","7","6","7","6","5","5","7","7","7","6","6","7","7","7","5","7","6","5","7","7","5","7","7","781521029972627457","张","266","Female","[""好我"",""好她"",""坏我"",""坏她""]","[""强我"",""强她"",""弱我"",""弱她""]","","","","","","","","","","","","","","","","","","","","","","","","","","","","","","","","","","","","","","",""
"","","","call-function","1","28370","0.0-1.0-0.0","7","6","7","6","5","4","5","5","5","5","5","2","-1","0","1","1","2","2","1","5","5","5","5","4","4","5","4","5","5","7","8","8","6","7","8","7","8","8","7","7","5","7","7","5","5","3","7","7","1","6","5","6","6","6","7","5","7","6","7","6","5","5","7","7","7","6","6","7","7","7","5","7","6","5","7","7","5","7","7","781521029972627457","张","266","Female","[""好我"",""好她"",""坏我"",""坏她""]","[""强我"",""强她"",""弱我"",""弱她""]","","","","","","","","","","","","","","","","","","","","","","","","","","","","","","","","","","","","","","",""
"23545","","[{""name"":""Sex"",""value"":""1""},{""name"":""friend_name"",""value"":""张""},{""name"":""ParticipantID"",""value"":""266""}]","survey-html-form","2","51915","0.0-1.0-1.0","7","6","7","6","5","4","5","5","5","5","5","2","-1","0","1","1","2","2","1","5","5","5","5","4","4","5","4","5","5","7","8","8","6","7","8","7","8","8","7","7","5","7","7","5","5","3","7","7","1","6","5","6","6","6","7","5","7","6","7","6","5","5","7","7","7","6","6","7","7","7","5","7","6","5","7","7","5","7","7","781521029972627457","张","266","Female","[""好我"",""好她"",""坏我"",""坏她""]","[""强我"",""强她"",""弱我"",""弱她""]","","","","","","","","","","","","","","","","","","","","","","","","","","","","","","","","","","","","","","",""
"","","","preload","3","52292","0.0-2.0","7","6","7","6","5","4","5","5","5","5","5","2","-1","0","1","1","2","2","1","5","5","5","5","4","4","5","4","5","5","7","8","8","6","7","8","7","8","8","7","7","5","7","7","5","5","3","7","7","1","6","5","6","6","6","7","5","7","6","7","6","5","5","7","7","7","6","6","7","7","7","5","7","6","5","7","7","5","7","7","781521029972627457","张","266","Female","[""好我"",""好她"",""坏我"",""坏她""]","[""强我"",""强她"",""弱我"",""弱她""]","","true","false","[]","[]","[]","","","","","","","","","","","","","","","","","","","","","","","","","","","","","","","","",""
"","","","fullscreen","4","90773","0.0-3.0","7","6","7","6","5","4","5","5","5","5","5","2","-1","0","1","1","2","2","1","5","5","5","5","4","4","5","4","5","5","7","8","8","6","7","8","7","8","8","7","7","5","7","7","5","5","3","7","7","1","6","5","6","6","6","7","5","7","6","7","6","5","5","7","7","7","6","6","7","7","7","5","7","6","5","7","7","5","7","7","781521029972627457","张","266","Female","[""好我"",""好她"",""坏我"",""坏她""]","[""强我"",""强她"",""弱我"",""弱她""]","","true","","","","","{}","","","","","","","","","","","","","","","","","","","","","","","","","","","","","","","",""
"26996.700000047684","","{""Q01"":""7"",""Q02"":""6"",""Q03"":""7"",""Q04"":""6"",""Q05"":""5""}","survey-template","5","117771","0.0-4.0","7","6","7","6","5","4","5","5","5","5","5","2","-1","0","1","1","2","2","1","5","5","5","5","4","4","5","4","5","5","7","8","8","6","7","8","7","8","8","7","7","5","7","7","5","5","3","7","7","1","6","5","6","6","6","7","5","7","6","7","6","5","5","7","7","7","6","6","7","7","7","5","7","6","5","7","7","5","7","7","781521029972627457","张","266","Female","[""好我"",""好她"",""坏我"",""坏她""]","[""强我"",""强她"",""弱我"",""弱她""]","","","","","","","","{""Q01"":""7"",""Q02"":""6"",""Q03"":""7"",""Q04"":""6"",""Q05"":""5""}","[0,1,2,3,4]","[""Q01"",""Q02"",""Q03"",""Q05"",""Q04""]","[7082.200000047684,9874.300000071526,11890.5,22331.900000095367,24235.600000023842]","[]","[7082.200000047684,9874.300000071526,11890.5,22331.900000095367,24235.600000023842,26996.100000023842]","0.4","1","0","","","","","","","","","","","","","","","","","","","","","","",""
"38441.10000002384","","{""Q01"":""4"",""Q02"":""5"",""Q03"":""5"",""Q04"":""5"",""Q05"":""5"",""Q06"":""5""}","survey-template","6","156214","0.0-5.0","7","6","7","6","5","4","5","5","5","5","5","2","-1","0","1","1","2","2","1","5","5","5","5","4","4","5","4","5","5","7","8","8","6","7","8","7","8","8","7","7","5","7","7","5","5","3","7","7","1","6","5","6","6","6","7","5","7","6","7","6","5","5","7","7","7","6","6","7","7","7","5","7","6","5","7","7","5","7","7","781521029972627457","张","266","Female","[""好我"",""好她"",""坏我"",""坏她""]","[""强我"",""强她"",""弱我"",""弱她""]","","","","","","","","{""Q01"":""4"",""Q02"":""5"",""Q03"":""5"",""Q04"":""5"",""Q05"":""5"",""Q06"":""5""}","[0,1,2,3,4,5]","[""Q01"",""Q02"",""Q03"",""Q04"",""Q05"",""Q06""]","[6981.5,16926.399999976158,19487,24864.100000023842,27448.100000023842,34648.299999952316]","[]","[6981.5,16926.399999976158,19487,24864.100000023842,27448.100000023842,34648.299999952316,38440.700000047684]","0.5","0.6","0","","","","","","","","","","","","","","","","","","","","","","",""
"55932.10000002384","","{""Q01"":""2"",""Q02"":""-1"",""Q03"":""0"",""Q04"":""1"",""Q05"":""1"",""Q06"":""2"",""Q07"":""2"",""Q08"":""1""}","survey-template","7","212148","0.0-6.0","7","6","7","6","5","4","5","5","5","5","5","2","-1","0","1","1","2","2","1","5","5","5","5","4","4","5","4","5","5","7","8","8","6","7","8","7","8","8","7","7","5","7","7","5","5","3","7","7","1","6","5","6","6","6","7","5","7","6","7","6","5","5","7","7","7","6","6","7","7","7","5","7","6","5","7","7","5","7","7","781521029972627457","张","266","Female","[""好我"",""好她"",""坏我"",""坏她""]","[""强我"",""强她"",""弱我"",""弱她""]","","","","","","","","{""Q01"":""2"",""Q02"":""-1"",""Q03"":""0"",""Q04"":""1"",""Q05"":""1"",""Q06"":""2"",""Q07"":""2"",""Q08"":""1""}","[0,1,2,3,4,5,6,7]","[""Q01"",""Q02"",""Q03"",""Q04"",""Q06"",""Q05"",""Q07"",""Q08""]","[2806,7927,35161.200000047684,38849.700000047684,45466.60000002384,47570.800000071526,50962.89999997616,53803.10000002384]","[]","[2806,7927,35161.200000047684,38849.700000047684,44738.200000047684,45466.60000002384,47570.800000071526,50962.89999997616,53803.10000002384,55931.39999997616]","0.375","0.5714285714285714","0","","","","","","","","","","","","","","","","","","","","","","",""
"12295","
    <p><div style='color:white;font-size:35px; line-height:20px;'>词汇评估任务</div></p><br>
    <p><div style='color:white;font-size:25px; line-height:20px;'>请再次回忆该亲密的朋友，你们至少2年前就认识了，并且最近2年经常见面。</div></p>
    <p><div style='color:white;font-size:25px; line-height:20px;'>在本实验中，您将会看到一些形容词。</div></p>
    <p><div style='color:yellow;font-size:25px; line-height:20px;'>您的任务是判断这些形容词是否符合对您自己或您的朋友的描述。</div></p><p style='font-size:35px'>符合按<span style=""color:lightgreen""> f 键</span>，不符合按<span style=""color:red""> j 键</span></p>","0","html-button-response","8","224445","0.0-7.0-0.0","7","6","7","6","5","4","5","5","5","5","5","2","-1","0","1","1","2","2","1","5","5","5","5","4","4","5","4","5","5","7","8","8","6","7","8","7","8","8","7","7","5","7","7","5","5","3","7","7","1","6","5","6","6","6","7","5","7","6","7","6","5","5","7","7","7","6","6","7","7","7","5","7","6","5","7","7","5","7","7","781521029972627457","张","266","Female","[""好我"",""好她"",""坏我"",""坏她""]","[""强我"",""强她"",""弱我"",""弱她""]","","","","","","","","","","","","","","","","","SRET_EW","EW_instructions","Fri Jan 19 2024 08:58:27 GMT+0800 (中国标准时间)","","","","","","","","","","","","","","","","","","","",""
"1565","","j","psychophysics","9","227012","0.0-7.0-1.0-0.0","7","6","7","6","5","4","5","5","5","5","5","2","-1","0","1","1","2","2","1","5","5","5","5","4","4","5","4","5","5","7","8","8","6","7","8","7","8","8","7","7","5","7","7","5","5","3","7","7","1","6","5","6","6","6","7","5","7","6","7","6","5","5","7","7","7","6","6","7","7","7","5","7","6","5","7","7","5","7","7","781521029972627457","张","266","Female","[""好我"",""好她"",""坏我"",""坏她""]","[""强我"",""强她"",""弱我"",""弱她""]","","","","","","","","no","","","","","","","","","SRET_EW","EW_practice","","key","j","16.679870129870206","1280","716","朋友","徇私","Negative","morality","","","","","","","","","","",""
"1271","","f","psychophysics","10","229285","0.0-7.0-1.0-0.1","7","6","7","6","5","4","5","5","5","5","5","2","-1","0","1","1","2","2","1","5","5","5","5","4","4","5","4","5","5","7","8","8","6","7","8","7","8","8","7","7","5","7","7","5","5","3","7","7","1","6","5","6","6","6","7","5","7","6","7","6","5","5","7","7","7","6","6","7","7","7","5","7","6","5","7","7","5","7","7","781521029972627457","张","266","Female","[""好我"",""好她"",""坏我"",""坏她""]","[""强我"",""强她"",""弱我"",""弱她""]","","","","","","","","yes","","","","","","","","","SRET_EW","EW_practice","","key","f","16.68148148148148","1280","716","自己","严谨","Positive","ability","","","","","","","","","","",""
"1360","","j","psychophysics","11","231645","0.0-7.0-1.0-0.2","7","6","7","6","5","4","5","5","5","5","5","2","-1","0","1","1","2","2","1","5","5","5","5","4","4","5","4","5","5","7","8","8","6","7","8","7","8","8","7","7","5","7","7","5","5","3","7","7","1","6","5","6","6","6","7","5","7","6","7","6","5","5","7","7","7","6","6","7","7","7","5","7","6","5","7","7","5","7","7","781521029972627457","张","266","Female","[""好我"",""好她"",""坏我"",""坏她""]","[""强我"",""强她"",""弱我"",""弱她""]","","","","","","","","no","","","","","","","","","SRET_EW","EW_practice","","key","j","16.680141843971796","1280","716","自己","刻板","Negative","ability","","","","","","","","","","",""
"919","","f","psychophysics","12","233565","0.0-7.0-1.0-0.3","7","6","7","6","5","4","5","5","5","5","5","2","-1","0","1","1","2","2","1","5","5","5","5","4","4","5","4","5","5","7","8","8","6","7","8","7","8","8","7","7","5","7","7","5","5","3","7","7","1","6","5","6","6","6","7","5","7","6","7","6","5","5","7","7","7","6","6","7","7","7","5","7","6","5","7","7","5","7","7","781521029972627457","张","266","Female","[""好我"",""好她"",""坏我"",""坏她""]","[""强我"",""强她"",""弱我"",""弱她""]","","","","","","","","yes","","","","","","","","","SRET_EW","EW_practice","","key","f","16.67982456140351","1280","716","朋友","忠实","Positive","morality","","","","","","","","","","",""
"12353","
    <p><div style='color:white;font-size:35px; line-height:20px;'>请您再次阅读实验要求</div></p><br>
    <p><div style='color:white;font-size:25px; line-height:20px;'>请回忆某一个亲密的朋友，你们至少2年前就认识了，并且最近2年经常见面。</div></p>
    <p><div style='color:white;font-size:25px; line-height:20px;'>在本实验中，您将会看到一些形容词。</div></p>
    <p><div style='color:yellow;font-size:25px; line-height:20px;'>您的任务是判断这些形容词是否符合对您自己或您的朋友的描述。</div></p>
    <p><div class='footer' style='font-size:25px; line-height:20px;'>如果对本实验还有不清楚之处，请立即向实验员咨询。</p><p style='font-size:25px; line-height:20px;'>如果您明白了规则：</p><p style='font-size:22px; line-height:20px;'>请按 继续 进入正式实验</p>
    </div>
    <p style='font-size:35px'>符合按<span style=""color:lightgreen""> f 键</span>，不符合按<span style=""color:red""> j 键</span></p>","0","html-button-response","13","245919","0.0-7.0-2.0","7","6","7","6","5","4","5","5","5","5","5","2","-1","0","1","1","2","2","1","5","5","5","5","4","4","5","4","5","5","7","8","8","6","7","8","7","8","8","7","7","5","7","7","5","5","3","7","7","1","6","5","6","6","6","7","5","7","6","7","6","5","5","7","7","7","6","6","7","7","7","5","7","6","5","7","7","5","7","7","781521029972627457","张","266","Female","[""好我"",""好她"",""坏我"",""坏她""]","[""强我"",""强她"",""弱我"",""弱她""]","","","","","","","","","","","","","","","","","SRET_EW","prac_instructions","Fri Jan 19 2024 08:58:27 GMT+0800 (中国标准时间)","","","","","","","","","","","","","","","","","","","",""
"1006","","j","psychophysics","14","247927","0.0-7.0-3.0-0.0","7","6","7","6","5","4","5","5","5","5","5","2","-1","0","1","1","2","2","1","5","5","5","5","4","4","5","4","5","5","7","8","8","6","7","8","7","8","8","7","7","5","7","7","5","5","3","7","7","1","6","5","6","6","6","7","5","7","6","7","6","5","5","7","7","7","6","6","7","7","7","5","7","6","5","7","7","5","7","7","781521029972627457","张","266","Female","[""好我"",""好她"",""坏我"",""坏她""]","[""强我"",""强她"",""弱我"",""弱她""]","","","","","","","","no","","","","","","","","","SRET","EW_formal","","key","j","16.680165289256344","1280","716","自己","说谎","Negative","morality","","","","","","","","","","",""
"616","","f","psychophysics","15","249543","0.0-7.0-3.0-0.1","7","6","7","6","5","4","5","5","5","5","5","2","-1","0","1","1","2","2","1","5","5","5","5","4","4","5","4","5","5","7","8","8","6","7","8","7","8","8","7","7","5","7","7","5","5","3","7","7","1","6","5","6","6","6","7","5","7","6","7","6","5","5","7","7","7","6","6","7","7","7","5","7","6","5","7","7","5","7","7","781521029972627457","张","266","Female","[""好我"",""好她"",""坏我"",""坏她""]","[""强我"",""强她"",""弱我"",""弱她""]","","","","","","","","yes","","","","","","","","","SRET","EW_formal","","key","f","16.68000000000006","1280","716","朋友","务实","Positive","ability","","","","","","","","","","",""
"823","","f","psychophysics","16","251367","0.0-7.0-3.0-0.2","7","6","7","6","5","4","5","5","5","5","5","2","-1","0","1","1","2","2","1","5","5","5","5","4","4","5","4","5","5","7","8","8","6","7","8","7","8","8","7","7","5","7","7","5","5","3","7","7","1","6","5","6","6","6","7","5","7","6","7","6","5","5","7","7","7","6","6","7","7","7","5","7","6","5","7","7","5","7","7","781521029972627457","张","266","Female","[""好我"",""好她"",""坏我"",""坏她""]","[""强我"",""强她"",""弱我"",""弱她""]","","","","","","","","yes","","","","","","","","","SRET","EW_formal","","key","f","16.680733944954234","1280","716","自己","坚贞","Positive","morality","","","","","","","","","","",""
"999","","j","psychophysics","17","253367","0.0-7.0-3.0-0.3","7","6","7","6","5","4","5","5","5","5","5","2","-1","0","1","1","2","2","1","5","5","5","5","4","4","5","4","5","5","7","8","8","6","7","8","7","8","8","7","7","5","7","7","5","5","3","7","7","1","6","5","6","6","6","7","5","7","6","7","6","5","5","7","7","7","6","6","7","7","7","5","7","6","5","7","7","5","7","7","781521029972627457","张","266","Female","[""好我"",""好她"",""坏我"",""坏她""]","[""强我"",""强她"",""弱我"",""弱她""]","","","","","","","","no","","","","","","","","","SRET","EW_formal","","key","j","16.680672268907564","1280","716","朋友","迷糊","Negative","ability","","","","","","","","","","",""
"902","","j","psychophysics","18","255271","0.0-7.0-3.0-0.4","7","6","7","6","5","4","5","5","5","5","5","2","-1","0","1","1","2","2","1","5","5","5","5","4","4","5","4","5","5","7","8","8","6","7","8","7","8","8","7","7","5","7","7","5","5","3","7","7","1","6","5","6","6","6","7","5","7","6","7","6","5","5","7","7","7","6","6","7","7","7","5","7","6","5","7","7","5","7","7","781521029972627457","张","266","Female","[""好我"",""好她"",""坏我"",""坏她""]","[""强我"",""强她"",""弱我"",""弱她""]","","","","","","","","no","","","","","","","","","SRET","EW_formal","","key","j","16.67964601769927","1280","716","朋友","愚钝","Negative","ability","","","","","","","","","","",""
"1111","","j","psychophysics","19","257383","0.0-7.0-3.0-0.5","7","6","7","6","5","4","5","5","5","5","5","2","-1","0","1","1","2","2","1","5","5","5","5","4","4","5","4","5","5","7","8","8","6","7","8","7","8","8","7","7","5","7","7","5","5","3","7","7","1","6","5","6","6","6","7","5","7","6","7","6","5","5","7","7","7","6","6","7","7","7","5","7","6","5","7","7","5","7","7","781521029972627457","张","266","Female","[""好我"",""好她"",""坏我"",""坏她""]","[""强我"",""强她"",""弱我"",""弱她""]","","","","","","","","no","","","","","","","","","SRET","EW_formal","","key","j","16.81532258064521","1280","716","自己","新手","Negative","ability","","","","","","","","","","",""
"1534","","j","psychophysics","20","259920","0.0-7.0-3.0-0.6","7","6","7","6","5","4","5","5","5","5","5","2","-1","0","1","1","2","2","1","5","5","5","5","4","4","5","4","5","5","7","8","8","6","7","8","7","8","8","7","7","5","7","7","5","5","3","7","7","1","6","5","6","6","6","7","5","7","6","7","6","5","5","7","7","7","6","6","7","7","7","5","7","6","5","7","7","5","7","7","781521029972627457","张","266","Female","[""好我"",""好她"",""坏我"",""坏她""]","[""强我"",""强她"",""弱我"",""弱她""]","","","","","","","","no","","","","","","","","","SRET","EW_formal","","key","j","16.68013245033101","1280","716","自己","怠惰","Negative","ability","","","","","","","","","","",""
"712","","f","psychophysics","21","261632","0.0-7.0-3.0-0.7","7","6","7","6","5","4","5","5","5","5","5","2","-1","0","1","1","2","2","1","5","5","5","5","4","4","5","4","5","5","7","8","8","6","7","8","7","8","8","7","7","5","7","7","5","5","3","7","7","1","6","5","6","6","6","7","5","7","6","7","6","5","5","7","7","7","6","6","7","7","7","5","7","6","5","7","7","5","7","7","781521029972627457","张","266","Female","[""好我"",""好她"",""坏我"",""坏她""]","[""强我"",""强她"",""弱我"",""弱她""]","","","","","","","","yes","","","","","","","","","SRET","EW_formal","","key","f","16.680392156862972","1280","716","自己","细心","Positive","ability","","","","","","","","","","",""
"767","","j","psychophysics","22","263400","0.0-7.0-3.0-0.8","7","6","7","6","5","4","5","5","5","5","5","2","-1","0","1","1","2","2","1","5","5","5","5","4","4","5","4","5","5","7","8","8","6","7","8","7","8","8","7","7","5","7","7","5","5","3","7","7","1","6","5","6","6","6","7","5","7","6","7","6","5","5","7","7","7","6","6","7","7","7","5","7","6","5","7","7","5","7","7","781521029972627457","张","266","Female","[""好我"",""好她"",""坏我"",""坏她""]","[""强我"",""强她"",""弱我"",""弱她""]","","","","","","","","no","","","","","","","","","SRET","EW_formal","","key","j","16.68095238095238","1280","716","朋友","无耻","Negative","morality","","","","","","","","","","",""
"831","","j","psychophysics","23","265232","0.0-7.0-3.0-0.9","7","6","7","6","5","4","5","5","5","5","5","2","-1","0","1","1","2","2","1","5","5","5","5","4","4","5","4","5","5","7","8","8","6","7","8","7","8","8","7","7","5","7","7","5","5","3","7","7","1","6","5","6","6","6","7","5","7","6","7","6","5","5","7","7","7","6","6","7","7","7","5","7","6","5","7","7","5","7","7","781521029972627457","张","266","Female","[""好我"",""好她"",""坏我"",""坏她""]","[""强我"",""强她"",""弱我"",""弱她""]","","","","","","","","no","","","","","","","","","SRET","EW_formal","","key","j","16.680733944954234","1280","716","自己","拖拉","Negative","ability","","","","","","","","","","",""
"799","","j","psychophysics","24","267032","0.0-7.0-3.0-0.10","7","6","7","6","5","4","5","5","5","5","5","2","-1","0","1","1","2","2","1","5","5","5","5","4","4","5","4","5","5","7","8","8","6","7","8","7","8","8","7","7","5","7","7","5","5","3","7","7","1","6","5","6","6","6","7","5","7","6","7","6","5","5","7","7","7","6","6","7","7","7","5","7","6","5","7","7","5","7","7","781521029972627457","张","266","Female","[""好我"",""好她"",""坏我"",""坏她""]","[""强我"",""强她"",""弱我"",""弱她""]","","","","","","","","no","","","","","","","","","SRET","EW_formal","","key","j","16.680373831776137","1280","716","朋友","笨蛋","Negative","ability","","","","","","","","","","",""
"855","","f","psychophysics","25","268889","0.0-7.0-3.0-0.11","7","6","7","6","5","4","5","5","5","5","5","2","-1","0","1","1","2","2","1","5","5","5","5","4","4","5","4","5","5","7","8","8","6","7","8","7","8","8","7","7","5","7","7","5","5","3","7","7","1","6","5","6","6","6","7","5","7","6","7","6","5","5","7","7","7","6","6","7","7","7","5","7","6","5","7","7","5","7","7","781521029972627457","张","266","Female","[""好我"",""好她"",""坏我"",""坏她""]","[""强我"",""强她"",""弱我"",""弱她""]","","","","","","","","yes","","","","","","","","","SRET","EW_formal","","key","f","16.680000000000422","1280","716","自己","全才","Positive","ability","","","","","","","","","","",""
"1032","","j","psychophysics","26","270921","0.0-7.0-3.0-0.12","7","6","7","6","5","4","5","5","5","5","5","2","-1","0","1","1","2","2","1","5","5","5","5","4","4","5","4","5","5","7","8","8","6","7","8","7","8","8","7","7","5","7","7","5","5","3","7","7","1","6","5","6","6","6","7","5","7","6","7","6","5","5","7","7","7","6","6","7","7","7","5","7","6","5","7","7","5","7","7","781521029972627457","张","266","Female","[""好我"",""好她"",""坏我"",""坏她""]","[""强我"",""强她"",""弱我"",""弱她""]","","","","","","","","no","","","","","","","","","SRET","EW_formal","","key","j","16.680165289256582","1280","716","朋友","偏私","Negative","morality","","","","","","","","","","",""
"711","","j","psychophysics","27","272633","0.0-7.0-3.0-0.13","7","6","7","6","5","4","5","5","5","5","5","2","-1","0","1","1","2","2","1","5","5","5","5","4","4","5","4","5","5","7","8","8","6","7","8","7","8","8","7","7","5","7","7","5","5","3","7","7","1","6","5","6","6","6","7","5","7","6","7","6","5","5","7","7","7","6","6","7","7","7","5","7","6","5","7","7","5","7","7","781521029972627457","张","266","Female","[""好我"",""好她"",""坏我"",""坏她""]","[""强我"",""强她"",""弱我"",""弱她""]","","","","","","","","no","","","","","","","","","SRET","EW_formal","","key","j","16.681372549019606","1280","716","朋友","缺德","Negative","morality","","","","","","","","","","",""
"1263","","j","psychophysics","28","274897","0.0-7.0-3.0-0.14","7","6","7","6","5","4","5","5","5","5","5","2","-1","0","1","1","2","2","1","5","5","5","5","4","4","5","4","5","5","7","8","8","6","7","8","7","8","8","7","7","5","7","7","5","5","3","7","7","1","6","5","6","6","6","7","5","7","6","7","6","5","5","7","7","7","6","6","7","7","7","5","7","6","5","7","7","5","7","7","781521029972627457","张","266","Female","[""好我"",""好她"",""坏我"",""坏她""]","[""强我"",""强她"",""弱我"",""弱她""]","","","","","","","","no","","","","","","","","","SRET","EW_formal","","key","j","16.67985074626848","1280","716","自己","思辨","Positive","ability","","","","","","","","","","",""
"775","","f","psychophysics","29","276673","0.0-7.0-3.0-0.15","7","6","7","6","5","4","5","5","5","5","5","2","-1","0","1","1","2","2","1","5","5","5","5","4","4","5","4","5","5","7","8","8","6","7","8","7","8","8","7","7","5","7","7","5","5","3","7","7","1","6","5","6","6","6","7","5","7","6","7","6","5","5","7","7","7","6","6","7","7","7","5","7","6","5","7","7","5","7","7","781521029972627457","张","266","Female","[""好我"",""好她"",""坏我"",""坏她""]","[""强我"",""强她"",""弱我"",""弱她""]","","","","","","","","yes","","","","","","","","","SRET","EW_formal","","key","f","16.680188679245614","1280","716","自己","守信","Positive","morality","","","","","","","","","","",""
"null","","null","psychophysics","30","279678","0.0-7.0-3.0-0.16","7","6","7","6","5","4","5","5","5","5","5","2","-1","0","1","1","2","2","1","5","5","5","5","4","4","5","4","5","5","7","8","8","6","7","8","7","8","8","7","7","5","7","7","5","5","3","7","7","1","6","5","6","6","6","7","5","7","6","7","6","5","5","7","7","7","6","6","7","7","7","5","7","6","5","7","7","5","7","7","781521029972627457","张","266","Female","[""好我"",""好她"",""坏我"",""坏她""]","[""强我"",""强她"",""弱我"",""弱她""]","","","","","","","","","","","","","","","","","SRET","EW_formal","","key","null","16.680446927374238","1280","716","自己","博学","Positive","ability","","","","","","","","","","",""
"699","","j","psychophysics","31","281378","0.0-7.0-3.0-0.17","7","6","7","6","5","4","5","5","5","5","5","2","-1","0","1","1","2","2","1","5","5","5","5","4","4","5","4","5","5","7","8","8","6","7","8","7","8","8","7","7","5","7","7","5","5","3","7","7","1","6","5","6","6","6","7","5","7","6","7","6","5","5","7","7","7","6","6","7","7","7","5","7","6","5","7","7","5","7","7","781521029972627457","张","266","Female","[""好我"",""好她"",""坏我"",""坏她""]","[""强我"",""强她"",""弱我"",""弱她""]","","","","","","","","no","","","","","","","","","SRET","EW_formal","","key","j","16.680198019802095","1280","716","自己","淫乱","Negative","morality","","","","","","","","","","",""
"927","","f","psychophysics","32","283306","0.0-7.0-3.0-0.18","7","6","7","6","5","4","5","5","5","5","5","2","-1","0","1","1","2","2","1","5","5","5","5","4","4","5","4","5","5","7","8","8","6","7","8","7","8","8","7","7","5","7","7","5","5","3","7","7","1","6","5","6","6","6","7","5","7","6","7","6","5","5","7","7","7","6","6","7","7","7","5","7","6","5","7","7","5","7","7","781521029972627457","张","266","Female","[""好我"",""好她"",""坏我"",""坏她""]","[""强我"",""强她"",""弱我"",""弱她""]","","","","","","","","yes","","","","","","","","","SRET","EW_formal","","key","f","16.680000000000103","1280","716","朋友","懂行","Positive","ability","","","","","","","","","","",""
"792","","f","psychophysics","33","285098","0.0-7.0-3.0-0.19","7","6","7","6","5","4","5","5","5","5","5","2","-1","0","1","1","2","2","1","5","5","5","5","4","4","5","4","5","5","7","8","8","6","7","8","7","8","8","7","7","5","7","7","5","5","3","7","7","1","6","5","6","6","6","7","5","7","6","7","6","5","5","7","7","7","6","6","7","7","7","5","7","6","5","7","7","5","7","7","781521029972627457","张","266","Female","[""好我"",""好她"",""坏我"",""坏她""]","[""强我"",""强她"",""弱我"",""弱她""]","","","","","","","","yes","","","","","","","","","SRET","EW_formal","","key","f","16.680188679245063","1280","716","朋友","清廉","Positive","morality","","","","","","","","","","",""
"759","","j","psychophysics","34","286858","0.0-7.0-3.0-0.20","7","6","7","6","5","4","5","5","5","5","5","2","-1","0","1","1","2","2","1","5","5","5","5","4","4","5","4","5","5","7","8","8","6","7","8","7","8","8","7","7","5","7","7","5","5","3","7","7","1","6","5","6","6","6","7","5","7","6","7","6","5","5","7","7","7","6","6","7","7","7","5","7","6","5","7","7","5","7","7","781521029972627457","张","266","Female","[""好我"",""好她"",""坏我"",""坏她""]","[""强我"",""强她"",""弱我"",""弱她""]","","","","","","","","no","","","","","","","","","SRET","EW_formal","","key","j","16.68076923076912","1280","716","朋友","虚伪","Negative","morality","","","","","","","","","","",""
"680","","j","psychophysics","35","288539","0.0-7.0-3.0-0.21","7","6","7","6","5","4","5","5","5","5","5","2","-1","0","1","1","2","2","1","5","5","5","5","4","4","5","4","5","5","7","8","8","6","7","8","7","8","8","7","7","5","7","7","5","5","3","7","7","1","6","5","6","6","6","7","5","7","6","7","6","5","5","7","7","7","6","6","7","7","7","5","7","6","5","7","7","5","7","7","781521029972627457","张","266","Female","[""好我"",""好她"",""坏我"",""坏她""]","[""强我"",""强她"",""弱我"",""弱她""]","","","","","","","","no","","","","","","","","","SRET","EW_formal","","key","j","16.682999999999883","1280","716","自己","愚痴","Negative","ability","","","","","","","","","","",""
"599","","j","psychophysics","36","290139","0.0-7.0-3.0-0.22","7","6","7","6","5","4","5","5","5","5","5","2","-1","0","1","1","2","2","1","5","5","5","5","4","4","5","4","5","5","7","8","8","6","7","8","7","8","8","7","7","5","7","7","5","5","3","7","7","1","6","5","6","6","6","7","5","7","6","7","6","5","5","7","7","7","6","6","7","7","7","5","7","6","5","7","7","5","7","7","781521029972627457","张","266","Female","[""好我"",""好她"",""坏我"",""坏她""]","[""强我"",""强她"",""弱我"",""弱她""]","","","","","","","","no","","","","","","","","","SRET","EW_formal","","key","j","16.678947368421053","1280","716","朋友","拙笨","Negative","ability","","","","","","","","","","",""
"671","","f","psychophysics","37","291811","0.0-7.0-3.0-0.23","7","6","7","6","5","4","5","5","5","5","5","2","-1","0","1","1","2","2","1","5","5","5","5","4","4","5","4","5","5","7","8","8","6","7","8","7","8","8","7","7","5","7","7","5","5","3","7","7","1","6","5","6","6","6","7","5","7","6","7","6","5","5","7","7","7","6","6","7","7","7","5","7","6","5","7","7","5","7","7","781521029972627457","张","266","Female","[""好我"",""好她"",""坏我"",""坏她""]","[""强我"",""强她"",""弱我"",""弱她""]","","","","","","","","yes","","","","","","","","","SRET","EW_formal","","key","f","16.68080808080773","1280","716","自己","娴熟","Positive","ability","","","","","","","","","","",""
"792","","j","psychophysics","38","293604","0.0-7.0-3.0-0.24","7","6","7","6","5","4","5","5","5","5","5","2","-1","0","1","1","2","2","1","5","5","5","5","4","4","5","4","5","5","7","8","8","6","7","8","7","8","8","7","7","5","7","7","5","5","3","7","7","1","6","5","6","6","6","7","5","7","6","7","6","5","5","7","7","7","6","6","7","7","7","5","7","6","5","7","7","5","7","7","781521029972627457","张","266","Female","[""好我"",""好她"",""坏我"",""坏她""]","[""强我"",""强她"",""弱我"",""弱她""]","","","","","","","","no","","","","","","","","","SRET","EW_formal","","key","j","16.682242990654206","1280","716","朋友","不端","Negative","morality","","","","","","","","","","",""
"582","","f","psychophysics","39","295187","0.0-7.0-3.0-0.25","7","6","7","6","5","4","5","5","5","5","5","2","-1","0","1","1","2","2","1","5","5","5","5","4","4","5","4","5","5","7","8","8","6","7","8","7","8","8","7","7","5","7","7","5","5","3","7","7","1","6","5","6","6","6","7","5","7","6","7","6","5","5","7","7","7","6","6","7","7","7","5","7","6","5","7","7","5","7","7","781521029972627457","张","266","Female","[""好我"",""好她"",""坏我"",""坏她""]","[""强我"",""强她"",""弱我"",""弱她""]","","","","","","","","yes","","","","","","","","","SRET","EW_formal","","key","f","16.680851063829788","1280","716","自己","高尚","Positive","morality","","","","","","","","","","",""
"576","","f","psychophysics","40","296763","0.0-7.0-3.0-0.26","7","6","7","6","5","4","5","5","5","5","5","2","-1","0","1","1","2","2","1","5","5","5","5","4","4","5","4","5","5","7","8","8","6","7","8","7","8","8","7","7","5","7","7","5","5","3","7","7","1","6","5","6","6","6","7","5","7","6","7","6","5","5","7","7","7","6","6","7","7","7","5","7","6","5","7","7","5","7","7","781521029972627457","张","266","Female","[""好我"",""好她"",""坏我"",""坏她""]","[""强我"",""强她"",""弱我"",""弱她""]","","","","","","","","yes","","","","","","","","","SRET","EW_formal","","key","f","16.680645161290823","1280","716","自己","守时","Positive","morality","","","","","","","","","","",""
"840","","f","psychophysics","41","298603","0.0-7.0-3.0-0.27","7","6","7","6","5","4","5","5","5","5","5","2","-1","0","1","1","2","2","1","5","5","5","5","4","4","5","4","5","5","7","8","8","6","7","8","7","8","8","7","7","5","7","7","5","5","3","7","7","1","6","5","6","6","6","7","5","7","6","7","6","5","5","7","7","7","6","6","7","7","7","5","7","6","5","7","7","5","7","7","781521029972627457","张","266","Female","[""好我"",""好她"",""坏我"",""坏她""]","[""强我"",""强她"",""弱我"",""弱她""]","","","","","","","","yes","","","","","","","","","SRET","EW_formal","","key","f","16.680000000000422","1280","716","朋友","精干","Positive","ability","","","","","","","","","","",""
"767","","j","psychophysics","42","300372","0.0-7.0-3.0-0.28","7","6","7","6","5","4","5","5","5","5","5","2","-1","0","1","1","2","2","1","5","5","5","5","4","4","5","4","5","5","7","8","8","6","7","8","7","8","8","7","7","5","7","7","5","5","3","7","7","1","6","5","6","6","6","7","5","7","6","7","6","5","5","7","7","7","6","6","7","7","7","5","7","6","5","7","7","5","7","7","781521029972627457","张","266","Female","[""好我"",""好她"",""坏我"",""坏她""]","[""强我"",""强她"",""弱我"",""弱她""]","","","","","","","","no","","","","","","","","","SRET","EW_formal","","key","j","16.68095238095238","1280","716","自己","蛇蝎","Negative","morality","","","","","","","","","","",""
"623","","f","psychophysics","43","301996","0.0-7.0-3.0-0.29","7","6","7","6","5","4","5","5","5","5","5","2","-1","0","1","1","2","2","1","5","5","5","5","4","4","5","4","5","5","7","8","8","6","7","8","7","8","8","7","7","5","7","7","5","5","3","7","7","1","6","5","6","6","6","7","5","7","6","7","6","5","5","7","7","7","6","6","7","7","7","5","7","6","5","7","7","5","7","7","781521029972627457","张","266","Female","[""好我"",""好她"",""坏我"",""坏她""]","[""强我"",""强她"",""弱我"",""弱她""]","","","","","","","","yes","","","","","","","","","SRET","EW_formal","","key","f","16.680208333333212","1280","716","自己","周到","Positive","ability","","","","","","","","","","",""
"800","","f","psychophysics","44","303796","0.0-7.0-3.0-0.30","7","6","7","6","5","4","5","5","5","5","5","2","-1","0","1","1","2","2","1","5","5","5","5","4","4","5","4","5","5","7","8","8","6","7","8","7","8","8","7","7","5","7","7","5","5","3","7","7","1","6","5","6","6","6","7","5","7","6","7","6","5","5","7","7","7","6","6","7","7","7","5","7","6","5","7","7","5","7","7","781521029972627457","张","266","Female","[""好我"",""好她"",""坏我"",""坏她""]","[""强我"",""强她"",""弱我"",""弱她""]","","","","","","","","yes","","","","","","","","","SRET","EW_formal","","key","f","16.679439252336557","1280","716","自己","爱国","Positive","morality","","","","","","","","","","",""
"664","","j","psychophysics","45","305459","0.0-7.0-3.0-0.31","7","6","7","6","5","4","5","5","5","5","5","2","-1","0","1","1","2","2","1","5","5","5","5","4","4","5","4","5","5","7","8","8","6","7","8","7","8","8","7","7","5","7","7","5","5","3","7","7","1","6","5","6","6","6","7","5","7","6","7","6","5","5","7","7","7","6","6","7","7","7","5","7","6","5","7","7","5","7","7","781521029972627457","张","266","Female","[""好我"",""好她"",""坏我"",""坏她""]","[""强我"",""强她"",""弱我"",""弱她""]","","","","","","","","no","","","","","","","","","SRET","EW_formal","","key","j","16.67979797979786","1280","716","自己","弱智","Negative","ability","","","","","","","","","","",""
"567","","f","psychophysics","46","307028","0.0-7.0-3.0-0.32","7","6","7","6","5","4","5","5","5","5","5","2","-1","0","1","1","2","2","1","5","5","5","5","4","4","5","4","5","5","7","8","8","6","7","8","7","8","8","7","7","5","7","7","5","5","3","7","7","1","6","5","6","6","6","7","5","7","6","7","6","5","5","7","7","7","6","6","7","7","7","5","7","6","5","7","7","5","7","7","781521029972627457","张","266","Female","[""好我"",""好她"",""坏我"",""坏她""]","[""强我"",""强她"",""弱我"",""弱她""]","","","","","","","","yes","","","","","","","","","SRET","EW_formal","","key","f","16.679569892473243","1280","716","自己","仁爱","Positive","morality","","","","","","","","","","",""
"647","","j","psychophysics","47","308676","0.0-7.0-3.0-0.33","7","6","7","6","5","4","5","5","5","5","5","2","-1","0","1","1","2","2","1","5","5","5","5","4","4","5","4","5","5","7","8","8","6","7","8","7","8","8","7","7","5","7","7","5","5","3","7","7","1","6","5","6","6","6","7","5","7","6","7","6","5","5","7","7","7","6","6","7","7","7","5","7","6","5","7","7","5","7","7","781521029972627457","张","266","Female","[""好我"",""好她"",""坏我"",""坏她""]","[""强我"",""强她"",""弱我"",""弱她""]","","","","","","","","no","","","","","","","","","SRET","EW_formal","","key","j","16.68041237113402","1280","716","自己","毛糙","Negative","ability","","","","","","","","","","",""
"548","","j","psychophysics","48","310228","0.0-7.0-3.0-0.34","7","6","7","6","5","4","5","5","5","5","5","2","-1","0","1","1","2","2","1","5","5","5","5","4","4","5","4","5","5","7","8","8","6","7","8","7","8","8","7","7","5","7","7","5","5","3","7","7","1","6","5","6","6","6","7","5","7","6","7","6","5","5","7","7","7","6","6","7","7","7","5","7","6","5","7","7","5","7","7","781521029972627457","张","266","Female","[""好我"",""好她"",""坏我"",""坏她""]","[""强我"",""强她"",""弱我"",""弱她""]","","","","","","","","no","","","","","","","","","SRET","EW_formal","","key","j","16.680645161290197","1280","716","朋友","马虎","Negative","ability","","","","","","","","","","",""
"536","","f","psychophysics","49","311764","0.0-7.0-3.0-0.35","7","6","7","6","5","4","5","5","5","5","5","2","-1","0","1","1","2","2","1","5","5","5","5","4","4","5","4","5","5","7","8","8","6","7","8","7","8","8","7","7","5","7","7","5","5","3","7","7","1","6","5","6","6","6","7","5","7","6","7","6","5","5","7","7","7","6","6","7","7","7","5","7","6","5","7","7","5","7","7","781521029972627457","张","266","Female","[""好我"",""好她"",""坏我"",""坏她""]","[""强我"",""强她"",""弱我"",""弱她""]","","","","","","","","yes","","","","","","","","","SRET","EW_formal","","key","f","16.680219780220035","1280","716","朋友","善心","Positive","morality","","","","","","","","","","",""
"551","","j","psychophysics","50","313316","0.0-7.0-3.0-0.36","7","6","7","6","5","4","5","5","5","5","5","2","-1","0","1","1","2","2","1","5","5","5","5","4","4","5","4","5","5","7","8","8","6","7","8","7","8","8","7","7","5","7","7","5","5","3","7","7","1","6","5","6","6","6","7","5","7","6","7","6","5","5","7","7","7","6","6","7","7","7","5","7","6","5","7","7","5","7","7","781521029972627457","张","266","Female","[""好我"",""好她"",""坏我"",""坏她""]","[""强我"",""强她"",""弱我"",""弱她""]","","","","","","","","no","","","","","","","","","SRET","EW_formal","","key","j","16.683695652174166","1280","716","自己","背叛","Negative","morality","","","","","","","","","","",""
"656","","f","psychophysics","51","314972","0.0-7.0-3.0-0.37","7","6","7","6","5","4","5","5","5","5","5","2","-1","0","1","1","2","2","1","5","5","5","5","4","4","5","4","5","5","7","8","8","6","7","8","7","8","8","7","7","5","7","7","5","5","3","7","7","1","6","5","6","6","6","7","5","7","6","7","6","5","5","7","7","7","6","6","7","7","7","5","7","6","5","7","7","5","7","7","781521029972627457","张","266","Female","[""好我"",""好她"",""坏我"",""坏她""]","[""强我"",""强她"",""弱我"",""弱她""]","","","","","","","","yes","","","","","","","","","SRET","EW_formal","","key","f","16.6775510204084","1280","716","自己","利落","Positive","ability","","","","","","","","","","",""
"639","","j","psychophysics","52","316612","0.0-7.0-3.0-0.38","7","6","7","6","5","4","5","5","5","5","5","2","-1","0","1","1","2","2","1","5","5","5","5","4","4","5","4","5","5","7","8","8","6","7","8","7","8","8","7","7","5","7","7","5","5","3","7","7","1","6","5","6","6","6","7","5","7","6","7","6","5","5","7","7","7","6","6","7","7","7","5","7","6","5","7","7","5","7","7","781521029972627457","张","266","Female","[""好我"",""好她"",""坏我"",""坏她""]","[""强我"",""强她"",""弱我"",""弱她""]","","","","","","","","no","","","","","","","","","SRET","EW_formal","","key","j","16.67938144329921","1280","716","自己","不仁","Negative","morality","","","","","","","","","","",""
"663","","j","psychophysics","53","318277","0.0-7.0-3.0-0.39","7","6","7","6","5","4","5","5","5","5","5","2","-1","0","1","1","2","2","1","5","5","5","5","4","4","5","4","5","5","7","8","8","6","7","8","7","8","8","7","7","5","7","7","5","5","3","7","7","1","6","5","6","6","6","7","5","7","6","7","6","5","5","7","7","7","6","6","7","7","7","5","7","6","5","7","7","5","7","7","781521029972627457","张","266","Female","[""好我"",""好她"",""坏我"",""坏她""]","[""强我"",""强她"",""弱我"",""弱她""]","","","","","","","","no","","","","","","","","","SRET","EW_formal","","key","j","16.67979797979786","1280","716","自己","混账","Negative","morality","","","","","","","","","","",""
"559","","f","psychophysics","54","319837","0.0-7.0-3.0-0.40","7","6","7","6","5","4","5","5","5","5","5","2","-1","0","1","1","2","2","1","5","5","5","5","4","4","5","4","5","5","7","8","8","6","7","8","7","8","8","7","7","5","7","7","5","5","3","7","7","1","6","5","6","6","6","7","5","7","6","7","6","5","5","7","7","7","6","6","7","7","7","5","7","6","5","7","7","5","7","7","781521029972627457","张","266","Female","[""好我"",""好她"",""坏我"",""坏她""]","[""强我"",""强她"",""弱我"",""弱她""]","","","","","","","","yes","","","","","","","","","SRET","EW_formal","","key","f","16.680645161290197","1280","716","自己","依靠","Negative","ability","","","","","","","","","","",""
"695","","j","psychophysics","55","321533","0.0-7.0-3.0-0.41","7","6","7","6","5","4","5","5","5","5","5","2","-1","0","1","1","2","2","1","5","5","5","5","4","4","5","4","5","5","7","8","8","6","7","8","7","8","8","7","7","5","7","7","5","5","3","7","7","1","6","5","6","6","6","7","5","7","6","7","6","5","5","7","7","7","6","6","7","7","7","5","7","6","5","7","7","5","7","7","781521029972627457","张","266","Female","[""好我"",""好她"",""坏我"",""坏她""]","[""强我"",""强她"",""弱我"",""弱她""]","","","","","","","","no","","","","","","","","","SRET","EW_formal","","key","j","16.68","1280","716","自己","奸险","Negative","morality","","","","","","","","","","",""
"543","","f","psychophysics","56","323077","0.0-7.0-3.0-0.42","7","6","7","6","5","4","5","5","5","5","5","2","-1","0","1","1","2","2","1","5","5","5","5","4","4","5","4","5","5","7","8","8","6","7","8","7","8","8","7","7","5","7","7","5","5","3","7","7","1","6","5","6","6","6","7","5","7","6","7","6","5","5","7","7","7","6","6","7","7","7","5","7","6","5","7","7","5","7","7","781521029972627457","张","266","Female","[""好我"",""好她"",""坏我"",""坏她""]","[""强我"",""强她"",""弱我"",""弱她""]","","","","","","","","yes","","","","","","","","","SRET","EW_formal","","key","f","16.679347826086957","1280","716","自己","宽容","Positive","morality","","","","","","","","","","",""
"591","","f","psychophysics","57","324669","0.0-7.0-3.0-0.43","7","6","7","6","5","4","5","5","5","5","5","2","-1","0","1","1","2","2","1","5","5","5","5","4","4","5","4","5","5","7","8","8","6","7","8","7","8","8","7","7","5","7","7","5","5","3","7","7","1","6","5","6","6","6","7","5","7","6","7","6","5","5","7","7","7","6","6","7","7","7","5","7","6","5","7","7","5","7","7","781521029972627457","张","266","Female","[""好我"",""好她"",""坏我"",""坏她""]","[""强我"",""强她"",""弱我"",""弱她""]","","","","","","","","yes","","","","","","","","","SRET","EW_formal","","key","f","16.680851063829788","1280","716","朋友","守法","Positive","morality","","","","","","","","","","",""
"503","","f","psychophysics","58","326174","0.0-7.0-3.0-0.44","7","6","7","6","5","4","5","5","5","5","5","2","-1","0","1","1","2","2","1","5","5","5","5","4","4","5","4","5","5","7","8","8","6","7","8","7","8","8","7","7","5","7","7","5","5","3","7","7","1","6","5","6","6","6","7","5","7","6","7","6","5","5","7","7","7","6","6","7","7","7","5","7","6","5","7","7","5","7","7","781521029972627457","张","266","Female","[""好我"",""好她"",""坏我"",""坏她""]","[""强我"",""强她"",""弱我"",""弱她""]","","","","","","","","yes","","","","","","","","","SRET","EW_formal","","key","f","16.67888888888863","1280","716","自己","坚持","Positive","ability","","","","","","","","","","",""
"711","","j","psychophysics","59","327886","0.0-7.0-3.0-0.45","7","6","7","6","5","4","5","5","5","5","5","2","-1","0","1","1","2","2","1","5","5","5","5","4","4","5","4","5","5","7","8","8","6","7","8","7","8","8","7","7","5","7","7","5","5","3","7","7","1","6","5","6","6","6","7","5","7","6","7","6","5","5","7","7","7","6","6","7","7","7","5","7","6","5","7","7","5","7","7","781521029972627457","张","266","Female","[""好我"",""好她"",""坏我"",""坏她""]","[""强我"",""强她"",""弱我"",""弱她""]","","","","","","","","no","","","","","","","","","SRET","EW_formal","","key","j","16.68019801980152","1280","716","朋友","伪善","Negative","morality","","","","","","","","","","",""
"591","","j","psychophysics","60","329478","0.0-7.0-3.0-0.46","7","6","7","6","5","4","5","5","5","5","5","2","-1","0","1","1","2","2","1","5","5","5","5","4","4","5","4","5","5","7","8","8","6","7","8","7","8","8","7","7","5","7","7","5","5","3","7","7","1","6","5","6","6","6","7","5","7","6","7","6","5","5","7","7","7","6","6","7","7","7","5","7","6","5","7","7","5","7","7","781521029972627457","张","266","Female","[""好我"",""好她"",""坏我"",""坏她""]","[""强我"",""强她"",""弱我"",""弱她""]","","","","","","","","no","","","","","","","","","SRET","EW_formal","","key","j","16.68105263157907","1280","716","自己","歹毒","Negative","morality","","","","","","","","","","",""
"591","","f","psychophysics","61","331070","0.0-7.0-3.0-0.47","7","6","7","6","5","4","5","5","5","5","5","2","-1","0","1","1","2","2","1","5","5","5","5","4","4","5","4","5","5","7","8","8","6","7","8","7","8","8","7","7","5","7","7","5","5","3","7","7","1","6","5","6","6","6","7","5","7","6","7","6","5","5","7","7","7","6","6","7","7","7","5","7","6","5","7","7","5","7","7","781521029972627457","张","266","Female","[""好我"",""好她"",""坏我"",""坏她""]","[""强我"",""强她"",""弱我"",""弱她""]","","","","","","","","yes","","","","","","","","","SRET","EW_formal","","key","f","16.679787234042802","1280","716","朋友","学霸","Positive","ability","","","","","","","","","","",""
"632","","f","psychophysics","62","332702","0.0-7.0-3.0-0.48","7","6","7","6","5","4","5","5","5","5","5","2","-1","0","1","1","2","2","1","5","5","5","5","4","4","5","4","5","5","7","8","8","6","7","8","7","8","8","7","7","5","7","7","5","5","3","7","7","1","6","5","6","6","6","7","5","7","6","7","6","5","5","7","7","7","6","6","7","7","7","5","7","6","5","7","7","5","7","7","781521029972627457","张","266","Female","[""好我"",""好她"",""坏我"",""坏她""]","[""强我"",""强她"",""弱我"",""弱她""]","","","","","","","","yes","","","","","","","","","SRET","EW_formal","","key","f","16.68041237113402","1280","716","朋友","慈悲","Positive","morality","","","","","","","","","","",""
"983","","f","psychophysics","63","334686","0.0-7.0-3.0-0.49","7","6","7","6","5","4","5","5","5","5","5","2","-1","0","1","1","2","2","1","5","5","5","5","4","4","5","4","5","5","7","8","8","6","7","8","7","8","8","7","7","5","7","7","5","5","3","7","7","1","6","5","6","6","6","7","5","7","6","7","6","5","5","7","7","7","6","6","7","7","7","5","7","6","5","7","7","5","7","7","781521029972627457","张","266","Female","[""好我"",""好她"",""坏我"",""坏她""]","[""强我"",""强她"",""弱我"",""弱她""]","","","","","","","","yes","","","","","","","","","SRET","EW_formal","","key","f","16.68220338983051","1280","716","朋友","独断","Negative","ability","","","","","","","","","","",""
"655","","j","psychophysics","64","336342","0.0-7.0-3.0-0.50","7","6","7","6","5","4","5","5","5","5","5","2","-1","0","1","1","2","2","1","5","5","5","5","4","4","5","4","5","5","7","8","8","6","7","8","7","8","8","7","7","5","7","7","5","5","3","7","7","1","6","5","6","6","6","7","5","7","6","7","6","5","5","7","7","7","6","6","7","7","7","5","7","6","5","7","7","5","7","7","781521029972627457","张","266","Female","[""好我"",""好她"",""坏我"",""坏她""]","[""强我"",""强她"",""弱我"",""弱她""]","","","","","","","","no","","","","","","","","","SRET","EW_formal","","key","j","16.679591836734456","1280","716","朋友","龌龊","Negative","morality","","","","","","","","","","",""
"719","","f","psychophysics","65","338063","0.0-7.0-3.0-0.51","7","6","7","6","5","4","5","5","5","5","5","2","-1","0","1","1","2","2","1","5","5","5","5","4","4","5","4","5","5","7","8","8","6","7","8","7","8","8","7","7","5","7","7","5","5","3","7","7","1","6","5","6","6","6","7","5","7","6","7","6","5","5","7","7","7","6","6","7","7","7","5","7","6","5","7","7","5","7","7","781521029972627457","张","266","Female","[""好我"",""好她"",""坏我"",""坏她""]","[""强我"",""强她"",""弱我"",""弱她""]","","","","","","","","yes","","","","","","","","","SRET","EW_formal","","key","f","16.680392156862403","1280","716","朋友","淡泊","Positive","morality","","","","","","","","","","",""
"662","","j","psychophysics","66","339727","0.0-7.0-3.0-0.52","7","6","7","6","5","4","5","5","5","5","5","2","-1","0","1","1","2","2","1","5","5","5","5","4","4","5","4","5","5","7","8","8","6","7","8","7","8","8","7","7","5","7","7","5","5","3","7","7","1","6","5","6","6","6","7","5","7","6","7","6","5","5","7","7","7","6","6","7","7","7","5","7","6","5","7","7","5","7","7","781521029972627457","张","266","Female","[""好我"",""好她"",""坏我"",""坏她""]","[""强我"",""强她"",""弱我"",""弱她""]","","","","","","","","no","","","","","","","","","SRET","EW_formal","","key","j","16.67979797979786","1280","716","朋友","窝囊","Negative","ability","","","","","","","","","","",""
"551","","f","psychophysics","67","341279","0.0-7.0-3.0-0.53","7","6","7","6","5","4","5","5","5","5","5","2","-1","0","1","1","2","2","1","5","5","5","5","4","4","5","4","5","5","7","8","8","6","7","8","7","8","8","7","7","5","7","7","5","5","3","7","7","1","6","5","6","6","6","7","5","7","6","7","6","5","5","7","7","7","6","6","7","7","7","5","7","6","5","7","7","5","7","7","781521029972627457","张","266","Female","[""好我"",""好她"",""坏我"",""坏她""]","[""强我"",""强她"",""弱我"",""弱她""]","","","","","","","","yes","","","","","","","","","SRET","EW_formal","","key","f","16.679347826086957","1280","716","自己","敬业","Positive","morality","","","","","","","","","","",""
"576","","j","psychophysics","68","342855","0.0-7.0-3.0-0.54","7","6","7","6","5","4","5","5","5","5","5","2","-1","0","1","1","2","2","1","5","5","5","5","4","4","5","4","5","5","7","8","8","6","7","8","7","8","8","7","7","5","7","7","5","5","3","7","7","1","6","5","6","6","6","7","5","7","6","7","6","5","5","7","7","7","6","6","7","7","7","5","7","6","5","7","7","5","7","7","781521029972627457","张","266","Female","[""好我"",""好她"",""坏我"",""坏她""]","[""强我"",""强她"",""弱我"",""弱她""]","","","","","","","","no","","","","","","","","","SRET","EW_formal","","key","j","16.685106382978972","1280","716","朋友","迟钝","Negative","ability","","","","","","","","","","",""
"559","","f","psychophysics","69","344416","0.0-7.0-3.0-0.55","7","6","7","6","5","4","5","5","5","5","5","2","-1","0","1","1","2","2","1","5","5","5","5","4","4","5","4","5","5","7","8","8","6","7","8","7","8","8","7","7","5","7","7","5","5","3","7","7","1","6","5","6","6","6","7","5","7","6","7","6","5","5","7","7","7","6","6","7","7","7","5","7","6","5","7","7","5","7","7","781521029972627457","张","266","Female","[""好我"",""好她"",""坏我"",""坏她""]","[""强我"",""强她"",""弱我"",""弱她""]","","","","","","","","yes","","","","","","","","","SRET","EW_formal","","key","f","16.679347826086957","1280","716","朋友","刚正","Positive","morality","","","","","","","","","","",""
"567","","f","psychophysics","70","345983","0.0-7.0-3.0-0.56","7","6","7","6","5","4","5","5","5","5","5","2","-1","0","1","1","2","2","1","5","5","5","5","4","4","5","4","5","5","7","8","8","6","7","8","7","8","8","7","7","5","7","7","5","5","3","7","7","1","6","5","6","6","6","7","5","7","6","7","6","5","5","7","7","7","6","6","7","7","7","5","7","6","5","7","7","5","7","7","781521029972627457","张","266","Female","[""好我"",""好她"",""坏我"",""坏她""]","[""强我"",""强她"",""弱我"",""弱她""]","","","","","","","","yes","","","","","","","","","SRET","EW_formal","","key","f","16.679569892473243","1280","716","自己","正气","Positive","morality","","","","","","","","","","",""
"599","","j","psychophysics","71","347584","0.0-7.0-3.0-0.57","7","6","7","6","5","4","5","5","5","5","5","2","-1","0","1","1","2","2","1","5","5","5","5","4","4","5","4","5","5","7","8","8","6","7","8","7","8","8","7","7","5","7","7","5","5","3","7","7","1","6","5","6","6","6","7","5","7","6","7","6","5","5","7","7","7","6","6","7","7","7","5","7","6","5","7","7","5","7","7","781521029972627457","张","266","Female","[""好我"",""好她"",""坏我"",""坏她""]","[""强我"",""强她"",""弱我"",""弱她""]","","","","","","","","no","","","","","","","","","SRET","EW_formal","","key","j","16.679999999999755","1280","716","自己","狡狯","Negative","morality","","","","","","","","","","",""
"607","","f","psychophysics","72","349192","0.0-7.0-3.0-0.58","7","6","7","6","5","4","5","5","5","5","5","2","-1","0","1","1","2","2","1","5","5","5","5","4","4","5","4","5","5","7","8","8","6","7","8","7","8","8","7","7","5","7","7","5","5","3","7","7","1","6","5","6","6","6","7","5","7","6","7","6","5","5","7","7","7","6","6","7","7","7","5","7","6","5","7","7","5","7","7","781521029972627457","张","266","Female","[""好我"",""好她"",""坏我"",""坏她""]","[""强我"",""强她"",""弱我"",""弱她""]","","","","","","","","yes","","","","","","","","","SRET","EW_formal","","key","f","16.679999999999755","1280","716","自己","果断","Positive","ability","","","","","","","","","","",""
"503","","f","psychophysics","73","350696","0.0-7.0-3.0-0.59","7","6","7","6","5","4","5","5","5","5","5","2","-1","0","1","1","2","2","1","5","5","5","5","4","4","5","4","5","5","7","8","8","6","7","8","7","8","8","7","7","5","7","7","5","5","3","7","7","1","6","5","6","6","6","7","5","7","6","7","6","5","5","7","7","7","6","6","7","7","7","5","7","6","5","7","7","5","7","7","781521029972627457","张","266","Female","[""好我"",""好她"",""坏我"",""坏她""]","[""强我"",""强她"",""弱我"",""弱她""]","","","","","","","","yes","","","","","","","","","SRET","EW_formal","","key","f","16.67888888888863","1280","716","自己","廉正","Positive","morality","","","","","","","","","","",""
"536","","f","psychophysics","74","352232","0.0-7.0-3.0-0.60","7","6","7","6","5","4","5","5","5","5","5","2","-1","0","1","1","2","2","1","5","5","5","5","4","4","5","4","5","5","7","8","8","6","7","8","7","8","8","7","7","5","7","7","5","5","3","7","7","1","6","5","6","6","6","7","5","7","6","7","6","5","5","7","7","7","6","6","7","7","7","5","7","6","5","7","7","5","7","7","781521029972627457","张","266","Female","[""好我"",""好她"",""坏我"",""坏她""]","[""强我"",""强她"",""弱我"",""弱她""]","","","","","","","","yes","","","","","","","","","SRET","EW_formal","","key","f","16.680219780220035","1280","716","朋友","聪明","Positive","ability","","","","","","","","","","",""
"583","","j","psychophysics","75","353816","0.0-7.0-3.0-0.61","7","6","7","6","5","4","5","5","5","5","5","2","-1","0","1","1","2","2","1","5","5","5","5","4","4","5","4","5","5","7","8","8","6","7","8","7","8","8","7","7","5","7","7","5","5","3","7","7","1","6","5","6","6","6","7","5","7","6","7","6","5","5","7","7","7","6","6","7","7","7","5","7","6","5","7","7","5","7","7","781521029972627457","张","266","Female","[""好我"",""好她"",""坏我"",""坏她""]","[""强我"",""强她"",""弱我"",""弱她""]","","","","","","","","no","","","","","","","","","SRET","EW_formal","","key","j","16.67978723404218","1280","716","自己","小人","Negative","morality","","","","","","","","","","",""
"736","","j","psychophysics","76","355552","0.0-7.0-3.0-0.62","7","6","7","6","5","4","5","5","5","5","5","2","-1","0","1","1","2","2","1","5","5","5","5","4","4","5","4","5","5","7","8","8","6","7","8","7","8","8","7","7","5","7","7","5","5","3","7","7","1","6","5","6","6","6","7","5","7","6","7","6","5","5","7","7","7","6","6","7","7","7","5","7","6","5","7","7","5","7","7","781521029972627457","张","266","Female","[""好我"",""好她"",""坏我"",""坏她""]","[""强我"",""强她"",""弱我"",""弱她""]","","","","","","","","no","","","","","","","","","SRET","EW_formal","","key","j","16.680582524272182","1280","716","朋友","腐败","Negative","morality","","","","","","","","","","",""
"727","","f","psychophysics","77","357281","0.0-7.0-3.0-0.63","7","6","7","6","5","4","5","5","5","5","5","2","-1","0","1","1","2","2","1","5","5","5","5","4","4","5","4","5","5","7","8","8","6","7","8","7","8","8","7","7","5","7","7","5","5","3","7","7","1","6","5","6","6","6","7","5","7","6","7","6","5","5","7","7","7","6","6","7","7","7","5","7","6","5","7","7","5","7","7","781521029972627457","张","266","Female","[""好我"",""好她"",""坏我"",""坏她""]","[""强我"",""强她"",""弱我"",""弱她""]","","","","","","","","yes","","","","","","","","","SRET","EW_formal","","key","f","16.680392156862972","1280","716","朋友","远见","Positive","ability","","","","","","","","","","",""
"591","","j","psychophysics","78","358873","0.0-7.0-3.0-0.64","7","6","7","6","5","4","5","5","5","5","5","2","-1","0","1","1","2","2","1","5","5","5","5","4","4","5","4","5","5","7","8","8","6","7","8","7","8","8","7","7","5","7","7","5","5","3","7","7","1","6","5","6","6","6","7","5","7","6","7","6","5","5","7","7","7","6","6","7","7","7","5","7","6","5","7","7","5","7","7","781521029972627457","张","266","Female","[""好我"",""好她"",""坏我"",""坏她""]","[""强我"",""强她"",""弱我"",""弱她""]","","","","","","","","no","","","","","","","","","SRET","EW_formal","","key","j","16.68105263157907","1280","716","自己","无知","Negative","ability","","","","","","","","","","",""
"575","","f","psychophysics","79","360449","0.0-7.0-3.0-0.65","7","6","7","6","5","4","5","5","5","5","5","2","-1","0","1","1","2","2","1","5","5","5","5","4","4","5","4","5","5","7","8","8","6","7","8","7","8","8","7","7","5","7","7","5","5","3","7","7","1","6","5","6","6","6","7","5","7","6","7","6","5","5","7","7","7","6","6","7","7","7","5","7","6","5","7","7","5","7","7","781521029972627457","张","266","Female","[""好我"",""好她"",""坏我"",""坏她""]","[""强我"",""强她"",""弱我"",""弱她""]","","","","","","","","yes","","","","","","","","","SRET","EW_formal","","key","f","16.680645161290197","1280","716","自己","敏捷","Positive","ability","","","","","","","","","","",""
"959","","f","psychophysics","80","362409","0.0-7.0-3.0-0.66","7","6","7","6","5","4","5","5","5","5","5","2","-1","0","1","1","2","2","1","5","5","5","5","4","4","5","4","5","5","7","8","8","6","7","8","7","8","8","7","7","5","7","7","5","5","3","7","7","1","6","5","6","6","6","7","5","7","6","7","6","5","5","7","7","7","6","6","7","7","7","5","7","6","5","7","7","5","7","7","781521029972627457","张","266","Female","[""好我"",""好她"",""坏我"",""坏她""]","[""强我"",""强她"",""弱我"",""弱她""]","","","","","","","","yes","","","","","","","","","SRET","EW_formal","","key","f","16.680341880341683","1280","716","朋友","中用","Positive","ability","","","","","","","","","","",""
"632","","f","psychophysics","81","364041","0.0-7.0-3.0-0.67","7","6","7","6","5","4","5","5","5","5","5","2","-1","0","1","1","2","2","1","5","5","5","5","4","4","5","4","5","5","7","8","8","6","7","8","7","8","8","7","7","5","7","7","5","5","3","7","7","1","6","5","6","6","6","7","5","7","6","7","6","5","5","7","7","7","6","6","7","7","7","5","7","6","5","7","7","5","7","7","781521029972627457","张","266","Female","[""好我"",""好她"",""坏我"",""坏她""]","[""强我"",""强她"",""弱我"",""弱她""]","","","","","","","","yes","","","","","","","","","SRET","EW_formal","","key","f","16.68041237113402","1280","716","朋友","博识","Positive","ability","","","","","","","","","","",""
"503","","f","psychophysics","82","365546","0.0-7.0-3.0-0.68","7","6","7","6","5","4","5","5","5","5","5","2","-1","0","1","1","2","2","1","5","5","5","5","4","4","5","4","5","5","7","8","8","6","7","8","7","8","8","7","7","5","7","7","5","5","3","7","7","1","6","5","6","6","6","7","5","7","6","7","6","5","5","7","7","7","6","6","7","7","7","5","7","6","5","7","7","5","7","7","781521029972627457","张","266","Female","[""好我"",""好她"",""坏我"",""坏她""]","[""强我"",""强她"",""弱我"",""弱她""]","","","","","","","","yes","","","","","","","","","SRET","EW_formal","","key","f","16.682022471910244","1280","716","朋友","君子","Positive","morality","","","","","","","","","","",""
"615","","j","psychophysics","83","367162","0.0-7.0-3.0-0.69","7","6","7","6","5","4","5","5","5","5","5","2","-1","0","1","1","2","2","1","5","5","5","5","4","4","5","4","5","5","7","8","8","6","7","8","7","8","8","7","7","5","7","7","5","5","3","7","7","1","6","5","6","6","6","7","5","7","6","7","6","5","5","7","7","7","6","6","7","7","7","5","7","6","5","7","7","5","7","7","781521029972627457","张","266","Female","[""好我"",""好她"",""坏我"",""坏她""]","[""强我"",""强她"",""弱我"",""弱她""]","","","","","","","","no","","","","","","","","","SRET","EW_formal","","key","j","16.679166666666788","1280","716","朋友","不孝","Negative","morality","","","","","","","","","","",""
"511","","f","psychophysics","84","368675","0.0-7.0-3.0-0.70","7","6","7","6","5","4","5","5","5","5","5","2","-1","0","1","1","2","2","1","5","5","5","5","4","4","5","4","5","5","7","8","8","6","7","8","7","8","8","7","7","5","7","7","5","5","3","7","7","1","6","5","6","6","6","7","5","7","6","7","6","5","5","7","7","7","6","6","7","7","7","5","7","6","5","7","7","5","7","7","781521029972627457","张","266","Female","[""好我"",""好她"",""坏我"",""坏她""]","[""强我"",""强她"",""弱我"",""弱她""]","","","","","","","","yes","","","","","","","","","SRET","EW_formal","","key","f","16.679775280898877","1280","716","朋友","勤奋","Positive","ability","","","","","","","","","","",""
"1663","","j","psychophysics","85","371339","0.0-7.0-3.0-0.71","7","6","7","6","5","4","5","5","5","5","5","2","-1","0","1","1","2","2","1","5","5","5","5","4","4","5","4","5","5","7","8","8","6","7","8","7","8","8","7","7","5","7","7","5","5","3","7","7","1","6","5","6","6","6","7","5","7","6","7","6","5","5","7","7","7","6","6","7","7","7","5","7","6","5","7","7","5","7","7","781521029972627457","张","266","Female","[""好我"",""好她"",""坏我"",""坏她""]","[""强我"",""强她"",""弱我"",""弱她""]","","","","","","","","no","","","","","","","","","SRET","EW_formal","","key","j","16.67987421383633","1280","716","朋友","外行","Negative","ability","","","","","","","","","","",""
"487","","f","psychophysics","86","372827","0.0-7.0-3.0-0.72","7","6","7","6","5","4","5","5","5","5","5","2","-1","0","1","1","2","2","1","5","5","5","5","4","4","5","4","5","5","7","8","8","6","7","8","7","8","8","7","7","5","7","7","5","5","3","7","7","1","6","5","6","6","6","7","5","7","6","7","6","5","5","7","7","7","6","6","7","7","7","5","7","6","5","7","7","5","7","7","781521029972627457","张","266","Female","[""好我"",""好她"",""坏我"",""坏她""]","[""强我"",""强她"",""弱我"",""弱她""]","","","","","","","","yes","","","","","","","","","SRET","EW_formal","","key","f","16.679545454545323","1280","716","朋友","忠诚","Positive","morality","","","","","","","","","","",""
"575","","f","psychophysics","87","374403","0.0-7.0-3.0-0.73","7","6","7","6","5","4","5","5","5","5","5","2","-1","0","1","1","2","2","1","5","5","5","5","4","4","5","4","5","5","7","8","8","6","7","8","7","8","8","7","7","5","7","7","5","5","3","7","7","1","6","5","6","6","6","7","5","7","6","7","6","5","5","7","7","7","6","6","7","7","7","5","7","6","5","7","7","5","7","7","781521029972627457","张","266","Female","[""好我"",""好她"",""坏我"",""坏她""]","[""强我"",""强她"",""弱我"",""弱她""]","","","","","","","","yes","","","","","","","","","SRET","EW_formal","","key","f","16.679787234042802","1280","716","朋友","果决","Positive","ability","","","","","","","","","","",""
"670","","j","psychophysics","88","376075","0.0-7.0-3.0-0.74","7","6","7","6","5","4","5","5","5","5","5","2","-1","0","1","1","2","2","1","5","5","5","5","4","4","5","4","5","5","7","8","8","6","7","8","7","8","8","7","7","5","7","7","5","5","3","7","7","1","6","5","6","6","6","7","5","7","6","7","6","5","5","7","7","7","6","6","7","7","7","5","7","6","5","7","7","5","7","7","781521029972627457","张","266","Female","[""好我"",""好她"",""坏我"",""坏她""]","[""强我"",""强她"",""弱我"",""弱她""]","","","","","","","","no","","","","","","","","","SRET","EW_formal","","key","j","16.68080808080773","1280","716","朋友","刻薄","Negative","morality","","","","","","","","","","",""
"615","","f","psychophysics","89","377691","0.0-7.0-3.0-0.75","7","6","7","6","5","4","5","5","5","5","5","2","-1","0","1","1","2","2","1","5","5","5","5","4","4","5","4","5","5","7","8","8","6","7","8","7","8","8","7","7","5","7","7","5","5","3","7","7","1","6","5","6","6","6","7","5","7","6","7","6","5","5","7","7","7","6","6","7","7","7","5","7","6","5","7","7","5","7","7","781521029972627457","张","266","Female","[""好我"",""好她"",""坏我"",""坏她""]","[""强我"",""强她"",""弱我"",""弱她""]","","","","","","","","yes","","","","","","","","","SRET","EW_formal","","key","f","16.680208333333212","1280","716","朋友","文明","Positive","morality","","","","","","","","","","",""
"559","","j","psychophysics","90","379252","0.0-7.0-3.0-0.76","7","6","7","6","5","4","5","5","5","5","5","2","-1","0","1","1","2","2","1","5","5","5","5","4","4","5","4","5","5","7","8","8","6","7","8","7","8","8","7","7","5","7","7","5","5","3","7","7","1","6","5","6","6","6","7","5","7","6","7","6","5","5","7","7","7","6","6","7","7","7","5","7","6","5","7","7","5","7","7","781521029972627457","张","266","Female","[""好我"",""好她"",""坏我"",""坏她""]","[""强我"",""强她"",""弱我"",""弱她""]","","","","","","","","no","","","","","","","","","SRET","EW_formal","","key","j","16.681720430107152","1280","716","自己","黑心","Negative","morality","","","","","","","","","","",""
"943","","j","psychophysics","91","381196","0.0-7.0-3.0-0.77","7","6","7","6","5","4","5","5","5","5","5","2","-1","0","1","1","2","2","1","5","5","5","5","4","4","5","4","5","5","7","8","8","6","7","8","7","8","8","7","7","5","7","7","5","5","3","7","7","1","6","5","6","6","6","7","5","7","6","7","6","5","5","7","7","7","6","6","7","7","7","5","7","6","5","7","7","5","7","7","781521029972627457","张","266","Female","[""好我"",""好她"",""坏我"",""坏她""]","[""强我"",""强她"",""弱我"",""弱她""]","","","","","","","","no","","","","","","","","","SRET","EW_formal","","key","j","16.680000000000103","1280","716","自己","盲目","Negative","ability","","","","","","","","","","",""
"519","","f","psychophysics","92","382716","0.0-7.0-3.0-0.78","7","6","7","6","5","4","5","5","5","5","5","2","-1","0","1","1","2","2","1","5","5","5","5","4","4","5","4","5","5","7","8","8","6","7","8","7","8","8","7","7","5","7","7","5","5","3","7","7","1","6","5","6","6","6","7","5","7","6","7","6","5","5","7","7","7","6","6","7","7","7","5","7","6","5","7","7","5","7","7","781521029972627457","张","266","Female","[""好我"",""好她"",""坏我"",""坏她""]","[""强我"",""强她"",""弱我"",""弱她""]","","","","","","","","yes","","","","","","","","","SRET","EW_formal","","key","f","16.67999999999948","1280","716","朋友","能干","Positive","ability","","","","","","","","","","",""
"760","","j","psychophysics","93","384476","0.0-7.0-3.0-0.79","7","6","7","6","5","4","5","5","5","5","5","2","-1","0","1","1","2","2","1","5","5","5","5","4","4","5","4","5","5","7","8","8","6","7","8","7","8","8","7","7","5","7","7","5","5","3","7","7","1","6","5","6","6","6","7","5","7","6","7","6","5","5","7","7","7","6","6","7","7","7","5","7","6","5","7","7","5","7","7","781521029972627457","张","266","Female","[""好我"",""好她"",""坏我"",""坏她""]","[""强我"",""强她"",""弱我"",""弱她""]","","","","","","","","no","","","","","","","","","SRET","EW_formal","","key","j","16.68000000000022","1280","716","朋友","草率","Negative","ability","","","","","","","","","","",""
"999","","j","psychophysics","94","386476","0.0-7.0-3.0-0.80","7","6","7","6","5","4","5","5","5","5","5","2","-1","0","1","1","2","2","1","5","5","5","5","4","4","5","4","5","5","7","8","8","6","7","8","7","8","8","7","7","5","7","7","5","5","3","7","7","1","6","5","6","6","6","7","5","7","6","7","6","5","5","7","7","7","6","6","7","7","7","5","7","6","5","7","7","5","7","7","781521029972627457","张","266","Female","[""好我"",""好她"",""坏我"",""坏她""]","[""强我"",""强她"",""弱我"",""弱她""]","","","","","","","","no","","","","","","","","","SRET","EW_formal","","key","j","16.676470588235293","1280","716","朋友","畏难","Negative","ability","","","","","","","","","","",""
"1127","","j","psychophysics","95","388604","0.0-7.0-3.0-0.81","7","6","7","6","5","4","5","5","5","5","5","2","-1","0","1","1","2","2","1","5","5","5","5","4","4","5","4","5","5","7","8","8","6","7","8","7","8","8","7","7","5","7","7","5","5","3","7","7","1","6","5","6","6","6","7","5","7","6","7","6","5","5","7","7","7","6","6","7","7","7","5","7","6","5","7","7","5","7","7","781521029972627457","张","266","Female","[""好我"",""好她"",""坏我"",""坏她""]","[""强我"",""强她"",""弱我"",""弱她""]","","","","","","","","no","","","","","","","","","SRET","EW_formal","","key","j","16.680158730158823","1280","716","自己","昏庸","Negative","ability","","","","","","","","","","",""
"768","","f","psychophysics","96","390373","0.0-7.0-3.0-0.82","7","6","7","6","5","4","5","5","5","5","5","2","-1","0","1","1","2","2","1","5","5","5","5","4","4","5","4","5","5","7","8","8","6","7","8","7","8","8","7","7","5","7","7","5","5","3","7","7","1","6","5","6","6","6","7","5","7","6","7","6","5","5","7","7","7","6","6","7","7","7","5","7","6","5","7","7","5","7","7","781521029972627457","张","266","Female","[""好我"",""好她"",""坏我"",""坏她""]","[""强我"",""强她"",""弱我"",""弱她""]","","","","","","","","yes","","","","","","","","","SRET","EW_formal","","key","f","16.68000000000022","1280","716","朋友","仗义","Positive","morality","","","","","","","","","","",""
"767","","f","psychophysics","97","392141","0.0-7.0-3.0-0.83","7","6","7","6","5","4","5","5","5","5","5","2","-1","0","1","1","2","2","1","5","5","5","5","4","4","5","4","5","5","7","8","8","6","7","8","7","8","8","7","7","5","7","7","5","5","3","7","7","1","6","5","6","6","6","7","5","7","6","7","6","5","5","7","7","7","6","6","7","7","7","5","7","6","5","7","7","5","7","7","781521029972627457","张","266","Female","[""好我"",""好她"",""坏我"",""坏她""]","[""强我"",""强她"",""弱我"",""弱她""]","","","","","","","","yes","","","","","","","","","SRET","EW_formal","","key","f","16.68000000000022","1280","716","自己","侠义","Positive","morality","","","","","","","","","","",""
"559","","j","psychophysics","98","393701","0.0-7.0-3.0-0.84","7","6","7","6","5","4","5","5","5","5","5","2","-1","0","1","1","2","2","1","5","5","5","5","4","4","5","4","5","5","7","8","8","6","7","8","7","8","8","7","7","5","7","7","5","5","3","7","7","1","6","5","6","6","6","7","5","7","6","7","6","5","5","7","7","7","6","6","7","7","7","5","7","6","5","7","7","5","7","7","781521029972627457","张","266","Female","[""好我"",""好她"",""坏我"",""坏她""]","[""强我"",""强她"",""弱我"",""弱她""]","","","","","","","","no","","","","","","","","","SRET","EW_formal","","key","j","16.680645161290197","1280","716","朋友","低俗","Negative","morality","","","","","","","","","","",""
"623","","f","psychophysics","99","395325","0.0-7.0-3.0-0.85","7","6","7","6","5","4","5","5","5","5","5","2","-1","0","1","1","2","2","1","5","5","5","5","4","4","5","4","5","5","7","8","8","6","7","8","7","8","8","7","7","5","7","7","5","5","3","7","7","1","6","5","6","6","6","7","5","7","6","7","6","5","5","7","7","7","6","6","7","7","7","5","7","6","5","7","7","5","7","7","781521029972627457","张","266","Female","[""好我"",""好她"",""坏我"",""坏她""]","[""强我"",""强她"",""弱我"",""弱她""]","","","","","","","","yes","","","","","","","","","SRET","EW_formal","","key","f","16.680208333333212","1280","716","朋友","素养","Positive","morality","","","","","","","","","","",""
"695","","j","psychophysics","100","397021","0.0-7.0-3.0-0.86","7","6","7","6","5","4","5","5","5","5","5","2","-1","0","1","1","2","2","1","5","5","5","5","4","4","5","4","5","5","7","8","8","6","7","8","7","8","8","7","7","5","7","7","5","5","3","7","7","1","6","5","6","6","6","7","5","7","6","7","6","5","5","7","7","7","6","6","7","7","7","5","7","6","5","7","7","5","7","7","781521029972627457","张","266","Female","[""好我"",""好她"",""坏我"",""坏她""]","[""强我"",""强她"",""弱我"",""弱她""]","","","","","","","","no","","","","","","","","","SRET","EW_formal","","key","j","16.680198019802095","1280","716","自己","缓慢","Negative","ability","","","","","","","","","","",""
"560","","f","psychophysics","101","398581","0.0-7.0-3.0-0.87","7","6","7","6","5","4","5","5","5","5","5","2","-1","0","1","1","2","2","1","5","5","5","5","4","4","5","4","5","5","7","8","8","6","7","8","7","8","8","7","7","5","7","7","5","5","3","7","7","1","6","5","6","6","6","7","5","7","6","7","6","5","5","7","7","7","6","6","7","7","7","5","7","6","5","7","7","5","7","7","781521029972627457","张","266","Female","[""好我"",""好她"",""坏我"",""坏她""]","[""强我"",""强她"",""弱我"",""弱她""]","","","","","","","","yes","","","","","","","","","SRET","EW_formal","","key","f","16.680434782609076","1280","716","自己","主见","Positive","ability","","","","","","","","","","",""
"18034","
    <p><div style='color:white;font-size:35px; line-height:20px;'>计算任务</div></p><br>
    <p><div style='color:red;font-size:25px; line-height:20px;'>接下来，您将看到一些四则运算题，<b>请从键盘选择 0-9 进行反应。</b></div></p>
    <p><div style='color:red;font-size:25px; line-height:20px;'>请尽可能快地进行计算，计算的速度和正确率将影响报酬的发放。</div></p>
    <p><div class='footer' style='color:white;font-size:25px; line-height:20px;'>如果对本实验还有不清楚之处，请立即向实验员咨询。</p><p style='color:white;font-size:25px; line-height:20px;'>如果您明白了规则：</p><p style='color:white;font-size:22px; line-height:20px;'>请按 继续 进入练习</p>
    </div>
    ","0","html-button-response","102","416616","0.0-7.0-4.0","7","6","7","6","5","4","5","5","5","5","5","2","-1","0","1","1","2","2","1","5","5","5","5","4","4","5","4","5","5","7","8","8","6","7","8","7","8","8","7","7","5","7","7","5","5","3","7","7","1","6","5","6","6","6","7","5","7","6","7","6","5","5","7","7","7","6","6","7","7","7","5","7","6","5","7","7","5","7","7","781521029972627457","张","266","Female","[""好我"",""好她"",""坏我"",""坏她""]","[""强我"",""强她"",""弱我"",""弱她""]","","","","","","","","","","","","","","","","","SRET_math","math_instructions","Fri Jan 19 2024 08:58:27 GMT+0800 (中国标准时间)","","","","","","","","","","","","","","","","","","","",""
"2126","","6","psychophysics","103","418743","0.0-7.0-5.0-0.0","7","6","7","6","5","4","5","5","5","5","5","2","-1","0","1","1","2","2","1","5","5","5","5","4","4","5","4","5","5","7","8","8","6","7","8","7","8","8","7","7","5","7","7","5","5","3","7","7","1","6","5","6","6","6","7","5","7","6","7","6","5","5","7","7","7","6","6","7","7","7","5","7","6","5","7","7","5","7","7","781521029972627457","张","266","Female","[""好我"",""好她"",""坏我"",""坏她""]","[""强我"",""强她"",""弱我"",""弱她""]","","","","","","","","6","","","","","","","","","SRET","SRET_math_calculate","","key","6","16.681102362204726","1280","716","","","","","5+1= ?","6","1","","","","","","","",""
"2071","","9","psychophysics","104","420816","0.0-7.0-5.0-0.1","7","6","7","6","5","4","5","5","5","5","5","2","-1","0","1","1","2","2","1","5","5","5","5","4","4","5","4","5","5","7","8","8","6","7","8","7","8","8","7","7","5","7","7","5","5","3","7","7","1","6","5","6","6","6","7","5","7","6","7","6","5","5","7","7","7","6","6","7","7","7","5","7","6","5","7","7","5","7","7","781521029972627457","张","266","Female","[""好我"",""好她"",""坏我"",""坏她""]","[""强我"",""强她"",""弱我"",""弱她""]","","","","","","","","9","","","","","","","","","SRET","SRET_math_calculate","","key","9","16.67967479674778","1280","716","","","","","8+1= ?","9","1","","","","","","","",""
"2316","","2","psychophysics","105","423136","0.0-7.0-5.0-0.2","7","6","7","6","5","4","5","5","5","5","5","2","-1","0","1","1","2","2","1","5","5","5","5","4","4","5","4","5","5","7","8","8","6","7","8","7","8","8","7","7","5","7","7","5","5","3","7","7","1","6","5","6","6","6","7","5","7","6","7","6","5","5","7","7","7","6","6","7","7","7","5","7","6","5","7","7","5","7","7","781521029972627457","张","266","Female","[""好我"",""好她"",""坏我"",""坏她""]","[""强我"",""强她"",""弱我"",""弱她""]","","","","","","","","2","","","","","","","","","SRET","SRET_math_calculate","","key","2","16.67971014492745","1280","716","","","","","8/4= ?","2","1","","","","","","","",""
"2727","","8","psychophysics","106","425864","0.0-7.0-5.0-0.3","7","6","7","6","5","4","5","5","5","5","5","2","-1","0","1","1","2","2","1","5","5","5","5","4","4","5","4","5","5","7","8","8","6","7","8","7","8","8","7","7","5","7","7","5","5","3","7","7","1","6","5","6","6","6","7","5","7","6","7","6","5","5","7","7","7","6","6","7","7","7","5","7","6","5","7","7","5","7","7","781521029972627457","张","266","Female","[""好我"",""好她"",""坏我"",""坏她""]","[""强我"",""强她"",""弱我"",""弱她""]","","","","","","","","8","","","","","","","","","SRET","SRET_math_calculate","","key","8","16.68220858895677","1280","716","","","","","50-42= ?","8","1","","","","","","","",""
"1952","","2","psychophysics","107","427816","0.0-7.0-5.0-0.4","7","6","7","6","5","4","5","5","5","5","5","2","-1","0","1","1","2","2","1","5","5","5","5","4","4","5","4","5","5","7","8","8","6","7","8","7","8","8","7","7","5","7","7","5","5","3","7","7","1","6","5","6","6","6","7","5","7","6","7","6","5","5","7","7","7","6","6","7","7","7","5","7","6","5","7","7","5","7","7","781521029972627457","张","266","Female","[""好我"",""好她"",""坏我"",""坏她""]","[""强我"",""强她"",""弱我"",""弱她""]","","","","","","","","2","","","","","","","","","SRET","SRET_math_calculate","","key","2","16.680172413793304","1280","716","","","","","1+1= ?","2","1","","","","","","","",""
"1823","","3","psychophysics","108","429640","0.0-7.0-5.0-0.5","7","6","7","6","5","4","5","5","5","5","5","2","-1","0","1","1","2","2","1","5","5","5","5","4","4","5","4","5","5","7","8","8","6","7","8","7","8","8","7","7","5","7","7","5","5","3","7","7","1","6","5","6","6","6","7","5","7","6","7","6","5","5","7","7","7","6","6","7","7","7","5","7","6","5","7","7","5","7","7","781521029972627457","张","266","Female","[""好我"",""好她"",""坏我"",""坏她""]","[""强我"",""强她"",""弱我"",""弱她""]","","","","","","","","3","","","","","","","","","SRET","SRET_math_calculate","","key","3","16.680555555555557","1280","716","","","","","1+2= ?","3","1","","","","","","","",""
"2280","","8","psychophysics","109","431921","0.0-7.0-5.0-0.6","7","6","7","6","5","4","5","5","5","5","5","2","-1","0","1","1","2","2","1","5","5","5","5","4","4","5","4","5","5","7","8","8","6","7","8","7","8","8","7","7","5","7","7","5","5","3","7","7","1","6","5","6","6","6","7","5","7","6","7","6","5","5","7","7","7","6","6","7","7","7","5","7","6","5","7","7","5","7","7","781521029972627457","张","266","Female","[""好我"",""好她"",""坏我"",""坏她""]","[""强我"",""强她"",""弱我"",""弱她""]","","","","","","","","8","","","","","","","","","SRET","SRET_math_calculate","","key","8","16.68014705882353","1280","716","","","","","9-1= ?","8","1","","","","","","","",""
"1871","","9","psychophysics","110","433792","0.0-7.0-5.0-0.7","7","6","7","6","5","4","5","5","5","5","5","2","-1","0","1","1","2","2","1","5","5","5","5","4","4","5","4","5","5","7","8","8","6","7","8","7","8","8","7","7","5","7","7","5","5","3","7","7","1","6","5","6","6","6","7","5","7","6","7","6","5","5","7","7","7","6","6","7","7","7","5","7","6","5","7","7","5","7","7","781521029972627457","张","266","Female","[""好我"",""好她"",""坏我"",""坏她""]","[""强我"",""强她"",""弱我"",""弱她""]","","","","","","","","9","","","","","","","","","SRET","SRET_math_calculate","","key","9","16.679279279279488","1280","716","","","","","4+5= ?","9","1","","","","","","","",""
"2112","","2","psychophysics","111","435905","0.0-7.0-5.0-0.8","7","6","7","6","5","4","5","5","5","5","5","2","-1","0","1","1","2","2","1","5","5","5","5","4","4","5","4","5","5","7","8","8","6","7","8","7","8","8","7","7","5","7","7","5","5","3","7","7","1","6","5","6","6","6","7","5","7","6","7","6","5","5","7","7","7","6","6","7","7","7","5","7","6","5","7","7","5","7","7","781521029972627457","张","266","Female","[""好我"",""好她"",""坏我"",""坏她""]","[""强我"",""强她"",""弱我"",""弱她""]","","","","","","","","2","","","","","","","","","SRET","SRET_math_calculate","","key","2","16.680158730158823","1280","716","","","","","18/9= ?","2","1","","","","","","","",""
"1775","","5","psychophysics","112","437681","0.0-7.0-5.0-0.9","7","6","7","6","5","4","5","5","5","5","5","2","-1","0","1","1","2","2","1","5","5","5","5","4","4","5","4","5","5","7","8","8","6","7","8","7","8","8","7","7","5","7","7","5","5","3","7","7","1","6","5","6","6","6","7","5","7","6","7","6","5","5","7","7","7","6","6","7","7","7","5","7","6","5","7","7","5","7","7","781521029972627457","张","266","Female","[""好我"",""好她"",""坏我"",""坏她""]","[""强我"",""强她"",""弱我"",""弱她""]","","","","","","","","5","","","","","","","","","SRET","SRET_math_calculate","","key","5","16.684761904762127","1280","716","","","","","10-5= ?","5","1","","","","","","","",""
"1831","","5","psychophysics","113","439513","0.0-7.0-5.0-0.10","7","6","7","6","5","4","5","5","5","5","5","2","-1","0","1","1","2","2","1","5","5","5","5","4","4","5","4","5","5","7","8","8","6","7","8","7","8","8","7","7","5","7","7","5","5","3","7","7","1","6","5","6","6","6","7","5","7","6","7","6","5","5","7","7","7","6","6","7","7","7","5","7","6","5","7","7","5","7","7","781521029972627457","张","266","Female","[""好我"",""好她"",""坏我"",""坏她""]","[""强我"",""强她"",""弱我"",""弱她""]","","","","","","","","5","","","","","","","","","SRET","SRET_math_calculate","","key","5","16.67981651376179","1280","716","","","","","8-3= ? ","5","1","","","","","","","",""
"1837","","9","psychophysics","114","441353","0.0-7.0-5.0-0.11","7","6","7","6","5","4","5","5","5","5","5","2","-1","0","1","1","2","2","1","5","5","5","5","4","4","5","4","5","5","7","8","8","6","7","8","7","8","8","7","7","5","7","7","5","5","3","7","7","1","6","5","6","6","6","7","5","7","6","7","6","5","5","7","7","7","6","6","7","7","7","5","7","6","5","7","7","5","7","7","781521029972627457","张","266","Female","[""好我"",""好她"",""坏我"",""坏她""]","[""强我"",""强她"",""弱我"",""弱她""]","","","","","","","","9","","","","","","","","","SRET","SRET_math_calculate","","key","9","16.679999999999893","1280","716","","","","","1+8= ?","9","1","","","","","","","",""
"2088","","4","psychophysics","115","443441","0.0-7.0-5.0-0.12","7","6","7","6","5","4","5","5","5","5","5","2","-1","0","1","1","2","2","1","5","5","5","5","4","4","5","4","5","5","7","8","8","6","7","8","7","8","8","7","7","5","7","7","5","5","3","7","7","1","6","5","6","6","6","7","5","7","6","7","6","5","5","7","7","7","6","6","7","7","7","5","7","6","5","7","7","5","7","7","781521029972627457","张","266","Female","[""好我"",""好她"",""坏我"",""坏她""]","[""强我"",""强她"",""弱我"",""弱她""]","","","","","","","","4","","","","","","","","","SRET","SRET_math_calculate","","key","4","16.681451612903224","1280","716","","","","","8-4= ?","4","1","","","","","","","",""
"2415","","1","psychophysics","116","445858","0.0-7.0-5.0-0.13","7","6","7","6","5","4","5","5","5","5","5","2","-1","0","1","1","2","2","1","5","5","5","5","4","4","5","4","5","5","7","8","8","6","7","8","7","8","8","7","7","5","7","7","5","5","3","7","7","1","6","5","6","6","6","7","5","7","6","7","6","5","5","7","7","7","6","6","7","7","7","5","7","6","5","7","7","5","7","7","781521029972627457","张","266","Female","[""好我"",""好她"",""坏我"",""坏她""]","[""强我"",""强她"",""弱我"",""弱她""]","","","","","","","","1","","","","","","","","","SRET","SRET_math_calculate","","key","1","16.680555555555557","1280","716","","","","","22/11= ?","2","0","","","","","","","",""
"125","","1","psychophysics","117","445986","0.0-7.0-5.0-0.14","7","6","7","6","5","4","5","5","5","5","5","2","-1","0","1","1","2","2","1","5","5","5","5","4","4","5","4","5","5","7","8","8","6","7","8","7","8","8","7","7","5","7","7","5","5","3","7","7","1","6","5","6","6","6","7","5","7","6","7","6","5","5","7","7","7","6","6","7","7","7","5","7","6","5","7","7","5","7","7","781521029972627457","张","266","Female","[""好我"",""好她"",""坏我"",""坏她""]","[""强我"",""强她"",""弱我"",""弱她""]","","","","","","","","1","","","","","","","","","SRET","SRET_math_calculate","","key","1","16.60000000000582","1280","716","","","","","4+2= ?","6","0","","","","","","","",""
"2007","","2","psychophysics","118","447994","0.0-7.0-5.0-0.15","7","6","7","6","5","4","5","5","5","5","5","2","-1","0","1","1","2","2","1","5","5","5","5","4","4","5","4","5","5","7","8","8","6","7","8","7","8","8","7","7","5","7","7","5","5","3","7","7","1","6","5","6","6","6","7","5","7","6","7","6","5","5","7","7","7","6","6","7","7","7","5","7","6","5","7","7","5","7","7","781521029972627457","张","266","Female","[""好我"",""好她"",""坏我"",""坏她""]","[""强我"",""强她"",""弱我"",""弱她""]","","","","","","","","2","","","","","","","","","SRET","SRET_math_calculate","","key","2","16.68083333333343","1280","716","","","","","9-7= ?","2","1","","","","","","","",""
"2036","","6","psychophysics","119","450034","0.0-7.0-5.0-0.16","7","6","7","6","5","4","5","5","5","5","5","2","-1","0","1","1","2","2","1","5","5","5","5","4","4","5","4","5","5","7","8","8","6","7","8","7","8","8","7","7","5","7","7","5","5","3","7","7","1","6","5","6","6","6","7","5","7","6","7","6","5","5","7","7","7","6","6","7","7","7","5","7","6","5","7","7","5","7","7","781521029972627457","张","266","Female","[""好我"",""好她"",""坏我"",""坏她""]","[""强我"",""强她"",""弱我"",""弱她""]","","","","","","","","6","","","","","","","","","SRET","SRET_math_calculate","","key","6","16.680165289256102","1280","716","","","","","8-2= ?","6","1","","","","","","","",""
"2208","","3","psychophysics","120","452242","0.0-7.0-5.0-0.17","7","6","7","6","5","4","5","5","5","5","5","2","-1","0","1","1","2","2","1","5","5","5","5","4","4","5","4","5","5","7","8","8","6","7","8","7","8","8","7","7","5","7","7","5","5","3","7","7","1","6","5","6","6","6","7","5","7","6","7","6","5","5","7","7","7","6","6","7","7","7","5","7","6","5","7","7","5","7","7","781521029972627457","张","266","Female","[""好我"",""好她"",""坏我"",""坏她""]","[""强我"",""强她"",""弱我"",""弱她""]","","","","","","","","3","","","","","","","","","SRET","SRET_math_calculate","","key","3","16.68320610687023","1280","716","","","","","12/4= ?","3","1","","","","","","","",""
"1919","","6","psychophysics","121","454163","0.0-7.0-5.0-0.18","7","6","7","6","5","4","5","5","5","5","5","2","-1","0","1","1","2","2","1","5","5","5","5","4","4","5","4","5","5","7","8","8","6","7","8","7","8","8","7","7","5","7","7","5","5","3","7","7","1","6","5","6","6","6","7","5","7","6","7","6","5","5","7","7","7","6","6","7","7","7","5","7","6","5","7","7","5","7","7","781521029972627457","张","266","Female","[""好我"",""好她"",""坏我"",""坏她""]","[""强我"",""强她"",""弱我"",""弱她""]","","","","","","","","6","","","","","","","","","SRET","SRET_math_calculate","","key","6","16.682456140350777","1280","716","","","","","2+4= ?","6","1","","","","","","","",""
"2188","","5","psychophysics","122","456355","0.0-7.0-5.0-0.19","7","6","7","6","5","4","5","5","5","5","5","2","-1","0","1","1","2","2","1","5","5","5","5","4","4","5","4","5","5","7","8","8","6","7","8","7","8","8","7","7","5","7","7","5","5","3","7","7","1","6","5","6","6","6","7","5","7","6","7","6","5","5","7","7","7","6","6","7","7","7","5","7","6","5","7","7","5","7","7","781521029972627457","张","266","Female","[""好我"",""好她"",""坏我"",""坏她""]","[""强我"",""强她"",""弱我"",""弱她""]","","","","","","","","5","","","","","","","","","SRET","SRET_math_calculate","","key","5","16.6793893129771","1280","716","","","","","15-10= ?","5","1","","","","","","","",""
"2021","","6","psychophysics","123","458379","0.0-7.0-5.0-0.20","7","6","7","6","5","4","5","5","5","5","5","2","-1","0","1","1","2","2","1","5","5","5","5","4","4","5","4","5","5","7","8","8","6","7","8","7","8","8","7","7","5","7","7","5","5","3","7","7","1","6","5","6","6","6","7","5","7","6","7","6","5","5","7","7","7","6","6","7","7","7","5","7","6","5","7","7","5","7","7","781521029972627457","张","266","Female","[""好我"",""好她"",""坏我"",""坏她""]","[""强我"",""强她"",""弱我"",""弱她""]","","","","","","","","6","","","","","","","","","SRET","SRET_math_calculate","","key","6","16.68083333333343","1280","716","","","","","3*2= ?","6","1","","","","","","","",""
"2279","","8","psychophysics","124","460659","0.0-7.0-5.0-0.21","7","6","7","6","5","4","5","5","5","5","5","2","-1","0","1","1","2","2","1","5","5","5","5","4","4","5","4","5","5","7","8","8","6","7","8","7","8","8","7","7","5","7","7","5","5","3","7","7","1","6","5","6","6","6","7","5","7","6","7","6","5","5","7","7","7","6","6","7","7","7","5","7","6","5","7","7","5","7","7","781521029972627457","张","266","Female","[""好我"",""好她"",""坏我"",""坏她""]","[""强我"",""强她"",""弱我"",""弱她""]","","","","","","","","8","","","","","","","","","SRET","SRET_math_calculate","","key","8","16.68014705882353","1280","716","","","","","56/7= ?","8","1","","","","","","","",""
"2079","","5","psychophysics","125","462739","0.0-7.0-5.0-0.22","7","6","7","6","5","4","5","5","5","5","5","2","-1","0","1","1","2","2","1","5","5","5","5","4","4","5","4","5","5","7","8","8","6","7","8","7","8","8","7","7","5","7","7","5","5","3","7","7","1","6","5","6","6","6","7","5","7","6","7","6","5","5","7","7","7","6","6","7","7","7","5","7","6","5","7","7","5","7","7","781521029972627457","张","266","Female","[""好我"",""好她"",""坏我"",""坏她""]","[""强我"",""强她"",""弱我"",""弱她""]","","","","","","","","5","","","","","","","","","SRET","SRET_math_calculate","","key","5","16.679838709677327","1280","716","","","","","14-9= ?","5","1","","","","","","","",""
"1743","","5","psychophysics","126","464484","0.0-7.0-5.0-0.23","7","6","7","6","5","4","5","5","5","5","5","2","-1","0","1","1","2","2","1","5","5","5","5","4","4","5","4","5","5","7","8","8","6","7","8","7","8","8","7","7","5","7","7","5","5","3","7","7","1","6","5","6","6","6","7","5","7","6","7","6","5","5","7","7","7","6","6","7","7","7","5","7","6","5","7","7","5","7","7","781521029972627457","张","266","Female","[""好我"",""好她"",""坏我"",""坏她""]","[""强我"",""强她"",""弱我"",""弱她""]","","","","","","","","5","","","","","","","","","SRET","SRET_math_calculate","","key","5","16.679611650485437","1280","716","","","","","3+2= ?","5","1","","","","","","","",""
"2213","","7","psychophysics","127","466700","0.0-7.0-5.0-0.24","7","6","7","6","5","4","5","5","5","5","5","2","-1","0","1","1","2","2","1","5","5","5","5","4","4","5","4","5","5","7","8","8","6","7","8","7","8","8","7","7","5","7","7","5","5","3","7","7","1","6","5","6","6","6","7","5","7","6","7","6","5","5","7","7","7","6","6","7","7","7","5","7","6","5","7","7","5","7","7","781521029972627457","张","266","Female","[""好我"",""好她"",""坏我"",""坏她""]","[""强我"",""强她"",""弱我"",""弱她""]","","","","","","","","7","","","","","","","","","SRET","SRET_math_calculate","","key","7","16.68030303030294","1280","716","","","","","13-6= ?","7","1","","","","","","","",""
"1904","","9","psychophysics","128","468604","0.0-7.0-5.0-0.25","7","6","7","6","5","4","5","5","5","5","5","2","-1","0","1","1","2","2","1","5","5","5","5","4","4","5","4","5","5","7","8","8","6","7","8","7","8","8","7","7","5","7","7","5","5","3","7","7","1","6","5","6","6","6","7","5","7","6","7","6","5","5","7","7","7","6","6","7","7","7","5","7","6","5","7","7","5","7","7","781521029972627457","张","266","Female","[""好我"",""好她"",""坏我"",""坏她""]","[""强我"",""强她"",""弱我"",""弱她""]","","","","","","","","9","","","","","","","","","SRET","SRET_math_calculate","","key","9","16.680530973451017","1280","716","","","","","3*3= ?","9","1","","","","","","","",""
"1872","","7","psychophysics","129","470476","0.0-7.0-5.0-0.26","7","6","7","6","5","4","5","5","5","5","5","2","-1","0","1","1","2","2","1","5","5","5","5","4","4","5","4","5","5","7","8","8","6","7","8","7","8","8","7","7","5","7","7","5","5","3","7","7","1","6","5","6","6","6","7","5","7","6","7","6","5","5","7","7","7","6","6","7","7","7","5","7","6","5","7","7","5","7","7","781521029972627457","张","266","Female","[""好我"",""好她"",""坏我"",""坏她""]","[""强我"",""强她"",""弱我"",""弱她""]","","","","","","","","7","","","","","","","","","SRET","SRET_math_calculate","","key","7","16.681249999999896","1280","716","","","","","2+5= ?","7","1","","","","","","","",""
"2245","","5","psychophysics","130","472724","0.0-7.0-5.0-0.27","7","6","7","6","5","4","5","5","5","5","5","2","-1","0","1","1","2","2","1","5","5","5","5","4","4","5","4","5","5","7","8","8","6","7","8","7","8","8","7","7","5","7","7","5","5","3","7","7","1","6","5","6","6","6","7","5","7","6","7","6","5","5","7","7","7","6","6","7","7","7","5","7","6","5","7","7","5","7","7","781521029972627457","张","266","Female","[""好我"",""好她"",""坏我"",""坏她""]","[""强我"",""强她"",""弱我"",""弱她""]","","","","","","","","5","","","","","","","","","SRET","SRET_math_calculate","","key","5","16.679699248120038","1280","716","","","","","12-7= ?","5","1","","","","","","","",""
"1820","","9","psychophysics","131","474548","0.0-7.0-5.0-0.28","7","6","7","6","5","4","5","5","5","5","5","2","-1","0","1","1","2","2","1","5","5","5","5","4","4","5","4","5","5","7","8","8","6","7","8","7","8","8","7","7","5","7","7","5","5","3","7","7","1","6","5","6","6","6","7","5","7","6","7","6","5","5","7","7","7","6","6","7","7","7","5","7","6","5","7","7","5","7","7","781521029972627457","张","266","Female","[""好我"",""好她"",""坏我"",""坏她""]","[""强我"",""强她"",""弱我"",""弱她""]","","","","","","","","9","","","","","","","","","SRET","SRET_math_calculate","","key","9","16.679816513761253","1280","716","","","","","7+2= ?","9","1","","","","","","","",""
"1992","","8","psychophysics","132","476541","0.0-7.0-5.0-0.29","7","6","7","6","5","4","5","5","5","5","5","2","-1","0","1","1","2","2","1","5","5","5","5","4","4","5","4","5","5","7","8","8","6","7","8","7","8","8","7","7","5","7","7","5","5","3","7","7","1","6","5","6","6","6","7","5","7","6","7","6","5","5","7","7","7","6","6","7","7","7","5","7","6","5","7","7","5","7","7","781521029972627457","张","266","Female","[""好我"",""好她"",""坏我"",""坏她""]","[""强我"",""强她"",""弱我"",""弱她""]","","","","","","","","8","","","","","","","","","SRET","SRET_math_calculate","","key","8","16.680508474576172","1280","716","","","","","8*1= ?","8","1","","","","","","","",""
"2125","","3","psychophysics","133","478669","0.0-7.0-5.0-0.30","7","6","7","6","5","4","5","5","5","5","5","2","-1","0","1","1","2","2","1","5","5","5","5","4","4","5","4","5","5","7","8","8","6","7","8","7","8","8","7","7","5","7","7","5","5","3","7","7","1","6","5","6","6","6","7","5","7","6","7","6","5","5","7","7","7","6","6","7","7","7","5","7","6","5","7","7","5","7","7","781521029972627457","张","266","Female","[""好我"",""好她"",""坏我"",""坏她""]","[""强我"",""强她"",""弱我"",""弱她""]","","","","","","","","3","","","","","","","","","SRET","SRET_math_calculate","","key","3","16.680314960630106","1280","716","","","","","9-6= ?","3","1","","","","","","","",""
"2264","","7","psychophysics","134","480933","0.0-7.0-5.0-0.31","7","6","7","6","5","4","5","5","5","5","5","2","-1","0","1","1","2","2","1","5","5","5","5","4","4","5","4","5","5","7","8","8","6","7","8","7","8","8","7","7","5","7","7","5","5","3","7","7","1","6","5","6","6","6","7","5","7","6","7","6","5","5","7","7","7","6","6","7","7","7","5","7","6","5","7","7","5","7","7","781521029972627457","张","266","Female","[""好我"",""好她"",""坏我"",""坏她""]","[""强我"",""强她"",""弱我"",""弱她""]","","","","","","","","7","","","","","","","","","SRET","SRET_math_calculate","","key","7","16.68059701492546","1280","716","","","","","21/3= ? ","7","1","","","","","","","",""
"1848","","9","psychophysics","135","482782","0.0-7.0-5.0-0.32","7","6","7","6","5","4","5","5","5","5","5","2","-1","0","1","1","2","2","1","5","5","5","5","4","4","5","4","5","5","7","8","8","6","7","8","7","8","8","7","7","5","7","7","5","5","3","7","7","1","6","5","6","6","6","7","5","7","6","7","6","5","5","7","7","7","6","6","7","7","7","5","7","6","5","7","7","5","7","7","781521029972627457","张","266","Female","[""好我"",""好她"",""坏我"",""坏她""]","[""强我"",""强她"",""弱我"",""弱她""]","","","","","","","","9","","","","","","","","","SRET","SRET_math_calculate","","key","9","16.681818181818183","1280","716","","","","","1*9= ?","9","1","","","","","","","",""
"1751","","9","psychophysics","136","484534","0.0-7.0-5.0-0.33","7","6","7","6","5","4","5","5","5","5","5","2","-1","0","1","1","2","2","1","5","5","5","5","4","4","5","4","5","5","7","8","8","6","7","8","7","8","8","7","7","5","7","7","5","5","3","7","7","1","6","5","6","6","6","7","5","7","6","7","6","5","5","7","7","7","6","6","7","7","7","5","7","6","5","7","7","5","7","7","781521029972627457","张","266","Female","[""好我"",""好她"",""坏我"",""坏她""]","[""强我"",""强她"",""弱我"",""弱她""]","","","","","","","","9","","","","","","","","","SRET","SRET_math_calculate","","key","9","16.680769230769677","1280","716","","","","","1+8= ?","9","1","","","","","","","",""
"1911","","5","psychophysics","137","486446","0.0-7.0-5.0-0.34","7","6","7","6","5","4","5","5","5","5","5","2","-1","0","1","1","2","2","1","5","5","5","5","4","4","5","4","5","5","7","8","8","6","7","8","7","8","8","7","7","5","7","7","5","5","3","7","7","1","6","5","6","6","6","7","5","7","6","7","6","5","5","7","7","7","6","6","7","7","7","5","7","6","5","7","7","5","7","7","781521029972627457","张","266","Female","[""好我"",""好她"",""坏我"",""坏她""]","[""强我"",""强她"",""弱我"",""弱她""]","","","","","","","","5","","","","","","","","","SRET","SRET_math_calculate","","key","5","16.67982456140351","1280","716","","","","","9-4= ?","5","1","","","","","","","",""
"1724","","5","psychophysics","138","488174","0.0-7.0-5.0-0.35","7","6","7","6","5","4","5","5","5","5","5","2","-1","0","1","1","2","2","1","5","5","5","5","4","4","5","4","5","5","7","8","8","6","7","8","7","8","8","7","7","5","7","7","5","5","3","7","7","1","6","5","6","6","6","7","5","7","6","7","6","5","5","7","7","7","6","6","7","7","7","5","7","6","5","7","7","5","7","7","781521029972627457","张","266","Female","[""好我"",""好她"",""坏我"",""坏她""]","[""强我"",""强她"",""弱我"",""弱她""]","","","","","","","","5","","","","","","","","","SRET","SRET_math_calculate","","key","5","16.67941176470577","1280","716","","","","","2+3= ?","5","1","","","","","","","",""
"1980","","7","psychophysics","139","490159","0.0-7.0-5.0-0.36","7","6","7","6","5","4","5","5","5","5","5","2","-1","0","1","1","2","2","1","5","5","5","5","4","4","5","4","5","5","7","8","8","6","7","8","7","8","8","7","7","5","7","7","5","5","3","7","7","1","6","5","6","6","6","7","5","7","6","7","6","5","5","7","7","7","6","6","7","7","7","5","7","6","5","7","7","5","7","7","781521029972627457","张","266","Female","[""好我"",""好她"",""坏我"",""坏她""]","[""强我"",""强她"",""弱我"",""弱她""]","","","","","","","","7","","","","","","","","","SRET","SRET_math_calculate","","key","7","16.680508474576172","1280","716","","","","","8-1= ?","7","1","","","","","","","",""
"1891","","0","psychophysics","140","492055","0.0-7.0-5.0-0.37","7","6","7","6","5","4","5","5","5","5","5","2","-1","0","1","1","2","2","1","5","5","5","5","4","4","5","4","5","5","7","8","8","6","7","8","7","8","8","7","7","5","7","7","5","5","3","7","7","1","6","5","6","6","6","7","5","7","6","7","6","5","5","7","7","7","6","6","7","7","7","5","7","6","5","7","7","5","7","7","781521029972627457","张","266","Female","[""好我"",""好她"",""坏我"",""坏她""]","[""强我"",""强她"",""弱我"",""弱她""]","","","","","","","","0","","","","","","","","","SRET","SRET_math_calculate","","key","0","16.680530973451017","1280","716","","","","","12-12= ?","0","1","","","","","","","",""
"1976","","8","psychophysics","141","494031","0.0-7.0-5.0-0.38","7","6","7","6","5","4","5","5","5","5","5","2","-1","0","1","1","2","2","1","5","5","5","5","4","4","5","4","5","5","7","8","8","6","7","8","7","8","8","7","7","5","7","7","5","5","3","7","7","1","6","5","6","6","6","7","5","7","6","7","6","5","5","7","7","7","6","6","7","7","7","5","7","6","5","7","7","5","7","7","781521029972627457","张","266","Female","[""好我"",""好她"",""坏我"",""坏她""]","[""强我"",""强她"",""弱我"",""弱她""]","","","","","","","","8","","","","","","","","","SRET","SRET_math_calculate","","key","8","16.68389830508435","1280","716","","","","","3+5= ?","8","1","","","","","","","",""
"1911","","6","psychophysics","142","495943","0.0-7.0-5.0-0.39","7","6","7","6","5","4","5","5","5","5","5","2","-1","0","1","1","2","2","1","5","5","5","5","4","4","5","4","5","5","7","8","8","6","7","8","7","8","8","7","7","5","7","7","5","5","3","7","7","1","6","5","6","6","6","7","5","7","6","7","6","5","5","7","7","7","6","6","7","7","7","5","7","6","5","7","7","5","7","7","781521029972627457","张","266","Female","[""好我"",""好她"",""坏我"",""坏她""]","[""强我"",""强她"",""弱我"",""弱她""]","","","","","","","","6","","","","","","","","","SRET","SRET_math_calculate","","key","6","16.677876106194486","1280","716","","","","","2*3= ?","6","1","","","","","","","",""
