"rt","stimulus","response","trial_type","trial_index","time_elapsed","internal_node_id","swb_1","swb_2","swb_3","swb_4","swb_5","LOT_1","LOT_2","LOT_3","LOT_4","LOT_5","LOT_6","IPC_1","IPC_2","IPC_3","IPC_4","IPC_5","IPC_6","IPC_7","IPC_8","MorIden_1","MorIden_2","MorIden_3","MorIden_4","MorIden_5","MorIden_6","MorIden_7","MorIden_8","MorIden_9","MorIden_10","moralSeImag_1","moralSeImag_2","moralSeImag_3","moralSeImag_4","moralSeImag_5","moralSeImag_6","moralSeImag_7","moralSeImag_8","moralSeImag_9","sde_1","sde_2","sde_3","sde_4","sde_5","sde_6","sde_7","sde_8","sde_9","sde_10","trap2","sde_11","sde_12","sde_13","sde_14","sde_15","sde_16","sde_17","sde_18","sde_19","sde_20","IM_1","IM_2","IM_3","IM_4","IM_5","IM_6","IM_7","IM_8","IM_9","IM_10","IM_11","IM_12","IM_13","IM_14","IM_15","IM_16","IM_17","IM_18","IM_19","IM_20","subj_idx","friend_name","ParticipantID","Sex","Word","Word2","value","success","timeout","failed_images","failed_audio","failed_video","user_agent","responses","item_order","radio_event_ids","radio_event_times","key_event_times","mouse_event_times","straightlining","zigzagging","honeypot","view_history","response_type","key_press","avg_frame_time","center_x","center_y","correct_response","correct","identity","Image","word","condition","task_id","screen_id","time_stamp","person","valence","domain","math","status","duration","question_order","trap2_item"
"5412","
   <p><div style='color:white; font-size: 25px'>您好，欢迎参加本次实验。</div></p>
   <p><div style='color:white; font-size: 25px'>为充分保障您的权利，请确保您已经知晓并同意《参与实验同意书》以及《数据公开知情同意书》。</div></p>
   <p><div style='color:white; font-size: 25px'>如果您未见过上述内容，请咨询实验员。</div></p>
   <p style='color:white; font-size: 25px'>如果您选择继续实验，则表示您已经清楚两份知情同意书的内容并同意。</p>
   <p><div style = ""color: pink;font-size:30px;"">请确保您记得day0的实验编号，您将在本次实验输入该编号，若您忘记，请咨询实验员后作答。</div></p>
   <p><div style = ""color:lightblue;font-size:25px;"">请您尽可能认真地作答，我们将依据您在各问卷和按键任务中的作答质量发放报酬。</div></p>
   <p> <div style = ""color: green""><按空格键至下页></div> </p>
   "," ","html-keyboard-response","0","5416","0.0-0.0","6","6","6","5","6","5","3","4","4","4","5","0","0","1","1","-1","0","0","1","4","4","4","4","3","4","4","4","4","4","4","5","4","5","3","4","4","4","5","4","6","5","4","5","3","3","2","5","4","1","2","3","5","3","4","3","3","6","5","4","3","4","3","2","3","6","2","6","3","6","4","3","5","4","3","5","6","4","2","4","799642454209994753","张","552","Male","[""好我"",""坏我"",""好他"",""坏他""]","[""强我"",""弱我"",""强他"",""弱他""]","","","","","","","","","","","","","","","","","","","","","","","","","","","","","","","","","","","","","","",""
"","","","call-function","1","5419","0.0-1.0-0.0","6","6","6","5","6","5","3","4","4","4","5","0","0","1","1","-1","0","0","1","4","4","4","4","3","4","4","4","4","4","4","5","4","5","3","4","4","4","5","4","6","5","4","5","3","3","2","5","4","1","2","3","5","3","4","3","3","6","5","4","3","4","3","2","3","6","2","6","3","6","4","3","5","4","3","5","6","4","2","4","799642454209994753","张","552","Male","[""好我"",""坏我"",""好他"",""坏他""]","[""强我"",""弱我"",""强他"",""弱他""]","","","","","","","","","","","","","","","","","","","","","","","","","","","","","","","","","","","","","","",""
"10274","","[{""name"":""Sex"",""value"":""0""},{""name"":""friend_name"",""value"":""张""},{""name"":""ParticipantID"",""value"":""552""}]","survey-html-form","2","15695","0.0-1.0-1.0","6","6","6","5","6","5","3","4","4","4","5","0","0","1","1","-1","0","0","1","4","4","4","4","3","4","4","4","4","4","4","5","4","5","3","4","4","4","5","4","6","5","4","5","3","3","2","5","4","1","2","3","5","3","4","3","3","6","5","4","3","4","3","2","3","6","2","6","3","6","4","3","5","4","3","5","6","4","2","4","799642454209994753","张","552","Male","[""好我"",""坏我"",""好他"",""坏他""]","[""强我"",""弱我"",""强他"",""弱他""]","","","","","","","","","","","","","","","","","","","","","","","","","","","","","","","","","","","","","","",""
"","","","preload","3","34264","0.0-2.0","6","6","6","5","6","5","3","4","4","4","5","0","0","1","1","-1","0","0","1","4","4","4","4","3","4","4","4","4","4","4","5","4","5","3","4","4","4","5","4","6","5","4","5","3","3","2","5","4","1","2","3","5","3","4","3","3","6","5","4","3","4","3","2","3","6","2","6","3","6","4","3","5","4","3","5","6","4","2","4","799642454209994753","张","552","Male","[""好我"",""坏我"",""好他"",""坏他""]","[""强我"",""弱我"",""强他"",""弱他""]","","true","false","[]","[]","[]","","","","","","","","","","","","","","","","","","","","","","","","","","","","","","","","",""
"","","","fullscreen","4","36152","0.0-3.0","6","6","6","5","6","5","3","4","4","4","5","0","0","1","1","-1","0","0","1","4","4","4","4","3","4","4","4","4","4","4","5","4","5","3","4","4","4","5","4","6","5","4","5","3","3","2","5","4","1","2","3","5","3","4","3","3","6","5","4","3","4","3","2","3","6","2","6","3","6","4","3","5","4","3","5","6","4","2","4","799642454209994753","张","552","Male","[""好我"",""坏我"",""好他"",""坏他""]","[""强我"",""弱我"",""强他"",""弱他""]","","true","","","","","{}","","","","","","","","","","","","","","","","","","","","","","","","","","","","","","","",""
"12121.30000000447","","{""Q01"":""6"",""Q02"":""6"",""Q03"":""6"",""Q04"":""5"",""Q05"":""6""}","survey-template","5","48277","0.0-4.0","6","6","6","5","6","5","3","4","4","4","5","0","0","1","1","-1","0","0","1","4","4","4","4","3","4","4","4","4","4","4","5","4","5","3","4","4","4","5","4","6","5","4","5","3","3","2","5","4","1","2","3","5","3","4","3","3","6","5","4","3","4","3","2","3","6","2","6","3","6","4","3","5","4","3","5","6","4","2","4","799642454209994753","张","552","Male","[""好我"",""坏我"",""好他"",""坏他""]","[""强我"",""弱我"",""强他"",""弱他""]","","","","","","","","{""Q01"":""6"",""Q02"":""6"",""Q03"":""6"",""Q04"":""5"",""Q05"":""6""}","[0,1,2,3,4]","[""Q01"",""Q02"",""Q03"",""Q04"",""Q05""]","[5766.20000000298,6796.70000000298,8738.60000000149,9722.89999999851,11234.10000000149]","[]","[4518.70000000298,5766.20000000298,6796.70000000298,8738.60000000149,9722.89999999851,11234.10000000149,12119.89999999851]","0.8","0.5","0","","","","","","","","","","","","","","","","","","","","","","",""
"17623.30000000447","","{""Q01"":""5"",""Q02"":""3"",""Q03"":""4"",""Q04"":""4"",""Q05"":""4"",""Q06"":""5""}","survey-template","6","65909","0.0-5.0","6","6","6","5","6","5","3","4","4","4","5","0","0","1","1","-1","0","0","1","4","4","4","4","3","4","4","4","4","4","4","5","4","5","3","4","4","4","5","4","6","5","4","5","3","3","2","5","4","1","2","3","5","3","4","3","3","6","5","4","3","4","3","2","3","6","2","6","3","6","4","3","5","4","3","5","6","4","2","4","799642454209994753","张","552","Male","[""好我"",""坏我"",""好他"",""坏他""]","[""强我"",""弱我"",""强他"",""弱他""]","","","","","","","","{""Q01"":""5"",""Q02"":""3"",""Q03"":""4"",""Q04"":""4"",""Q05"":""4"",""Q06"":""5""}","[0,1,2,3,4,5]","[""Q01"",""Q02"",""Q03"",""Q04"",""Q05"",""Q06""]","[3180.4000000059605,5985.4000000059605,7401,11597.60000000149,13843.90000000596,16808.80000000447]","[]","[3180.4000000059605,5985.4000000059605,7401,9911.5,11597.60000000149,13843.90000000596,16026.60000000149,16808.80000000447,17622.40000000596]","0.3333333333333333","0.2","0","","","","","","","","","","","","","","","","","","","","","","",""
"23956.79999999702","","{""Q01"":""0"",""Q02"":""0"",""Q03"":""1"",""Q04"":""1"",""Q05"":""-1"",""Q06"":""0"",""Q07"":""0"",""Q08"":""1""}","survey-template","7","89873","0.0-6.0","6","6","6","5","6","5","3","4","4","4","5","0","0","1","1","-1","0","0","1","4","4","4","4","3","4","4","4","4","4","4","5","4","5","3","4","4","4","5","4","6","5","4","5","3","3","2","5","4","1","2","3","5","3","4","3","3","6","5","4","3","4","3","2","3","6","2","6","3","6","4","3","5","4","3","5","6","4","2","4","799642454209994753","张","552","Male","[""好我"",""坏我"",""好他"",""坏他""]","[""强我"",""弱我"",""强他"",""弱他""]","","","","","","","","{""Q01"":""0"",""Q02"":""0"",""Q03"":""1"",""Q04"":""1"",""Q05"":""-1"",""Q06"":""0"",""Q07"":""0"",""Q08"":""1""}","[0,1,2,3,4,5,6,7]","[""Q01"",""Q02"",""Q03"",""Q03"",""Q04"",""Q05"",""Q06"",""Q07"",""Q08""]","[3086.89999999851,8738,10456.39999999851,11695.70000000298,13829.20000000298,15419.70000000298,18145.20000000298,21382.39999999851,22566]","[]","[3086.89999999851,7011.10000000149,8738,10456.39999999851,11695.70000000298,13829.20000000298,15419.70000000298,18145.20000000298,21382.39999999851,22566,23955.5]","0.5","0.42857142857142855","0","","","","","","","","","","","","","","","","","","","","","","",""
"5488","","","instructions","8","95367","0.0-7.0","6","6","6","5","6","5","3","4","4","4","5","0","0","1","1","-1","0","0","1","4","4","4","4","3","4","4","4","4","4","4","5","4","5","3","4","4","4","5","4","6","5","4","5","3","3","2","5","4","1","2","3","5","3","4","3","3","6","5","4","3","4","3","2","3","6","2","6","3","6","4","3","5","4","3","5","6","4","2","4","799642454209994753","张","552","Male","[""好我"",""坏我"",""好他"",""坏他""]","[""强我"",""弱我"",""强他"",""弱他""]","","","","","","","","","","","","","","","","","[{""page_index"":0,""viewing_time"":5488}]","","","","","","","","","","","","","","","","","","","","","",""
"33808","","","instructions","9","129177","0.0-8.0-1.0-0.0","6","6","6","5","6","5","3","4","4","4","5","0","0","1","1","-1","0","0","1","4","4","4","4","3","4","4","4","4","4","4","5","4","5","3","4","4","4","5","4","6","5","4","5","3","3","2","5","4","1","2","3","5","3","4","3","3","6","5","4","3","4","3","2","3","6","2","6","3","6","4","3","5","4","3","5","6","4","2","4","799642454209994753","张","552","Male","[""好我"",""坏我"",""好他"",""坏他""]","[""强我"",""弱我"",""强他"",""弱他""]","","","","","","","","","","","","","","","","","[{""page_index"":0,""viewing_time"":9310},{""page_index"":1,""viewing_time"":18183},{""page_index"":2,""viewing_time"":4596},{""page_index"":3,""viewing_time"":1719}]","","","","","","","","","","","","","","","","","","","","","",""
"null","","null","psychophysics","10","131387","0.0-8.0-1.0-1.0-0.0-0.0","6","6","6","5","6","5","3","4","4","4","5","0","0","1","1","-1","0","0","1","4","4","4","4","3","4","4","4","4","4","4","5","4","5","3","4","4","4","5","4","6","5","4","5","3","3","2","5","4","1","2","3","5","3","4","3","3","6","5","4","3","4","3","2","3","6","2","6","3","6","4","3","5","4","3","5","6","4","2","4","799642454209994753","张","552","Male","[""好我"",""坏我"",""好他"",""坏他""]","[""强我"",""弱我"",""强他"",""弱他""]","","","","","","","","null","","","","","","","","","","key","null","16.66935606060614","735","456","f","false","match","img/square.png","强我","强我","prac_ALT2_ability","practice_ability","","","","","","","","",""
"null","<span class='add_' style='color:yellow; font-size: 70px;'> 太慢! </span>","null","html-keyboard-response","11","131891","0.0-8.0-1.0-1.0-0.0-1.0","6","6","6","5","6","5","3","4","4","4","5","0","0","1","1","-1","0","0","1","4","4","4","4","3","4","4","4","4","4","4","5","4","5","3","4","4","4","5","4","6","5","4","5","3","3","2","5","4","1","2","3","5","3","4","3","3","6","5","4","3","4","3","2","3","6","2","6","3","6","4","3","5","4","3","5","6","4","2","4","799642454209994753","张","552","Male","[""好我"",""坏我"",""好他"",""坏他""]","[""强我"",""弱我"",""强他"",""弱他""]","","","","","","","","","","","","","","","","","","","","","","","","","","","","","","feedback_test","","","","","","","","",""
"732","","j","psychophysics","12","133626","0.0-8.0-1.0-1.0-0.0-0.1","6","6","6","5","6","5","3","4","4","4","5","0","0","1","1","-1","0","0","1","4","4","4","4","3","4","4","4","4","4","4","5","4","5","3","4","4","4","5","4","6","5","4","5","3","3","2","5","4","1","2","3","5","3","4","3","3","6","5","4","3","4","3","2","3","6","2","6","3","6","4","3","5","4","3","5","6","4","2","4","799642454209994753","张","552","Male","[""好我"",""坏我"",""好他"",""坏他""]","[""强我"",""弱我"",""强他"",""弱他""]","","","","","","","","nonmatch","","","","","","","","","","key","j","16.666000000000263","735","456","f","false","match","img/circle.png","强他","强他","prac_ALT2_ability","practice_ability","","","","","","","","",""
"null","<span style='color:red; font-size: 70px;'>错误! </span>","null","html-keyboard-response","13","134128","0.0-8.0-1.0-1.0-0.0-1.1","6","6","6","5","6","5","3","4","4","4","5","0","0","1","1","-1","0","0","1","4","4","4","4","3","4","4","4","4","4","4","5","4","5","3","4","4","4","5","4","6","5","4","5","3","3","2","5","4","1","2","3","5","3","4","3","3","6","5","4","3","4","3","2","3","6","2","6","3","6","4","3","5","4","3","5","6","4","2","4","799642454209994753","张","552","Male","[""好我"",""坏我"",""好他"",""坏他""]","[""强我"",""弱我"",""强他"",""弱他""]","","","","","","","","","","","","","","","","","","","","","","","","","","","","","","feedback_test","","","","","","","","",""
"793","","j","psychophysics","14","135924","0.0-8.0-1.0-1.0-0.0-0.2","6","6","6","5","6","5","3","4","4","4","5","0","0","1","1","-1","0","0","1","4","4","4","4","3","4","4","4","4","4","4","5","4","5","3","4","4","4","5","4","6","5","4","5","3","3","2","5","4","1","2","3","5","3","4","3","3","6","5","4","3","4","3","2","3","6","2","6","3","6","4","3","5","4","3","5","6","4","2","4","799642454209994753","张","552","Male","[""好我"",""坏我"",""好他"",""坏他""]","[""强我"",""弱我"",""强他"",""弱他""]","","","","","","","","nonmatch","","","","","","","","","","key","j","16.66600000000016","735","456","j","true","nonmatch","img/square.png","弱他","强我","prac_ALT2_ability","practice_ability","","","","","","","","",""
"null","<span style='color:GreenYellow; font-size: 70px;'>正确! </span>","null","html-keyboard-response","15","136425","0.0-8.0-1.0-1.0-0.0-1.2","6","6","6","5","6","5","3","4","4","4","5","0","0","1","1","-1","0","0","1","4","4","4","4","3","4","4","4","4","4","4","5","4","5","3","4","4","4","5","4","6","5","4","5","3","3","2","5","4","1","2","3","5","3","4","3","3","6","5","4","3","4","3","2","3","6","2","6","3","6","4","3","5","4","3","5","6","4","2","4","799642454209994753","张","552","Male","[""好我"",""坏我"",""好他"",""坏他""]","[""强我"",""弱我"",""强他"",""弱他""]","","","","","","","","","","","","","","","","","","","","","","","","","","","","","","feedback_test","","","","","","","","",""
"null","","null","psychophysics","16","138643","0.0-8.0-1.0-1.0-0.0-0.3","6","6","6","5","6","5","3","4","4","4","5","0","0","1","1","-1","0","0","1","4","4","4","4","3","4","4","4","4","4","4","5","4","5","3","4","4","4","5","4","6","5","4","5","3","3","2","5","4","1","2","3","5","3","4","3","3","6","5","4","3","4","3","2","3","6","2","6","3","6","4","3","5","4","3","5","6","4","2","4","799642454209994753","张","552","Male","[""好我"",""坏我"",""好他"",""坏他""]","[""强我"",""弱我"",""强他"",""弱他""]","","","","","","","","null","","","","","","","","","","key","null","16.666000000000086","735","456","f","false","match","img/diamond.png","弱我","弱我","prac_ALT2_ability","practice_ability","","","","","","","","",""
"null","<span class='add_' style='color:yellow; font-size: 70px;'> 太慢! </span>","null","html-keyboard-response","17","139145","0.0-8.0-1.0-1.0-0.0-1.3","6","6","6","5","6","5","3","4","4","4","5","0","0","1","1","-1","0","0","1","4","4","4","4","3","4","4","4","4","4","4","5","4","5","3","4","4","4","5","4","6","5","4","5","3","3","2","5","4","1","2","3","5","3","4","3","3","6","5","4","3","4","3","2","3","6","2","6","3","6","4","3","5","4","3","5","6","4","2","4","799642454209994753","张","552","Male","[""好我"",""坏我"",""好他"",""坏他""]","[""强我"",""弱我"",""强他"",""弱他""]","","","","","","","","","","","","","","","","","","","","","","","","","","","","","","feedback_test","","","","","","","","",""
"727","","f","psychophysics","18","140875","0.0-8.0-1.0-1.0-0.0-0.4","6","6","6","5","6","5","3","4","4","4","5","0","0","1","1","-1","0","0","1","4","4","4","4","3","4","4","4","4","4","4","5","4","5","3","4","4","4","5","4","6","5","4","5","3","3","2","5","4","1","2","3","5","3","4","3","3","6","5","4","3","4","3","2","3","6","2","6","3","6","4","3","5","4","3","5","6","4","2","4","799642454209994753","张","552","Male","[""好我"",""坏我"",""好他"",""坏他""]","[""强我"",""弱我"",""强他"",""弱他""]","","","","","","","","match","","","","","","","","","","key","f","16.665999999999983","735","456","f","true","match","img/square.png","强我","强我","prac_ALT2_ability","practice_ability","","","","","","","","",""
"null","<span style='color:GreenYellow; font-size: 70px;'>正确! </span>","null","html-keyboard-response","19","141378","0.0-8.0-1.0-1.0-0.0-1.4","6","6","6","5","6","5","3","4","4","4","5","0","0","1","1","-1","0","0","1","4","4","4","4","3","4","4","4","4","4","4","5","4","5","3","4","4","4","5","4","6","5","4","5","3","3","2","5","4","1","2","3","5","3","4","3","3","6","5","4","3","4","3","2","3","6","2","6","3","6","4","3","5","4","3","5","6","4","2","4","799642454209994753","张","552","Male","[""好我"",""坏我"",""好他"",""坏他""]","[""强我"",""弱我"",""强他"",""弱他""]","","","","","","","","","","","","","","","","","","","","","","","","","","","","","","feedback_test","","","","","","","","",""
"645","","f","psychophysics","20","143026","0.0-8.0-1.0-1.0-0.0-0.5","6","6","6","5","6","5","3","4","4","4","5","0","0","1","1","-1","0","0","1","4","4","4","4","3","4","4","4","4","4","4","5","4","5","3","4","4","4","5","4","6","5","4","5","3","3","2","5","4","1","2","3","5","3","4","3","3","6","5","4","3","4","3","2","3","6","2","6","3","6","4","3","5","4","3","5","6","4","2","4","799642454209994753","张","552","Male","[""好我"",""坏我"",""好他"",""坏他""]","[""强我"",""弱我"",""强他"",""弱他""]","","","","","","","","match","","","","","","","","","","key","f","16.669387755101802","735","456","j","false","nonmatch","img/circle.png","弱我","强他","prac_ALT2_ability","practice_ability","","","","","","","","",""
"null","<span style='color:red; font-size: 70px;'>错误! </span>","null","html-keyboard-response","21","143527","0.0-8.0-1.0-1.0-0.0-1.5","6","6","6","5","6","5","3","4","4","4","5","0","0","1","1","-1","0","0","1","4","4","4","4","3","4","4","4","4","4","4","5","4","5","3","4","4","4","5","4","6","5","4","5","3","3","2","5","4","1","2","3","5","3","4","3","3","6","5","4","3","4","3","2","3","6","2","6","3","6","4","3","5","4","3","5","6","4","2","4","799642454209994753","张","552","Male","[""好我"",""坏我"",""好他"",""坏他""]","[""强我"",""弱我"",""强他"",""弱他""]","","","","","","","","","","","","","","","","","","","","","","","","","","","","","","feedback_test","","","","","","","","",""
"939","","j","psychophysics","22","145469","0.0-8.0-1.0-1.0-0.0-0.6","6","6","6","5","6","5","3","4","4","4","5","0","0","1","1","-1","0","0","1","4","4","4","4","3","4","4","4","4","4","4","5","4","5","3","4","4","4","5","4","6","5","4","5","3","3","2","5","4","1","2","3","5","3","4","3","3","6","5","4","3","4","3","2","3","6","2","6","3","6","4","3","5","4","3","5","6","4","2","4","799642454209994753","张","552","Male","[""好我"",""坏我"",""好他"",""坏他""]","[""强我"",""弱我"",""强他"",""弱他""]","","","","","","","","nonmatch","","","","","","","","","","key","j","16.665999999999947","735","456","j","true","nonmatch","img/diamond.png","强他","弱我","prac_ALT2_ability","practice_ability","","","","","","","","",""
"null","<span style='color:GreenYellow; font-size: 70px;'>正确! </span>","null","html-keyboard-response","23","145971","0.0-8.0-1.0-1.0-0.0-1.6","6","6","6","5","6","5","3","4","4","4","5","0","0","1","1","-1","0","0","1","4","4","4","4","3","4","4","4","4","4","4","5","4","5","3","4","4","4","5","4","6","5","4","5","3","3","2","5","4","1","2","3","5","3","4","3","3","6","5","4","3","4","3","2","3","6","2","6","3","6","4","3","5","4","3","5","6","4","2","4","799642454209994753","张","552","Male","[""好我"",""坏我"",""好他"",""坏他""]","[""强我"",""弱我"",""强他"",""弱他""]","","","","","","","","","","","","","","","","","","","","","","","","","","","","","","feedback_test","","","","","","","","",""
"835","","f","psychophysics","24","147809","0.0-8.0-1.0-1.0-0.0-0.7","6","6","6","5","6","5","3","4","4","4","5","0","0","1","1","-1","0","0","1","4","4","4","4","3","4","4","4","4","4","4","5","4","5","3","4","4","4","5","4","6","5","4","5","3","3","2","5","4","1","2","3","5","3","4","3","3","6","5","4","3","4","3","2","3","6","2","6","3","6","4","3","5","4","3","5","6","4","2","4","799642454209994753","张","552","Male","[""好我"",""坏我"",""好他"",""坏他""]","[""强我"",""弱我"",""强他"",""弱他""]","","","","","","","","match","","","","","","","","","","key","f","16.66600000000011","735","456","j","false","nonmatch","img/hexagon.png","强他","弱他","prac_ALT2_ability","practice_ability","","","","","","","","",""
"null","<span style='color:red; font-size: 70px;'>错误! </span>","null","html-keyboard-response","25","148311","0.0-8.0-1.0-1.0-0.0-1.7","6","6","6","5","6","5","3","4","4","4","5","0","0","1","1","-1","0","0","1","4","4","4","4","3","4","4","4","4","4","4","5","4","5","3","4","4","4","5","4","6","5","4","5","3","3","2","5","4","1","2","3","5","3","4","3","3","6","5","4","3","4","3","2","3","6","2","6","3","6","4","3","5","4","3","5","6","4","2","4","799642454209994753","张","552","Male","[""好我"",""坏我"",""好他"",""坏他""]","[""强我"",""弱我"",""强他"",""弱他""]","","","","","","","","","","","","","","","","","","","","","","","","","","","","","","feedback_test","","","","","","","","",""
"933","","f","psychophysics","26","150247","0.0-8.0-1.0-1.0-0.0-0.8","6","6","6","5","6","5","3","4","4","4","5","0","0","1","1","-1","0","0","1","4","4","4","4","3","4","4","4","4","4","4","5","4","5","3","4","4","4","5","4","6","5","4","5","3","3","2","5","4","1","2","3","5","3","4","3","3","6","5","4","3","4","3","2","3","6","2","6","3","6","4","3","5","4","3","5","6","4","2","4","799642454209994753","张","552","Male","[""好我"",""坏我"",""好他"",""坏他""]","[""强我"",""弱我"",""强他"",""弱他""]","","","","","","","","match","","","","","","","","","","key","f","16.66599999999997","735","456","f","true","match","img/hexagon.png","弱他","弱他","prac_ALT2_ability","practice_ability","","","","","","","","",""
"null","<span style='color:GreenYellow; font-size: 70px;'>正确! </span>","null","html-keyboard-response","27","150750","0.0-8.0-1.0-1.0-0.0-1.8","6","6","6","5","6","5","3","4","4","4","5","0","0","1","1","-1","0","0","1","4","4","4","4","3","4","4","4","4","4","4","5","4","5","3","4","4","4","5","4","6","5","4","5","3","3","2","5","4","1","2","3","5","3","4","3","3","6","5","4","3","4","3","2","3","6","2","6","3","6","4","3","5","4","3","5","6","4","2","4","799642454209994753","张","552","Male","[""好我"",""坏我"",""好他"",""坏他""]","[""强我"",""弱我"",""强他"",""弱他""]","","","","","","","","","","","","","","","","","","","","","","","","","","","","","","feedback_test","","","","","","","","",""
"862","","j","psychophysics","28","152614","0.0-8.0-1.0-1.0-0.0-0.9","6","6","6","5","6","5","3","4","4","4","5","0","0","1","1","-1","0","0","1","4","4","4","4","3","4","4","4","4","4","4","5","4","5","3","4","4","4","5","4","6","5","4","5","3","3","2","5","4","1","2","3","5","3","4","3","3","6","5","4","3","4","3","2","3","6","2","6","3","6","4","3","5","4","3","5","6","4","2","4","799642454209994753","张","552","Male","[""好我"",""坏我"",""好他"",""坏他""]","[""强我"",""弱我"",""强他"",""弱他""]","","","","","","","","nonmatch","","","","","","","","","","key","j","16.668890909090987","735","456","j","true","nonmatch","img/hexagon.png","弱我","弱他","prac_ALT2_ability","practice_ability","","","","","","","","",""
"null","<span style='color:GreenYellow; font-size: 70px;'>正确! </span>","null","html-keyboard-response","29","153116","0.0-8.0-1.0-1.0-0.0-1.9","6","6","6","5","6","5","3","4","4","4","5","0","0","1","1","-1","0","0","1","4","4","4","4","3","4","4","4","4","4","4","5","4","5","3","4","4","4","5","4","6","5","4","5","3","3","2","5","4","1","2","3","5","3","4","3","3","6","5","4","3","4","3","2","3","6","2","6","3","6","4","3","5","4","3","5","6","4","2","4","799642454209994753","张","552","Male","[""好我"",""坏我"",""好他"",""坏他""]","[""强我"",""弱我"",""强他"",""弱他""]","","","","","","","","","","","","","","","","","","","","","","","","","","","","","","feedback_test","","","","","","","","",""
"757","","f","psychophysics","30","154875","0.0-8.0-1.0-1.0-0.0-0.10","6","6","6","5","6","5","3","4","4","4","5","0","0","1","1","-1","0","0","1","4","4","4","4","3","4","4","4","4","4","4","5","4","5","3","4","4","4","5","4","6","5","4","5","3","3","2","5","4","1","2","3","5","3","4","3","3","6","5","4","3","4","3","2","3","6","2","6","3","6","4","3","5","4","3","5","6","4","2","4","799642454209994753","张","552","Male","[""好我"",""坏我"",""好他"",""坏他""]","[""强我"",""弱我"",""强他"",""弱他""]","","","","","","","","match","","","","","","","","","","key","f","16.665999999999958","735","456","j","false","nonmatch","img/diamond.png","强我","弱我","prac_ALT2_ability","practice_ability","","","","","","","","",""
"null","<span style='color:red; font-size: 70px;'>错误! </span>","null","html-keyboard-response","31","155377","0.0-8.0-1.0-1.0-0.0-1.10","6","6","6","5","6","5","3","4","4","4","5","0","0","1","1","-1","0","0","1","4","4","4","4","3","4","4","4","4","4","4","5","4","5","3","4","4","4","5","4","6","5","4","5","3","3","2","5","4","1","2","3","5","3","4","3","3","6","5","4","3","4","3","2","3","6","2","6","3","6","4","3","5","4","3","5","6","4","2","4","799642454209994753","张","552","Male","[""好我"",""坏我"",""好他"",""坏他""]","[""强我"",""弱我"",""强他"",""弱他""]","","","","","","","","","","","","","","","","","","","","","","","","","","","","","","feedback_test","","","","","","","","",""
"980","","j","psychophysics","32","157359","0.0-8.0-1.0-1.0-0.0-0.11","6","6","6","5","6","5","3","4","4","4","5","0","0","1","1","-1","0","0","1","4","4","4","4","3","4","4","4","4","4","4","5","4","5","3","4","4","4","5","4","6","5","4","5","3","3","2","5","4","1","2","3","5","3","4","3","3","6","5","4","3","4","3","2","3","6","2","6","3","6","4","3","5","4","3","5","6","4","2","4","799642454209994753","张","552","Male","[""好我"",""坏我"",""好他"",""坏他""]","[""强我"",""弱我"",""强他"",""弱他""]","","","","","","","","nonmatch","","","","","","","","","","key","j","16.665999999999904","735","456","f","false","match","img/diamond.png","弱我","弱我","prac_ALT2_ability","practice_ability","","","","","","","","",""
"null","<span style='color:red; font-size: 70px;'>错误! </span>","null","html-keyboard-response","33","157860","0.0-8.0-1.0-1.0-0.0-1.11","6","6","6","5","6","5","3","4","4","4","5","0","0","1","1","-1","0","0","1","4","4","4","4","3","4","4","4","4","4","4","5","4","5","3","4","4","4","5","4","6","5","4","5","3","3","2","5","4","1","2","3","5","3","4","3","3","6","5","4","3","4","3","2","3","6","2","6","3","6","4","3","5","4","3","5","6","4","2","4","799642454209994753","张","552","Male","[""好我"",""坏我"",""好他"",""坏他""]","[""强我"",""弱我"",""强他"",""弱他""]","","","","","","","","","","","","","","","","","","","","","","","","","","","","","","feedback_test","","","","","","","","",""
"1120","","f","psychophysics","34","159983","0.0-8.0-1.0-1.0-0.0-0.12","6","6","6","5","6","5","3","4","4","4","5","0","0","1","1","-1","0","0","1","4","4","4","4","3","4","4","4","4","4","4","5","4","5","3","4","4","4","5","4","6","5","4","5","3","3","2","5","4","1","2","3","5","3","4","3","3","6","5","4","3","4","3","2","3","6","2","6","3","6","4","3","5","4","3","5","6","4","2","4","799642454209994753","张","552","Male","[""好我"",""坏我"",""好他"",""坏他""]","[""强我"",""弱我"",""强他"",""弱他""]","","","","","","","","match","","","","","","","","","","key","f","16.66599999999998","735","456","f","true","match","img/hexagon.png","弱他","弱他","prac_ALT2_ability","practice_ability","","","","","","","","",""
"null","<span style='color:GreenYellow; font-size: 70px;'>正确! </span>","null","html-keyboard-response","35","160485","0.0-8.0-1.0-1.0-0.0-1.12","6","6","6","5","6","5","3","4","4","4","5","0","0","1","1","-1","0","0","1","4","4","4","4","3","4","4","4","4","4","4","5","4","5","3","4","4","4","5","4","6","5","4","5","3","3","2","5","4","1","2","3","5","3","4","3","3","6","5","4","3","4","3","2","3","6","2","6","3","6","4","3","5","4","3","5","6","4","2","4","799642454209994753","张","552","Male","[""好我"",""坏我"",""好他"",""坏他""]","[""强我"",""弱我"",""强他"",""弱他""]","","","","","","","","","","","","","","","","","","","","","","","","","","","","","","feedback_test","","","","","","","","",""
"805","","j","psychophysics","36","162292","0.0-8.0-1.0-1.0-0.0-0.13","6","6","6","5","6","5","3","4","4","4","5","0","0","1","1","-1","0","0","1","4","4","4","4","3","4","4","4","4","4","4","5","4","5","3","4","4","4","5","4","6","5","4","5","3","3","2","5","4","1","2","3","5","3","4","3","3","6","5","4","3","4","3","2","3","6","2","6","3","6","4","3","5","4","3","5","6","4","2","4","799642454209994753","张","552","Male","[""好我"",""坏我"",""好他"",""坏他""]","[""强我"",""弱我"",""强他"",""弱他""]","","","","","","","","nonmatch","","","","","","","","","","key","j","16.668971962616702","735","456","j","true","nonmatch","img/circle.png","强我","强他","prac_ALT2_ability","practice_ability","","","","","","","","",""
"null","<span style='color:GreenYellow; font-size: 70px;'>正确! </span>","null","html-keyboard-response","37","162793","0.0-8.0-1.0-1.0-0.0-1.13","6","6","6","5","6","5","3","4","4","4","5","0","0","1","1","-1","0","0","1","4","4","4","4","3","4","4","4","4","4","4","5","4","5","3","4","4","4","5","4","6","5","4","5","3","3","2","5","4","1","2","3","5","3","4","3","3","6","5","4","3","4","3","2","3","6","2","6","3","6","4","3","5","4","3","5","6","4","2","4","799642454209994753","张","552","Male","[""好我"",""坏我"",""好他"",""坏他""]","[""强我"",""弱我"",""强他"",""弱他""]","","","","","","","","","","","","","","","","","","","","","","","","","","","","","","feedback_test","","","","","","","","",""
"1040","","j","psychophysics","38","164836","0.0-8.0-1.0-1.0-0.0-0.14","6","6","6","5","6","5","3","4","4","4","5","0","0","1","1","-1","0","0","1","4","4","4","4","3","4","4","4","4","4","4","5","4","5","3","4","4","4","5","4","6","5","4","5","3","3","2","5","4","1","2","3","5","3","4","3","3","6","5","4","3","4","3","2","3","6","2","6","3","6","4","3","5","4","3","5","6","4","2","4","799642454209994753","张","552","Male","[""好我"",""坏我"",""好他"",""坏他""]","[""强我"",""弱我"",""强他"",""弱他""]","","","","","","","","nonmatch","","","","","","","","","","key","j","16.666000000000064","735","456","f","false","match","img/hexagon.png","弱他","弱他","prac_ALT2_ability","practice_ability","","","","","","","","",""
"null","<span style='color:red; font-size: 70px;'>错误! </span>","null","html-keyboard-response","39","165339","0.0-8.0-1.0-1.0-0.0-1.14","6","6","6","5","6","5","3","4","4","4","5","0","0","1","1","-1","0","0","1","4","4","4","4","3","4","4","4","4","4","4","5","4","5","3","4","4","4","5","4","6","5","4","5","3","3","2","5","4","1","2","3","5","3","4","3","3","6","5","4","3","4","3","2","3","6","2","6","3","6","4","3","5","4","3","5","6","4","2","4","799642454209994753","张","552","Male","[""好我"",""坏我"",""好他"",""坏他""]","[""强我"",""弱我"",""强他"",""弱他""]","","","","","","","","","","","","","","","","","","","","","","","","","","","","","","feedback_test","","","","","","","","",""
"851","","f","psychophysics","40","167192","0.0-8.0-1.0-1.0-0.0-0.15","6","6","6","5","6","5","3","4","4","4","5","0","0","1","1","-1","0","0","1","4","4","4","4","3","4","4","4","4","4","4","5","4","5","3","4","4","4","5","4","6","5","4","5","3","3","2","5","4","1","2","3","5","3","4","3","3","6","5","4","3","4","3","2","3","6","2","6","3","6","4","3","5","4","3","5","6","4","2","4","799642454209994753","张","552","Male","[""好我"",""坏我"",""好他"",""坏他""]","[""强我"",""弱我"",""强他"",""弱他""]","","","","","","","","match","","","","","","","","","","key","f","16.666000000000086","735","456","f","true","match","img/circle.png","强他","强他","prac_ALT2_ability","practice_ability","","","","","","","","",""
"null","<span style='color:GreenYellow; font-size: 70px;'>正确! </span>","null","html-keyboard-response","41","167694","0.0-8.0-1.0-1.0-0.0-1.15","6","6","6","5","6","5","3","4","4","4","5","0","0","1","1","-1","0","0","1","4","4","4","4","3","4","4","4","4","4","4","5","4","5","3","4","4","4","5","4","6","5","4","5","3","3","2","5","4","1","2","3","5","3","4","3","3","6","5","4","3","4","3","2","3","6","2","6","3","6","4","3","5","4","3","5","6","4","2","4","799642454209994753","张","552","Male","[""好我"",""坏我"",""好他"",""坏他""]","[""强我"",""弱我"",""强他"",""弱他""]","","","","","","","","","","","","","","","","","","","","","","","","","","","","","","feedback_test","","","","","","","","",""
"711","","j","psychophysics","42","169408","0.0-8.0-1.0-1.0-0.0-0.16","6","6","6","5","6","5","3","4","4","4","5","0","0","1","1","-1","0","0","1","4","4","4","4","3","4","4","4","4","4","4","5","4","5","3","4","4","4","5","4","6","5","4","5","3","3","2","5","4","1","2","3","5","3","4","3","3","6","5","4","3","4","3","2","3","6","2","6","3","6","4","3","5","4","3","5","6","4","2","4","799642454209994753","张","552","Male","[""好我"",""坏我"",""好他"",""坏他""]","[""强我"",""弱我"",""强他"",""弱他""]","","","","","","","","nonmatch","","","","","","","","","","key","j","16.666000000000007","735","456","j","true","nonmatch","img/hexagon.png","强我","弱他","prac_ALT2_ability","practice_ability","","","","","","","","",""
"null","<span style='color:GreenYellow; font-size: 70px;'>正确! </span>","null","html-keyboard-response","43","169909","0.0-8.0-1.0-1.0-0.0-1.16","6","6","6","5","6","5","3","4","4","4","5","0","0","1","1","-1","0","0","1","4","4","4","4","3","4","4","4","4","4","4","5","4","5","3","4","4","4","5","4","6","5","4","5","3","3","2","5","4","1","2","3","5","3","4","3","3","6","5","4","3","4","3","2","3","6","2","6","3","6","4","3","5","4","3","5","6","4","2","4","799642454209994753","张","552","Male","[""好我"",""坏我"",""好他"",""坏他""]","[""强我"",""弱我"",""强他"",""弱他""]","","","","","","","","","","","","","","","","","","","","","","","","","","","","","","feedback_test","","","","","","","","",""
"790","","f","psychophysics","44","171702","0.0-8.0-1.0-1.0-0.0-0.17","6","6","6","5","6","5","3","4","4","4","5","0","0","1","1","-1","0","0","1","4","4","4","4","3","4","4","4","4","4","4","5","4","5","3","4","4","4","5","4","6","5","4","5","3","3","2","5","4","1","2","3","5","3","4","3","3","6","5","4","3","4","3","2","3","6","2","6","3","6","4","3","5","4","3","5","6","4","2","4","799642454209994753","张","552","Male","[""好我"",""坏我"",""好他"",""坏他""]","[""强我"",""弱我"",""强他"",""弱他""]","","","","","","","","match","","","","","","","","","","key","f","16.670179245283197","735","456","f","true","match","img/circle.png","强他","强他","prac_ALT2_ability","practice_ability","","","","","","","","",""
"null","<span style='color:GreenYellow; font-size: 70px;'>正确! </span>","null","html-keyboard-response","45","172203","0.0-8.0-1.0-1.0-0.0-1.17","6","6","6","5","6","5","3","4","4","4","5","0","0","1","1","-1","0","0","1","4","4","4","4","3","4","4","4","4","4","4","5","4","5","3","4","4","4","5","4","6","5","4","5","3","3","2","5","4","1","2","3","5","3","4","3","3","6","5","4","3","4","3","2","3","6","2","6","3","6","4","3","5","4","3","5","6","4","2","4","799642454209994753","张","552","Male","[""好我"",""坏我"",""好他"",""坏他""]","[""强我"",""弱我"",""强他"",""弱他""]","","","","","","","","","","","","","","","","","","","","","","","","","","","","","","feedback_test","","","","","","","","",""
"786","","j","psychophysics","46","173992","0.0-8.0-1.0-1.0-0.0-0.18","6","6","6","5","6","5","3","4","4","4","5","0","0","1","1","-1","0","0","1","4","4","4","4","3","4","4","4","4","4","4","5","4","5","3","4","4","4","5","4","6","5","4","5","3","3","2","5","4","1","2","3","5","3","4","3","3","6","5","4","3","4","3","2","3","6","2","6","3","6","4","3","5","4","3","5","6","4","2","4","799642454209994753","张","552","Male","[""好我"",""坏我"",""好他"",""坏他""]","[""强我"",""弱我"",""强他"",""弱他""]","","","","","","","","nonmatch","","","","","","","","","","key","j","16.66599999999991","735","456","f","false","match","img/square.png","强我","强我","prac_ALT2_ability","practice_ability","","","","","","","","",""
"null","<span style='color:red; font-size: 70px;'>错误! </span>","null","html-keyboard-response","47","174493","0.0-8.0-1.0-1.0-0.0-1.18","6","6","6","5","6","5","3","4","4","4","5","0","0","1","1","-1","0","0","1","4","4","4","4","3","4","4","4","4","4","4","5","4","5","3","4","4","4","5","4","6","5","4","5","3","3","2","5","4","1","2","3","5","3","4","3","3","6","5","4","3","4","3","2","3","6","2","6","3","6","4","3","5","4","3","5","6","4","2","4","799642454209994753","张","552","Male","[""好我"",""坏我"",""好他"",""坏他""]","[""强我"",""弱我"",""强他"",""弱他""]","","","","","","","","","","","","","","","","","","","","","","","","","","","","","","feedback_test","","","","","","","","",""
"854","","j","psychophysics","48","176351","0.0-8.0-1.0-1.0-0.0-0.19","6","6","6","5","6","5","3","4","4","4","5","0","0","1","1","-1","0","0","1","4","4","4","4","3","4","4","4","4","4","4","5","4","5","3","4","4","4","5","4","6","5","4","5","3","3","2","5","4","1","2","3","5","3","4","3","3","6","5","4","3","4","3","2","3","6","2","6","3","6","4","3","5","4","3","5","6","4","2","4","799642454209994753","张","552","Male","[""好我"",""坏我"",""好他"",""坏他""]","[""强我"",""弱我"",""强他"",""弱他""]","","","","","","","","nonmatch","","","","","","","","","","key","j","16.66599999999982","735","456","j","true","nonmatch","img/diamond.png","弱他","弱我","prac_ALT2_ability","practice_ability","","","","","","","","",""
"null","<span style='color:GreenYellow; font-size: 70px;'>正确! </span>","null","html-keyboard-response","49","176853","0.0-8.0-1.0-1.0-0.0-1.19","6","6","6","5","6","5","3","4","4","4","5","0","0","1","1","-1","0","0","1","4","4","4","4","3","4","4","4","4","4","4","5","4","5","3","4","4","4","5","4","6","5","4","5","3","3","2","5","4","1","2","3","5","3","4","3","3","6","5","4","3","4","3","2","3","6","2","6","3","6","4","3","5","4","3","5","6","4","2","4","799642454209994753","张","552","Male","[""好我"",""坏我"",""好他"",""坏他""]","[""强我"",""弱我"",""强他"",""弱他""]","","","","","","","","","","","","","","","","","","","","","","","","","","","","","","feedback_test","","","","","","","","",""
"887","","j","psychophysics","50","178742","0.0-8.0-1.0-1.0-0.0-0.20","6","6","6","5","6","5","3","4","4","4","5","0","0","1","1","-1","0","0","1","4","4","4","4","3","4","4","4","4","4","4","5","4","5","3","4","4","4","5","4","6","5","4","5","3","3","2","5","4","1","2","3","5","3","4","3","3","6","5","4","3","4","3","2","3","6","2","6","3","6","4","3","5","4","3","5","6","4","2","4","799642454209994753","张","552","Male","[""好我"",""坏我"",""好他"",""坏他""]","[""强我"",""弱我"",""强他"",""弱他""]","","","","","","","","nonmatch","","","","","","","","","","key","j","16.666000000000036","735","456","j","true","nonmatch","img/square.png","强他","强我","prac_ALT2_ability","practice_ability","","","","","","","","",""
"null","<span style='color:GreenYellow; font-size: 70px;'>正确! </span>","null","html-keyboard-response","51","179243","0.0-8.0-1.0-1.0-0.0-1.20","6","6","6","5","6","5","3","4","4","4","5","0","0","1","1","-1","0","0","1","4","4","4","4","3","4","4","4","4","4","4","5","4","5","3","4","4","4","5","4","6","5","4","5","3","3","2","5","4","1","2","3","5","3","4","3","3","6","5","4","3","4","3","2","3","6","2","6","3","6","4","3","5","4","3","5","6","4","2","4","799642454209994753","张","552","Male","[""好我"",""坏我"",""好他"",""坏他""]","[""强我"",""弱我"",""强他"",""弱他""]","","","","","","","","","","","","","","","","","","","","","","","","","","","","","","feedback_test","","","","","","","","",""
"896","","j","psychophysics","52","181142","0.0-8.0-1.0-1.0-0.0-0.21","6","6","6","5","6","5","3","4","4","4","5","0","0","1","1","-1","0","0","1","4","4","4","4","3","4","4","4","4","4","4","5","4","5","3","4","4","4","5","4","6","5","4","5","3","3","2","5","4","1","2","3","5","3","4","3","3","6","5","4","3","4","3","2","3","6","2","6","3","6","4","3","5","4","3","5","6","4","2","4","799642454209994753","张","552","Male","[""好我"",""坏我"",""好他"",""坏他""]","[""强我"",""弱我"",""强他"",""弱他""]","","","","","","","","nonmatch","","","","","","","","","","key","j","16.666000000000015","735","456","j","true","nonmatch","img/circle.png","弱他","强他","prac_ALT2_ability","practice_ability","","","","","","","","",""
"null","<span style='color:GreenYellow; font-size: 70px;'>正确! </span>","null","html-keyboard-response","53","181643","0.0-8.0-1.0-1.0-0.0-1.21","6","6","6","5","6","5","3","4","4","4","5","0","0","1","1","-1","0","0","1","4","4","4","4","3","4","4","4","4","4","4","5","4","5","3","4","4","4","5","4","6","5","4","5","3","3","2","5","4","1","2","3","5","3","4","3","3","6","5","4","3","4","3","2","3","6","2","6","3","6","4","3","5","4","3","5","6","4","2","4","799642454209994753","张","552","Male","[""好我"",""坏我"",""好他"",""坏他""]","[""强我"",""弱我"",""强他"",""弱他""]","","","","","","","","","","","","","","","","","","","","","","","","","","","","","","feedback_test","","","","","","","","",""
"845","","j","psychophysics","54","183492","0.0-8.0-1.0-1.0-0.0-0.22","6","6","6","5","6","5","3","4","4","4","5","0","0","1","1","-1","0","0","1","4","4","4","4","3","4","4","4","4","4","4","5","4","5","3","4","4","4","5","4","6","5","4","5","3","3","2","5","4","1","2","3","5","3","4","3","3","6","5","4","3","4","3","2","3","6","2","6","3","6","4","3","5","4","3","5","6","4","2","4","799642454209994753","张","552","Male","[""好我"",""坏我"",""好他"",""坏他""]","[""强我"",""弱我"",""强他"",""弱他""]","","","","","","","","nonmatch","","","","","","","","","","key","j","16.668181818181818","735","456","j","true","nonmatch","img/square.png","弱我","强我","prac_ALT2_ability","practice_ability","","","","","","","","",""
"null","<span style='color:GreenYellow; font-size: 70px;'>正确! </span>","null","html-keyboard-response","55","183993","0.0-8.0-1.0-1.0-0.0-1.22","6","6","6","5","6","5","3","4","4","4","5","0","0","1","1","-1","0","0","1","4","4","4","4","3","4","4","4","4","4","4","5","4","5","3","4","4","4","5","4","6","5","4","5","3","3","2","5","4","1","2","3","5","3","4","3","3","6","5","4","3","4","3","2","3","6","2","6","3","6","4","3","5","4","3","5","6","4","2","4","799642454209994753","张","552","Male","[""好我"",""坏我"",""好他"",""坏他""]","[""强我"",""弱我"",""强他"",""弱他""]","","","","","","","","","","","","","","","","","","","","","","","","","","","","","","feedback_test","","","","","","","","",""
"905","","f","psychophysics","56","185901","0.0-8.0-1.0-1.0-0.0-0.23","6","6","6","5","6","5","3","4","4","4","5","0","0","1","1","-1","0","0","1","4","4","4","4","3","4","4","4","4","4","4","5","4","5","3","4","4","4","5","4","6","5","4","5","3","3","2","5","4","1","2","3","5","3","4","3","3","6","5","4","3","4","3","2","3","6","2","6","3","6","4","3","5","4","3","5","6","4","2","4","799642454209994753","张","552","Male","[""好我"",""坏我"",""好他"",""坏他""]","[""强我"",""弱我"",""强他"",""弱他""]","","","","","","","","match","","","","","","","","","","key","f","16.666000000000015","735","456","f","true","match","img/diamond.png","弱我","弱我","prac_ALT2_ability","practice_ability","","","","","","","","",""
"null","<span style='color:GreenYellow; font-size: 70px;'>正确! </span>","null","html-keyboard-response","57","186403","0.0-8.0-1.0-1.0-0.0-1.23","6","6","6","5","6","5","3","4","4","4","5","0","0","1","1","-1","0","0","1","4","4","4","4","3","4","4","4","4","4","4","5","4","5","3","4","4","4","5","4","6","5","4","5","3","3","2","5","4","1","2","3","5","3","4","3","3","6","5","4","3","4","3","2","3","6","2","6","3","6","4","3","5","4","3","5","6","4","2","4","799642454209994753","张","552","Male","[""好我"",""坏我"",""好他"",""坏他""]","[""强我"",""弱我"",""强他"",""弱他""]","","","","","","","","","","","","","","","","","","","","","","","","","","","","","","feedback_test","","","","","","","","",""
"850","","f","psychophysics","58","188257","0.0-8.0-1.0-1.0-0.0-0.24","6","6","6","5","6","5","3","4","4","4","5","0","0","1","1","-1","0","0","1","4","4","4","4","3","4","4","4","4","4","4","5","4","5","3","4","4","4","5","4","6","5","4","5","3","3","2","5","4","1","2","3","5","3","4","3","3","6","5","4","3","4","3","2","3","6","2","6","3","6","4","3","5","4","3","5","6","4","2","4","799642454209994753","张","552","Male","[""好我"",""坏我"",""好他"",""坏他""]","[""强我"",""弱我"",""强他"",""弱他""]","","","","","","","","match","","","","","","","","","","key","f","16.666000000000086","735","456","j","false","nonmatch","img/hexagon.png","强我","弱他","prac_ALT2_ability","practice_ability","","","","","","","","",""
"null","<span style='color:red; font-size: 70px;'>错误! </span>","null","html-keyboard-response","59","188758","0.0-8.0-1.0-1.0-0.0-1.24","6","6","6","5","6","5","3","4","4","4","5","0","0","1","1","-1","0","0","1","4","4","4","4","3","4","4","4","4","4","4","5","4","5","3","4","4","4","5","4","6","5","4","5","3","3","2","5","4","1","2","3","5","3","4","3","3","6","5","4","3","4","3","2","3","6","2","6","3","6","4","3","5","4","3","5","6","4","2","4","799642454209994753","张","552","Male","[""好我"",""坏我"",""好他"",""坏他""]","[""强我"",""弱我"",""强他"",""弱他""]","","","","","","","","","","","","","","","","","","","","","","","","","","","","","","feedback_test","","","","","","","","",""
"1031","","j","psychophysics","60","190792","0.0-8.0-1.0-1.0-0.0-0.25","6","6","6","5","6","5","3","4","4","4","5","0","0","1","1","-1","0","0","1","4","4","4","4","3","4","4","4","4","4","4","5","4","5","3","4","4","4","5","4","6","5","4","5","3","3","2","5","4","1","2","3","5","3","4","3","3","6","5","4","3","4","3","2","3","6","2","6","3","6","4","3","5","4","3","5","6","4","2","4","799642454209994753","张","552","Male","[""好我"",""坏我"",""好他"",""坏他""]","[""强我"",""弱我"",""强他"",""弱他""]","","","","","","","","nonmatch","","","","","","","","","","key","j","16.666000000000086","735","456","j","true","nonmatch","img/diamond.png","强他","弱我","prac_ALT2_ability","practice_ability","","","","","","","","",""
"null","<span style='color:GreenYellow; font-size: 70px;'>正确! </span>","null","html-keyboard-response","61","191294","0.0-8.0-1.0-1.0-0.0-1.25","6","6","6","5","6","5","3","4","4","4","5","0","0","1","1","-1","0","0","1","4","4","4","4","3","4","4","4","4","4","4","5","4","5","3","4","4","4","5","4","6","5","4","5","3","3","2","5","4","1","2","3","5","3","4","3","3","6","5","4","3","4","3","2","3","6","2","6","3","6","4","3","5","4","3","5","6","4","2","4","799642454209994753","张","552","Male","[""好我"",""坏我"",""好他"",""坏他""]","[""强我"",""弱我"",""强他"",""弱他""]","","","","","","","","","","","","","","","","","","","","","","","","","","","","","","feedback_test","","","","","","","","",""
"896","","f","psychophysics","62","193192","0.0-8.0-1.0-1.0-0.0-0.26","6","6","6","5","6","5","3","4","4","4","5","0","0","1","1","-1","0","0","1","4","4","4","4","3","4","4","4","4","4","4","5","4","5","3","4","4","4","5","4","6","5","4","5","3","3","2","5","4","1","2","3","5","3","4","3","3","6","5","4","3","4","3","2","3","6","2","6","3","6","4","3","5","4","3","5","6","4","2","4","799642454209994753","张","552","Male","[""好我"",""坏我"",""好他"",""坏他""]","[""强我"",""弱我"",""强他"",""弱他""]","","","","","","","","match","","","","","","","","","","key","f","16.668814159292044","735","456","f","true","match","img/square.png","强我","强我","prac_ALT2_ability","practice_ability","","","","","","","","",""
"null","<span style='color:GreenYellow; font-size: 70px;'>正确! </span>","null","html-keyboard-response","63","193693","0.0-8.0-1.0-1.0-0.0-1.26","6","6","6","5","6","5","3","4","4","4","5","0","0","1","1","-1","0","0","1","4","4","4","4","3","4","4","4","4","4","4","5","4","5","3","4","4","4","5","4","6","5","4","5","3","3","2","5","4","1","2","3","5","3","4","3","3","6","5","4","3","4","3","2","3","6","2","6","3","6","4","3","5","4","3","5","6","4","2","4","799642454209994753","张","552","Male","[""好我"",""坏我"",""好他"",""坏他""]","[""强我"",""弱我"",""强他"",""弱他""]","","","","","","","","","","","","","","","","","","","","","","","","","","","","","","feedback_test","","","","","","","","",""
"833","","j","psychophysics","64","195529","0.0-8.0-1.0-1.0-0.0-0.27","6","6","6","5","6","5","3","4","4","4","5","0","0","1","1","-1","0","0","1","4","4","4","4","3","4","4","4","4","4","4","5","4","5","3","4","4","4","5","4","6","5","4","5","3","3","2","5","4","1","2","3","5","3","4","3","3","6","5","4","3","4","3","2","3","6","2","6","3","6","4","3","5","4","3","5","6","4","2","4","799642454209994753","张","552","Male","[""好我"",""坏我"",""好他"",""坏他""]","[""强我"",""弱我"",""强他"",""弱他""]","","","","","","","","nonmatch","","","","","","","","","","key","j","16.66600000000011","735","456","j","true","nonmatch","img/diamond.png","强我","弱我","prac_ALT2_ability","practice_ability","","","","","","","","",""
"null","<span style='color:GreenYellow; font-size: 70px;'>正确! </span>","null","html-keyboard-response","65","196031","0.0-8.0-1.0-1.0-0.0-1.27","6","6","6","5","6","5","3","4","4","4","5","0","0","1","1","-1","0","0","1","4","4","4","4","3","4","4","4","4","4","4","5","4","5","3","4","4","4","5","4","6","5","4","5","3","3","2","5","4","1","2","3","5","3","4","3","3","6","5","4","3","4","3","2","3","6","2","6","3","6","4","3","5","4","3","5","6","4","2","4","799642454209994753","张","552","Male","[""好我"",""坏我"",""好他"",""坏他""]","[""强我"",""弱我"",""强他"",""弱他""]","","","","","","","","","","","","","","","","","","","","","","","","","","","","","","feedback_test","","","","","","","","",""
"751","","j","psychophysics","66","197785","0.0-8.0-1.0-1.0-0.0-0.28","6","6","6","5","6","5","3","4","4","4","5","0","0","1","1","-1","0","0","1","4","4","4","4","3","4","4","4","4","4","4","5","4","5","3","4","4","4","5","4","6","5","4","5","3","3","2","5","4","1","2","3","5","3","4","3","3","6","5","4","3","4","3","2","3","6","2","6","3","6","4","3","5","4","3","5","6","4","2","4","799642454209994753","张","552","Male","[""好我"",""坏我"",""好他"",""坏他""]","[""强我"",""弱我"",""强他"",""弱他""]","","","","","","","","nonmatch","","","","","","","","","","key","j","16.665999999999958","735","456","f","false","match","img/hexagon.png","弱他","弱他","prac_ALT2_ability","practice_ability","","","","","","","","",""
"null","<span style='color:red; font-size: 70px;'>错误! </span>","null","html-keyboard-response","67","198287","0.0-8.0-1.0-1.0-0.0-1.28","6","6","6","5","6","5","3","4","4","4","5","0","0","1","1","-1","0","0","1","4","4","4","4","3","4","4","4","4","4","4","5","4","5","3","4","4","4","5","4","6","5","4","5","3","3","2","5","4","1","2","3","5","3","4","3","3","6","5","4","3","4","3","2","3","6","2","6","3","6","4","3","5","4","3","5","6","4","2","4","799642454209994753","张","552","Male","[""好我"",""坏我"",""好他"",""坏他""]","[""强我"",""弱我"",""强他"",""弱他""]","","","","","","","","","","","","","","","","","","","","","","","","","","","","","","feedback_test","","","","","","","","",""
"901","","f","psychophysics","68","200190","0.0-8.0-1.0-1.0-0.0-0.29","6","6","6","5","6","5","3","4","4","4","5","0","0","1","1","-1","0","0","1","4","4","4","4","3","4","4","4","4","4","4","5","4","5","3","4","4","4","5","4","6","5","4","5","3","3","2","5","4","1","2","3","5","3","4","3","3","6","5","4","3","4","3","2","3","6","2","6","3","6","4","3","5","4","3","5","6","4","2","4","799642454209994753","张","552","Male","[""好我"",""坏我"",""好他"",""坏他""]","[""强我"",""弱我"",""强他"",""弱他""]","","","","","","","","match","","","","","","","","","","key","f","16.666000000000015","735","456","j","false","nonmatch","img/square.png","弱他","强我","prac_ALT2_ability","practice_ability","","","","","","","","",""
"null","<span style='color:red; font-size: 70px;'>错误! </span>","null","html-keyboard-response","69","200692","0.0-8.0-1.0-1.0-0.0-1.29","6","6","6","5","6","5","3","4","4","4","5","0","0","1","1","-1","0","0","1","4","4","4","4","3","4","4","4","4","4","4","5","4","5","3","4","4","4","5","4","6","5","4","5","3","3","2","5","4","1","2","3","5","3","4","3","3","6","5","4","3","4","3","2","3","6","2","6","3","6","4","3","5","4","3","5","6","4","2","4","799642454209994753","张","552","Male","[""好我"",""坏我"",""好他"",""坏他""]","[""强我"",""弱我"",""强他"",""弱他""]","","","","","","","","","","","","","","","","","","","","","","","","","","","","","","feedback_test","","","","","","","","",""
"930","","f","psychophysics","70","202625","0.0-8.0-1.0-1.0-0.0-0.30","6","6","6","5","6","5","3","4","4","4","5","0","0","1","1","-1","0","0","1","4","4","4","4","3","4","4","4","4","4","4","5","4","5","3","4","4","4","5","4","6","5","4","5","3","3","2","5","4","1","2","3","5","3","4","3","3","6","5","4","3","4","3","2","3","6","2","6","3","6","4","3","5","4","3","5","6","4","2","4","799642454209994753","张","552","Male","[""好我"",""坏我"",""好他"",""坏他""]","[""强我"",""弱我"",""强他"",""弱他""]","","","","","","","","match","","","","","","","","","","key","f","16.669852173913007","735","456","f","true","match","img/hexagon.png","弱他","弱他","prac_ALT2_ability","practice_ability","","","","","","","","",""
"null","<span style='color:GreenYellow; font-size: 70px;'>正确! </span>","null","html-keyboard-response","71","203126","0.0-8.0-1.0-1.0-0.0-1.30","6","6","6","5","6","5","3","4","4","4","5","0","0","1","1","-1","0","0","1","4","4","4","4","3","4","4","4","4","4","4","5","4","5","3","4","4","4","5","4","6","5","4","5","3","3","2","5","4","1","2","3","5","3","4","3","3","6","5","4","3","4","3","2","3","6","2","6","3","6","4","3","5","4","3","5","6","4","2","4","799642454209994753","张","552","Male","[""好我"",""坏我"",""好他"",""坏他""]","[""强我"",""弱我"",""强他"",""弱他""]","","","","","","","","","","","","","","","","","","","","","","","","","","","","","","feedback_test","","","","","","","","",""
"778","","j","psychophysics","72","204906","0.0-8.0-1.0-1.0-0.0-0.31","6","6","6","5","6","5","3","4","4","4","5","0","0","1","1","-1","0","0","1","4","4","4","4","3","4","4","4","4","4","4","5","4","5","3","4","4","4","5","4","6","5","4","5","3","3","2","5","4","1","2","3","5","3","4","3","3","6","5","4","3","4","3","2","3","6","2","6","3","6","4","3","5","4","3","5","6","4","2","4","799642454209994753","张","552","Male","[""好我"",""坏我"",""好他"",""坏他""]","[""强我"",""弱我"",""强他"",""弱他""]","","","","","","","","nonmatch","","","","","","","","","","key","j","16.666000000000185","735","456","j","true","nonmatch","img/diamond.png","弱他","弱我","prac_ALT2_ability","practice_ability","","","","","","","","",""
"null","<span style='color:GreenYellow; font-size: 70px;'>正确! </span>","null","html-keyboard-response","73","205407","0.0-8.0-1.0-1.0-0.0-1.31","6","6","6","5","6","5","3","4","4","4","5","0","0","1","1","-1","0","0","1","4","4","4","4","3","4","4","4","4","4","4","5","4","5","3","4","4","4","5","4","6","5","4","5","3","3","2","5","4","1","2","3","5","3","4","3","3","6","5","4","3","4","3","2","3","6","2","6","3","6","4","3","5","4","3","5","6","4","2","4","799642454209994753","张","552","Male","[""好我"",""坏我"",""好他"",""坏他""]","[""强我"",""弱我"",""强他"",""弱他""]","","","","","","","","","","","","","","","","","","","","","","","","","","","","","","feedback_test","","","","","","","","",""
"790","","f","psychophysics","74","207200","0.0-8.0-1.0-1.0-0.0-0.32","6","6","6","5","6","5","3","4","4","4","5","0","0","1","1","-1","0","0","1","4","4","4","4","3","4","4","4","4","4","4","5","4","5","3","4","4","4","5","4","6","5","4","5","3","3","2","5","4","1","2","3","5","3","4","3","3","6","5","4","3","4","3","2","3","6","2","6","3","6","4","3","5","4","3","5","6","4","2","4","799642454209994753","张","552","Male","[""好我"",""坏我"",""好他"",""坏他""]","[""强我"",""弱我"",""强他"",""弱他""]","","","","","","","","match","","","","","","","","","","key","f","16.666000000000185","735","456","j","false","nonmatch","img/square.png","强他","强我","prac_ALT2_ability","practice_ability","","","","","","","","",""
"null","<span style='color:red; font-size: 70px;'>错误! </span>","null","html-keyboard-response","75","207702","0.0-8.0-1.0-1.0-0.0-1.32","6","6","6","5","6","5","3","4","4","4","5","0","0","1","1","-1","0","0","1","4","4","4","4","3","4","4","4","4","4","4","5","4","5","3","4","4","4","5","4","6","5","4","5","3","3","2","5","4","1","2","3","5","3","4","3","3","6","5","4","3","4","3","2","3","6","2","6","3","6","4","3","5","4","3","5","6","4","2","4","799642454209994753","张","552","Male","[""好我"",""坏我"",""好他"",""坏他""]","[""强我"",""弱我"",""强他"",""弱他""]","","","","","","","","","","","","","","","","","","","","","","","","","","","","","","feedback_test","","","","","","","","",""
"914","","j","psychophysics","76","209632","0.0-8.0-1.0-1.0-0.0-0.33","6","6","6","5","6","5","3","4","4","4","5","0","0","1","1","-1","0","0","1","4","4","4","4","3","4","4","4","4","4","4","5","4","5","3","4","4","4","5","4","6","5","4","5","3","3","2","5","4","1","2","3","5","3","4","3","3","6","5","4","3","4","3","2","3","6","2","6","3","6","4","3","5","4","3","5","6","4","2","4","799642454209994753","张","552","Male","[""好我"",""坏我"",""好他"",""坏他""]","[""强我"",""弱我"",""强他"",""弱他""]","","","","","","","","nonmatch","","","","","","","","","","key","j","16.665999999999993","735","456","j","true","nonmatch","img/hexagon.png","强他","弱他","prac_ALT2_ability","practice_ability","","","","","","","","",""
"null","<span style='color:GreenYellow; font-size: 70px;'>正确! </span>","null","html-keyboard-response","77","210134","0.0-8.0-1.0-1.0-0.0-1.33","6","6","6","5","6","5","3","4","4","4","5","0","0","1","1","-1","0","0","1","4","4","4","4","3","4","4","4","4","4","4","5","4","5","3","4","4","4","5","4","6","5","4","5","3","3","2","5","4","1","2","3","5","3","4","3","3","6","5","4","3","4","3","2","3","6","2","6","3","6","4","3","5","4","3","5","6","4","2","4","799642454209994753","张","552","Male","[""好我"",""坏我"",""好他"",""坏他""]","[""强我"",""弱我"",""强他"",""弱他""]","","","","","","","","","","","","","","","","","","","","","","","","","","","","","","feedback_test","","","","","","","","",""
"795","","f","psychophysics","78","211932","0.0-8.0-1.0-1.0-0.0-0.34","6","6","6","5","6","5","3","4","4","4","5","0","0","1","1","-1","0","0","1","4","4","4","4","3","4","4","4","4","4","4","5","4","5","3","4","4","4","5","4","6","5","4","5","3","3","2","5","4","1","2","3","5","3","4","3","3","6","5","4","3","4","3","2","3","6","2","6","3","6","4","3","5","4","3","5","6","4","2","4","799642454209994753","张","552","Male","[""好我"",""坏我"",""好他"",""坏他""]","[""强我"",""弱我"",""强他"",""弱他""]","","","","","","","","match","","","","","","","","","","key","f","16.669000000000178","735","456","f","true","match","img/square.png","强我","强我","prac_ALT2_ability","practice_ability","","","","","","","","",""
"null","<span style='color:GreenYellow; font-size: 70px;'>正确! </span>","null","html-keyboard-response","79","212434","0.0-8.0-1.0-1.0-0.0-1.34","6","6","6","5","6","5","3","4","4","4","5","0","0","1","1","-1","0","0","1","4","4","4","4","3","4","4","4","4","4","4","5","4","5","3","4","4","4","5","4","6","5","4","5","3","3","2","5","4","1","2","3","5","3","4","3","3","6","5","4","3","4","3","2","3","6","2","6","3","6","4","3","5","4","3","5","6","4","2","4","799642454209994753","张","552","Male","[""好我"",""坏我"",""好他"",""坏他""]","[""强我"",""弱我"",""强他"",""弱他""]","","","","","","","","","","","","","","","","","","","","","","","","","","","","","","feedback_test","","","","","","","","",""
"739","","j","psychophysics","80","214175","0.0-8.0-1.0-1.0-0.0-0.35","6","6","6","5","6","5","3","4","4","4","5","0","0","1","1","-1","0","0","1","4","4","4","4","3","4","4","4","4","4","4","5","4","5","3","4","4","4","5","4","6","5","4","5","3","3","2","5","4","1","2","3","5","3","4","3","3","6","5","4","3","4","3","2","3","6","2","6","3","6","4","3","5","4","3","5","6","4","2","4","799642454209994753","张","552","Male","[""好我"",""坏我"",""好他"",""坏他""]","[""强我"",""弱我"",""强他"",""弱他""]","","","","","","","","nonmatch","","","","","","","","","","key","j","16.665999999999983","735","456","f","false","match","img/circle.png","强他","强他","prac_ALT2_ability","practice_ability","","","","","","","","",""
"null","<span style='color:red; font-size: 70px;'>错误! </span>","null","html-keyboard-response","81","214676","0.0-8.0-1.0-1.0-0.0-1.35","6","6","6","5","6","5","3","4","4","4","5","0","0","1","1","-1","0","0","1","4","4","4","4","3","4","4","4","4","4","4","5","4","5","3","4","4","4","5","4","6","5","4","5","3","3","2","5","4","1","2","3","5","3","4","3","3","6","5","4","3","4","3","2","3","6","2","6","3","6","4","3","5","4","3","5","6","4","2","4","799642454209994753","张","552","Male","[""好我"",""坏我"",""好他"",""坏他""]","[""强我"",""弱我"",""强他"",""弱他""]","","","","","","","","","","","","","","","","","","","","","","","","","","","","","","feedback_test","","","","","","","","",""
"686","","f","psychophysics","82","216365","0.0-8.0-1.0-1.0-0.0-0.36","6","6","6","5","6","5","3","4","4","4","5","0","0","1","1","-1","0","0","1","4","4","4","4","3","4","4","4","4","4","4","5","4","5","3","4","4","4","5","4","6","5","4","5","3","3","2","5","4","1","2","3","5","3","4","3","3","6","5","4","3","4","3","2","3","6","2","6","3","6","4","3","5","4","3","5","6","4","2","4","799642454209994753","张","552","Male","[""好我"",""坏我"",""好他"",""坏他""]","[""强我"",""弱我"",""强他"",""弱他""]","","","","","","","","match","","","","","","","","","","key","f","16.666000000000057","735","456","f","true","match","img/circle.png","强他","强他","prac_ALT2_ability","practice_ability","","","","","","","","",""
"null","<span style='color:GreenYellow; font-size: 70px;'>正确! </span>","null","html-keyboard-response","83","216867","0.0-8.0-1.0-1.0-0.0-1.36","6","6","6","5","6","5","3","4","4","4","5","0","0","1","1","-1","0","0","1","4","4","4","4","3","4","4","4","4","4","4","5","4","5","3","4","4","4","5","4","6","5","4","5","3","3","2","5","4","1","2","3","5","3","4","3","3","6","5","4","3","4","3","2","3","6","2","6","3","6","4","3","5","4","3","5","6","4","2","4","799642454209994753","张","552","Male","[""好我"",""坏我"",""好他"",""坏他""]","[""强我"",""弱我"",""强他"",""弱他""]","","","","","","","","","","","","","","","","","","","","","","","","","","","","","","feedback_test","","","","","","","","",""
"839","","j","psychophysics","84","218709","0.0-8.0-1.0-1.0-0.0-0.37","6","6","6","5","6","5","3","4","4","4","5","0","0","1","1","-1","0","0","1","4","4","4","4","3","4","4","4","4","4","4","5","4","5","3","4","4","4","5","4","6","5","4","5","3","3","2","5","4","1","2","3","5","3","4","3","3","6","5","4","3","4","3","2","3","6","2","6","3","6","4","3","5","4","3","5","6","4","2","4","799642454209994753","张","552","Male","[""好我"",""坏我"",""好他"",""坏他""]","[""强我"",""弱我"",""强他"",""弱他""]","","","","","","","","nonmatch","","","","","","","","","","key","j","16.66599999999984","735","456","f","false","match","img/diamond.png","弱我","弱我","prac_ALT2_ability","practice_ability","","","","","","","","",""
"null","<span style='color:red; font-size: 70px;'>错误! </span>","null","html-keyboard-response","85","219210","0.0-8.0-1.0-1.0-0.0-1.37","6","6","6","5","6","5","3","4","4","4","5","0","0","1","1","-1","0","0","1","4","4","4","4","3","4","4","4","4","4","4","5","4","5","3","4","4","4","5","4","6","5","4","5","3","3","2","5","4","1","2","3","5","3","4","3","3","6","5","4","3","4","3","2","3","6","2","6","3","6","4","3","5","4","3","5","6","4","2","4","799642454209994753","张","552","Male","[""好我"",""坏我"",""好他"",""坏他""]","[""强我"",""弱我"",""强他"",""弱他""]","","","","","","","","","","","","","","","","","","","","","","","","","","","","","","feedback_test","","","","","","","","",""
"711","","j","psychophysics","86","220925","0.0-8.0-1.0-1.0-0.0-0.38","6","6","6","5","6","5","3","4","4","4","5","0","0","1","1","-1","0","0","1","4","4","4","4","3","4","4","4","4","4","4","5","4","5","3","4","4","4","5","4","6","5","4","5","3","3","2","5","4","1","2","3","5","3","4","3","3","6","5","4","3","4","3","2","3","6","2","6","3","6","4","3","5","4","3","5","6","4","2","4","799642454209994753","张","552","Male","[""好我"",""坏我"",""好他"",""坏他""]","[""强我"",""弱我"",""强他"",""弱他""]","","","","","","","","nonmatch","","","","","","","","","","key","j","16.666000000000007","735","456","j","true","nonmatch","img/circle.png","强我","强他","prac_ALT2_ability","practice_ability","","","","","","","","",""
"null","<span style='color:GreenYellow; font-size: 70px;'>正确! </span>","null","html-keyboard-response","87","221427","0.0-8.0-1.0-1.0-0.0-1.38","6","6","6","5","6","5","3","4","4","4","5","0","0","1","1","-1","0","0","1","4","4","4","4","3","4","4","4","4","4","4","5","4","5","3","4","4","4","5","4","6","5","4","5","3","3","2","5","4","1","2","3","5","3","4","3","3","6","5","4","3","4","3","2","3","6","2","6","3","6","4","3","5","4","3","5","6","4","2","4","799642454209994753","张","552","Male","[""好我"",""坏我"",""好他"",""坏他""]","[""强我"",""弱我"",""强他"",""弱他""]","","","","","","","","","","","","","","","","","","","","","","","","","","","","","","feedback_test","","","","","","","","",""
"728","","f","psychophysics","88","223158","0.0-8.0-1.0-1.0-0.0-0.39","6","6","6","5","6","5","3","4","4","4","5","0","0","1","1","-1","0","0","1","4","4","4","4","3","4","4","4","4","4","4","5","4","5","3","4","4","4","5","4","6","5","4","5","3","3","2","5","4","1","2","3","5","3","4","3","3","6","5","4","3","4","3","2","3","6","2","6","3","6","4","3","5","4","3","5","6","4","2","4","799642454209994753","张","552","Male","[""好我"",""坏我"",""好他"",""坏他""]","[""强我"",""弱我"",""强他"",""弱他""]","","","","","","","","match","","","","","","","","","","key","f","16.66908737864075","735","456","f","true","match","img/square.png","强我","强我","prac_ALT2_ability","practice_ability","","","","","","","","",""
"null","<span style='color:GreenYellow; font-size: 70px;'>正确! </span>","null","html-keyboard-response","89","223659","0.0-8.0-1.0-1.0-0.0-1.39","6","6","6","5","6","5","3","4","4","4","5","0","0","1","1","-1","0","0","1","4","4","4","4","3","4","4","4","4","4","4","5","4","5","3","4","4","4","5","4","6","5","4","5","3","3","2","5","4","1","2","3","5","3","4","3","3","6","5","4","3","4","3","2","3","6","2","6","3","6","4","3","5","4","3","5","6","4","2","4","799642454209994753","张","552","Male","[""好我"",""坏我"",""好他"",""坏他""]","[""强我"",""弱我"",""强他"",""弱他""]","","","","","","","","","","","","","","","","","","","","","","","","","","","","","","feedback_test","","","","","","","","",""
"818","","f","psychophysics","90","225480","0.0-8.0-1.0-1.0-0.0-0.40","6","6","6","5","6","5","3","4","4","4","5","0","0","1","1","-1","0","0","1","4","4","4","4","3","4","4","4","4","4","4","5","4","5","3","4","4","4","5","4","6","5","4","5","3","3","2","5","4","1","2","3","5","3","4","3","3","6","5","4","3","4","3","2","3","6","2","6","3","6","4","3","5","4","3","5","6","4","2","4","799642454209994753","张","552","Male","[""好我"",""坏我"",""好他"",""坏他""]","[""强我"",""弱我"",""强他"",""弱他""]","","","","","","","","match","","","","","","","","","","key","f","16.665999999999865","735","456","f","true","match","img/diamond.png","弱我","弱我","prac_ALT2_ability","practice_ability","","","","","","","","",""
"null","<span style='color:GreenYellow; font-size: 70px;'>正确! </span>","null","html-keyboard-response","91","225981","0.0-8.0-1.0-1.0-0.0-1.40","6","6","6","5","6","5","3","4","4","4","5","0","0","1","1","-1","0","0","1","4","4","4","4","3","4","4","4","4","4","4","5","4","5","3","4","4","4","5","4","6","5","4","5","3","3","2","5","4","1","2","3","5","3","4","3","3","6","5","4","3","4","3","2","3","6","2","6","3","6","4","3","5","4","3","5","6","4","2","4","799642454209994753","张","552","Male","[""好我"",""坏我"",""好他"",""坏他""]","[""强我"",""弱我"",""强他"",""弱他""]","","","","","","","","","","","","","","","","","","","","","","","","","","","","","","feedback_test","","","","","","","","",""
"992","","f","psychophysics","92","227975","0.0-8.0-1.0-1.0-0.0-0.41","6","6","6","5","6","5","3","4","4","4","5","0","0","1","1","-1","0","0","1","4","4","4","4","3","4","4","4","4","4","4","5","4","5","3","4","4","4","5","4","6","5","4","5","3","3","2","5","4","1","2","3","5","3","4","3","3","6","5","4","3","4","3","2","3","6","2","6","3","6","4","3","5","4","3","5","6","4","2","4","799642454209994753","张","552","Male","[""好我"",""坏我"",""好他"",""坏他""]","[""强我"",""弱我"",""强他"",""弱他""]","","","","","","","","match","","","","","","","","","","key","f","16.665999999999904","735","456","f","true","match","img/diamond.png","弱我","弱我","prac_ALT2_ability","practice_ability","","","","","","","","",""
"null","<span style='color:GreenYellow; font-size: 70px;'>正确! </span>","null","html-keyboard-response","93","228477","0.0-8.0-1.0-1.0-0.0-1.41","6","6","6","5","6","5","3","4","4","4","5","0","0","1","1","-1","0","0","1","4","4","4","4","3","4","4","4","4","4","4","5","4","5","3","4","4","4","5","4","6","5","4","5","3","3","2","5","4","1","2","3","5","3","4","3","3","6","5","4","3","4","3","2","3","6","2","6","3","6","4","3","5","4","3","5","6","4","2","4","799642454209994753","张","552","Male","[""好我"",""坏我"",""好他"",""坏他""]","[""强我"",""弱我"",""强他"",""弱他""]","","","","","","","","","","","","","","","","","","","","","","","","","","","","","","feedback_test","","","","","","","","",""
"935","","f","psychophysics","94","230415","0.0-8.0-1.0-1.0-0.0-0.42","6","6","6","5","6","5","3","4","4","4","5","0","0","1","1","-1","0","0","1","4","4","4","4","3","4","4","4","4","4","4","5","4","5","3","4","4","4","5","4","6","5","4","5","3","3","2","5","4","1","2","3","5","3","4","3","3","6","5","4","3","4","3","2","3","6","2","6","3","6","4","3","5","4","3","5","6","4","2","4","799642454209994753","张","552","Male","[""好我"",""坏我"",""好他"",""坏他""]","[""强我"",""弱我"",""强他"",""弱他""]","","","","","","","","match","","","","","","","","","","key","f","16.66599999999997","735","456","j","false","nonmatch","img/circle.png","弱他","强他","prac_ALT2_ability","practice_ability","","","","","","","","",""
"null","<span style='color:red; font-size: 70px;'>错误! </span>","null","html-keyboard-response","95","230916","0.0-8.0-1.0-1.0-0.0-1.42","6","6","6","5","6","5","3","4","4","4","5","0","0","1","1","-1","0","0","1","4","4","4","4","3","4","4","4","4","4","4","5","4","5","3","4","4","4","5","4","6","5","4","5","3","3","2","5","4","1","2","3","5","3","4","3","3","6","5","4","3","4","3","2","3","6","2","6","3","6","4","3","5","4","3","5","6","4","2","4","799642454209994753","张","552","Male","[""好我"",""坏我"",""好他"",""坏他""]","[""强我"",""弱我"",""强他"",""弱他""]","","","","","","","","","","","","","","","","","","","","","","","","","","","","","","feedback_test","","","","","","","","",""
"929","","f","psychophysics","96","232848","0.0-8.0-1.0-1.0-0.0-0.43","6","6","6","5","6","5","3","4","4","4","5","0","0","1","1","-1","0","0","1","4","4","4","4","3","4","4","4","4","4","4","5","4","5","3","4","4","4","5","4","6","5","4","5","3","3","2","5","4","1","2","3","5","3","4","3","3","6","5","4","3","4","3","2","3","6","2","6","3","6","4","3","5","4","3","5","6","4","2","4","799642454209994753","张","552","Male","[""好我"",""坏我"",""好他"",""坏他""]","[""强我"",""弱我"",""强他"",""弱他""]","","","","","","","","match","","","","","","","","","","key","f","16.668789473684196","735","456","j","false","nonmatch","img/circle.png","弱我","强他","prac_ALT2_ability","practice_ability","","","","","","","","",""
"null","<span style='color:red; font-size: 70px;'>错误! </span>","null","html-keyboard-response","97","233350","0.0-8.0-1.0-1.0-0.0-1.43","6","6","6","5","6","5","3","4","4","4","5","0","0","1","1","-1","0","0","1","4","4","4","4","3","4","4","4","4","4","4","5","4","5","3","4","4","4","5","4","6","5","4","5","3","3","2","5","4","1","2","3","5","3","4","3","3","6","5","4","3","4","3","2","3","6","2","6","3","6","4","3","5","4","3","5","6","4","2","4","799642454209994753","张","552","Male","[""好我"",""坏我"",""好他"",""坏他""]","[""强我"",""弱我"",""强他"",""弱他""]","","","","","","","","","","","","","","","","","","","","","","","","","","","","","","feedback_test","","","","","","","","",""
"788","","j","psychophysics","98","235140","0.0-8.0-1.0-1.0-0.0-0.44","6","6","6","5","6","5","3","4","4","4","5","0","0","1","1","-1","0","0","1","4","4","4","4","3","4","4","4","4","4","4","5","4","5","3","4","4","4","5","4","6","5","4","5","3","3","2","5","4","1","2","3","5","3","4","3","3","6","5","4","3","4","3","2","3","6","2","6","3","6","4","3","5","4","3","5","6","4","2","4","799642454209994753","张","552","Male","[""好我"",""坏我"",""好他"",""坏他""]","[""强我"",""弱我"",""强他"",""弱他""]","","","","","","","","nonmatch","","","","","","","","","","key","j","16.66599999999991","735","456","j","true","nonmatch","img/hexagon.png","弱我","弱他","prac_ALT2_ability","practice_ability","","","","","","","","",""
"null","<span style='color:GreenYellow; font-size: 70px;'>正确! </span>","null","html-keyboard-response","99","235641","0.0-8.0-1.0-1.0-0.0-1.44","6","6","6","5","6","5","3","4","4","4","5","0","0","1","1","-1","0","0","1","4","4","4","4","3","4","4","4","4","4","4","5","4","5","3","4","4","4","5","4","6","5","4","5","3","3","2","5","4","1","2","3","5","3","4","3","3","6","5","4","3","4","3","2","3","6","2","6","3","6","4","3","5","4","3","5","6","4","2","4","799642454209994753","张","552","Male","[""好我"",""坏我"",""好他"",""坏他""]","[""强我"",""弱我"",""强他"",""弱他""]","","","","","","","","","","","","","","","","","","","","","","","","","","","","","","feedback_test","","","","","","","","",""
"750","","f","psychophysics","100","237394","0.0-8.0-1.0-1.0-0.0-0.45","6","6","6","5","6","5","3","4","4","4","5","0","0","1","1","-1","0","0","1","4","4","4","4","3","4","4","4","4","4","4","5","4","5","3","4","4","4","5","4","6","5","4","5","3","3","2","5","4","1","2","3","5","3","4","3","3","6","5","4","3","4","3","2","3","6","2","6","3","6","4","3","5","4","3","5","6","4","2","4","799642454209994753","张","552","Male","[""好我"",""坏我"",""好他"",""坏他""]","[""强我"",""弱我"",""强他"",""弱他""]","","","","","","","","match","","","","","","","","","","key","f","16.665999999999958","735","456","j","false","nonmatch","img/square.png","弱我","强我","prac_ALT2_ability","practice_ability","","","","","","","","",""
"null","<span style='color:red; font-size: 70px;'>错误! </span>","null","html-keyboard-response","101","237896","0.0-8.0-1.0-1.0-0.0-1.45","6","6","6","5","6","5","3","4","4","4","5","0","0","1","1","-1","0","0","1","4","4","4","4","3","4","4","4","4","4","4","5","4","5","3","4","4","4","5","4","6","5","4","5","3","3","2","5","4","1","2","3","5","3","4","3","3","6","5","4","3","4","3","2","3","6","2","6","3","6","4","3","5","4","3","5","6","4","2","4","799642454209994753","张","552","Male","[""好我"",""坏我"",""好他"",""坏他""]","[""强我"",""弱我"",""强他"",""弱他""]","","","","","","","","","","","","","","","","","","","","","","","","","","","","","","feedback_test","","","","","","","","",""
"676","","j","psychophysics","102","239576","0.0-8.0-1.0-1.0-0.0-0.46","6","6","6","5","6","5","3","4","4","4","5","0","0","1","1","-1","0","0","1","4","4","4","4","3","4","4","4","4","4","4","5","4","5","3","4","4","4","5","4","6","5","4","5","3","3","2","5","4","1","2","3","5","3","4","3","3","6","5","4","3","4","3","2","3","6","2","6","3","6","4","3","5","4","3","5","6","4","2","4","799642454209994753","张","552","Male","[""好我"",""坏我"",""好他"",""坏他""]","[""强我"",""弱我"",""强他"",""弱他""]","","","","","","","","nonmatch","","","","","","","","","","key","j","16.666000000000057","735","456","f","false","match","img/hexagon.png","弱他","弱他","prac_ALT2_ability","practice_ability","","","","","","","","",""
"null","<span style='color:red; font-size: 70px;'>错误! </span>","null","html-keyboard-response","103","240077","0.0-8.0-1.0-1.0-0.0-1.46","6","6","6","5","6","5","3","4","4","4","5","0","0","1","1","-1","0","0","1","4","4","4","4","3","4","4","4","4","4","4","5","4","5","3","4","4","4","5","4","6","5","4","5","3","3","2","5","4","1","2","3","5","3","4","3","3","6","5","4","3","4","3","2","3","6","2","6","3","6","4","3","5","4","3","5","6","4","2","4","799642454209994753","张","552","Male","[""好我"",""坏我"",""好他"",""坏他""]","[""强我"",""弱我"",""强他"",""弱他""]","","","","","","","","","","","","","","","","","","","","","","","","","","","","","","feedback_test","","","","","","","","",""
"null","","null","psychophysics","104","242297","0.0-8.0-1.0-1.0-0.0-0.47","6","6","6","5","6","5","3","4","4","4","5","0","0","1","1","-1","0","0","1","4","4","4","4","3","4","4","4","4","4","4","5","4","5","3","4","4","4","5","4","6","5","4","5","3","3","2","5","4","1","2","3","5","3","4","3","3","6","5","4","3","4","3","2","3","6","2","6","3","6","4","3","5","4","3","5","6","4","2","4","799642454209994753","张","552","Male","[""好我"",""坏我"",""好他"",""坏他""]","[""强我"",""弱我"",""强他"",""弱他""]","","","","","","","","null","","","","","","","","","","key","null","16.66840909090917","735","456","f","false","match","img/circle.png","强他","强他","prac_ALT2_ability","practice_ability","","","","","","","","",""
"null","<span class='add_' style='color:yellow; font-size: 70px;'> 太慢! </span>","null","html-keyboard-response","105","242798","0.0-8.0-1.0-1.0-0.0-1.47","6","6","6","5","6","5","3","4","4","4","5","0","0","1","1","-1","0","0","1","4","4","4","4","3","4","4","4","4","4","4","5","4","5","3","4","4","4","5","4","6","5","4","5","3","3","2","5","4","1","2","3","5","3","4","3","3","6","5","4","3","4","3","2","3","6","2","6","3","6","4","3","5","4","3","5","6","4","2","4","799642454209994753","张","552","Male","[""好我"",""坏我"",""好他"",""坏他""]","[""强我"",""弱我"",""强他"",""弱他""]","","","","","","","","","","","","","","","","","","","","","","","","","","","","","","feedback_test","","","","","","","","",""
"2528","<style>.context{color:white; font-size: 35px; line-height:40px}</style>                          <div><p class='context'>您正确回答了58% 的试次。</p><p class='context'>您的平均反应时为851毫秒。</p><p class='context'>恭喜您完成练习。按空格键继续。</p></div>"," ","html-keyboard-response","106","245331","0.0-8.0-1.0-1.0-1.0-0.0","6","6","6","5","6","5","3","4","4","4","5","0","0","1","1","-1","0","0","1","4","4","4","4","3","4","4","4","4","4","4","5","4","5","3","4","4","4","5","4","6","5","4","5","3","3","2","5","4","1","2","3","5","3","4","3","3","6","5","4","3","4","3","2","3","6","2","6","3","6","4","3","5","4","3","5","6","4","2","4","799642454209994753","张","552","Male","[""好我"",""坏我"",""好他"",""坏他""]","[""强我"",""弱我"",""强他"",""弱他""]","","","","","","","","","","","","","","","","","","","","","","","","","","","","","","","","","","","","","","",""
"18702","","","instructions","107","264039","0.0-8.0-1.0-1.0-1.0-1.0","6","6","6","5","6","5","3","4","4","4","5","0","0","1","1","-1","0","0","1","4","4","4","4","3","4","4","4","4","4","4","5","4","5","3","4","4","4","5","4","6","5","4","5","3","3","2","5","4","1","2","3","5","3","4","3","3","6","5","4","3","4","3","2","3","6","2","6","3","6","4","3","5","4","3","5","6","4","2","4","799642454209994753","张","552","Male","[""好我"",""坏我"",""好他"",""坏他""]","[""强我"",""弱我"",""强他"",""弱他""]","","","","","","","","","","","","","","","","","[{""page_index"":0,""viewing_time"":1950},{""page_index"":1,""viewing_time"":11419},{""page_index"":2,""viewing_time"":5331}]","","","","","","","","","","","","","","","","","","","","","",""
"787","","j","psychophysics","108","265830","0.0-8.0-1.0-1.1-0.1-0.48","6","6","6","5","6","5","3","4","4","4","5","0","0","1","1","-1","0","0","1","4","4","4","4","3","4","4","4","4","4","4","5","4","5","3","4","4","4","5","4","6","5","4","5","3","3","2","5","4","1","2","3","5","3","4","3","3","6","5","4","3","4","3","2","3","6","2","6","3","6","4","3","5","4","3","5","6","4","2","4","799642454209994753","张","552","Male","[""好我"",""坏我"",""好他"",""坏他""]","[""强我"",""弱我"",""强他"",""弱他""]","","","","","","","","nonmatch","","","","","","","","","","key","j","16.666000000000185","735","456","j","true","nonmatch","img/hexagon.png","强我","弱他","prac_ALT2_ability","practice_ability","","","","","","","","",""
"null","<span style='color:GreenYellow; font-size: 70px;'>正确! </span>","null","html-keyboard-response","109","266332","0.0-8.0-1.0-1.1-0.1-1.48","6","6","6","5","6","5","3","4","4","4","5","0","0","1","1","-1","0","0","1","4","4","4","4","3","4","4","4","4","4","4","5","4","5","3","4","4","4","5","4","6","5","4","5","3","3","2","5","4","1","2","3","5","3","4","3","3","6","5","4","3","4","3","2","3","6","2","6","3","6","4","3","5","4","3","5","6","4","2","4","799642454209994753","张","552","Male","[""好我"",""坏我"",""好他"",""坏他""]","[""强我"",""弱我"",""强他"",""弱他""]","","","","","","","","","","","","","","","","","","","","","","","","","","","","","","feedback_test","","","","","","","","",""
"807","","j","psychophysics","110","268141","0.0-8.0-1.0-1.1-0.1-0.49","6","6","6","5","6","5","3","4","4","4","5","0","0","1","1","-1","0","0","1","4","4","4","4","3","4","4","4","4","4","4","5","4","5","3","4","4","4","5","4","6","5","4","5","3","3","2","5","4","1","2","3","5","3","4","3","3","6","5","4","3","4","3","2","3","6","2","6","3","6","4","3","5","4","3","5","6","4","2","4","799642454209994753","张","552","Male","[""好我"",""坏我"",""好他"",""坏他""]","[""强我"",""弱我"",""强他"",""弱他""]","","","","","","","","nonmatch","","","","","","","","","","key","j","16.665999999999887","735","456","j","true","nonmatch","img/hexagon.png","强他","弱他","prac_ALT2_ability","practice_ability","","","","","","","","",""
"null","<span style='color:GreenYellow; font-size: 70px;'>正确! </span>","null","html-keyboard-response","111","268643","0.0-8.0-1.0-1.1-0.1-1.49","6","6","6","5","6","5","3","4","4","4","5","0","0","1","1","-1","0","0","1","4","4","4","4","3","4","4","4","4","4","4","5","4","5","3","4","4","4","5","4","6","5","4","5","3","3","2","5","4","1","2","3","5","3","4","3","3","6","5","4","3","4","3","2","3","6","2","6","3","6","4","3","5","4","3","5","6","4","2","4","799642454209994753","张","552","Male","[""好我"",""坏我"",""好他"",""坏他""]","[""强我"",""弱我"",""强他"",""弱他""]","","","","","","","","","","","","","","","","","","","","","","","","","","","","","","feedback_test","","","","","","","","",""
"827","","j","psychophysics","112","270473","0.0-8.0-1.0-1.1-0.1-0.50","6","6","6","5","6","5","3","4","4","4","5","0","0","1","1","-1","0","0","1","4","4","4","4","3","4","4","4","4","4","4","5","4","5","3","4","4","4","5","4","6","5","4","5","3","3","2","5","4","1","2","3","5","3","4","3","3","6","5","4","3","4","3","2","3","6","2","6","3","6","4","3","5","4","3","5","6","4","2","4","799642454209994753","张","552","Male","[""好我"",""坏我"",""好他"",""坏他""]","[""强我"",""弱我"",""强他"",""弱他""]","","","","","","","","nonmatch","","","","","","","","","","key","j","16.6698532110094","735","456","f","false","match","img/hexagon.png","弱他","弱他","prac_ALT2_ability","practice_ability","","","","","","","","",""
"null","<span style='color:red; font-size: 70px;'>错误! </span>","null","html-keyboard-response","113","270974","0.0-8.0-1.0-1.1-0.1-1.50","6","6","6","5","6","5","3","4","4","4","5","0","0","1","1","-1","0","0","1","4","4","4","4","3","4","4","4","4","4","4","5","4","5","3","4","4","4","5","4","6","5","4","5","3","3","2","5","4","1","2","3","5","3","4","3","3","6","5","4","3","4","3","2","3","6","2","6","3","6","4","3","5","4","3","5","6","4","2","4","799642454209994753","张","552","Male","[""好我"",""坏我"",""好他"",""坏他""]","[""强我"",""弱我"",""强他"",""弱他""]","","","","","","","","","","","","","","","","","","","","","","","","","","","","","","feedback_test","","","","","","","","",""
"882","","j","psychophysics","114","272858","0.0-8.0-1.0-1.1-0.1-0.51","6","6","6","5","6","5","3","4","4","4","5","0","0","1","1","-1","0","0","1","4","4","4","4","3","4","4","4","4","4","4","5","4","5","3","4","4","4","5","4","6","5","4","5","3","3","2","5","4","1","2","3","5","3","4","3","3","6","5","4","3","4","3","2","3","6","2","6","3","6","4","3","5","4","3","5","6","4","2","4","799642454209994753","张","552","Male","[""好我"",""坏我"",""好他"",""坏他""]","[""强我"",""弱我"",""强他"",""弱他""]","","","","","","","","nonmatch","","","","","","","","","","key","j","16.665999999999517","735","456","f","false","match","img/circle.png","强他","强他","prac_ALT2_ability","practice_ability","","","","","","","","",""
"null","<span style='color:red; font-size: 70px;'>错误! </span>","null","html-keyboard-response","115","273360","0.0-8.0-1.0-1.1-0.1-1.51","6","6","6","5","6","5","3","4","4","4","5","0","0","1","1","-1","0","0","1","4","4","4","4","3","4","4","4","4","4","4","5","4","5","3","4","4","4","5","4","6","5","4","5","3","3","2","5","4","1","2","3","5","3","4","3","3","6","5","4","3","4","3","2","3","6","2","6","3","6","4","3","5","4","3","5","6","4","2","4","799642454209994753","张","552","Male","[""好我"",""坏我"",""好他"",""坏他""]","[""强我"",""弱我"",""强他"",""弱他""]","","","","","","","","","","","","","","","","","","","","","","","","","","","","","","feedback_test","","","","","","","","",""
"747","","f","psychophysics","116","275110","0.0-8.0-1.0-1.1-0.1-0.52","6","6","6","5","6","5","3","4","4","4","5","0","0","1","1","-1","0","0","1","4","4","4","4","3","4","4","4","4","4","4","5","4","5","3","4","4","4","5","4","6","5","4","5","3","3","2","5","4","1","2","3","5","3","4","3","3","6","5","4","3","4","3","2","3","6","2","6","3","6","4","3","5","4","3","5","6","4","2","4","799642454209994753","张","552","Male","[""好我"",""坏我"",""好他"",""坏他""]","[""强我"",""弱我"",""强他"",""弱他""]","","","","","","","","match","","","","","","","","","","key","f","16.66600000000024","735","456","j","false","nonmatch","img/diamond.png","强我","弱我","prac_ALT2_ability","practice_ability","","","","","","","","",""
"null","<span style='color:red; font-size: 70px;'>错误! </span>","null","html-keyboard-response","117","275611","0.0-8.0-1.0-1.1-0.1-1.52","6","6","6","5","6","5","3","4","4","4","5","0","0","1","1","-1","0","0","1","4","4","4","4","3","4","4","4","4","4","4","5","4","5","3","4","4","4","5","4","6","5","4","5","3","3","2","5","4","1","2","3","5","3","4","3","3","6","5","4","3","4","3","2","3","6","2","6","3","6","4","3","5","4","3","5","6","4","2","4","799642454209994753","张","552","Male","[""好我"",""坏我"",""好他"",""坏他""]","[""强我"",""弱我"",""强他"",""弱他""]","","","","","","","","","","","","","","","","","","","","","","","","","","","","","","feedback_test","","","","","","","","",""
"1052","","j","psychophysics","118","277667","0.0-8.0-1.0-1.1-0.1-0.53","6","6","6","5","6","5","3","4","4","4","5","0","0","1","1","-1","0","0","1","4","4","4","4","3","4","4","4","4","4","4","5","4","5","3","4","4","4","5","4","6","5","4","5","3","3","2","5","4","1","2","3","5","3","4","3","3","6","5","4","3","4","3","2","3","6","2","6","3","6","4","3","5","4","3","5","6","4","2","4","799642454209994753","张","552","Male","[""好我"",""坏我"",""好他"",""坏他""]","[""强我"",""弱我"",""强他"",""弱他""]","","","","","","","","nonmatch","","","","","","","","","","key","j","16.665999999999823","735","456","f","false","match","img/square.png","强我","强我","prac_ALT2_ability","practice_ability","","","","","","","","",""
"null","<span style='color:red; font-size: 70px;'>错误! </span>","null","html-keyboard-response","119","278168","0.0-8.0-1.0-1.1-0.1-1.53","6","6","6","5","6","5","3","4","4","4","5","0","0","1","1","-1","0","0","1","4","4","4","4","3","4","4","4","4","4","4","5","4","5","3","4","4","4","5","4","6","5","4","5","3","3","2","5","4","1","2","3","5","3","4","3","3","6","5","4","3","4","3","2","3","6","2","6","3","6","4","3","5","4","3","5","6","4","2","4","799642454209994753","张","552","Male","[""好我"",""坏我"",""好他"",""坏他""]","[""强我"",""弱我"",""强他"",""弱他""]","","","","","","","","","","","","","","","","","","","","","","","","","","","","","","feedback_test","","","","","","","","",""
"830","","j","psychophysics","120","280001","0.0-8.0-1.0-1.1-0.1-0.54","6","6","6","5","6","5","3","4","4","4","5","0","0","1","1","-1","0","0","1","4","4","4","4","3","4","4","4","4","4","4","5","4","5","3","4","4","4","5","4","6","5","4","5","3","3","2","5","4","1","2","3","5","3","4","3","3","6","5","4","3","4","3","2","3","6","2","6","3","6","4","3","5","4","3","5","6","4","2","4","799642454209994753","张","552","Male","[""好我"",""坏我"",""好他"",""坏他""]","[""强我"",""弱我"",""强他"",""弱他""]","","","","","","","","nonmatch","","","","","","","","","","key","j","16.668944444444303","735","456","j","true","nonmatch","img/circle.png","弱我","强他","prac_ALT2_ability","practice_ability","","","","","","","","",""
"null","<span style='color:GreenYellow; font-size: 70px;'>正确! </span>","null","html-keyboard-response","121","280503","0.0-8.0-1.0-1.1-0.1-1.54","6","6","6","5","6","5","3","4","4","4","5","0","0","1","1","-1","0","0","1","4","4","4","4","3","4","4","4","4","4","4","5","4","5","3","4","4","4","5","4","6","5","4","5","3","3","2","5","4","1","2","3","5","3","4","3","3","6","5","4","3","4","3","2","3","6","2","6","3","6","4","3","5","4","3","5","6","4","2","4","799642454209994753","张","552","Male","[""好我"",""坏我"",""好他"",""坏他""]","[""强我"",""弱我"",""强他"",""弱他""]","","","","","","","","","","","","","","","","","","","","","","","","","","","","","","feedback_test","","","","","","","","",""
"795","","f","psychophysics","122","282302","0.0-8.0-1.0-1.1-0.1-0.55","6","6","6","5","6","5","3","4","4","4","5","0","0","1","1","-1","0","0","1","4","4","4","4","3","4","4","4","4","4","4","5","4","5","3","4","4","4","5","4","6","5","4","5","3","3","2","5","4","1","2","3","5","3","4","3","3","6","5","4","3","4","3","2","3","6","2","6","3","6","4","3","5","4","3","5","6","4","2","4","799642454209994753","张","552","Male","[""好我"",""坏我"",""好他"",""坏他""]","[""强我"",""弱我"",""强他"",""弱他""]","","","","","","","","match","","","","","","","","","","key","f","16.666000000000185","735","456","f","true","match","img/diamond.png","弱我","弱我","prac_ALT2_ability","practice_ability","","","","","","","","",""
"null","<span style='color:GreenYellow; font-size: 70px;'>正确! </span>","null","html-keyboard-response","123","282803","0.0-8.0-1.0-1.1-0.1-1.55","6","6","6","5","6","5","3","4","4","4","5","0","0","1","1","-1","0","0","1","4","4","4","4","3","4","4","4","4","4","4","5","4","5","3","4","4","4","5","4","6","5","4","5","3","3","2","5","4","1","2","3","5","3","4","3","3","6","5","4","3","4","3","2","3","6","2","6","3","6","4","3","5","4","3","5","6","4","2","4","799642454209994753","张","552","Male","[""好我"",""坏我"",""好他"",""坏他""]","[""强我"",""弱我"",""强他"",""弱他""]","","","","","","","","","","","","","","","","","","","","","","","","","","","","","","feedback_test","","","","","","","","",""
"735","","j","psychophysics","124","284541","0.0-8.0-1.0-1.1-0.1-0.56","6","6","6","5","6","5","3","4","4","4","5","0","0","1","1","-1","0","0","1","4","4","4","4","3","4","4","4","4","4","4","5","4","5","3","4","4","4","5","4","6","5","4","5","3","3","2","5","4","1","2","3","5","3","4","3","3","6","5","4","3","4","3","2","3","6","2","6","3","6","4","3","5","4","3","5","6","4","2","4","799642454209994753","张","552","Male","[""好我"",""坏我"",""好他"",""坏他""]","[""强我"",""弱我"",""强他"",""弱他""]","","","","","","","","nonmatch","","","","","","","","","","key","j","16.665999999999983","735","456","j","true","nonmatch","img/diamond.png","强他","弱我","prac_ALT2_ability","practice_ability","","","","","","","","",""
"null","<span style='color:GreenYellow; font-size: 70px;'>正确! </span>","null","html-keyboard-response","125","285043","0.0-8.0-1.0-1.1-0.1-1.56","6","6","6","5","6","5","3","4","4","4","5","0","0","1","1","-1","0","0","1","4","4","4","4","3","4","4","4","4","4","4","5","4","5","3","4","4","4","5","4","6","5","4","5","3","3","2","5","4","1","2","3","5","3","4","3","3","6","5","4","3","4","3","2","3","6","2","6","3","6","4","3","5","4","3","5","6","4","2","4","799642454209994753","张","552","Male","[""好我"",""坏我"",""好他"",""坏他""]","[""强我"",""弱我"",""强他"",""弱他""]","","","","","","","","","","","","","","","","","","","","","","","","","","","","","","feedback_test","","","","","","","","",""
"945","","f","psychophysics","126","286991","0.0-8.0-1.0-1.1-0.1-0.57","6","6","6","5","6","5","3","4","4","4","5","0","0","1","1","-1","0","0","1","4","4","4","4","3","4","4","4","4","4","4","5","4","5","3","4","4","4","5","4","6","5","4","5","3","3","2","5","4","1","2","3","5","3","4","3","3","6","5","4","3","4","3","2","3","6","2","6","3","6","4","3","5","4","3","5","6","4","2","4","799642454209994753","张","552","Male","[""好我"",""坏我"",""好他"",""坏他""]","[""强我"",""弱我"",""强他"",""弱他""]","","","","","","","","match","","","","","","","","","","key","f","16.665999999999947","735","456","f","true","match","img/hexagon.png","弱他","弱他","prac_ALT2_ability","practice_ability","","","","","","","","",""
"null","<span style='color:GreenYellow; font-size: 70px;'>正确! </span>","null","html-keyboard-response","127","287493","0.0-8.0-1.0-1.1-0.1-1.57","6","6","6","5","6","5","3","4","4","4","5","0","0","1","1","-1","0","0","1","4","4","4","4","3","4","4","4","4","4","4","5","4","5","3","4","4","4","5","4","6","5","4","5","3","3","2","5","4","1","2","3","5","3","4","3","3","6","5","4","3","4","3","2","3","6","2","6","3","6","4","3","5","4","3","5","6","4","2","4","799642454209994753","张","552","Male","[""好我"",""坏我"",""好他"",""坏他""]","[""强我"",""弱我"",""强他"",""弱他""]","","","","","","","","","","","","","","","","","","","","","","","","","","","","","","feedback_test","","","","","","","","",""
"704","","j","psychophysics","128","289200","0.0-8.0-1.0-1.1-0.1-0.58","6","6","6","5","6","5","3","4","4","4","5","0","0","1","1","-1","0","0","1","4","4","4","4","3","4","4","4","4","4","4","5","4","5","3","4","4","4","5","4","6","5","4","5","3","3","2","5","4","1","2","3","5","3","4","3","3","6","5","4","3","4","3","2","3","6","2","6","3","6","4","3","5","4","3","5","6","4","2","4","799642454209994753","张","552","Male","[""好我"",""坏我"",""好他"",""坏他""]","[""强我"",""弱我"",""强他"",""弱他""]","","","","","","","","nonmatch","","","","","","","","","","key","j","16.6691485148518","735","456","j","true","nonmatch","img/square.png","弱他","强我","prac_ALT2_ability","practice_ability","","","","","","","","",""
"null","<span style='color:GreenYellow; font-size: 70px;'>正确! </span>","null","html-keyboard-response","129","289702","0.0-8.0-1.0-1.1-0.1-1.58","6","6","6","5","6","5","3","4","4","4","5","0","0","1","1","-1","0","0","1","4","4","4","4","3","4","4","4","4","4","4","5","4","5","3","4","4","4","5","4","6","5","4","5","3","3","2","5","4","1","2","3","5","3","4","3","3","6","5","4","3","4","3","2","3","6","2","6","3","6","4","3","5","4","3","5","6","4","2","4","799642454209994753","张","552","Male","[""好我"",""坏我"",""好他"",""坏他""]","[""强我"",""弱我"",""强他"",""弱他""]","","","","","","","","","","","","","","","","","","","","","","","","","","","","","","feedback_test","","","","","","","","",""
"919","","j","psychophysics","130","291624","0.0-8.0-1.0-1.1-0.1-0.59","6","6","6","5","6","5","3","4","4","4","5","0","0","1","1","-1","0","0","1","4","4","4","4","3","4","4","4","4","4","4","5","4","5","3","4","4","4","5","4","6","5","4","5","3","3","2","5","4","1","2","3","5","3","4","3","3","6","5","4","3","4","3","2","3","6","2","6","3","6","4","3","5","4","3","5","6","4","2","4","799642454209994753","张","552","Male","[""好我"",""坏我"",""好他"",""坏他""]","[""强我"",""弱我"",""强他"",""弱他""]","","","","","","","","nonmatch","","","","","","","","","","key","j","16.665999999999993","735","456","f","false","match","img/circle.png","强他","强他","prac_ALT2_ability","practice_ability","","","","","","","","",""
"null","<span style='color:red; font-size: 70px;'>错误! </span>","null","html-keyboard-response","131","292126","0.0-8.0-1.0-1.1-0.1-1.59","6","6","6","5","6","5","3","4","4","4","5","0","0","1","1","-1","0","0","1","4","4","4","4","3","4","4","4","4","4","4","5","4","5","3","4","4","4","5","4","6","5","4","5","3","3","2","5","4","1","2","3","5","3","4","3","3","6","5","4","3","4","3","2","3","6","2","6","3","6","4","3","5","4","3","5","6","4","2","4","799642454209994753","张","552","Male","[""好我"",""坏我"",""好他"",""坏他""]","[""强我"",""弱我"",""强他"",""弱他""]","","","","","","","","","","","","","","","","","","","","","","","","","","","","","","feedback_test","","","","","","","","",""
"879","","f","psychophysics","132","294007","0.0-8.0-1.0-1.1-0.1-0.60","6","6","6","5","6","5","3","4","4","4","5","0","0","1","1","-1","0","0","1","4","4","4","4","3","4","4","4","4","4","4","5","4","5","3","4","4","4","5","4","6","5","4","5","3","3","2","5","4","1","2","3","5","3","4","3","3","6","5","4","3","4","3","2","3","6","2","6","3","6","4","3","5","4","3","5","6","4","2","4","799642454209994753","张","552","Male","[""好我"",""坏我"",""好他"",""坏他""]","[""强我"",""弱我"",""强他"",""弱他""]","","","","","","","","match","","","","","","","","","","key","f","16.666000000000036","735","456","j","false","nonmatch","img/square.png","弱我","强我","prac_ALT2_ability","practice_ability","","","","","","","","",""
"null","<span style='color:red; font-size: 70px;'>错误! </span>","null","html-keyboard-response","133","294509","0.0-8.0-1.0-1.1-0.1-1.60","6","6","6","5","6","5","3","4","4","4","5","0","0","1","1","-1","0","0","1","4","4","4","4","3","4","4","4","4","4","4","5","4","5","3","4","4","4","5","4","6","5","4","5","3","3","2","5","4","1","2","3","5","3","4","3","3","6","5","4","3","4","3","2","3","6","2","6","3","6","4","3","5","4","3","5","6","4","2","4","799642454209994753","张","552","Male","[""好我"",""坏我"",""好他"",""坏他""]","[""强我"",""弱我"",""强他"",""弱他""]","","","","","","","","","","","","","","","","","","","","","","","","","","","","","","feedback_test","","","","","","","","",""
"670","","f","psychophysics","134","296182","0.0-8.0-1.0-1.1-0.1-0.61","6","6","6","5","6","5","3","4","4","4","5","0","0","1","1","-1","0","0","1","4","4","4","4","3","4","4","4","4","4","4","5","4","5","3","4","4","4","5","4","6","5","4","5","3","3","2","5","4","1","2","3","5","3","4","3","3","6","5","4","3","4","3","2","3","6","2","6","3","6","4","3","5","4","3","5","6","4","2","4","799642454209994753","张","552","Male","[""好我"",""坏我"",""好他"",""坏他""]","[""强我"",""弱我"",""强他"",""弱他""]","","","","","","","","match","","","","","","","","","","key","f","16.666000000000086","735","456","f","true","match","img/diamond.png","弱我","弱我","prac_ALT2_ability","practice_ability","","","","","","","","",""
"null","<span style='color:GreenYellow; font-size: 70px;'>正确! </span>","null","html-keyboard-response","135","296683","0.0-8.0-1.0-1.1-0.1-1.61","6","6","6","5","6","5","3","4","4","4","5","0","0","1","1","-1","0","0","1","4","4","4","4","3","4","4","4","4","4","4","5","4","5","3","4","4","4","5","4","6","5","4","5","3","3","2","5","4","1","2","3","5","3","4","3","3","6","5","4","3","4","3","2","3","6","2","6","3","6","4","3","5","4","3","5","6","4","2","4","799642454209994753","张","552","Male","[""好我"",""坏我"",""好他"",""坏他""]","[""强我"",""弱我"",""强他"",""弱他""]","","","","","","","","","","","","","","","","","","","","","","","","","","","","","","feedback_test","","","","","","","","",""
"706","","f","psychophysics","136","298391","0.0-8.0-1.0-1.1-0.1-0.62","6","6","6","5","6","5","3","4","4","4","5","0","0","1","1","-1","0","0","1","4","4","4","4","3","4","4","4","4","4","4","5","4","5","3","4","4","4","5","4","6","5","4","5","3","3","2","5","4","1","2","3","5","3","4","3","3","6","5","4","3","4","3","2","3","6","2","6","3","6","4","3","5","4","3","5","6","4","2","4","799642454209994753","张","552","Male","[""好我"",""坏我"",""好他"",""坏他""]","[""强我"",""弱我"",""强他"",""弱他""]","","","","","","","","match","","","","","","","","","","key","f","16.666000000000032","735","456","f","true","match","img/square.png","强我","强我","prac_ALT2_ability","practice_ability","","","","","","","","",""
"null","<span style='color:GreenYellow; font-size: 70px;'>正确! </span>","null","html-keyboard-response","137","298893","0.0-8.0-1.0-1.1-0.1-1.62","6","6","6","5","6","5","3","4","4","4","5","0","0","1","1","-1","0","0","1","4","4","4","4","3","4","4","4","4","4","4","5","4","5","3","4","4","4","5","4","6","5","4","5","3","3","2","5","4","1","2","3","5","3","4","3","3","6","5","4","3","4","3","2","3","6","2","6","3","6","4","3","5","4","3","5","6","4","2","4","799642454209994753","张","552","Male","[""好我"",""坏我"",""好他"",""坏他""]","[""强我"",""弱我"",""强他"",""弱他""]","","","","","","","","","","","","","","","","","","","","","","","","","","","","","","feedback_test","","","","","","","","",""
"876","","f","psychophysics","138","300770","0.0-8.0-1.0-1.1-0.1-0.63","6","6","6","5","6","5","3","4","4","4","5","0","0","1","1","-1","0","0","1","4","4","4","4","3","4","4","4","4","4","4","5","4","5","3","4","4","4","5","4","6","5","4","5","3","3","2","5","4","1","2","3","5","3","4","3","3","6","5","4","3","4","3","2","3","6","2","6","3","6","4","3","5","4","3","5","6","4","2","4","799642454209994753","张","552","Male","[""好我"",""坏我"",""好他"",""坏他""]","[""强我"",""弱我"",""强他"",""弱他""]","","","","","","","","match","","","","","","","","","","key","f","16.668526785714285","735","456","f","true","match","img/hexagon.png","弱他","弱他","prac_ALT2_ability","practice_ability","","","","","","","","",""
