"rt","stimulus","response","trial_type","trial_index","time_elapsed","internal_node_id","swb_1","swb_2","swb_3","swb_4","swb_5","LOT_1","LOT_2","LOT_3","LOT_4","LOT_5","LOT_6","IPC_1","IPC_2","IPC_3","IPC_4","IPC_5","IPC_6","IPC_7","IPC_8","MorIden_1","MorIden_2","MorIden_3","MorIden_4","MorIden_5","MorIden_6","MorIden_7","MorIden_8","MorIden_9","MorIden_10","moralSeImag_1","moralSeImag_2","moralSeImag_3","moralSeImag_4","moralSeImag_5","moralSeImag_6","moralSeImag_7","moralSeImag_8","moralSeImag_9","sde_1","sde_2","sde_3","sde_4","sde_5","sde_6","sde_7","sde_8","sde_9","sde_10","trap2","sde_11","sde_12","sde_13","sde_14","sde_15","sde_16","sde_17","sde_18","sde_19","sde_20","IM_1","IM_2","IM_3","IM_4","IM_5","IM_6","IM_7","IM_8","IM_9","IM_10","IM_11","IM_12","IM_13","IM_14","IM_15","IM_16","IM_17","IM_18","IM_19","IM_20","subj_idx","friend_name","ParticipantID","Sex","Word","Word2","value","success","timeout","failed_images","failed_audio","failed_video","user_agent","responses","item_order","radio_event_ids","radio_event_times","key_event_times","mouse_event_times","straightlining","zigzagging","honeypot","view_history","response_type","key_press","avg_frame_time","center_x","center_y","correct_response","correct","identity","Image","word","condition","task_id","screen_id","time_stamp","person","valence","domain","math","status","duration","question_order","trap2_item"
"1430","
   <p><div style='color:white; font-size: 25px'>您好，欢迎参加本次实验。</div></p>
   <p><div style='color:white; font-size: 25px'>为充分保障您的权利，请确保您已经知晓并同意《参与实验同意书》以及《数据公开知情同意书》。</div></p>
   <p><div style='color:white; font-size: 25px'>如果您未见过上述内容，请咨询实验员。</div></p>
   <p style='color:white; font-size: 25px'>如果您选择继续实验，则表示您已经清楚两份知情同意书的内容并同意。</p>
   <p><div style = ""color: pink;font-size:30px;"">请确保您记得day0的实验编号，您将在本次实验输入该编号，若您忘记，请咨询实验员后作答。</div></p>
   <p><div style = ""color:lightblue;font-size:25px;"">请您尽可能认真地作答，我们将依据您在各问卷和按键任务中的作答质量发放报酬。</div></p>
   <p> <div style = ""color: green""><按空格键至下页></div> </p>
   "," ","html-keyboard-response","0","1435","0.0-0.0","5","4","5","4","4","5","2","4","4","4","5","1","1","-1","0","-1","0","0","0","5","5","5","5","5","4","4","4","4","4","4","6","6","7","4","4","6","5","6","5","3","3","4","3","2","5","2","3","1","1","2","2","5","4","1","6","2","3","3","3","3","4","3","3","3","5","2","5","5","5","3","3","4","3","3","3","3","5","3","3","781518061500108802","郭","148","Female","[""好我"",""坏她"",""坏我"",""好她""]","[""强我"",""弱她"",""弱我"",""强她""]","","","","","","","","","","","","","","","","","","","","","","","","","","","","","","","","","","","","","","",""
"","","","call-function","1","1436","0.0-1.0-0.0","5","4","5","4","4","5","2","4","4","4","5","1","1","-1","0","-1","0","0","0","5","5","5","5","5","4","4","4","4","4","4","6","6","7","4","4","6","5","6","5","3","3","4","3","2","5","2","3","1","1","2","2","5","4","1","6","2","3","3","3","3","4","3","3","3","5","2","5","5","5","3","3","4","3","3","3","3","5","3","3","781518061500108802","郭","148","Female","[""好我"",""坏她"",""坏我"",""好她""]","[""强我"",""弱她"",""弱我"",""强她""]","","","","","","","","","","","","","","","","","","","","","","","","","","","","","","","","","","","","","","",""
"56734","","[{""name"":""Sex"",""value"":""1""},{""name"":""friend_name"",""value"":""郭""},{""name"":""ParticipantID"",""value"":""148""}]","survey-html-form","2","58173","0.0-1.0-1.0","5","4","5","4","4","5","2","4","4","4","5","1","1","-1","0","-1","0","0","0","5","5","5","5","5","4","4","4","4","4","4","6","6","7","4","4","6","5","6","5","3","3","4","3","2","5","2","3","1","1","2","2","5","4","1","6","2","3","3","3","3","4","3","3","3","5","2","5","5","5","3","3","4","3","3","3","3","5","3","3","781518061500108802","郭","148","Female","[""好我"",""坏她"",""坏我"",""好她""]","[""强我"",""弱她"",""弱我"",""强她""]","","","","","","","","","","","","","","","","","","","","","","","","","","","","","","","","","","","","","","",""
"","","","preload","3","58573","0.0-2.0","5","4","5","4","4","5","2","4","4","4","5","1","1","-1","0","-1","0","0","0","5","5","5","5","5","4","4","4","4","4","4","6","6","7","4","4","6","5","6","5","3","3","4","3","2","5","2","3","1","1","2","2","5","4","1","6","2","3","3","3","3","4","3","3","3","5","2","5","5","5","3","3","4","3","3","3","3","5","3","3","781518061500108802","郭","148","Female","[""好我"",""坏她"",""坏我"",""好她""]","[""强我"",""弱她"",""弱我"",""强她""]","","true","false","[]","[]","[]","","","","","","","","","","","","","","","","","","","","","","","","","","","","","","","","",""
"","","","fullscreen","4","60106","0.0-3.0","5","4","5","4","4","5","2","4","4","4","5","1","1","-1","0","-1","0","0","0","5","5","5","5","5","4","4","4","4","4","4","6","6","7","4","4","6","5","6","5","3","3","4","3","2","5","2","3","1","1","2","2","5","4","1","6","2","3","3","3","3","4","3","3","3","5","2","5","5","5","3","3","4","3","3","3","3","5","3","3","781518061500108802","郭","148","Female","[""好我"",""坏她"",""坏我"",""好她""]","[""强我"",""弱她"",""弱我"",""强她""]","","true","","","","","{}","","","","","","","","","","","","","","","","","","","","","","","","","","","","","","","",""
"136808.20000001788","","{""Q01"":""5"",""Q02"":""4"",""Q03"":""5"",""Q04"":""4"",""Q05"":""4""}","survey-template","5","196920","0.0-4.0","5","4","5","4","4","5","2","4","4","4","5","1","1","-1","0","-1","0","0","0","5","5","5","5","5","4","4","4","4","4","4","6","6","7","4","4","6","5","6","5","3","3","4","3","2","5","2","3","1","1","2","2","5","4","1","6","2","3","3","3","3","4","3","3","3","5","2","5","5","5","3","3","4","3","3","3","3","5","3","3","781518061500108802","郭","148","Female","[""好我"",""坏她"",""坏我"",""好她""]","[""强我"",""弱她"",""弱我"",""强她""]","","","","","","","","{""Q01"":""5"",""Q02"":""4"",""Q03"":""5"",""Q04"":""4"",""Q05"":""4""}","[0,1,2,3,4]","[""Q01"",""Q02"",""Q03"",""Q04"",""Q05"",""Q05"",""Q02""]","[64832.20000001788,74129.09999999404,76446.40000000596,80419.09999999404,83003.70000001788,85997.70000001788,88851.80000001192]","[]","[62403.5,64832.20000001788,74129.09999999404,76446.40000000596,80419.09999999404,83003.70000001788,85997.70000001788,88851.80000001192,136806.20000001788]","0.6","0.75","0","","","","","","","","","","","","","","","","","","","","","","",""
"18508.80000001192","","{""Q01"":""5"",""Q02"":""2"",""Q03"":""4"",""Q04"":""4"",""Q05"":""4"",""Q06"":""5""}","survey-template","6","215436","0.0-5.0","5","4","5","4","4","5","2","4","4","4","5","1","1","-1","0","-1","0","0","0","5","5","5","5","5","4","4","4","4","4","4","6","6","7","4","4","6","5","6","5","3","3","4","3","2","5","2","3","1","1","2","2","5","4","1","6","2","3","3","3","3","4","3","3","3","5","2","5","5","5","3","3","4","3","3","3","3","5","3","3","781518061500108802","郭","148","Female","[""好我"",""坏她"",""坏我"",""好她""]","[""强我"",""弱她"",""弱我"",""强她""]","","","","","","","","{""Q01"":""5"",""Q02"":""2"",""Q03"":""4"",""Q04"":""4"",""Q05"":""4"",""Q06"":""5""}","[0,1,2,3,4,5]","[""Q01"",""Q02"",""Q03"",""Q04"",""Q05"",""Q06""]","[3562.199999988079,8990.90000000596,10353.5,12261.300000011921,13871.09999999404,15964.40000000596]","[]","[3562.199999988079,8990.90000000596,10353.5,12261.300000011921,13871.09999999404,15964.40000000596,18506.59999999404]","0.3333333333333333","0.2","0","","","","","","","","","","","","","","","","","","","","","","",""
"17403.40000000596","","{""Q01"":""1"",""Q02"":""1"",""Q03"":""-1"",""Q04"":""0"",""Q05"":""-1"",""Q06"":""0"",""Q07"":""0"",""Q08"":""0""}","survey-template","7","232850","0.0-6.0","5","4","5","4","4","5","2","4","4","4","5","1","1","-1","0","-1","0","0","0","5","5","5","5","5","4","4","4","4","4","4","6","6","7","4","4","6","5","6","5","3","3","4","3","2","5","2","3","1","1","2","2","5","4","1","6","2","3","3","3","3","4","3","3","3","5","2","5","5","5","3","3","4","3","3","3","3","5","3","3","781518061500108802","郭","148","Female","[""好我"",""坏她"",""坏我"",""好她""]","[""强我"",""弱她"",""弱我"",""强她""]","","","","","","","","{""Q01"":""1"",""Q02"":""1"",""Q03"":""-1"",""Q04"":""0"",""Q05"":""-1"",""Q06"":""0"",""Q07"":""0"",""Q08"":""0""}","[0,1,2,3,4,5,6,7]","[""Q01"",""Q02"",""Q03"",""Q04"",""Q05"",""Q06"",""Q07"",""Q08""]","[3320.4000000059605,5142.5999999940395,8299.40000000596,10515.5,12009.40000000596,13453.700000017881,14845,16224.200000017881]","[]","[3320.4000000059605,5142.5999999940395,8299.40000000596,10515.5,12009.40000000596,13453.700000017881,14845,16224.200000017881,17399.40000000596]","0.5","0.42857142857142855","0","","","","","","","","","","","","","","","","","","","","","","",""
"3374","","","instructions","8","236233","0.0-7.0","5","4","5","4","4","5","2","4","4","4","5","1","1","-1","0","-1","0","0","0","5","5","5","5","5","4","4","4","4","4","4","6","6","7","4","4","6","5","6","5","3","3","4","3","2","5","2","3","1","1","2","2","5","4","1","6","2","3","3","3","3","4","3","3","3","5","2","5","5","5","3","3","4","3","3","3","3","5","3","3","781518061500108802","郭","148","Female","[""好我"",""坏她"",""坏我"",""好她""]","[""强我"",""弱她"",""弱我"",""强她""]","","","","","","","","","","","","","","","","","[{""page_index"":0,""viewing_time"":3373}]","","","","","","","","","","","","","","","","","","","","","",""
"34513","","","instructions","9","270750","0.0-8.0-0.0-0.0","5","4","5","4","4","5","2","4","4","4","5","1","1","-1","0","-1","0","0","0","5","5","5","5","5","4","4","4","4","4","4","6","6","7","4","4","6","5","6","5","3","3","4","3","2","5","2","3","1","1","2","2","5","4","1","6","2","3","3","3","3","4","3","3","3","5","2","5","5","5","3","3","4","3","3","3","3","5","3","3","781518061500108802","郭","148","Female","[""好我"",""坏她"",""坏我"",""好她""]","[""强我"",""弱她"",""弱我"",""强她""]","","","","","","","","","","","","","","","","","[{""page_index"":0,""viewing_time"":5611},{""page_index"":1,""viewing_time"":25056},{""page_index"":2,""viewing_time"":2357},{""page_index"":3,""viewing_time"":1489}]","","","","","","","","","","","","","","","","","","","","","",""
"578","","f","psychophysics","10","272377","0.0-8.0-0.0-1.0-0.0-0.0","5","4","5","4","4","5","2","4","4","4","5","1","1","-1","0","-1","0","0","0","5","5","5","5","5","4","4","4","4","4","4","6","6","7","4","4","6","5","6","5","3","3","4","3","2","5","2","3","1","1","2","2","5","4","1","6","2","3","3","3","3","4","3","3","3","5","2","5","5","5","3","3","4","3","3","3","3","5","3","3","781518061500108802","郭","148","Female","[""好我"",""坏她"",""坏我"",""好她""]","[""强我"",""弱她"",""弱我"",""强她""]","","","","","","","","match","","","","","","","","","","key","f","16.663541666666788","640","356","f","true","match","img/triangle.png","坏她","坏她","prac_ALT2_moral","practice_moral","","","","","","","","",""
"null","<span style='color:GreenYellow; font-size: 70px;'>正确! </span>","null","html-keyboard-response","11","272882","0.0-8.0-0.0-1.0-0.0-1.0","5","4","5","4","4","5","2","4","4","4","5","1","1","-1","0","-1","0","0","0","5","5","5","5","5","4","4","4","4","4","4","6","6","7","4","4","6","5","6","5","3","3","4","3","2","5","2","3","1","1","2","2","5","4","1","6","2","3","3","3","3","4","3","3","3","5","2","5","5","5","3","3","4","3","3","3","3","5","3","3","781518061500108802","郭","148","Female","[""好我"",""坏她"",""坏我"",""好她""]","[""强我"",""弱她"",""弱我"",""强她""]","","","","","","","","","","","","","","","","","","","","","","","","","","","","","","feedback_test","","","","","","","","",""
"453","","f","psychophysics","12","274345","0.0-8.0-0.0-1.0-0.0-0.1","5","4","5","4","4","5","2","4","4","4","5","1","1","-1","0","-1","0","0","0","5","5","5","5","5","4","4","4","4","4","4","6","6","7","4","4","6","5","6","5","3","3","4","3","2","5","2","3","1","1","2","2","5","4","1","6","2","3","3","3","3","4","3","3","3","5","2","5","5","5","3","3","4","3","3","3","3","5","3","3","781518061500108802","郭","148","Female","[""好我"",""坏她"",""坏我"",""好她""]","[""强我"",""弱她"",""弱我"",""强她""]","","","","","","","","match","","","","","","","","","","key","f","16.668965517241514","640","356","f","true","match","img/circle.png","好她","好她","prac_ALT2_moral","practice_moral","","","","","","","","",""
"null","<span style='color:GreenYellow; font-size: 70px;'>正确! </span>","null","html-keyboard-response","13","274849","0.0-8.0-0.0-1.0-0.0-1.1","5","4","5","4","4","5","2","4","4","4","5","1","1","-1","0","-1","0","0","0","5","5","5","5","5","4","4","4","4","4","4","6","6","7","4","4","6","5","6","5","3","3","4","3","2","5","2","3","1","1","2","2","5","4","1","6","2","3","3","3","3","4","3","3","3","5","2","5","5","5","3","3","4","3","3","3","3","5","3","3","781518061500108802","郭","148","Female","[""好我"",""坏她"",""坏我"",""好她""]","[""强我"",""弱她"",""弱我"",""强她""]","","","","","","","","","","","","","","","","","","","","","","","","","","","","","","feedback_test","","","","","","","","",""
"569","","j","psychophysics","14","276425","0.0-8.0-0.0-1.0-0.0-0.2","5","4","5","4","4","5","2","4","4","4","5","1","1","-1","0","-1","0","0","0","5","5","5","5","5","4","4","4","4","4","4","6","6","7","4","4","6","5","6","5","3","3","4","3","2","5","2","3","1","1","2","2","5","4","1","6","2","3","3","3","3","4","3","3","3","5","2","5","5","5","3","3","4","3","3","3","3","5","3","3","781518061500108802","郭","148","Female","[""好我"",""坏她"",""坏我"",""好她""]","[""强我"",""弱她"",""弱我"",""强她""]","","","","","","","","nonmatch","","","","","","","","","","key","j","16.672043010752688","640","356","f","false","match","img/square.png","坏我","坏我","prac_ALT2_moral","practice_moral","","","","","","","","",""
"null","<span style='color:red; font-size: 70px;'>错误! </span>","null","html-keyboard-response","15","276934","0.0-8.0-0.0-1.0-0.0-1.2","5","4","5","4","4","5","2","4","4","4","5","1","1","-1","0","-1","0","0","0","5","5","5","5","5","4","4","4","4","4","4","6","6","7","4","4","6","5","6","5","3","3","4","3","2","5","2","3","1","1","2","2","5","4","1","6","2","3","3","3","3","4","3","3","3","5","2","5","5","5","3","3","4","3","3","3","3","5","3","3","781518061500108802","郭","148","Female","[""好我"",""坏她"",""坏我"",""好她""]","[""强我"",""弱她"",""弱我"",""强她""]","","","","","","","","","","","","","","","","","","","","","","","","","","","","","","feedback_test","","","","","","","","",""
"639","","j","psychophysics","16","278601","0.0-8.0-0.0-1.0-0.0-0.3","5","4","5","4","4","5","2","4","4","4","5","1","1","-1","0","-1","0","0","0","5","5","5","5","5","4","4","4","4","4","4","6","6","7","4","4","6","5","6","5","3","3","4","3","2","5","2","3","1","1","2","2","5","4","1","6","2","3","3","3","3","4","3","3","3","5","2","5","5","5","3","3","4","3","3","3","3","5","3","3","781518061500108802","郭","148","Female","[""好我"",""坏她"",""坏我"",""好她""]","[""强我"",""弱她"",""弱我"",""强她""]","","","","","","","","nonmatch","","","","","","","","","","key","j","16.667676767676532","640","356","f","false","match","img/triangle.png","坏她","坏她","prac_ALT2_moral","practice_moral","","","","","","","","",""
"null","<span style='color:red; font-size: 70px;'>错误! </span>","null","html-keyboard-response","17","279110","0.0-8.0-0.0-1.0-0.0-1.3","5","4","5","4","4","5","2","4","4","4","5","1","1","-1","0","-1","0","0","0","5","5","5","5","5","4","4","4","4","4","4","6","6","7","4","4","6","5","6","5","3","3","4","3","2","5","2","3","1","1","2","2","5","4","1","6","2","3","3","3","3","4","3","3","3","5","2","5","5","5","3","3","4","3","3","3","3","5","3","3","781518061500108802","郭","148","Female","[""好我"",""坏她"",""坏我"",""好她""]","[""强我"",""弱她"",""弱我"",""强她""]","","","","","","","","","","","","","","","","","","","","","","","","","","","","","","feedback_test","","","","","","","","",""
"675","","f","psychophysics","18","280788","0.0-8.0-0.0-1.0-0.0-0.4","5","4","5","4","4","5","2","4","4","4","5","1","1","-1","0","-1","0","0","0","5","5","5","5","5","4","4","4","4","4","4","6","6","7","4","4","6","5","6","5","3","3","4","3","2","5","2","3","1","1","2","2","5","4","1","6","2","3","3","3","3","4","3","3","3","5","2","5","5","5","3","3","4","3","3","3","3","5","3","3","781518061500108802","郭","148","Female","[""好我"",""坏她"",""坏我"",""好她""]","[""强我"",""弱她"",""弱我"",""强她""]","","","","","","","","match","","","","","","","","","","key","f","16.667676767676532","640","356","j","false","nonmatch","img/hexagon.png","坏我","好我","prac_ALT2_moral","practice_moral","","","","","","","","",""
"null","<span style='color:red; font-size: 70px;'>错误! </span>","null","html-keyboard-response","19","281299","0.0-8.0-0.0-1.0-0.0-1.4","5","4","5","4","4","5","2","4","4","4","5","1","1","-1","0","-1","0","0","0","5","5","5","5","5","4","4","4","4","4","4","6","6","7","4","4","6","5","6","5","3","3","4","3","2","5","2","3","1","1","2","2","5","4","1","6","2","3","3","3","3","4","3","3","3","5","2","5","5","5","3","3","4","3","3","3","3","5","3","3","781518061500108802","郭","148","Female","[""好我"",""坏她"",""坏我"",""好她""]","[""强我"",""弱她"",""弱我"",""强她""]","","","","","","","","","","","","","","","","","","","","","","","","","","","","","","feedback_test","","","","","","","","",""
"660","","f","psychophysics","20","282964","0.0-8.0-0.0-1.0-0.0-0.5","5","4","5","4","4","5","2","4","4","4","5","1","1","-1","0","-1","0","0","0","5","5","5","5","5","4","4","4","4","4","4","6","6","7","4","4","6","5","6","5","3","3","4","3","2","5","2","3","1","1","2","2","5","4","1","6","2","3","3","3","3","4","3","3","3","5","2","5","5","5","3","3","4","3","3","3","3","5","3","3","781518061500108802","郭","148","Female","[""好我"",""坏她"",""坏我"",""好她""]","[""强我"",""弱她"",""弱我"",""强她""]","","","","","","","","match","","","","","","","","","","key","f","16.667676767676532","640","356","f","true","match","img/hexagon.png","好我","好我","prac_ALT2_moral","practice_moral","","","","","","","","",""
"null","<span style='color:GreenYellow; font-size: 70px;'>正确! </span>","null","html-keyboard-response","21","283471","0.0-8.0-0.0-1.0-0.0-1.5","5","4","5","4","4","5","2","4","4","4","5","1","1","-1","0","-1","0","0","0","5","5","5","5","5","4","4","4","4","4","4","6","6","7","4","4","6","5","6","5","3","3","4","3","2","5","2","3","1","1","2","2","5","4","1","6","2","3","3","3","3","4","3","3","3","5","2","5","5","5","3","3","4","3","3","3","3","5","3","3","781518061500108802","郭","148","Female","[""好我"",""坏她"",""坏我"",""好她""]","[""强我"",""弱她"",""弱我"",""强她""]","","","","","","","","","","","","","","","","","","","","","","","","","","","","","","feedback_test","","","","","","","","",""
"605","","f","psychophysics","22","285113","0.0-8.0-0.0-1.0-0.0-0.6","5","4","5","4","4","5","2","4","4","4","5","1","1","-1","0","-1","0","0","0","5","5","5","5","5","4","4","4","4","4","4","6","6","7","4","4","6","5","6","5","3","3","4","3","2","5","2","3","1","1","2","2","5","4","1","6","2","3","3","3","3","4","3","3","3","5","2","5","5","5","3","3","4","3","3","3","3","5","3","3","781518061500108802","郭","148","Female","[""好我"",""坏她"",""坏我"",""好她""]","[""强我"",""弱她"",""弱我"",""强她""]","","","","","","","","match","","","","","","","","","","key","f","16.663265306122447","640","356","f","true","match","img/hexagon.png","好我","好我","prac_ALT2_moral","practice_moral","","","","","","","","",""
"null","<span style='color:GreenYellow; font-size: 70px;'>正确! </span>","null","html-keyboard-response","23","285625","0.0-8.0-0.0-1.0-0.0-1.6","5","4","5","4","4","5","2","4","4","4","5","1","1","-1","0","-1","0","0","0","5","5","5","5","5","4","4","4","4","4","4","6","6","7","4","4","6","5","6","5","3","3","4","3","2","5","2","3","1","1","2","2","5","4","1","6","2","3","3","3","3","4","3","3","3","5","2","5","5","5","3","3","4","3","3","3","3","5","3","3","781518061500108802","郭","148","Female","[""好我"",""坏她"",""坏我"",""好她""]","[""强我"",""弱她"",""弱我"",""强她""]","","","","","","","","","","","","","","","","","","","","","","","","","","","","","","feedback_test","","","","","","","","",""
"869","","j","psychophysics","24","287497","0.0-8.0-0.0-1.0-0.0-0.7","5","4","5","4","4","5","2","4","4","4","5","1","1","-1","0","-1","0","0","0","5","5","5","5","5","4","4","4","4","4","4","6","6","7","4","4","6","5","6","5","3","3","4","3","2","5","2","3","1","1","2","2","5","4","1","6","2","3","3","3","3","4","3","3","3","5","2","5","5","5","3","3","4","3","3","3","3","5","3","3","781518061500108802","郭","148","Female","[""好我"",""坏她"",""坏我"",""好她""]","[""强我"",""弱她"",""弱我"",""强她""]","","","","","","","","nonmatch","","","","","","","","","","key","j","16.669369369369264","640","356","j","true","nonmatch","img/circle.png","坏她","好她","prac_ALT2_moral","practice_moral","","","","","","","","",""
"null","<span style='color:GreenYellow; font-size: 70px;'>正确! </span>","null","html-keyboard-response","25","288000","0.0-8.0-0.0-1.0-0.0-1.7","5","4","5","4","4","5","2","4","4","4","5","1","1","-1","0","-1","0","0","0","5","5","5","5","5","4","4","4","4","4","4","6","6","7","4","4","6","5","6","5","3","3","4","3","2","5","2","3","1","1","2","2","5","4","1","6","2","3","3","3","3","4","3","3","3","5","2","5","5","5","3","3","4","3","3","3","3","5","3","3","781518061500108802","郭","148","Female","[""好我"",""坏她"",""坏我"",""好她""]","[""强我"",""弱她"",""弱我"",""强她""]","","","","","","","","","","","","","","","","","","","","","","","","","","","","","","feedback_test","","","","","","","","",""
"662","","j","psychophysics","26","289670","0.0-8.0-0.0-1.0-0.0-0.8","5","4","5","4","4","5","2","4","4","4","5","1","1","-1","0","-1","0","0","0","5","5","5","5","5","4","4","4","4","4","4","6","6","7","4","4","6","5","6","5","3","3","4","3","2","5","2","3","1","1","2","2","5","4","1","6","2","3","3","3","3","4","3","3","3","5","2","5","5","5","3","3","4","3","3","3","3","5","3","3","781518061500108802","郭","148","Female","[""好我"",""坏她"",""坏我"",""好她""]","[""强我"",""弱她"",""弱我"",""强她""]","","","","","","","","nonmatch","","","","","","","","","","key","j","16.671717171717173","640","356","j","true","nonmatch","img/square.png","好她","坏我","prac_ALT2_moral","practice_moral","","","","","","","","",""
"null","<span style='color:GreenYellow; font-size: 70px;'>正确! </span>","null","html-keyboard-response","27","290212","0.0-8.0-0.0-1.0-0.0-1.8","5","4","5","4","4","5","2","4","4","4","5","1","1","-1","0","-1","0","0","0","5","5","5","5","5","4","4","4","4","4","4","6","6","7","4","4","6","5","6","5","3","3","4","3","2","5","2","3","1","1","2","2","5","4","1","6","2","3","3","3","3","4","3","3","3","5","2","5","5","5","3","3","4","3","3","3","3","5","3","3","781518061500108802","郭","148","Female","[""好我"",""坏她"",""坏我"",""好她""]","[""强我"",""弱她"",""弱我"",""强她""]","","","","","","","","","","","","","","","","","","","","","","","","","","","","","","feedback_test","","","","","","","","",""
"759","","j","psychophysics","28","291982","0.0-8.0-0.0-1.0-0.0-0.9","5","4","5","4","4","5","2","4","4","4","5","1","1","-1","0","-1","0","0","0","5","5","5","5","5","4","4","4","4","4","4","6","6","7","4","4","6","5","6","5","3","3","4","3","2","5","2","3","1","1","2","2","5","4","1","6","2","3","3","3","3","4","3","3","3","5","2","5","5","5","3","3","4","3","3","3","3","5","3","3","781518061500108802","郭","148","Female","[""好我"",""坏她"",""坏我"",""好她""]","[""强我"",""弱她"",""弱我"",""强她""]","","","","","","","","nonmatch","","","","","","","","","","key","j","16.667619047618825","640","356","j","true","nonmatch","img/circle.png","坏我","好她","prac_ALT2_moral","practice_moral","","","","","","","","",""
"null","<span style='color:GreenYellow; font-size: 70px;'>正确! </span>","null","html-keyboard-response","29","292489","0.0-8.0-0.0-1.0-0.0-1.9","5","4","5","4","4","5","2","4","4","4","5","1","1","-1","0","-1","0","0","0","5","5","5","5","5","4","4","4","4","4","4","6","6","7","4","4","6","5","6","5","3","3","4","3","2","5","2","3","1","1","2","2","5","4","1","6","2","3","3","3","3","4","3","3","3","5","2","5","5","5","3","3","4","3","3","3","3","5","3","3","781518061500108802","郭","148","Female","[""好我"",""坏她"",""坏我"",""好她""]","[""强我"",""弱她"",""弱我"",""强她""]","","","","","","","","","","","","","","","","","","","","","","","","","","","","","","feedback_test","","","","","","","","",""
"750","","f","psychophysics","30","294242","0.0-8.0-0.0-1.0-0.0-0.10","5","4","5","4","4","5","2","4","4","4","5","1","1","-1","0","-1","0","0","0","5","5","5","5","5","4","4","4","4","4","4","6","6","7","4","4","6","5","6","5","3","3","4","3","2","5","2","3","1","1","2","2","5","4","1","6","2","3","3","3","3","4","3","3","3","5","2","5","5","5","3","3","4","3","3","3","3","5","3","3","781518061500108802","郭","148","Female","[""好我"",""坏她"",""坏我"",""好她""]","[""强我"",""弱她"",""弱我"",""强她""]","","","","","","","","match","","","","","","","","","","key","f","16.665384615384166","640","356","j","false","nonmatch","img/triangle.png","好她","坏她","prac_ALT2_moral","practice_moral","","","","","","","","",""
"null","<span style='color:red; font-size: 70px;'>错误! </span>","null","html-keyboard-response","31","294750","0.0-8.0-0.0-1.0-0.0-1.10","5","4","5","4","4","5","2","4","4","4","5","1","1","-1","0","-1","0","0","0","5","5","5","5","5","4","4","4","4","4","4","6","6","7","4","4","6","5","6","5","3","3","4","3","2","5","2","3","1","1","2","2","5","4","1","6","2","3","3","3","3","4","3","3","3","5","2","5","5","5","3","3","4","3","3","3","3","5","3","3","781518061500108802","郭","148","Female","[""好我"",""坏她"",""坏我"",""好她""]","[""强我"",""弱她"",""弱我"",""强她""]","","","","","","","","","","","","","","","","","","","","","","","","","","","","","","feedback_test","","","","","","","","",""
"861","","j","psychophysics","32","296618","0.0-8.0-0.0-1.0-0.0-0.11","5","4","5","4","4","5","2","4","4","4","5","1","1","-1","0","-1","0","0","0","5","5","5","5","5","4","4","4","4","4","4","6","6","7","4","4","6","5","6","5","3","3","4","3","2","5","2","3","1","1","2","2","5","4","1","6","2","3","3","3","3","4","3","3","3","5","2","5","5","5","3","3","4","3","3","3","3","5","3","3","781518061500108802","郭","148","Female","[""好我"",""坏她"",""坏我"",""好她""]","[""强我"",""弱她"",""弱我"",""强她""]","","","","","","","","nonmatch","","","","","","","","","","key","j","16.669369369369264","640","356","f","false","match","img/square.png","坏我","坏我","prac_ALT2_moral","practice_moral","","","","","","","","",""
"null","<span style='color:red; font-size: 70px;'>错误! </span>","null","html-keyboard-response","33","297135","0.0-8.0-0.0-1.0-0.0-1.11","5","4","5","4","4","5","2","4","4","4","5","1","1","-1","0","-1","0","0","0","5","5","5","5","5","4","4","4","4","4","4","6","6","7","4","4","6","5","6","5","3","3","4","3","2","5","2","3","1","1","2","2","5","4","1","6","2","3","3","3","3","4","3","3","3","5","2","5","5","5","3","3","4","3","3","3","3","5","3","3","781518061500108802","郭","148","Female","[""好我"",""坏她"",""坏我"",""好她""]","[""强我"",""弱她"",""弱我"",""强她""]","","","","","","","","","","","","","","","","","","","","","","","","","","","","","","feedback_test","","","","","","","","",""
"827","","j","psychophysics","34","298984","0.0-8.0-0.0-1.0-0.0-0.12","5","4","5","4","4","5","2","4","4","4","5","1","1","-1","0","-1","0","0","0","5","5","5","5","5","4","4","4","4","4","4","6","6","7","4","4","6","5","6","5","3","3","4","3","2","5","2","3","1","1","2","2","5","4","1","6","2","3","3","3","3","4","3","3","3","5","2","5","5","5","3","3","4","3","3","3","3","5","3","3","781518061500108802","郭","148","Female","[""好我"",""坏她"",""坏我"",""好她""]","[""强我"",""弱她"",""弱我"",""强她""]","","","","","","","","nonmatch","","","","","","","","","","key","j","16.670000000000105","640","356","f","false","match","img/triangle.png","坏她","坏她","prac_ALT2_moral","practice_moral","","","","","","","","",""
"null","<span style='color:red; font-size: 70px;'>错误! </span>","null","html-keyboard-response","35","299493","0.0-8.0-0.0-1.0-0.0-1.12","5","4","5","4","4","5","2","4","4","4","5","1","1","-1","0","-1","0","0","0","5","5","5","5","5","4","4","4","4","4","4","6","6","7","4","4","6","5","6","5","3","3","4","3","2","5","2","3","1","1","2","2","5","4","1","6","2","3","3","3","3","4","3","3","3","5","2","5","5","5","3","3","4","3","3","3","3","5","3","3","781518061500108802","郭","148","Female","[""好我"",""坏她"",""坏我"",""好她""]","[""强我"",""弱她"",""弱我"",""强她""]","","","","","","","","","","","","","","","","","","","","","","","","","","","","","","feedback_test","","","","","","","","",""
"820","","j","psychophysics","36","301315","0.0-8.0-0.0-1.0-0.0-0.13","5","4","5","4","4","5","2","4","4","4","5","1","1","-1","0","-1","0","0","0","5","5","5","5","5","4","4","4","4","4","4","6","6","7","4","4","6","5","6","5","3","3","4","3","2","5","2","3","1","1","2","2","5","4","1","6","2","3","3","3","3","4","3","3","3","5","2","5","5","5","3","3","4","3","3","3","3","5","3","3","781518061500108802","郭","148","Female","[""好我"",""坏她"",""坏我"",""好她""]","[""强我"",""弱她"",""弱我"",""强她""]","","","","","","","","nonmatch","","","","","","","","","","key","j","16.670370370370048","640","356","j","true","nonmatch","img/triangle.png","坏我","坏她","prac_ALT2_moral","practice_moral","","","","","","","","",""
"null","<span style='color:GreenYellow; font-size: 70px;'>正确! </span>","null","html-keyboard-response","37","301824","0.0-8.0-0.0-1.0-0.0-1.13","5","4","5","4","4","5","2","4","4","4","5","1","1","-1","0","-1","0","0","0","5","5","5","5","5","4","4","4","4","4","4","6","6","7","4","4","6","5","6","5","3","3","4","3","2","5","2","3","1","1","2","2","5","4","1","6","2","3","3","3","3","4","3","3","3","5","2","5","5","5","3","3","4","3","3","3","3","5","3","3","781518061500108802","郭","148","Female","[""好我"",""坏她"",""坏我"",""好她""]","[""强我"",""弱她"",""弱我"",""强她""]","","","","","","","","","","","","","","","","","","","","","","","","","","","","","","feedback_test","","","","","","","","",""
"808","","f","psychophysics","38","303635","0.0-8.0-0.0-1.0-0.0-0.14","5","4","5","4","4","5","2","4","4","4","5","1","1","-1","0","-1","0","0","0","5","5","5","5","5","4","4","4","4","4","4","6","6","7","4","4","6","5","6","5","3","3","4","3","2","5","2","3","1","1","2","2","5","4","1","6","2","3","3","3","3","4","3","3","3","5","2","5","5","5","3","3","4","3","3","3","3","5","3","3","781518061500108802","郭","148","Female","[""好我"",""坏她"",""坏我"",""好她""]","[""强我"",""弱她"",""弱我"",""强她""]","","","","","","","","match","","","","","","","","","","key","f","16.630841121495326","640","356","j","false","nonmatch","img/square.png","好我","坏我","prac_ALT2_moral","practice_moral","","","","","","","","",""
"null","<span style='color:red; font-size: 70px;'>错误! </span>","null","html-keyboard-response","39","304162","0.0-8.0-0.0-1.0-0.0-1.14","5","4","5","4","4","5","2","4","4","4","5","1","1","-1","0","-1","0","0","0","5","5","5","5","5","4","4","4","4","4","4","6","6","7","4","4","6","5","6","5","3","3","4","3","2","5","2","3","1","1","2","2","5","4","1","6","2","3","3","3","3","4","3","3","3","5","2","5","5","5","3","3","4","3","3","3","3","5","3","3","781518061500108802","郭","148","Female","[""好我"",""坏她"",""坏我"",""好她""]","[""强我"",""弱她"",""弱我"",""强她""]","","","","","","","","","","","","","","","","","","","","","","","","","","","","","","feedback_test","","","","","","","","",""
"754","","j","psychophysics","40","305930","0.0-8.0-0.0-1.0-0.0-0.15","5","4","5","4","4","5","2","4","4","4","5","1","1","-1","0","-1","0","0","0","5","5","5","5","5","4","4","4","4","4","4","6","6","7","4","4","6","5","6","5","3","3","4","3","2","5","2","3","1","1","2","2","5","4","1","6","2","3","3","3","3","4","3","3","3","5","2","5","5","5","3","3","4","3","3","3","3","5","3","3","781518061500108802","郭","148","Female","[""好我"",""坏她"",""坏我"",""好她""]","[""强我"",""弱她"",""弱我"",""强她""]","","","","","","","","nonmatch","","","","","","","","","","key","j","16.66857142857154","640","356","j","true","nonmatch","img/square.png","坏她","坏我","prac_ALT2_moral","practice_moral","","","","","","","","",""
"null","<span style='color:GreenYellow; font-size: 70px;'>正确! </span>","null","html-keyboard-response","41","306440","0.0-8.0-0.0-1.0-0.0-1.15","5","4","5","4","4","5","2","4","4","4","5","1","1","-1","0","-1","0","0","0","5","5","5","5","5","4","4","4","4","4","4","6","6","7","4","4","6","5","6","5","3","3","4","3","2","5","2","3","1","1","2","2","5","4","1","6","2","3","3","3","3","4","3","3","3","5","2","5","5","5","3","3","4","3","3","3","3","5","3","3","781518061500108802","郭","148","Female","[""好我"",""坏她"",""坏我"",""好她""]","[""强我"",""弱她"",""弱我"",""强她""]","","","","","","","","","","","","","","","","","","","","","","","","","","","","","","feedback_test","","","","","","","","",""
"761","","f","psychophysics","42","308204","0.0-8.0-0.0-1.0-0.0-0.16","5","4","5","4","4","5","2","4","4","4","5","1","1","-1","0","-1","0","0","0","5","5","5","5","5","4","4","4","4","4","4","6","6","7","4","4","6","5","6","5","3","3","4","3","2","5","2","3","1","1","2","2","5","4","1","6","2","3","3","3","3","4","3","3","3","5","2","5","5","5","3","3","4","3","3","3","3","5","3","3","781518061500108802","郭","148","Female","[""好我"",""坏她"",""坏我"",""好她""]","[""强我"",""弱她"",""弱我"",""强她""]","","","","","","","","match","","","","","","","","","","key","f","16.665714285713953","640","356","f","true","match","img/square.png","坏我","坏我","prac_ALT2_moral","practice_moral","","","","","","","","",""
"null","<span style='color:GreenYellow; font-size: 70px;'>正确! </span>","null","html-keyboard-response","43","308713","0.0-8.0-0.0-1.0-0.0-1.16","5","4","5","4","4","5","2","4","4","4","5","1","1","-1","0","-1","0","0","0","5","5","5","5","5","4","4","4","4","4","4","6","6","7","4","4","6","5","6","5","3","3","4","3","2","5","2","3","1","1","2","2","5","4","1","6","2","3","3","3","3","4","3","3","3","5","2","5","5","5","3","3","4","3","3","3","3","5","3","3","781518061500108802","郭","148","Female","[""好我"",""坏她"",""坏我"",""好她""]","[""强我"",""弱她"",""弱我"",""强她""]","","","","","","","","","","","","","","","","","","","","","","","","","","","","","","feedback_test","","","","","","","","",""
"888","","j","psychophysics","44","310614","0.0-8.0-0.0-1.0-0.0-0.17","5","4","5","4","4","5","2","4","4","4","5","1","1","-1","0","-1","0","0","0","5","5","5","5","5","4","4","4","4","4","4","6","6","7","4","4","6","5","6","5","3","3","4","3","2","5","2","3","1","1","2","2","5","4","1","6","2","3","3","3","3","4","3","3","3","5","2","5","5","5","3","3","4","3","3","3","3","5","3","3","781518061500108802","郭","148","Female","[""好我"",""坏她"",""坏我"",""好她""]","[""强我"",""弱她"",""弱我"",""强她""]","","","","","","","","nonmatch","","","","","","","","","","key","j","16.670796460177403","640","356","j","true","nonmatch","img/triangle.png","好我","坏她","prac_ALT2_moral","practice_moral","","","","","","","","",""
"null","<span style='color:GreenYellow; font-size: 70px;'>正确! </span>","null","html-keyboard-response","45","311142","0.0-8.0-0.0-1.0-0.0-1.17","5","4","5","4","4","5","2","4","4","4","5","1","1","-1","0","-1","0","0","0","5","5","5","5","5","4","4","4","4","4","4","6","6","7","4","4","6","5","6","5","3","3","4","3","2","5","2","3","1","1","2","2","5","4","1","6","2","3","3","3","3","4","3","3","3","5","2","5","5","5","3","3","4","3","3","3","3","5","3","3","781518061500108802","郭","148","Female","[""好我"",""坏她"",""坏我"",""好她""]","[""强我"",""弱她"",""弱我"",""强她""]","","","","","","","","","","","","","","","","","","","","","","","","","","","","","","feedback_test","","","","","","","","",""
"754","","j","psychophysics","46","312916","0.0-8.0-0.0-1.0-0.0-0.18","5","4","5","4","4","5","2","4","4","4","5","1","1","-1","0","-1","0","0","0","5","5","5","5","5","4","4","4","4","4","4","6","6","7","4","4","6","5","6","5","3","3","4","3","2","5","2","3","1","1","2","2","5","4","1","6","2","3","3","3","3","4","3","3","3","5","2","5","5","5","3","3","4","3","3","3","3","5","3","3","781518061500108802","郭","148","Female","[""好我"",""坏她"",""坏我"",""好她""]","[""强我"",""弱她"",""弱我"",""强她""]","","","","","","","","nonmatch","","","","","","","","","","key","j","16.66857142857154","640","356","j","true","nonmatch","img/hexagon.png","好她","好我","prac_ALT2_moral","practice_moral","","","","","","","","",""
"null","<span style='color:GreenYellow; font-size: 70px;'>正确! </span>","null","html-keyboard-response","47","313427","0.0-8.0-0.0-1.0-0.0-1.18","5","4","5","4","4","5","2","4","4","4","5","1","1","-1","0","-1","0","0","0","5","5","5","5","5","4","4","4","4","4","4","6","6","7","4","4","6","5","6","5","3","3","4","3","2","5","2","3","1","1","2","2","5","4","1","6","2","3","3","3","3","4","3","3","3","5","2","5","5","5","3","3","4","3","3","3","3","5","3","3","781518061500108802","郭","148","Female","[""好我"",""坏她"",""坏我"",""好她""]","[""强我"",""弱她"",""弱我"",""强她""]","","","","","","","","","","","","","","","","","","","","","","","","","","","","","","feedback_test","","","","","","","","",""
"703","","j","psychophysics","48","315132","0.0-8.0-0.0-1.0-0.0-0.19","5","4","5","4","4","5","2","4","4","4","5","1","1","-1","0","-1","0","0","0","5","5","5","5","5","4","4","4","4","4","4","6","6","7","4","4","6","5","6","5","3","3","4","3","2","5","2","3","1","1","2","2","5","4","1","6","2","3","3","3","3","4","3","3","3","5","2","5","5","5","3","3","4","3","3","3","3","5","3","3","781518061500108802","郭","148","Female","[""好我"",""坏她"",""坏我"",""好她""]","[""强我"",""弱她"",""弱我"",""强她""]","","","","","","","","nonmatch","","","","","","","","","","key","j","16.670297029703086","640","356","j","true","nonmatch","img/hexagon.png","坏她","好我","prac_ALT2_moral","practice_moral","","","","","","","","",""
"null","<span style='color:GreenYellow; font-size: 70px;'>正确! </span>","null","html-keyboard-response","49","315641","0.0-8.0-0.0-1.0-0.0-1.19","5","4","5","4","4","5","2","4","4","4","5","1","1","-1","0","-1","0","0","0","5","5","5","5","5","4","4","4","4","4","4","6","6","7","4","4","6","5","6","5","3","3","4","3","2","5","2","3","1","1","2","2","5","4","1","6","2","3","3","3","3","4","3","3","3","5","2","5","5","5","3","3","4","3","3","3","3","5","3","3","781518061500108802","郭","148","Female","[""好我"",""坏她"",""坏我"",""好她""]","[""强我"",""弱她"",""弱我"",""强她""]","","","","","","","","","","","","","","","","","","","","","","","","","","","","","","feedback_test","","","","","","","","",""
"704","","j","psychophysics","50","317348","0.0-8.0-0.0-1.0-0.0-0.20","5","4","5","4","4","5","2","4","4","4","5","1","1","-1","0","-1","0","0","0","5","5","5","5","5","4","4","4","4","4","4","6","6","7","4","4","6","5","6","5","3","3","4","3","2","5","2","3","1","1","2","2","5","4","1","6","2","3","3","3","3","4","3","3","3","5","2","5","5","5","3","3","4","3","3","3","3","5","3","3","781518061500108802","郭","148","Female","[""好我"",""坏她"",""坏我"",""好她""]","[""强我"",""弱她"",""弱我"",""强她""]","","","","","","","","nonmatch","","","","","","","","","","key","j","16.67128712871333","640","356","j","true","nonmatch","img/circle.png","好我","好她","prac_ALT2_moral","practice_moral","","","","","","","","",""
"null","<span style='color:GreenYellow; font-size: 70px;'>正确! </span>","null","html-keyboard-response","51","317857","0.0-8.0-0.0-1.0-0.0-1.20","5","4","5","4","4","5","2","4","4","4","5","1","1","-1","0","-1","0","0","0","5","5","5","5","5","4","4","4","4","4","4","6","6","7","4","4","6","5","6","5","3","3","4","3","2","5","2","3","1","1","2","2","5","4","1","6","2","3","3","3","3","4","3","3","3","5","2","5","5","5","3","3","4","3","3","3","3","5","3","3","781518061500108802","郭","148","Female","[""好我"",""坏她"",""坏我"",""好她""]","[""强我"",""弱她"",""弱我"",""强她""]","","","","","","","","","","","","","","","","","","","","","","","","","","","","","","feedback_test","","","","","","","","",""
"865","","f","psychophysics","52","319753","0.0-8.0-0.0-1.0-0.0-0.21","5","4","5","4","4","5","2","4","4","4","5","1","1","-1","0","-1","0","0","0","5","5","5","5","5","4","4","4","4","4","4","6","6","7","4","4","6","5","6","5","3","3","4","3","2","5","2","3","1","1","2","2","5","4","1","6","2","3","3","3","3","4","3","3","3","5","2","5","5","5","3","3","4","3","3","3","3","5","3","3","781518061500108802","郭","148","Female","[""好我"",""坏她"",""坏我"",""好她""]","[""强我"",""弱她"",""弱我"",""强她""]","","","","","","","","match","","","","","","","","","","key","f","16.65535714285735","640","356","f","true","match","img/hexagon.png","好我","好我","prac_ALT2_moral","practice_moral","","","","","","","","",""
"null","<span style='color:GreenYellow; font-size: 70px;'>正确! </span>","null","html-keyboard-response","53","320263","0.0-8.0-0.0-1.0-0.0-1.21","5","4","5","4","4","5","2","4","4","4","5","1","1","-1","0","-1","0","0","0","5","5","5","5","5","4","4","4","4","4","4","6","6","7","4","4","6","5","6","5","3","3","4","3","2","5","2","3","1","1","2","2","5","4","1","6","2","3","3","3","3","4","3","3","3","5","2","5","5","5","3","3","4","3","3","3","3","5","3","3","781518061500108802","郭","148","Female","[""好我"",""坏她"",""坏我"",""好她""]","[""强我"",""弱她"",""弱我"",""强她""]","","","","","","","","","","","","","","","","","","","","","","","","","","","","","","feedback_test","","","","","","","","",""
"713","","f","psychophysics","54","321979","0.0-8.0-0.0-1.0-0.0-0.22","5","4","5","4","4","5","2","4","4","4","5","1","1","-1","0","-1","0","0","0","5","5","5","5","5","4","4","4","4","4","4","6","6","7","4","4","6","5","6","5","3","3","4","3","2","5","2","3","1","1","2","2","5","4","1","6","2","3","3","3","3","4","3","3","3","5","2","5","5","5","3","3","4","3","3","3","3","5","3","3","781518061500108802","郭","148","Female","[""好我"",""坏她"",""坏我"",""好她""]","[""强我"",""弱她"",""弱我"",""强她""]","","","","","","","","match","","","","","","","","","","key","f","16.667647058823302","640","356","f","true","match","img/circle.png","好她","好她","prac_ALT2_moral","practice_moral","","","","","","","","",""
"null","<span style='color:GreenYellow; font-size: 70px;'>正确! </span>","null","html-keyboard-response","55","322486","0.0-8.0-0.0-1.0-0.0-1.22","5","4","5","4","4","5","2","4","4","4","5","1","1","-1","0","-1","0","0","0","5","5","5","5","5","4","4","4","4","4","4","6","6","7","4","4","6","5","6","5","3","3","4","3","2","5","2","3","1","1","2","2","5","4","1","6","2","3","3","3","3","4","3","3","3","5","2","5","5","5","3","3","4","3","3","3","3","5","3","3","781518061500108802","郭","148","Female","[""好我"",""坏她"",""坏我"",""好她""]","[""强我"",""弱她"",""弱我"",""强她""]","","","","","","","","","","","","","","","","","","","","","","","","","","","","","","feedback_test","","","","","","","","",""
"596","","f","psychophysics","56","324085","0.0-8.0-0.0-1.0-0.0-0.23","5","4","5","4","4","5","2","4","4","4","5","1","1","-1","0","-1","0","0","0","5","5","5","5","5","4","4","4","4","4","4","6","6","7","4","4","6","5","6","5","3","3","4","3","2","5","2","3","1","1","2","2","5","4","1","6","2","3","3","3","3","4","3","3","3","5","2","5","5","5","3","3","4","3","3","3","3","5","3","3","781518061500108802","郭","148","Female","[""好我"",""坏她"",""坏我"",""好她""]","[""强我"",""弱她"",""弱我"",""强她""]","","","","","","","","match","","","","","","","","","","key","f","16.672631578947612","640","356","f","true","match","img/circle.png","好她","好她","prac_ALT2_moral","practice_moral","","","","","","","","",""
"null","<span style='color:GreenYellow; font-size: 70px;'>正确! </span>","null","html-keyboard-response","57","324601","0.0-8.0-0.0-1.0-0.0-1.23","5","4","5","4","4","5","2","4","4","4","5","1","1","-1","0","-1","0","0","0","5","5","5","5","5","4","4","4","4","4","4","6","6","7","4","4","6","5","6","5","3","3","4","3","2","5","2","3","1","1","2","2","5","4","1","6","2","3","3","3","3","4","3","3","3","5","2","5","5","5","3","3","4","3","3","3","3","5","3","3","781518061500108802","郭","148","Female","[""好我"",""坏她"",""坏我"",""好她""]","[""强我"",""弱她"",""弱我"",""强她""]","","","","","","","","","","","","","","","","","","","","","","","","","","","","","","feedback_test","","","","","","","","",""
"617","","f","psychophysics","58","326252","0.0-8.0-0.0-1.0-0.0-0.24","5","4","5","4","4","5","2","4","4","4","5","1","1","-1","0","-1","0","0","0","5","5","5","5","5","4","4","4","4","4","4","6","6","7","4","4","6","5","6","5","3","3","4","3","2","5","2","3","1","1","2","2","5","4","1","6","2","3","3","3","3","4","3","3","3","5","2","5","5","5","3","3","4","3","3","3","3","5","3","3","781518061500108802","郭","148","Female","[""好我"",""坏她"",""坏我"",""好她""]","[""强我"",""弱她"",""弱我"",""强她""]","","","","","","","","match","","","","","","","","","","key","f","16.67244897959148","640","356","f","true","match","img/circle.png","好她","好她","prac_ALT2_moral","practice_moral","","","","","","","","",""
"null","<span style='color:GreenYellow; font-size: 70px;'>正确! </span>","null","html-keyboard-response","59","326761","0.0-8.0-0.0-1.0-0.0-1.24","5","4","5","4","4","5","2","4","4","4","5","1","1","-1","0","-1","0","0","0","5","5","5","5","5","4","4","4","4","4","4","6","6","7","4","4","6","5","6","5","3","3","4","3","2","5","2","3","1","1","2","2","5","4","1","6","2","3","3","3","3","4","3","3","3","5","2","5","5","5","3","3","4","3","3","3","3","5","3","3","781518061500108802","郭","148","Female","[""好我"",""坏她"",""坏我"",""好她""]","[""强我"",""弱她"",""弱我"",""强她""]","","","","","","","","","","","","","","","","","","","","","","","","","","","","","","feedback_test","","","","","","","","",""
"725","","f","psychophysics","60","328489","0.0-8.0-0.0-1.0-0.0-0.25","5","4","5","4","4","5","2","4","4","4","5","1","1","-1","0","-1","0","0","0","5","5","5","5","5","4","4","4","4","4","4","6","6","7","4","4","6","5","6","5","3","3","4","3","2","5","2","3","1","1","2","2","5","4","1","6","2","3","3","3","3","4","3","3","3","5","2","5","5","5","3","3","4","3","3","3","3","5","3","3","781518061500108802","郭","148","Female","[""好我"",""坏她"",""坏我"",""好她""]","[""强我"",""弱她"",""弱我"",""强她""]","","","","","","","","match","","","","","","","","","","key","f","16.66960784313714","640","356","f","true","match","img/triangle.png","坏她","坏她","prac_ALT2_moral","practice_moral","","","","","","","","",""
"null","<span style='color:GreenYellow; font-size: 70px;'>正确! </span>","null","html-keyboard-response","61","329001","0.0-8.0-0.0-1.0-0.0-1.25","5","4","5","4","4","5","2","4","4","4","5","1","1","-1","0","-1","0","0","0","5","5","5","5","5","4","4","4","4","4","4","6","6","7","4","4","6","5","6","5","3","3","4","3","2","5","2","3","1","1","2","2","5","4","1","6","2","3","3","3","3","4","3","3","3","5","2","5","5","5","3","3","4","3","3","3","3","5","3","3","781518061500108802","郭","148","Female","[""好我"",""坏她"",""坏我"",""好她""]","[""强我"",""弱她"",""弱我"",""强她""]","","","","","","","","","","","","","","","","","","","","","","","","","","","","","","feedback_test","","","","","","","","",""
"663","","j","psychophysics","62","330673","0.0-8.0-0.0-1.0-0.0-0.26","5","4","5","4","4","5","2","4","4","4","5","1","1","-1","0","-1","0","0","0","5","5","5","5","5","4","4","4","4","4","4","6","6","7","4","4","6","5","6","5","3","3","4","3","2","5","2","3","1","1","2","2","5","4","1","6","2","3","3","3","3","4","3","3","3","5","2","5","5","5","3","3","4","3","3","3","3","5","3","3","781518061500108802","郭","148","Female","[""好我"",""坏她"",""坏我"",""好她""]","[""强我"",""弱她"",""弱我"",""强她""]","","","","","","","","nonmatch","","","","","","","","","","key","j","16.672727272727627","640","356","j","true","nonmatch","img/square.png","坏她","坏我","prac_ALT2_moral","practice_moral","","","","","","","","",""
"null","<span style='color:GreenYellow; font-size: 70px;'>正确! </span>","null","html-keyboard-response","63","331180","0.0-8.0-0.0-1.0-0.0-1.26","5","4","5","4","4","5","2","4","4","4","5","1","1","-1","0","-1","0","0","0","5","5","5","5","5","4","4","4","4","4","4","6","6","7","4","4","6","5","6","5","3","3","4","3","2","5","2","3","1","1","2","2","5","4","1","6","2","3","3","3","3","4","3","3","3","5","2","5","5","5","3","3","4","3","3","3","3","5","3","3","781518061500108802","郭","148","Female","[""好我"",""坏她"",""坏我"",""好她""]","[""强我"",""弱她"",""弱我"",""强她""]","","","","","","","","","","","","","","","","","","","","","","","","","","","","","","feedback_test","","","","","","","","",""
"925","","f","psychophysics","64","333133","0.0-8.0-0.0-1.0-0.0-0.27","5","4","5","4","4","5","2","4","4","4","5","1","1","-1","0","-1","0","0","0","5","5","5","5","5","4","4","4","4","4","4","6","6","7","4","4","6","5","6","5","3","3","4","3","2","5","2","3","1","1","2","2","5","4","1","6","2","3","3","3","3","4","3","3","3","5","2","5","5","5","3","3","4","3","3","3","3","5","3","3","781518061500108802","郭","148","Female","[""好我"",""坏她"",""坏我"",""好她""]","[""强我"",""弱她"",""弱我"",""强她""]","","","","","","","","match","","","","","","","","","","key","f","16.66810344827586","640","356","f","true","match","img/triangle.png","坏她","坏她","prac_ALT2_moral","practice_moral","","","","","","","","",""
"null","<span style='color:GreenYellow; font-size: 70px;'>正确! </span>","null","html-keyboard-response","65","333641","0.0-8.0-0.0-1.0-0.0-1.27","5","4","5","4","4","5","2","4","4","4","5","1","1","-1","0","-1","0","0","0","5","5","5","5","5","4","4","4","4","4","4","6","6","7","4","4","6","5","6","5","3","3","4","3","2","5","2","3","1","1","2","2","5","4","1","6","2","3","3","3","3","4","3","3","3","5","2","5","5","5","3","3","4","3","3","3","3","5","3","3","781518061500108802","郭","148","Female","[""好我"",""坏她"",""坏我"",""好她""]","[""强我"",""弱她"",""弱我"",""强她""]","","","","","","","","","","","","","","","","","","","","","","","","","","","","","","feedback_test","","","","","","","","",""
"631","","j","psychophysics","66","335275","0.0-8.0-0.0-1.0-0.0-0.28","5","4","5","4","4","5","2","4","4","4","5","1","1","-1","0","-1","0","0","0","5","5","5","5","5","4","4","4","4","4","4","6","6","7","4","4","6","5","6","5","3","3","4","3","2","5","2","3","1","1","2","2","5","4","1","6","2","3","3","3","3","4","3","3","3","5","2","5","5","5","3","3","4","3","3","3","3","5","3","3","781518061500108802","郭","148","Female","[""好我"",""坏她"",""坏我"",""好她""]","[""强我"",""弱她"",""弱我"",""强她""]","","","","","","","","nonmatch","","","","","","","","","","key","j","16.587499999999636","640","356","j","true","nonmatch","img/hexagon.png","好她","好我","prac_ALT2_moral","practice_moral","","","","","","","","",""
"null","<span style='color:GreenYellow; font-size: 70px;'>正确! </span>","null","html-keyboard-response","67","335779","0.0-8.0-0.0-1.0-0.0-1.28","5","4","5","4","4","5","2","4","4","4","5","1","1","-1","0","-1","0","0","0","5","5","5","5","5","4","4","4","4","4","4","6","6","7","4","4","6","5","6","5","3","3","4","3","2","5","2","3","1","1","2","2","5","4","1","6","2","3","3","3","3","4","3","3","3","5","2","5","5","5","3","3","4","3","3","3","3","5","3","3","781518061500108802","郭","148","Female","[""好我"",""坏她"",""坏我"",""好她""]","[""强我"",""弱她"",""弱我"",""强她""]","","","","","","","","","","","","","","","","","","","","","","","","","","","","","","feedback_test","","","","","","","","",""
"510","","f","psychophysics","68","337293","0.0-8.0-0.0-1.0-0.0-0.29","5","4","5","4","4","5","2","4","4","4","5","1","1","-1","0","-1","0","0","0","5","5","5","5","5","4","4","4","4","4","4","6","6","7","4","4","6","5","6","5","3","3","4","3","2","5","2","3","1","1","2","2","5","4","1","6","2","3","3","3","3","4","3","3","3","5","2","5","5","5","3","3","4","3","3","3","3","5","3","3","781518061500108802","郭","148","Female","[""好我"",""坏她"",""坏我"",""好她""]","[""强我"",""弱她"",""弱我"",""强她""]","","","","","","","","match","","","","","","","","","","key","f","16.67191011235942","640","356","f","true","match","img/hexagon.png","好我","好我","prac_ALT2_moral","practice_moral","","","","","","","","",""
"null","<span style='color:GreenYellow; font-size: 70px;'>正确! </span>","null","html-keyboard-response","69","337798","0.0-8.0-0.0-1.0-0.0-1.29","5","4","5","4","4","5","2","4","4","4","5","1","1","-1","0","-1","0","0","0","5","5","5","5","5","4","4","4","4","4","4","6","6","7","4","4","6","5","6","5","3","3","4","3","2","5","2","3","1","1","2","2","5","4","1","6","2","3","3","3","3","4","3","3","3","5","2","5","5","5","3","3","4","3","3","3","3","5","3","3","781518061500108802","郭","148","Female","[""好我"",""坏她"",""坏我"",""好她""]","[""强我"",""弱她"",""弱我"",""强她""]","","","","","","","","","","","","","","","","","","","","","","","","","","","","","","feedback_test","","","","","","","","",""
"432","","f","psychophysics","70","339240","0.0-8.0-0.0-1.0-0.0-0.30","5","4","5","4","4","5","2","4","4","4","5","1","1","-1","0","-1","0","0","0","5","5","5","5","5","4","4","4","4","4","4","6","6","7","4","4","6","5","6","5","3","3","4","3","2","5","2","3","1","1","2","2","5","4","1","6","2","3","3","3","3","4","3","3","3","5","2","5","5","5","3","3","4","3","3","3","3","5","3","3","781518061500108802","郭","148","Female","[""好我"",""坏她"",""坏我"",""好她""]","[""强我"",""弱她"",""弱我"",""强她""]","","","","","","","","match","","","","","","","","","","key","f","16.6658823529409","640","356","f","true","match","img/hexagon.png","好我","好我","prac_ALT2_moral","practice_moral","","","","","","","","",""
"null","<span style='color:GreenYellow; font-size: 70px;'>正确! </span>","null","html-keyboard-response","71","339744","0.0-8.0-0.0-1.0-0.0-1.30","5","4","5","4","4","5","2","4","4","4","5","1","1","-1","0","-1","0","0","0","5","5","5","5","5","4","4","4","4","4","4","6","6","7","4","4","6","5","6","5","3","3","4","3","2","5","2","3","1","1","2","2","5","4","1","6","2","3","3","3","3","4","3","3","3","5","2","5","5","5","3","3","4","3","3","3","3","5","3","3","781518061500108802","郭","148","Female","[""好我"",""坏她"",""坏我"",""好她""]","[""强我"",""弱她"",""弱我"",""强她""]","","","","","","","","","","","","","","","","","","","","","","","","","","","","","","feedback_test","","","","","","","","",""
"653","","f","psychophysics","72","341400","0.0-8.0-0.0-1.0-0.0-0.31","5","4","5","4","4","5","2","4","4","4","5","1","1","-1","0","-1","0","0","0","5","5","5","5","5","4","4","4","4","4","4","6","6","7","4","4","6","5","6","5","3","3","4","3","2","5","2","3","1","1","2","2","5","4","1","6","2","3","3","3","3","4","3","3","3","5","2","5","5","5","3","3","4","3","3","3","3","5","3","3","781518061500108802","郭","148","Female","[""好我"",""坏她"",""坏我"",""好她""]","[""强我"",""弱她"",""弱我"",""强她""]","","","","","","","","match","","","","","","","","","","key","f","16.666326530612125","640","356","f","true","match","img/circle.png","好她","好她","prac_ALT2_moral","practice_moral","","","","","","","","",""
"null","<span style='color:GreenYellow; font-size: 70px;'>正确! </span>","null","html-keyboard-response","73","341918","0.0-8.0-0.0-1.0-0.0-1.31","5","4","5","4","4","5","2","4","4","4","5","1","1","-1","0","-1","0","0","0","5","5","5","5","5","4","4","4","4","4","4","6","6","7","4","4","6","5","6","5","3","3","4","3","2","5","2","3","1","1","2","2","5","4","1","6","2","3","3","3","3","4","3","3","3","5","2","5","5","5","3","3","4","3","3","3","3","5","3","3","781518061500108802","郭","148","Female","[""好我"",""坏她"",""坏我"",""好她""]","[""强我"",""弱她"",""弱我"",""强她""]","","","","","","","","","","","","","","","","","","","","","","","","","","","","","","feedback_test","","","","","","","","",""
"739","","j","psychophysics","74","343666","0.0-8.0-0.0-1.0-0.0-0.32","5","4","5","4","4","5","2","4","4","4","5","1","1","-1","0","-1","0","0","0","5","5","5","5","5","4","4","4","4","4","4","6","6","7","4","4","6","5","6","5","3","3","4","3","2","5","2","3","1","1","2","2","5","4","1","6","2","3","3","3","3","4","3","3","3","5","2","5","5","5","3","3","4","3","3","3","3","5","3","3","781518061500108802","郭","148","Female","[""好我"",""坏她"",""坏我"",""好她""]","[""强我"",""弱她"",""弱我"",""强她""]","","","","","","","","nonmatch","","","","","","","","","","key","j","16.673076923076923","640","356","f","false","match","img/hexagon.png","好我","好我","prac_ALT2_moral","practice_moral","","","","","","","","",""
"null","<span style='color:red; font-size: 70px;'>错误! </span>","null","html-keyboard-response","75","344176","0.0-8.0-0.0-1.0-0.0-1.32","5","4","5","4","4","5","2","4","4","4","5","1","1","-1","0","-1","0","0","0","5","5","5","5","5","4","4","4","4","4","4","6","6","7","4","4","6","5","6","5","3","3","4","3","2","5","2","3","1","1","2","2","5","4","1","6","2","3","3","3","3","4","3","3","3","5","2","5","5","5","3","3","4","3","3","3","3","5","3","3","781518061500108802","郭","148","Female","[""好我"",""坏她"",""坏我"",""好她""]","[""强我"",""弱她"",""弱我"",""强她""]","","","","","","","","","","","","","","","","","","","","","","","","","","","","","","feedback_test","","","","","","","","",""
"772","","j","psychophysics","76","345965","0.0-8.0-0.0-1.0-0.0-0.33","5","4","5","4","4","5","2","4","4","4","5","1","1","-1","0","-1","0","0","0","5","5","5","5","5","4","4","4","4","4","4","6","6","7","4","4","6","5","6","5","3","3","4","3","2","5","2","3","1","1","2","2","5","4","1","6","2","3","3","3","3","4","3","3","3","5","2","5","5","5","3","3","4","3","3","3","3","5","3","3","781518061500108802","郭","148","Female","[""好我"",""坏她"",""坏我"",""好她""]","[""强我"",""弱她"",""弱我"",""强她""]","","","","","","","","nonmatch","","","","","","","","","","key","j","16.668867924527973","640","356","j","true","nonmatch","img/circle.png","坏她","好她","prac_ALT2_moral","practice_moral","","","","","","","","",""
"null","<span style='color:GreenYellow; font-size: 70px;'>正确! </span>","null","html-keyboard-response","77","346469","0.0-8.0-0.0-1.0-0.0-1.33","5","4","5","4","4","5","2","4","4","4","5","1","1","-1","0","-1","0","0","0","5","5","5","5","5","4","4","4","4","4","4","6","6","7","4","4","6","5","6","5","3","3","4","3","2","5","2","3","1","1","2","2","5","4","1","6","2","3","3","3","3","4","3","3","3","5","2","5","5","5","3","3","4","3","3","3","3","5","3","3","781518061500108802","郭","148","Female","[""好我"",""坏她"",""坏我"",""好她""]","[""强我"",""弱她"",""弱我"",""强她""]","","","","","","","","","","","","","","","","","","","","","","","","","","","","","","feedback_test","","","","","","","","",""
"658","","f","psychophysics","78","348131","0.0-8.0-0.0-1.0-0.0-0.34","5","4","5","4","4","5","2","4","4","4","5","1","1","-1","0","-1","0","0","0","5","5","5","5","5","4","4","4","4","4","4","6","6","7","4","4","6","5","6","5","3","3","4","3","2","5","2","3","1","1","2","2","5","4","1","6","2","3","3","3","3","4","3","3","3","5","2","5","5","5","3","3","4","3","3","3","3","5","3","3","781518061500108802","郭","148","Female","[""好我"",""坏她"",""坏我"",""好她""]","[""强我"",""弱她"",""弱我"",""强她""]","","","","","","","","match","","","","","","","","","","key","f","16.668686868686397","640","356","f","true","match","img/square.png","坏我","坏我","prac_ALT2_moral","practice_moral","","","","","","","","",""
"null","<span style='color:GreenYellow; font-size: 70px;'>正确! </span>","null","html-keyboard-response","79","348640","0.0-8.0-0.0-1.0-0.0-1.34","5","4","5","4","4","5","2","4","4","4","5","1","1","-1","0","-1","0","0","0","5","5","5","5","5","4","4","4","4","4","4","6","6","7","4","4","6","5","6","5","3","3","4","3","2","5","2","3","1","1","2","2","5","4","1","6","2","3","3","3","3","4","3","3","3","5","2","5","5","5","3","3","4","3","3","3","3","5","3","3","781518061500108802","郭","148","Female","[""好我"",""坏她"",""坏我"",""好她""]","[""强我"",""弱她"",""弱我"",""强她""]","","","","","","","","","","","","","","","","","","","","","","","","","","","","","","feedback_test","","","","","","","","",""
"571","","f","psychophysics","80","350215","0.0-8.0-0.0-1.0-0.0-0.35","5","4","5","4","4","5","2","4","4","4","5","1","1","-1","0","-1","0","0","0","5","5","5","5","5","4","4","4","4","4","4","6","6","7","4","4","6","5","6","5","3","3","4","3","2","5","2","3","1","1","2","2","5","4","1","6","2","3","3","3","3","4","3","3","3","5","2","5","5","5","3","3","4","3","3","3","3","5","3","3","781518061500108802","郭","148","Female","[""好我"",""坏她"",""坏我"",""好她""]","[""强我"",""弱她"",""弱我"",""强她""]","","","","","","","","match","","","","","","","","","","key","f","16.664893617021278","640","356","f","true","match","img/square.png","坏我","坏我","prac_ALT2_moral","practice_moral","","","","","","","","",""
"null","<span style='color:GreenYellow; font-size: 70px;'>正确! </span>","null","html-keyboard-response","81","350717","0.0-8.0-0.0-1.0-0.0-1.35","5","4","5","4","4","5","2","4","4","4","5","1","1","-1","0","-1","0","0","0","5","5","5","5","5","4","4","4","4","4","4","6","6","7","4","4","6","5","6","5","3","3","4","3","2","5","2","3","1","1","2","2","5","4","1","6","2","3","3","3","3","4","3","3","3","5","2","5","5","5","3","3","4","3","3","3","3","5","3","3","781518061500108802","郭","148","Female","[""好我"",""坏她"",""坏我"",""好她""]","[""强我"",""弱她"",""弱我"",""强她""]","","","","","","","","","","","","","","","","","","","","","","","","","","","","","","feedback_test","","","","","","","","",""
"496","","f","psychophysics","82","352234","0.0-8.0-0.0-1.0-0.0-0.36","5","4","5","4","4","5","2","4","4","4","5","1","1","-1","0","-1","0","0","0","5","5","5","5","5","4","4","4","4","4","4","6","6","7","4","4","6","5","6","5","3","3","4","3","2","5","2","3","1","1","2","2","5","4","1","6","2","3","3","3","3","4","3","3","3","5","2","5","5","5","3","3","4","3","3","3","3","5","3","3","781518061500108802","郭","148","Female","[""好我"",""坏她"",""坏我"",""好她""]","[""强我"",""弱她"",""弱我"",""强她""]","","","","","","","","match","","","","","","","","","","key","f","16.67111111111137","640","356","f","true","match","img/circle.png","好她","好她","prac_ALT2_moral","practice_moral","","","","","","","","",""
"null","<span style='color:GreenYellow; font-size: 70px;'>正确! </span>","null","html-keyboard-response","83","352742","0.0-8.0-0.0-1.0-0.0-1.36","5","4","5","4","4","5","2","4","4","4","5","1","1","-1","0","-1","0","0","0","5","5","5","5","5","4","4","4","4","4","4","6","6","7","4","4","6","5","6","5","3","3","4","3","2","5","2","3","1","1","2","2","5","4","1","6","2","3","3","3","3","4","3","3","3","5","2","5","5","5","3","3","4","3","3","3","3","5","3","3","781518061500108802","郭","148","Female","[""好我"",""坏她"",""坏我"",""好她""]","[""强我"",""弱她"",""弱我"",""强她""]","","","","","","","","","","","","","","","","","","","","","","","","","","","","","","feedback_test","","","","","","","","",""
"663","","j","psychophysics","84","354407","0.0-8.0-0.0-1.0-0.0-0.37","5","4","5","4","4","5","2","4","4","4","5","1","1","-1","0","-1","0","0","0","5","5","5","5","5","4","4","4","4","4","4","6","6","7","4","4","6","5","6","5","3","3","4","3","2","5","2","3","1","1","2","2","5","4","1","6","2","3","3","3","3","4","3","3","3","5","2","5","5","5","3","3","4","3","3","3","3","5","3","3","781518061500108802","郭","148","Female","[""好我"",""坏她"",""坏我"",""好她""]","[""强我"",""弱她"",""弱我"",""强她""]","","","","","","","","nonmatch","","","","","","","","","","key","j","16.671428571428454","640","356","j","true","nonmatch","img/hexagon.png","坏她","好我","prac_ALT2_moral","practice_moral","","","","","","","","",""
"null","<span style='color:GreenYellow; font-size: 70px;'>正确! </span>","null","html-keyboard-response","85","354922","0.0-8.0-0.0-1.0-0.0-1.37","5","4","5","4","4","5","2","4","4","4","5","1","1","-1","0","-1","0","0","0","5","5","5","5","5","4","4","4","4","4","4","6","6","7","4","4","6","5","6","5","3","3","4","3","2","5","2","3","1","1","2","2","5","4","1","6","2","3","3","3","3","4","3","3","3","5","2","5","5","5","3","3","4","3","3","3","3","5","3","3","781518061500108802","郭","148","Female","[""好我"",""坏她"",""坏我"",""好她""]","[""强我"",""弱她"",""弱我"",""强她""]","","","","","","","","","","","","","","","","","","","","","","","","","","","","","","feedback_test","","","","","","","","",""
"639","","j","psychophysics","86","356567","0.0-8.0-0.0-1.0-0.0-0.38","5","4","5","4","4","5","2","4","4","4","5","1","1","-1","0","-1","0","0","0","5","5","5","5","5","4","4","4","4","4","4","6","6","7","4","4","6","5","6","5","3","3","4","3","2","5","2","3","1","1","2","2","5","4","1","6","2","3","3","3","3","4","3","3","3","5","2","5","5","5","3","3","4","3","3","3","3","5","3","3","781518061500108802","郭","148","Female","[""好我"",""坏她"",""坏我"",""好她""]","[""强我"",""弱她"",""弱我"",""强她""]","","","","","","","","nonmatch","","","","","","","","","","key","j","16.669387755101802","640","356","j","true","nonmatch","img/triangle.png","坏我","坏她","prac_ALT2_moral","practice_moral","","","","","","","","",""
"null","<span style='color:GreenYellow; font-size: 70px;'>正确! </span>","null","html-keyboard-response","87","357075","0.0-8.0-0.0-1.0-0.0-1.38","5","4","5","4","4","5","2","4","4","4","5","1","1","-1","0","-1","0","0","0","5","5","5","5","5","4","4","4","4","4","4","6","6","7","4","4","6","5","6","5","3","3","4","3","2","5","2","3","1","1","2","2","5","4","1","6","2","3","3","3","3","4","3","3","3","5","2","5","5","5","3","3","4","3","3","3","3","5","3","3","781518061500108802","郭","148","Female","[""好我"",""坏她"",""坏我"",""好她""]","[""强我"",""弱她"",""弱我"",""强她""]","","","","","","","","","","","","","","","","","","","","","","","","","","","","","","feedback_test","","","","","","","","",""
"592","","j","psychophysics","88","358686","0.0-8.0-0.0-1.0-0.0-0.39","5","4","5","4","4","5","2","4","4","4","5","1","1","-1","0","-1","0","0","0","5","5","5","5","5","4","4","4","4","4","4","6","6","7","4","4","6","5","6","5","3","3","4","3","2","5","2","3","1","1","2","2","5","4","1","6","2","3","3","3","3","4","3","3","3","5","2","5","5","5","3","3","4","3","3","3","3","5","3","3","781518061500108802","郭","148","Female","[""好我"",""坏她"",""坏我"",""好她""]","[""强我"",""弱她"",""弱我"",""强她""]","","","","","","","","nonmatch","","","","","","","","","","key","j","16.655789473684088","640","356","j","true","nonmatch","img/triangle.png","好我","坏她","prac_ALT2_moral","practice_moral","","","","","","","","",""
"null","<span style='color:GreenYellow; font-size: 70px;'>正确! </span>","null","html-keyboard-response","89","359191","0.0-8.0-0.0-1.0-0.0-1.39","5","4","5","4","4","5","2","4","4","4","5","1","1","-1","0","-1","0","0","0","5","5","5","5","5","4","4","4","4","4","4","6","6","7","4","4","6","5","6","5","3","3","4","3","2","5","2","3","1","1","2","2","5","4","1","6","2","3","3","3","3","4","3","3","3","5","2","5","5","5","3","3","4","3","3","3","3","5","3","3","781518061500108802","郭","148","Female","[""好我"",""坏她"",""坏我"",""好她""]","[""强我"",""弱她"",""弱我"",""强她""]","","","","","","","","","","","","","","","","","","","","","","","","","","","","","","feedback_test","","","","","","","","",""
"679","","j","psychophysics","90","360873","0.0-8.0-0.0-1.0-0.0-0.40","5","4","5","4","4","5","2","4","4","4","5","1","1","-1","0","-1","0","0","0","5","5","5","5","5","4","4","4","4","4","4","6","6","7","4","4","6","5","6","5","3","3","4","3","2","5","2","3","1","1","2","2","5","4","1","6","2","3","3","3","3","4","3","3","3","5","2","5","5","5","3","3","4","3","3","3","3","5","3","3","781518061500108802","郭","148","Female","[""好我"",""坏她"",""坏我"",""好她""]","[""强我"",""弱她"",""弱我"",""强她""]","","","","","","","","nonmatch","","","","","","","","","","key","j","16.651515151515152","640","356","j","true","nonmatch","img/circle.png","坏我","好她","prac_ALT2_moral","practice_moral","","","","","","","","",""
"null","<span style='color:GreenYellow; font-size: 70px;'>正确! </span>","null","html-keyboard-response","91","361376","0.0-8.0-0.0-1.0-0.0-1.40","5","4","5","4","4","5","2","4","4","4","5","1","1","-1","0","-1","0","0","0","5","5","5","5","5","4","4","4","4","4","4","6","6","7","4","4","6","5","6","5","3","3","4","3","2","5","2","3","1","1","2","2","5","4","1","6","2","3","3","3","3","4","3","3","3","5","2","5","5","5","3","3","4","3","3","3","3","5","3","3","781518061500108802","郭","148","Female","[""好我"",""坏她"",""坏我"",""好她""]","[""强我"",""弱她"",""弱我"",""强她""]","","","","","","","","","","","","","","","","","","","","","","","","","","","","","","feedback_test","","","","","","","","",""
"759","","f","psychophysics","92","363138","0.0-8.0-0.0-1.0-0.0-0.41","5","4","5","4","4","5","2","4","4","4","5","1","1","-1","0","-1","0","0","0","5","5","5","5","5","4","4","4","4","4","4","6","6","7","4","4","6","5","6","5","3","3","4","3","2","5","2","3","1","1","2","2","5","4","1","6","2","3","3","3","3","4","3","3","3","5","2","5","5","5","3","3","4","3","3","3","3","5","3","3","781518061500108802","郭","148","Female","[""好我"",""坏她"",""坏我"",""好她""]","[""强我"",""弱她"",""弱我"",""强她""]","","","","","","","","match","","","","","","","","","","key","f","16.67019230769242","640","356","j","false","nonmatch","img/hexagon.png","坏我","好我","prac_ALT2_moral","practice_moral","","","","","","","","",""
"null","<span style='color:red; font-size: 70px;'>错误! </span>","null","html-keyboard-response","93","363651","0.0-8.0-0.0-1.0-0.0-1.41","5","4","5","4","4","5","2","4","4","4","5","1","1","-1","0","-1","0","0","0","5","5","5","5","5","4","4","4","4","4","4","6","6","7","4","4","6","5","6","5","3","3","4","3","2","5","2","3","1","1","2","2","5","4","1","6","2","3","3","3","3","4","3","3","3","5","2","5","5","5","3","3","4","3","3","3","3","5","3","3","781518061500108802","郭","148","Female","[""好我"",""坏她"",""坏我"",""好她""]","[""强我"",""弱她"",""弱我"",""强她""]","","","","","","","","","","","","","","","","","","","","","","","","","","","","","","feedback_test","","","","","","","","",""
"763","","j","psychophysics","94","365425","0.0-8.0-0.0-1.0-0.0-0.42","5","4","5","4","4","5","2","4","4","4","5","1","1","-1","0","-1","0","0","0","5","5","5","5","5","4","4","4","4","4","4","6","6","7","4","4","6","5","6","5","3","3","4","3","2","5","2","3","1","1","2","2","5","4","1","6","2","3","3","3","3","4","3","3","3","5","2","5","5","5","3","3","4","3","3","3","3","5","3","3","781518061500108802","郭","148","Female","[""好我"",""坏她"",""坏我"",""好她""]","[""强我"",""弱她"",""弱我"",""强她""]","","","","","","","","nonmatch","","","","","","","","","","key","j","16.66761904761938","640","356","j","true","nonmatch","img/square.png","好她","坏我","prac_ALT2_moral","practice_moral","","","","","","","","",""
"null","<span style='color:GreenYellow; font-size: 70px;'>正确! </span>","null","html-keyboard-response","95","365935","0.0-8.0-0.0-1.0-0.0-1.42","5","4","5","4","4","5","2","4","4","4","5","1","1","-1","0","-1","0","0","0","5","5","5","5","5","4","4","4","4","4","4","6","6","7","4","4","6","5","6","5","3","3","4","3","2","5","2","3","1","1","2","2","5","4","1","6","2","3","3","3","3","4","3","3","3","5","2","5","5","5","3","3","4","3","3","3","3","5","3","3","781518061500108802","郭","148","Female","[""好我"",""坏她"",""坏我"",""好她""]","[""强我"",""弱她"",""弱我"",""强她""]","","","","","","","","","","","","","","","","","","","","","","","","","","","","","","feedback_test","","","","","","","","",""
"657","","j","psychophysics","96","367597","0.0-8.0-0.0-1.0-0.0-0.43","5","4","5","4","4","5","2","4","4","4","5","1","1","-1","0","-1","0","0","0","5","5","5","5","5","4","4","4","4","4","4","6","6","7","4","4","6","5","6","5","3","3","4","3","2","5","2","3","1","1","2","2","5","4","1","6","2","3","3","3","3","4","3","3","3","5","2","5","5","5","3","3","4","3","3","3","3","5","3","3","781518061500108802","郭","148","Female","[""好我"",""坏她"",""坏我"",""好她""]","[""强我"",""弱她"",""弱我"",""强她""]","","","","","","","","nonmatch","","","","","","","","","","key","j","16.668686868686397","640","356","j","true","nonmatch","img/square.png","好我","坏我","prac_ALT2_moral","practice_moral","","","","","","","","",""
"null","<span style='color:GreenYellow; font-size: 70px;'>正确! </span>","null","html-keyboard-response","97","368099","0.0-8.0-0.0-1.0-0.0-1.43","5","4","5","4","4","5","2","4","4","4","5","1","1","-1","0","-1","0","0","0","5","5","5","5","5","4","4","4","4","4","4","6","6","7","4","4","6","5","6","5","3","3","4","3","2","5","2","3","1","1","2","2","5","4","1","6","2","3","3","3","3","4","3","3","3","5","2","5","5","5","3","3","4","3","3","3","3","5","3","3","781518061500108802","郭","148","Female","[""好我"",""坏她"",""坏我"",""好她""]","[""强我"",""弱她"",""弱我"",""强她""]","","","","","","","","","","","","","","","","","","","","","","","","","","","","","","feedback_test","","","","","","","","",""
"559","","f","psychophysics","98","369668","0.0-8.0-0.0-1.0-0.0-0.44","5","4","5","4","4","5","2","4","4","4","5","1","1","-1","0","-1","0","0","0","5","5","5","5","5","4","4","4","4","4","4","6","6","7","4","4","6","5","6","5","3","3","4","3","2","5","2","3","1","1","2","2","5","4","1","6","2","3","3","3","3","4","3","3","3","5","2","5","5","5","3","3","4","3","3","3","3","5","3","3","781518061500108802","郭","148","Female","[""好我"",""坏她"",""坏我"",""好她""]","[""强我"",""弱她"",""弱我"",""强她""]","","","","","","","","match","","","","","","","","","","key","f","16.672043010752688","640","356","f","true","match","img/square.png","坏我","坏我","prac_ALT2_moral","practice_moral","","","","","","","","",""
"null","<span style='color:GreenYellow; font-size: 70px;'>正确! </span>","null","html-keyboard-response","99","370175","0.0-8.0-0.0-1.0-0.0-1.44","5","4","5","4","4","5","2","4","4","4","5","1","1","-1","0","-1","0","0","0","5","5","5","5","5","4","4","4","4","4","4","6","6","7","4","4","6","5","6","5","3","3","4","3","2","5","2","3","1","1","2","2","5","4","1","6","2","3","3","3","3","4","3","3","3","5","2","5","5","5","3","3","4","3","3","3","3","5","3","3","781518061500108802","郭","148","Female","[""好我"",""坏她"",""坏我"",""好她""]","[""强我"",""弱她"",""弱我"",""强她""]","","","","","","","","","","","","","","","","","","","","","","","","","","","","","","feedback_test","","","","","","","","",""
"619","","j","psychophysics","100","371826","0.0-8.0-0.0-1.0-0.0-0.45","5","4","5","4","4","5","2","4","4","4","5","1","1","-1","0","-1","0","0","0","5","5","5","5","5","4","4","4","4","4","4","6","6","7","4","4","6","5","6","5","3","3","4","3","2","5","2","3","1","1","2","2","5","4","1","6","2","3","3","3","3","4","3","3","3","5","2","5","5","5","3","3","4","3","3","3","3","5","3","3","781518061500108802","郭","148","Female","[""好我"",""坏她"",""坏我"",""好她""]","[""强我"",""弱她"",""弱我"",""强她""]","","","","","","","","nonmatch","","","","","","","","","","key","j","16.574226804123832","640","356","j","true","nonmatch","img/circle.png","好我","好她","prac_ALT2_moral","practice_moral","","","","","","","","",""
"null","<span style='color:GreenYellow; font-size: 70px;'>正确! </span>","null","html-keyboard-response","101","372328","0.0-8.0-0.0-1.0-0.0-1.45","5","4","5","4","4","5","2","4","4","4","5","1","1","-1","0","-1","0","0","0","5","5","5","5","5","4","4","4","4","4","4","6","6","7","4","4","6","5","6","5","3","3","4","3","2","5","2","3","1","1","2","2","5","4","1","6","2","3","3","3","3","4","3","3","3","5","2","5","5","5","3","3","4","3","3","3","3","5","3","3","781518061500108802","郭","148","Female","[""好我"",""坏她"",""坏我"",""好她""]","[""强我"",""弱她"",""弱我"",""强她""]","","","","","","","","","","","","","","","","","","","","","","","","","","","","","","feedback_test","","","","","","","","",""
"686","","j","psychophysics","102","374017","0.0-8.0-0.0-1.0-0.0-0.46","5","4","5","4","4","5","2","4","4","4","5","1","1","-1","0","-1","0","0","0","5","5","5","5","5","4","4","4","4","4","4","6","6","7","4","4","6","5","6","5","3","3","4","3","2","5","2","3","1","1","2","2","5","4","1","6","2","3","3","3","3","4","3","3","3","5","2","5","5","5","3","3","4","3","3","3","3","5","3","3","781518061500108802","郭","148","Female","[""好我"",""坏她"",""坏我"",""好她""]","[""强我"",""弱她"",""弱我"",""强她""]","","","","","","","","nonmatch","","","","","","","","","","key","j","16.67","640","356","j","true","nonmatch","img/triangle.png","好她","坏她","prac_ALT2_moral","practice_moral","","","","","","","","",""
"null","<span style='color:GreenYellow; font-size: 70px;'>正确! </span>","null","html-keyboard-response","103","374529","0.0-8.0-0.0-1.0-0.0-1.46","5","4","5","4","4","5","2","4","4","4","5","1","1","-1","0","-1","0","0","0","5","5","5","5","5","4","4","4","4","4","4","6","6","7","4","4","6","5","6","5","3","3","4","3","2","5","2","3","1","1","2","2","5","4","1","6","2","3","3","3","3","4","3","3","3","5","2","5","5","5","3","3","4","3","3","3","3","5","3","3","781518061500108802","郭","148","Female","[""好我"",""坏她"",""坏我"",""好她""]","[""强我"",""弱她"",""弱我"",""强她""]","","","","","","","","","","","","","","","","","","","","","","","","","","","","","","feedback_test","","","","","","","","",""
"658","","f","psychophysics","104","376199","0.0-8.0-0.0-1.0-0.0-0.47","5","4","5","4","4","5","2","4","4","4","5","1","1","-1","0","-1","0","0","0","5","5","5","5","5","4","4","4","4","4","4","6","6","7","4","4","6","5","6","5","3","3","4","3","2","5","2","3","1","1","2","2","5","4","1","6","2","3","3","3","3","4","3","3","3","5","2","5","5","5","3","3","4","3","3","3","3","5","3","3","781518061500108802","郭","148","Female","[""好我"",""坏她"",""坏我"",""好她""]","[""强我"",""弱她"",""弱我"",""强她""]","","","","","","","","match","","","","","","","","","","key","f","16.667676767676532","640","356","f","true","match","img/triangle.png","坏她","坏她","prac_ALT2_moral","practice_moral","","","","","","","","",""
"null","<span style='color:GreenYellow; font-size: 70px;'>正确! </span>","null","html-keyboard-response","105","376706","0.0-8.0-0.0-1.0-0.0-1.47","5","4","5","4","4","5","2","4","4","4","5","1","1","-1","0","-1","0","0","0","5","5","5","5","5","4","4","4","4","4","4","6","6","7","4","4","6","5","6","5","3","3","4","3","2","5","2","3","1","1","2","2","5","4","1","6","2","3","3","3","3","4","3","3","3","5","2","5","5","5","3","3","4","3","3","3","3","5","3","3","781518061500108802","郭","148","Female","[""好我"",""坏她"",""坏我"",""好她""]","[""强我"",""弱她"",""弱我"",""强她""]","","","","","","","","","","","","","","","","","","","","","","","","","","","","","","feedback_test","","","","","","","","",""
"2784","<style>.context{color:white; font-size: 35px; line-height:40px}</style>                            <div><p class='context'>您正确回答了81% 的试次。</p><p class='context'>您的平均反应时为675毫秒。</p><p class='context'>恭喜您完成练习。按空格键进入正式实验。</p><p class='footer' style='font-size: 35px; line-height:40px;'>请在进入正式实验实验之前将您的<span style='color: lightgreen;'>食指</span>放在电脑键盘的相应键位上进行按键。</p>"," ","html-keyboard-response","106","379498","0.0-8.0-0.0-2.0","5","4","5","4","4","5","2","4","4","4","5","1","1","-1","0","-1","0","0","0","5","5","5","5","5","4","4","4","4","4","4","6","6","7","4","4","6","5","6","5","3","3","4","3","2","5","2","3","1","1","2","2","5","4","1","6","2","3","3","3","3","4","3","3","3","5","2","5","5","5","3","3","4","3","3","3","3","5","3","3","781518061500108802","郭","148","Female","[""好我"",""坏她"",""坏我"",""好她""]","[""强我"",""弱她"",""弱我"",""强她""]","","","","","","","","","","","","","","","","","","","","","","","","","","","","","","","","","","","","","","",""
"6730","
    <p style='color: white; font-size: 22px'>请您将手指放在按键上，准备进入正式的匹配任务。</p>
    <p> <div style = ""color: green""><按空格键进入下一阶段的匹配任务></div></p>
    "," ","html-keyboard-response","107","386235","0.0-8.0-0.0-3.0","5","4","5","4","4","5","2","4","4","4","5","1","1","-1","0","-1","0","0","0","5","5","5","5","5","4","4","4","4","4","4","6","6","7","4","4","6","5","6","5","3","3","4","3","2","5","2","3","1","1","2","2","5","4","1","6","2","3","3","3","3","4","3","3","3","5","2","5","5","5","3","3","4","3","3","3","3","5","3","3","781518061500108802","郭","148","Female","[""好我"",""坏她"",""坏我"",""好她""]","[""强我"",""弱她"",""弱我"",""强她""]","","","","","","","","","","","","","","","","","","","","","","","","","","","","","","","","","","","","","","",""
"659","","f","psychophysics","108","387898","0.0-8.0-0.0-4.0-0.0-0.0","5","4","5","4","4","5","2","4","4","4","5","1","1","-1","0","-1","0","0","0","5","5","5","5","5","4","4","4","4","4","4","6","6","7","4","4","6","5","6","5","3","3","4","3","2","5","2","3","1","1","2","2","5","4","1","6","2","3","3","3","3","4","3","3","3","5","2","5","5","5","3","3","4","3","3","3","3","5","3","3","781518061500108802","郭","148","Female","[""好我"",""坏她"",""坏我"",""好她""]","[""强我"",""弱她"",""弱我"",""强她""]","","","","","","","","match","","","","","","","","","","key","f","16.66969696969685","640","356","j","false","nonmatch","img/square.png","好她","坏我","ALT2","moral","","","","","","","","",""
"null","<span style='color:red; font-size: 70px;'>错误! </span>","null","html-keyboard-response","109","388408","0.0-8.0-0.0-4.0-0.0-1.0","5","4","5","4","4","5","2","4","4","4","5","1","1","-1","0","-1","0","0","0","5","5","5","5","5","4","4","4","4","4","4","6","6","7","4","4","6","5","6","5","3","3","4","3","2","5","2","3","1","1","2","2","5","4","1","6","2","3","3","3","3","4","3","3","3","5","2","5","5","5","3","3","4","3","3","3","3","5","3","3","781518061500108802","郭","148","Female","[""好我"",""坏她"",""坏我"",""好她""]","[""强我"",""弱她"",""弱我"",""强她""]","","","","","","","","","","","","","","","","","","","","","","","","","","","","","","feedback_test","","","","","","","","",""
"510","","f","psychophysics","110","389922","0.0-8.0-0.0-4.0-0.0-0.1","5","4","5","4","4","5","2","4","4","4","5","1","1","-1","0","-1","0","0","0","5","5","5","5","5","4","4","4","4","4","4","6","6","7","4","4","6","5","6","5","3","3","4","3","2","5","2","3","1","1","2","2","5","4","1","6","2","3","3","3","3","4","3","3","3","5","2","5","5","5","3","3","4","3","3","3","3","5","3","3","781518061500108802","郭","148","Female","[""好我"",""坏她"",""坏我"",""好她""]","[""强我"",""弱她"",""弱我"",""强她""]","","","","","","","","match","","","","","","","","","","key","f","16.67222222222222","640","356","f","true","match","img/circle.png","好她","好她","ALT2","moral","","","","","","","","",""
"null","<span style='color:GreenYellow; font-size: 70px;'>正确! </span>","null","html-keyboard-response","111","390427","0.0-8.0-0.0-4.0-0.0-1.1","5","4","5","4","4","5","2","4","4","4","5","1","1","-1","0","-1","0","0","0","5","5","5","5","5","4","4","4","4","4","4","6","6","7","4","4","6","5","6","5","3","3","4","3","2","5","2","3","1","1","2","2","5","4","1","6","2","3","3","3","3","4","3","3","3","5","2","5","5","5","3","3","4","3","3","3","3","5","3","3","781518061500108802","郭","148","Female","[""好我"",""坏她"",""坏我"",""好她""]","[""强我"",""弱她"",""弱我"",""强她""]","","","","","","","","","","","","","","","","","","","","","","","","","","","","","","feedback_test","","","","","","","","",""
"563","","f","psychophysics","112","392023","0.0-8.0-0.0-4.0-0.0-0.2","5","4","5","4","4","5","2","4","4","4","5","1","1","-1","0","-1","0","0","0","5","5","5","5","5","4","4","4","4","4","4","6","6","7","4","4","6","5","6","5","3","3","4","3","2","5","2","3","1","1","2","2","5","4","1","6","2","3","3","3","3","4","3","3","3","5","2","5","5","5","3","3","4","3","3","3","3","5","3","3","781518061500108802","郭","148","Female","[""好我"",""坏她"",""坏我"",""好她""]","[""强我"",""弱她"",""弱我"",""强她""]","","","","","","","","match","","","","","","","","","","key","f","16.668085106383476","640","356","f","true","match","img/circle.png","好她","好她","ALT2","moral","","","","","","","","",""
"null","<span style='color:GreenYellow; font-size: 70px;'>正确! </span>","null","html-keyboard-response","113","392532","0.0-8.0-0.0-4.0-0.0-1.2","5","4","5","4","4","5","2","4","4","4","5","1","1","-1","0","-1","0","0","0","5","5","5","5","5","4","4","4","4","4","4","6","6","7","4","4","6","5","6","5","3","3","4","3","2","5","2","3","1","1","2","2","5","4","1","6","2","3","3","3","3","4","3","3","3","5","2","5","5","5","3","3","4","3","3","3","3","5","3","3","781518061500108802","郭","148","Female","[""好我"",""坏她"",""坏我"",""好她""]","[""强我"",""弱她"",""弱我"",""强她""]","","","","","","","","","","","","","","","","","","","","","","","","","","","","","","feedback_test","","","","","","","","",""
"805","","j","psychophysics","114","394347","0.0-8.0-0.0-4.0-0.0-0.3","5","4","5","4","4","5","2","4","4","4","5","1","1","-1","0","-1","0","0","0","5","5","5","5","5","4","4","4","4","4","4","6","6","7","4","4","6","5","6","5","3","3","4","3","2","5","2","3","1","1","2","2","5","4","1","6","2","3","3","3","3","4","3","3","3","5","2","5","5","5","3","3","4","3","3","3","3","5","3","3","781518061500108802","郭","148","Female","[""好我"",""坏她"",""坏我"",""好她""]","[""强我"",""弱她"",""弱我"",""强她""]","","","","","","","","nonmatch","","","","","","","","","","key","j","16.669444444444338","640","356","f","false","match","img/hexagon.png","好我","好我","ALT2","moral","","","","","","","","",""
"null","<span style='color:red; font-size: 70px;'>错误! </span>","null","html-keyboard-response","115","394854","0.0-8.0-0.0-4.0-0.0-1.3","5","4","5","4","4","5","2","4","4","4","5","1","1","-1","0","-1","0","0","0","5","5","5","5","5","4","4","4","4","4","4","6","6","7","4","4","6","5","6","5","3","3","4","3","2","5","2","3","1","1","2","2","5","4","1","6","2","3","3","3","3","4","3","3","3","5","2","5","5","5","3","3","4","3","3","3","3","5","3","3","781518061500108802","郭","148","Female","[""好我"",""坏她"",""坏我"",""好她""]","[""强我"",""弱她"",""弱我"",""强她""]","","","","","","","","","","","","","","","","","","","","","","","","","","","","","","feedback_test","","","","","","","","",""
"811","","j","psychophysics","116","396669","0.0-8.0-0.0-4.0-0.0-0.4","5","4","5","4","4","5","2","4","4","4","5","1","1","-1","0","-1","0","0","0","5","5","5","5","5","4","4","4","4","4","4","6","6","7","4","4","6","5","6","5","3","3","4","3","2","5","2","3","1","1","2","2","5","4","1","6","2","3","3","3","3","4","3","3","3","5","2","5","5","5","3","3","4","3","3","3","3","5","3","3","781518061500108802","郭","148","Female","[""好我"",""坏她"",""坏我"",""好她""]","[""强我"",""弱她"",""弱我"",""强她""]","","","","","","","","nonmatch","","","","","","","","","","key","j","16.670370370370048","640","356","j","true","nonmatch","img/square.png","坏她","坏我","ALT2","moral","","","","","","","","",""
"null","<span style='color:GreenYellow; font-size: 70px;'>正确! </span>","null","html-keyboard-response","117","397187","0.0-8.0-0.0-4.0-0.0-1.4","5","4","5","4","4","5","2","4","4","4","5","1","1","-1","0","-1","0","0","0","5","5","5","5","5","4","4","4","4","4","4","6","6","7","4","4","6","5","6","5","3","3","4","3","2","5","2","3","1","1","2","2","5","4","1","6","2","3","3","3","3","4","3","3","3","5","2","5","5","5","3","3","4","3","3","3","3","5","3","3","781518061500108802","郭","148","Female","[""好我"",""坏她"",""坏我"",""好她""]","[""强我"",""弱她"",""弱我"",""强她""]","","","","","","","","","","","","","","","","","","","","","","","","","","","","","","feedback_test","","","","","","","","",""
"624","","j","psychophysics","118","398831","0.0-8.0-0.0-4.0-0.0-0.5","5","4","5","4","4","5","2","4","4","4","5","1","1","-1","0","-1","0","0","0","5","5","5","5","5","4","4","4","4","4","4","6","6","7","4","4","6","5","6","5","3","3","4","3","2","5","2","3","1","1","2","2","5","4","1","6","2","3","3","3","3","4","3","3","3","5","2","5","5","5","3","3","4","3","3","3","3","5","3","3","781518061500108802","郭","148","Female","[""好我"",""坏她"",""坏我"",""好她""]","[""强我"",""弱她"",""弱我"",""强她""]","","","","","","","","nonmatch","","","","","","","","","","key","j","16.670408163265424","640","356","j","true","nonmatch","img/triangle.png","好她","坏她","ALT2","moral","","","","","","","","",""
"null","<span style='color:GreenYellow; font-size: 70px;'>正确! </span>","null","html-keyboard-response","119","399338","0.0-8.0-0.0-4.0-0.0-1.5","5","4","5","4","4","5","2","4","4","4","5","1","1","-1","0","-1","0","0","0","5","5","5","5","5","4","4","4","4","4","4","6","6","7","4","4","6","5","6","5","3","3","4","3","2","5","2","3","1","1","2","2","5","4","1","6","2","3","3","3","3","4","3","3","3","5","2","5","5","5","3","3","4","3","3","3","3","5","3","3","781518061500108802","郭","148","Female","[""好我"",""坏她"",""坏我"",""好她""]","[""强我"",""弱她"",""弱我"",""强她""]","","","","","","","","","","","","","","","","","","","","","","","","","","","","","","feedback_test","","","","","","","","",""
"537","","f","psychophysics","120","400878","0.0-8.0-0.0-4.0-0.0-0.6","5","4","5","4","4","5","2","4","4","4","5","1","1","-1","0","-1","0","0","0","5","5","5","5","5","4","4","4","4","4","4","6","6","7","4","4","6","5","6","5","3","3","4","3","2","5","2","3","1","1","2","2","5","4","1","6","2","3","3","3","3","4","3","3","3","5","2","5","5","5","3","3","4","3","3","3","3","5","3","3","781518061500108802","郭","148","Female","[""好我"",""坏她"",""坏我"",""好她""]","[""强我"",""弱她"",""弱我"",""强她""]","","","","","","","","match","","","","","","","","","","key","f","16.67032967032967","640","356","f","true","match","img/triangle.png","坏她","坏她","ALT2","moral","","","","","","","","",""
"null","<span style='color:GreenYellow; font-size: 70px;'>正确! </span>","null","html-keyboard-response","121","401386","0.0-8.0-0.0-4.0-0.0-1.6","5","4","5","4","4","5","2","4","4","4","5","1","1","-1","0","-1","0","0","0","5","5","5","5","5","4","4","4","4","4","4","6","6","7","4","4","6","5","6","5","3","3","4","3","2","5","2","3","1","1","2","2","5","4","1","6","2","3","3","3","3","4","3","3","3","5","2","5","5","5","3","3","4","3","3","3","3","5","3","3","781518061500108802","郭","148","Female","[""好我"",""坏她"",""坏我"",""好她""]","[""强我"",""弱她"",""弱我"",""强她""]","","","","","","","","","","","","","","","","","","","","","","","","","","","","","","feedback_test","","","","","","","","",""
"598","","f","psychophysics","122","402988","0.0-8.0-0.0-4.0-0.0-0.7","5","4","5","4","4","5","2","4","4","4","5","1","1","-1","0","-1","0","0","0","5","5","5","5","5","4","4","4","4","4","4","6","6","7","4","4","6","5","6","5","3","3","4","3","2","5","2","3","1","1","2","2","5","4","1","6","2","3","3","3","3","4","3","3","3","5","2","5","5","5","3","3","4","3","3","3","3","5","3","3","781518061500108802","郭","148","Female","[""好我"",""坏她"",""坏我"",""好她""]","[""强我"",""弱她"",""弱我"",""强她""]","","","","","","","","match","","","","","","","","","","key","f","16.66842105263158","640","356","f","true","match","img/hexagon.png","好我","好我","ALT2","moral","","","","","","","","",""
"null","<span style='color:GreenYellow; font-size: 70px;'>正确! </span>","null","html-keyboard-response","123","403490","0.0-8.0-0.0-4.0-0.0-1.7","5","4","5","4","4","5","2","4","4","4","5","1","1","-1","0","-1","0","0","0","5","5","5","5","5","4","4","4","4","4","4","6","6","7","4","4","6","5","6","5","3","3","4","3","2","5","2","3","1","1","2","2","5","4","1","6","2","3","3","3","3","4","3","3","3","5","2","5","5","5","3","3","4","3","3","3","3","5","3","3","781518061500108802","郭","148","Female","[""好我"",""坏她"",""坏我"",""好她""]","[""强我"",""弱她"",""弱我"",""强她""]","","","","","","","","","","","","","","","","","","","","","","","","","","","","","","feedback_test","","","","","","","","",""
"563","","j","psychophysics","124","405071","0.0-8.0-0.0-4.0-0.0-0.8","5","4","5","4","4","5","2","4","4","4","5","1","1","-1","0","-1","0","0","0","5","5","5","5","5","4","4","4","4","4","4","6","6","7","4","4","6","5","6","5","3","3","4","3","2","5","2","3","1","1","2","2","5","4","1","6","2","3","3","3","3","4","3","3","3","5","2","5","5","5","3","3","4","3","3","3","3","5","3","3","781518061500108802","郭","148","Female","[""好我"",""坏她"",""坏我"",""好她""]","[""强我"",""弱她"",""弱我"",""强她""]","","","","","","","","nonmatch","","","","","","","","","","key","j","16.668085106382854","640","356","j","true","nonmatch","img/triangle.png","好我","坏她","ALT2","moral","","","","","","","","",""
"null","<span style='color:GreenYellow; font-size: 70px;'>正确! </span>","null","html-keyboard-response","125","405589","0.0-8.0-0.0-4.0-0.0-1.8","5","4","5","4","4","5","2","4","4","4","5","1","1","-1","0","-1","0","0","0","5","5","5","5","5","4","4","4","4","4","4","6","6","7","4","4","6","5","6","5","3","3","4","3","2","5","2","3","1","1","2","2","5","4","1","6","2","3","3","3","3","4","3","3","3","5","2","5","5","5","3","3","4","3","3","3","3","5","3","3","781518061500108802","郭","148","Female","[""好我"",""坏她"",""坏我"",""好她""]","[""强我"",""弱她"",""弱我"",""强她""]","","","","","","","","","","","","","","","","","","","","","","","","","","","","","","feedback_test","","","","","","","","",""
"462","","f","psychophysics","126","407057","0.0-8.0-0.0-4.0-0.0-0.9","5","4","5","4","4","5","2","4","4","4","5","1","1","-1","0","-1","0","0","0","5","5","5","5","5","4","4","4","4","4","4","6","6","7","4","4","6","5","6","5","3","3","4","3","2","5","2","3","1","1","2","2","5","4","1","6","2","3","3","3","3","4","3","3","3","5","2","5","5","5","3","3","4","3","3","3","3","5","3","3","781518061500108802","郭","148","Female","[""好我"",""坏她"",""坏我"",""好她""]","[""强我"",""弱她"",""弱我"",""强她""]","","","","","","","","match","","","","","","","","","","key","f","16.67126436781636","640","356","f","true","match","img/triangle.png","坏她","坏她","ALT2","moral","","","","","","","","",""
"null","<span style='color:GreenYellow; font-size: 70px;'>正确! </span>","null","html-keyboard-response","127","407567","0.0-8.0-0.0-4.0-0.0-1.9","5","4","5","4","4","5","2","4","4","4","5","1","1","-1","0","-1","0","0","0","5","5","5","5","5","4","4","4","4","4","4","6","6","7","4","4","6","5","6","5","3","3","4","3","2","5","2","3","1","1","2","2","5","4","1","6","2","3","3","3","3","4","3","3","3","5","2","5","5","5","3","3","4","3","3","3","3","5","3","3","781518061500108802","郭","148","Female","[""好我"",""坏她"",""坏我"",""好她""]","[""强我"",""弱她"",""弱我"",""强她""]","","","","","","","","","","","","","","","","","","","","","","","","","","","","","","feedback_test","","","","","","","","",""
"614","","f","psychophysics","128","409188","0.0-8.0-0.0-4.0-0.0-0.10","5","4","5","4","4","5","2","4","4","4","5","1","1","-1","0","-1","0","0","0","5","5","5","5","5","4","4","4","4","4","4","6","6","7","4","4","6","5","6","5","3","3","4","3","2","5","2","3","1","1","2","2","5","4","1","6","2","3","3","3","3","4","3","3","3","5","2","5","5","5","3","3","4","3","3","3","3","5","3","3","781518061500108802","郭","148","Female","[""好我"",""坏她"",""坏我"",""好她""]","[""强我"",""弱她"",""弱我"",""强她""]","","","","","","","","match","","","","","","","","","","key","f","16.66979166666715","640","356","f","true","match","img/square.png","坏我","坏我","ALT2","moral","","","","","","","","",""
"null","<span style='color:GreenYellow; font-size: 70px;'>正确! </span>","null","html-keyboard-response","129","409699","0.0-8.0-0.0-4.0-0.0-1.10","5","4","5","4","4","5","2","4","4","4","5","1","1","-1","0","-1","0","0","0","5","5","5","5","5","4","4","4","4","4","4","6","6","7","4","4","6","5","6","5","3","3","4","3","2","5","2","3","1","1","2","2","5","4","1","6","2","3","3","3","3","4","3","3","3","5","2","5","5","5","3","3","4","3","3","3","3","5","3","3","781518061500108802","郭","148","Female","[""好我"",""坏她"",""坏我"",""好她""]","[""强我"",""弱她"",""弱我"",""强她""]","","","","","","","","","","","","","","","","","","","","","","","","","","","","","","feedback_test","","","","","","","","",""
"655","","j","psychophysics","130","411369","0.0-8.0-0.0-4.0-0.0-0.11","5","4","5","4","4","5","2","4","4","4","5","1","1","-1","0","-1","0","0","0","5","5","5","5","5","4","4","4","4","4","4","6","6","7","4","4","6","5","6","5","3","3","4","3","2","5","2","3","1","1","2","2","5","4","1","6","2","3","3","3","3","4","3","3","3","5","2","5","5","5","3","3","4","3","3","3","3","5","3","3","781518061500108802","郭","148","Female","[""好我"",""坏她"",""坏我"",""好她""]","[""强我"",""弱她"",""弱我"",""强她""]","","","","","","","","nonmatch","","","","","","","","","","key","j","16.66969696969685","640","356","j","true","nonmatch","img/hexagon.png","坏我","好我","ALT2","moral","","","","","","","","",""
"null","<span style='color:GreenYellow; font-size: 70px;'>正确! </span>","null","html-keyboard-response","131","411870","0.0-8.0-0.0-4.0-0.0-1.11","5","4","5","4","4","5","2","4","4","4","5","1","1","-1","0","-1","0","0","0","5","5","5","5","5","4","4","4","4","4","4","6","6","7","4","4","6","5","6","5","3","3","4","3","2","5","2","3","1","1","2","2","5","4","1","6","2","3","3","3","3","4","3","3","3","5","2","5","5","5","3","3","4","3","3","3","3","5","3","3","781518061500108802","郭","148","Female","[""好我"",""坏她"",""坏我"",""好她""]","[""强我"",""弱她"",""弱我"",""强她""]","","","","","","","","","","","","","","","","","","","","","","","","","","","","","","feedback_test","","","","","","","","",""
"526","","f","psychophysics","132","413404","0.0-8.0-0.0-4.0-0.0-0.12","5","4","5","4","4","5","2","4","4","4","5","1","1","-1","0","-1","0","0","0","5","5","5","5","5","4","4","4","4","4","4","6","6","7","4","4","6","5","6","5","3","3","4","3","2","5","2","3","1","1","2","2","5","4","1","6","2","3","3","3","3","4","3","3","3","5","2","5","5","5","3","3","4","3","3","3","3","5","3","3","781518061500108802","郭","148","Female","[""好我"",""坏她"",""坏我"",""好她""]","[""强我"",""弱她"",""弱我"",""强她""]","","","","","","","","match","","","","","","","","","","key","f","16.671428571428315","640","356","f","true","match","img/hexagon.png","好我","好我","ALT2","moral","","","","","","","","",""
"null","<span style='color:GreenYellow; font-size: 70px;'>正确! </span>","null","html-keyboard-response","133","413921","0.0-8.0-0.0-4.0-0.0-1.12","5","4","5","4","4","5","2","4","4","4","5","1","1","-1","0","-1","0","0","0","5","5","5","5","5","4","4","4","4","4","4","6","6","7","4","4","6","5","6","5","3","3","4","3","2","5","2","3","1","1","2","2","5","4","1","6","2","3","3","3","3","4","3","3","3","5","2","5","5","5","3","3","4","3","3","3","3","5","3","3","781518061500108802","郭","148","Female","[""好我"",""坏她"",""坏我"",""好她""]","[""强我"",""弱她"",""弱我"",""强她""]","","","","","","","","","","","","","","","","","","","","","","","","","","","","","","feedback_test","","","","","","","","",""
"493","","f","psychophysics","134","415421","0.0-8.0-0.0-4.0-0.0-0.13","5","4","5","4","4","5","2","4","4","4","5","1","1","-1","0","-1","0","0","0","5","5","5","5","5","4","4","4","4","4","4","6","6","7","4","4","6","5","6","5","3","3","4","3","2","5","2","3","1","1","2","2","5","4","1","6","2","3","3","3","3","4","3","3","3","5","2","5","5","5","3","3","4","3","3","3","3","5","3","3","781518061500108802","郭","148","Female","[""好我"",""坏她"",""坏我"",""好她""]","[""强我"",""弱她"",""弱我"",""强她""]","","","","","","","","match","","","","","","","","","","key","f","16.66741573033734","640","356","j","false","nonmatch","img/circle.png","好我","好她","ALT2","moral","","","","","","","","",""
"null","<span style='color:red; font-size: 70px;'>错误! </span>","null","html-keyboard-response","135","415930","0.0-8.0-0.0-4.0-0.0-1.13","5","4","5","4","4","5","2","4","4","4","5","1","1","-1","0","-1","0","0","0","5","5","5","5","5","4","4","4","4","4","4","6","6","7","4","4","6","5","6","5","3","3","4","3","2","5","2","3","1","1","2","2","5","4","1","6","2","3","3","3","3","4","3","3","3","5","2","5","5","5","3","3","4","3","3","3","3","5","3","3","781518061500108802","郭","148","Female","[""好我"",""坏她"",""坏我"",""好她""]","[""强我"",""弱她"",""弱我"",""强她""]","","","","","","","","","","","","","","","","","","","","","","","","","","","","","","feedback_test","","","","","","","","",""
"835","","f","psychophysics","136","417794","0.0-8.0-0.0-4.0-0.0-0.14","5","4","5","4","4","5","2","4","4","4","5","1","1","-1","0","-1","0","0","0","5","5","5","5","5","4","4","4","4","4","4","6","6","7","4","4","6","5","6","5","3","3","4","3","2","5","2","3","1","1","2","2","5","4","1","6","2","3","3","3","3","4","3","3","3","5","2","5","5","5","3","3","4","3","3","3","3","5","3","3","781518061500108802","郭","148","Female","[""好我"",""坏她"",""坏我"",""好她""]","[""强我"",""弱她"",""弱我"",""强她""]","","","","","","","","match","","","","","","","","","","key","f","16.672727272727272","640","356","j","false","nonmatch","img/hexagon.png","好她","好我","ALT2","moral","","","","","","","","",""
"null","<span style='color:red; font-size: 70px;'>错误! </span>","null","html-keyboard-response","137","418306","0.0-8.0-0.0-4.0-0.0-1.14","5","4","5","4","4","5","2","4","4","4","5","1","1","-1","0","-1","0","0","0","5","5","5","5","5","4","4","4","4","4","4","6","6","7","4","4","6","5","6","5","3","3","4","3","2","5","2","3","1","1","2","2","5","4","1","6","2","3","3","3","3","4","3","3","3","5","2","5","5","5","3","3","4","3","3","3","3","5","3","3","781518061500108802","郭","148","Female","[""好我"",""坏她"",""坏我"",""好她""]","[""强我"",""弱她"",""弱我"",""强她""]","","","","","","","","","","","","","","","","","","","","","","","","","","","","","","feedback_test","","","","","","","","",""
"582","","j","psychophysics","138","419894","0.0-8.0-0.0-4.0-0.0-0.15","5","4","5","4","4","5","2","4","4","4","5","1","1","-1","0","-1","0","0","0","5","5","5","5","5","4","4","4","4","4","4","6","6","7","4","4","6","5","6","5","3","3","4","3","2","5","2","3","1","1","2","2","5","4","1","6","2","3","3","3","3","4","3","3","3","5","2","5","5","5","3","3","4","3","3","3","3","5","3","3","781518061500108802","郭","148","Female","[""好我"",""坏她"",""坏我"",""好她""]","[""强我"",""弱她"",""弱我"",""强她""]","","","","","","","","nonmatch","","","","","","","","","","key","j","16.66914893616984","640","356","j","true","nonmatch","img/circle.png","坏我","好她","ALT2","moral","","","","","","","","",""
