"rt","stimulus","response","trial_type","trial_index","time_elapsed","internal_node_id","swb_1","swb_2","swb_3","swb_4","swb_5","LOT_1","LOT_2","LOT_3","LOT_4","LOT_5","LOT_6","IPC_1","IPC_2","IPC_3","IPC_4","IPC_5","IPC_6","IPC_7","IPC_8","MorIden_1","MorIden_2","MorIden_3","MorIden_4","MorIden_5","MorIden_6","MorIden_7","MorIden_8","MorIden_9","MorIden_10","moralSeImag_1","moralSeImag_2","moralSeImag_3","moralSeImag_4","moralSeImag_5","moralSeImag_6","moralSeImag_7","moralSeImag_8","moralSeImag_9","sde_1","sde_2","sde_3","sde_4","sde_5","sde_6","sde_7","sde_8","sde_9","sde_10","trap2","sde_11","sde_12","sde_13","sde_14","sde_15","sde_16","sde_17","sde_18","sde_19","sde_20","IM_1","IM_2","IM_3","IM_4","IM_5","IM_6","IM_7","IM_8","IM_9","IM_10","IM_11","IM_12","IM_13","IM_14","IM_15","IM_16","IM_17","IM_18","IM_19","IM_20","subj_idx","friend_name","ParticipantID","Sex","Word","Word2","value","success","timeout","failed_images","failed_audio","failed_video","user_agent","responses","item_order","radio_event_ids","radio_event_times","key_event_times","mouse_event_times","straightlining","zigzagging","honeypot","task_id","screen_id","time_stamp","response_type","key_press","avg_frame_time","center_x","center_y","person","word","valence","domain","math","correct_response","correct","status","view_history","identity","duration","Image","condition","question_order","trap2_item"
"36995","
   <p><div style='color:white; font-size: 25px'>您好，欢迎参加本次实验。</div></p>
   <p><div style='color:white; font-size: 25px'>为充分保障您的权利，请确保您已经知晓并同意《参与实验同意书》以及《数据公开知情同意书》。</div></p>
   <p><div style='color:white; font-size: 25px'>如果您未见过上述内容，请咨询实验员。</div></p>
   <p style='color:white; font-size: 25px'>如果您选择继续实验，则表示您已经清楚两份知情同意书的内容并同意。</p>
   <p><div style = ""color: pink;font-size:30px;"">请确保您记得day0的实验编号，您将在本次实验输入该编号，若您忘记，请咨询实验员后作答。</div></p>
   <p><div style = ""color:lightblue;font-size:25px;"">请您尽可能认真地作答，我们将依据您在各问卷和按键任务中的作答质量发放报酬。</div></p>
   <p> <div style = ""color: green""><按空格键至下页></div> </p>
   "," ","html-keyboard-response","0","36999","0.0-0.0","5","4","5","4","3","5","3","5","5","5","5","2","0","1","2","2","1","1","2","5","5","5","5","5","4","4","5","5","5","6","7","8","9","8","7","8","7","9","5","7","4","7","6","6","6","1","7","7","1","6","6","7","7","7","5","6","7","5","6","1","6","3","7","5","7","7","6","1","7","7","7","7","7","1","7","7","7","6","7","656853379439394816","张","452","Male","[""坏他"",""坏我"",""好我"",""好他""]","[""弱他"",""弱我"",""强我"",""强他""]","","","","","","","","","","","","","","","","","","","","","","","","","","","","","","","","","","","","","","",""
"","","","call-function","1","37005","0.0-1.0-0.0","5","4","5","4","3","5","3","5","5","5","5","2","0","1","2","2","1","1","2","5","5","5","5","5","4","4","5","5","5","6","7","8","9","8","7","8","7","9","5","7","4","7","6","6","6","1","7","7","1","6","6","7","7","7","5","6","7","5","6","1","6","3","7","5","7","7","6","1","7","7","7","7","7","1","7","7","7","6","7","656853379439394816","张","452","Male","[""坏他"",""坏我"",""好我"",""好他""]","[""弱他"",""弱我"",""强我"",""强他""]","","","","","","","","","","","","","","","","","","","","","","","","","","","","","","","","","","","","","","",""
"39617","","[{""name"":""Sex"",""value"":""0""},{""name"":""friend_name"",""value"":""张""},{""name"":""ParticipantID"",""value"":""452""}]","survey-html-form","2","76625","0.0-1.0-1.0","5","4","5","4","3","5","3","5","5","5","5","2","0","1","2","2","1","1","2","5","5","5","5","5","4","4","5","5","5","6","7","8","9","8","7","8","7","9","5","7","4","7","6","6","6","1","7","7","1","6","6","7","7","7","5","6","7","5","6","1","6","3","7","5","7","7","6","1","7","7","7","7","7","1","7","7","7","6","7","656853379439394816","张","452","Male","[""坏他"",""坏我"",""好我"",""好他""]","[""弱他"",""弱我"",""强我"",""强他""]","","","","","","","","","","","","","","","","","","","","","","","","","","","","","","","","","","","","","","",""
"","","","preload","3","77048","0.0-2.0","5","4","5","4","3","5","3","5","5","5","5","2","0","1","2","2","1","1","2","5","5","5","5","5","4","4","5","5","5","6","7","8","9","8","7","8","7","9","5","7","4","7","6","6","6","1","7","7","1","6","6","7","7","7","5","6","7","5","6","1","6","3","7","5","7","7","6","1","7","7","7","7","7","1","7","7","7","6","7","656853379439394816","张","452","Male","[""坏他"",""坏我"",""好我"",""好他""]","[""弱他"",""弱我"",""强我"",""强他""]","","true","false","[]","[]","[]","","","","","","","","","","","","","","","","","","","","","","","","","","","","","","","","",""
"","","","fullscreen","4","85351","0.0-3.0","5","4","5","4","3","5","3","5","5","5","5","2","0","1","2","2","1","1","2","5","5","5","5","5","4","4","5","5","5","6","7","8","9","8","7","8","7","9","5","7","4","7","6","6","6","1","7","7","1","6","6","7","7","7","5","6","7","5","6","1","6","3","7","5","7","7","6","1","7","7","7","7","7","1","7","7","7","6","7","656853379439394816","张","452","Male","[""坏他"",""坏我"",""好我"",""好他""]","[""弱他"",""弱我"",""强我"",""强他""]","","true","","","","","{}","","","","","","","","","","","","","","","","","","","","","","","","","","","","","","","",""
"39120.800000071526","","{""Q01"":""5"",""Q02"":""4"",""Q03"":""5"",""Q04"":""4"",""Q05"":""3""}","survey-template","5","124476","0.0-4.0","5","4","5","4","3","5","3","5","5","5","5","2","0","1","2","2","1","1","2","5","5","5","5","5","4","4","5","5","5","6","7","8","9","8","7","8","7","9","5","7","4","7","6","6","6","1","7","7","1","6","6","7","7","7","5","6","7","5","6","1","6","3","7","5","7","7","6","1","7","7","7","7","7","1","7","7","7","6","7","656853379439394816","张","452","Male","[""坏他"",""坏我"",""好我"",""好他""]","[""弱他"",""弱我"",""强我"",""强他""]","","","","","","","","{""Q01"":""5"",""Q02"":""4"",""Q03"":""5"",""Q04"":""4"",""Q05"":""3""}","[0,1,2,3,4]","[""Q04"",""Q02"",""Q01"",""Q02"",""Q01"",""Q04"",""Q04"",""Q05"",""Q05"",""Q03""]","[6865.800000071526,9258.200000047684,10598.300000071526,14296.5,15659.900000095367,18251.300000071526,19517.300000071526,20724.300000071526,25229.900000095367,36396.90000009537]","[]","[6865.800000071526,9258.200000047684,10598.300000071526,14296.5,15659.900000095367,18251.300000071526,19517.300000071526,20724.300000071526,25229.900000095367,36396.90000009537,39119.200000047684]","0.4","1","0","","","","","","","","","","","","","","","","","","","","","","",""
"24575.100000023842","","{""Q01"":""5"",""Q02"":""3"",""Q03"":""5"",""Q04"":""5"",""Q05"":""5"",""Q06"":""5""}","survey-template","6","149057","0.0-5.0","5","4","5","4","3","5","3","5","5","5","5","2","0","1","2","2","1","1","2","5","5","5","5","5","4","4","5","5","5","6","7","8","9","8","7","8","7","9","5","7","4","7","6","6","6","1","7","7","1","6","6","7","7","7","5","6","7","5","6","1","6","3","7","5","7","7","6","1","7","7","7","7","7","1","7","7","7","6","7","656853379439394816","张","452","Male","[""坏他"",""坏我"",""好我"",""好他""]","[""弱他"",""弱我"",""强我"",""强他""]","","","","","","","","{""Q01"":""5"",""Q02"":""3"",""Q03"":""5"",""Q04"":""5"",""Q05"":""5"",""Q06"":""5""}","[0,1,2,3,4,5]","[""Q01"",""Q03"",""Q04"",""Q05"",""Q06"",""Q02""]","[4101.700000047684,10619.700000047684,13565.700000047684,14724.399999976158,17936.100000023842,23134.100000023842]","[]","[4101.700000047684,10619.700000047684,13565.700000047684,14724.399999976158,17936.100000023842,22056.100000023842,23134.100000023842,24572.600000023842]","0.5","0.4","0","","","","","","","","","","","","","","","","","","","","","","",""
"27612.5","","{""Q01"":""2"",""Q02"":""0"",""Q03"":""1"",""Q04"":""2"",""Q05"":""2"",""Q06"":""1"",""Q07"":""1"",""Q08"":""2""}","survey-template","7","176674","0.0-6.0","5","4","5","4","3","5","3","5","5","5","5","2","0","1","2","2","1","1","2","5","5","5","5","5","4","4","5","5","5","6","7","8","9","8","7","8","7","9","5","7","4","7","6","6","6","1","7","7","1","6","6","7","7","7","5","6","7","5","6","1","6","3","7","5","7","7","6","1","7","7","7","7","7","1","7","7","7","6","7","656853379439394816","张","452","Male","[""坏他"",""坏我"",""好我"",""好他""]","[""弱他"",""弱我"",""强我"",""强他""]","","","","","","","","{""Q01"":""2"",""Q02"":""0"",""Q03"":""1"",""Q04"":""2"",""Q05"":""2"",""Q06"":""1"",""Q07"":""1"",""Q08"":""2""}","[0,1,2,3,4,5,6,7]","[""Q01"",""Q02"",""Q04"",""Q02"",""Q03"",""Q05"",""Q06"",""Q07"",""Q08""]","[5663.899999976158,7322.600000023842,10960.600000023842,14144.5,16346.5,19989.399999976158,21376.899999976158,25369.600000023842,26633.600000023842]","[]","[5663.899999976158,7322.600000023842,9360.399999976158,10960.600000023842,14144.5,16346.5,19989.399999976158,21376.899999976158,25369.600000023842,26633.600000023842,27609.200000047684]","0.5","0.5714285714285714","0","","","","","","","","","","","","","","","","","","","","","","",""
"103637","
    <p><div style='color:white;font-size:35px; line-height:20px;'>词汇评估任务</div></p><br>
    <p><div style='color:white;font-size:25px; line-height:20px;'>请再次回忆该亲密的朋友，你们至少2年前就认识了，并且最近2年经常见面。</div></p>
    <p><div style='color:white;font-size:25px; line-height:20px;'>在本实验中，您将会看到一些形容词。</div></p>
    <p><div style='color:yellow;font-size:25px; line-height:20px;'>您的任务是判断这些形容词是否符合对您自己或您的朋友的描述。</div></p><p style='font-size:35px'>符合按<span style=""color:lightgreen""> f 键</span>，不符合按<span style=""color:red""> j 键</span></p>","0","html-button-response","8","280315","0.0-7.0-0.0","5","4","5","4","3","5","3","5","5","5","5","2","0","1","2","2","1","1","2","5","5","5","5","5","4","4","5","5","5","6","7","8","9","8","7","8","7","9","5","7","4","7","6","6","6","1","7","7","1","6","6","7","7","7","5","6","7","5","6","1","6","3","7","5","7","7","6","1","7","7","7","7","7","1","7","7","7","6","7","656853379439394816","张","452","Male","[""坏他"",""坏我"",""好我"",""好他""]","[""弱他"",""弱我"",""强我"",""强他""]","","","","","","","","","","","","","","","","","SRET_EW","EW_instructions","Sat Jan 20 2024 00:21:48 GMT+0800 (中国标准时间)","","","","","","","","","","","","","","","","","","","",""
"819","","f","psychophysics","9","282141","0.0-7.0-1.0-0.0","5","4","5","4","3","5","3","5","5","5","5","2","0","1","2","2","1","1","2","5","5","5","5","5","4","4","5","5","5","6","7","8","9","8","7","8","7","9","5","7","4","7","6","6","6","1","7","7","1","6","6","7","7","7","5","6","7","5","6","1","6","3","7","5","7","7","6","1","7","7","7","7","7","1","7","7","7","6","7","656853379439394816","张","452","Male","[""坏他"",""坏我"",""好我"",""好他""]","[""弱他"",""弱我"",""强我"",""强他""]","","","","","","","","yes","","","","","","","","","SRET_EW","EW_practice","","key","f","16.65321100917442","640","356","朋友","忠实","Positive","morality","","","","","","","","","","",""
"822","","j","psychophysics","10","283964","0.0-7.0-1.0-0.1","5","4","5","4","3","5","3","5","5","5","5","2","0","1","2","2","1","1","2","5","5","5","5","5","4","4","5","5","5","6","7","8","9","8","7","8","7","9","5","7","4","7","6","6","6","1","7","7","1","6","6","7","7","7","5","6","7","5","6","1","6","3","7","5","7","7","6","1","7","7","7","7","7","1","7","7","7","6","7","656853379439394816","张","452","Male","[""坏他"",""坏我"",""好我"",""好他""]","[""弱他"",""弱我"",""强我"",""强他""]","","","","","","","","no","","","","","","","","","SRET_EW","EW_practice","","key","j","16.654128440366865","640","356","朋友","徇私","Negative","morality","","","","","","","","","","",""
"697","","j","psychophysics","11","285663","0.0-7.0-1.0-0.2","5","4","5","4","3","5","3","5","5","5","5","2","0","1","2","2","1","1","2","5","5","5","5","5","4","4","5","5","5","6","7","8","9","8","7","8","7","9","5","7","4","7","6","6","6","1","7","7","1","6","6","7","7","7","5","6","7","5","6","1","6","3","7","5","7","7","6","1","7","7","7","7","7","1","7","7","7","6","7","656853379439394816","张","452","Male","[""坏他"",""坏我"",""好我"",""好他""]","[""弱他"",""弱我"",""强我"",""强他""]","","","","","","","","no","","","","","","","","","SRET_EW","EW_practice","","key","j","16.65544554455457","640","356","自己","刻板","Negative","ability","","","","","","","","","","",""
"1009","","f","psychophysics","12","287678","0.0-7.0-1.0-0.3","5","4","5","4","3","5","3","5","5","5","5","2","0","1","2","2","1","1","2","5","5","5","5","5","4","4","5","5","5","6","7","8","9","8","7","8","7","9","5","7","4","7","6","6","6","1","7","7","1","6","6","7","7","7","5","6","7","5","6","1","6","3","7","5","7","7","6","1","7","7","7","7","7","1","7","7","7","6","7","656853379439394816","张","452","Male","[""坏他"",""坏我"",""好我"",""好他""]","[""弱他"",""弱我"",""强我"",""强他""]","","","","","","","","yes","","","","","","","","","SRET_EW","EW_practice","","key","f","16.654166666666665","640","356","自己","严谨","Positive","ability","","","","","","","","","","",""
"9021","
    <p><div style='color:white;font-size:35px; line-height:20px;'>请您再次阅读实验要求</div></p><br>
    <p><div style='color:white;font-size:25px; line-height:20px;'>请回忆某一个亲密的朋友，你们至少2年前就认识了，并且最近2年经常见面。</div></p>
    <p><div style='color:white;font-size:25px; line-height:20px;'>在本实验中，您将会看到一些形容词。</div></p>
    <p><div style='color:yellow;font-size:25px; line-height:20px;'>您的任务是判断这些形容词是否符合对您自己或您的朋友的描述。</div></p>
    <p><div class='footer' style='font-size:25px; line-height:20px;'>如果对本实验还有不清楚之处，请立即向实验员咨询。</p><p style='font-size:25px; line-height:20px;'>如果您明白了规则：</p><p style='font-size:22px; line-height:20px;'>请按 继续 进入正式实验</p>
    </div>
    <p style='font-size:35px'>符合按<span style=""color:lightgreen""> f 键</span>，不符合按<span style=""color:red""> j 键</span></p>","0","html-button-response","13","296700","0.0-7.0-2.0","5","4","5","4","3","5","3","5","5","5","5","2","0","1","2","2","1","1","2","5","5","5","5","5","4","4","5","5","5","6","7","8","9","8","7","8","7","9","5","7","4","7","6","6","6","1","7","7","1","6","6","7","7","7","5","6","7","5","6","1","6","3","7","5","7","7","6","1","7","7","7","7","7","1","7","7","7","6","7","656853379439394816","张","452","Male","[""坏他"",""坏我"",""好我"",""好他""]","[""弱他"",""弱我"",""强我"",""强他""]","","","","","","","","","","","","","","","","","SRET_EW","prac_instructions","Sat Jan 20 2024 00:21:48 GMT+0800 (中国标准时间)","","","","","","","","","","","","","","","","","","","",""
"511","","f","psychophysics","14","298214","0.0-7.0-3.0-0.0","5","4","5","4","3","5","3","5","5","5","5","2","0","1","2","2","1","1","2","5","5","5","5","5","4","4","5","5","5","6","7","8","9","8","7","8","7","9","5","7","4","7","6","6","6","1","7","7","1","6","6","7","7","7","5","6","7","5","6","1","6","3","7","5","7","7","6","1","7","7","7","7","7","1","7","7","7","6","7","656853379439394816","张","452","Male","[""坏他"",""坏我"",""好我"",""好他""]","[""弱他"",""弱我"",""强我"",""强他""]","","","","","","","","yes","","","","","","","","","SRET","EW_formal","","key","f","16.649450549450293","640","356","自己","坚贞","Positive","morality","","","","","","","","","","",""
"949","","f","psychophysics","15","300165","0.0-7.0-3.0-0.1","5","4","5","4","3","5","3","5","5","5","5","2","0","1","2","2","1","1","2","5","5","5","5","5","4","4","5","5","5","6","7","8","9","8","7","8","7","9","5","7","4","7","6","6","6","1","7","7","1","6","6","7","7","7","5","6","7","5","6","1","6","3","7","5","7","7","6","1","7","7","7","7","7","1","7","7","7","6","7","656853379439394816","张","452","Male","[""坏他"",""坏我"",""好我"",""好他""]","[""弱他"",""弱我"",""强我"",""强他""]","","","","","","","","yes","","","","","","","","","SRET","EW_formal","","key","f","16.65431034482779","640","356","朋友","务实","Positive","ability","","","","","","","","","","",""
"571","","j","psychophysics","16","301738","0.0-7.0-3.0-0.2","5","4","5","4","3","5","3","5","5","5","5","2","0","1","2","2","1","1","2","5","5","5","5","5","4","4","5","5","5","6","7","8","9","8","7","8","7","9","5","7","4","7","6","6","6","1","7","7","1","6","6","7","7","7","5","6","7","5","6","1","6","3","7","5","7","7","6","1","7","7","7","7","7","1","7","7","7","6","7","656853379439394816","张","452","Male","[""坏他"",""坏我"",""好我"",""好他""]","[""弱他"",""弱我"",""强我"",""强他""]","","","","","","","","no","","","","","","","","","SRET","EW_formal","","key","j","16.65806451612916","640","356","自己","说谎","Negative","morality","","","","","","","","","","",""
"702","","j","psychophysics","17","303443","0.0-7.0-3.0-0.3","5","4","5","4","3","5","3","5","5","5","5","2","0","1","2","2","1","1","2","5","5","5","5","5","4","4","5","5","5","6","7","8","9","8","7","8","7","9","5","7","4","7","6","6","6","1","7","7","1","6","6","7","7","7","5","6","7","5","6","1","6","3","7","5","7","7","6","1","7","7","7","7","7","1","7","7","7","6","7","656853379439394816","张","452","Male","[""坏他"",""坏我"",""好我"",""好他""]","[""弱他"",""弱我"",""强我"",""强他""]","","","","","","","","no","","","","","","","","","SRET","EW_formal","","key","j","16.655882352940836","640","356","朋友","迷糊","Negative","ability","","","","","","","","","","",""
"817","","j","psychophysics","18","305261","0.0-7.0-3.0-0.4","5","4","5","4","3","5","3","5","5","5","5","2","0","1","2","2","1","1","2","5","5","5","5","5","4","4","5","5","5","6","7","8","9","8","7","8","7","9","5","7","4","7","6","6","6","1","7","7","1","6","6","7","7","7","5","6","7","5","6","1","6","3","7","5","7","7","6","1","7","7","7","7","7","1","7","7","7","6","7","656853379439394816","张","452","Male","[""坏他"",""坏我"",""好我"",""好他""]","[""弱他"",""弱我"",""强我"",""强他""]","","","","","","","","no","","","","","","","","","SRET","EW_formal","","key","j","16.65277777777778","640","356","朋友","无耻","Negative","morality","","","","","","","","","","",""
"553","","j","psychophysics","19","306816","0.0-7.0-3.0-0.5","5","4","5","4","3","5","3","5","5","5","5","2","0","1","2","2","1","1","2","5","5","5","5","5","4","4","5","5","5","6","7","8","9","8","7","8","7","9","5","7","4","7","6","6","6","1","7","7","1","6","6","7","7","7","5","6","7","5","6","1","6","3","7","5","7","7","6","1","7","7","7","7","7","1","7","7","7","6","7","656853379439394816","张","452","Male","[""坏他"",""坏我"",""好我"",""好他""]","[""弱他"",""弱我"",""强我"",""强他""]","","","","","","","","no","","","","","","","","","SRET","EW_formal","","key","j","16.65652173913069","640","356","朋友","腐败","Negative","morality","","","","","","","","","","",""
"810","","j","psychophysics","20","308628","0.0-7.0-3.0-0.6","5","4","5","4","3","5","3","5","5","5","5","2","0","1","2","2","1","1","2","5","5","5","5","5","4","4","5","5","5","6","7","8","9","8","7","8","7","9","5","7","4","7","6","6","6","1","7","7","1","6","6","7","7","7","5","6","7","5","6","1","6","3","7","5","7","7","6","1","7","7","7","7","7","1","7","7","7","6","7","656853379439394816","张","452","Male","[""坏他"",""坏我"",""好我"",""好他""]","[""弱他"",""弱我"",""强我"",""强他""]","","","","","","","","no","","","","","","","","","SRET","EW_formal","","key","j","16.65185185185207","640","356","自己","短视","Negative","ability","","","","","","","","","","",""
"504","","j","psychophysics","21","310135","0.0-7.0-3.0-0.7","5","4","5","4","3","5","3","5","5","5","5","2","0","1","2","2","1","1","2","5","5","5","5","5","4","4","5","5","5","6","7","8","9","8","7","8","7","9","5","7","4","7","6","6","6","1","7","7","1","6","6","7","7","7","5","6","7","5","6","1","6","3","7","5","7","7","6","1","7","7","7","7","7","1","7","7","7","6","7","656853379439394816","张","452","Male","[""坏他"",""坏我"",""好我"",""好他""]","[""弱他"",""弱我"",""强我"",""强他""]","","","","","","","","no","","","","","","","","","SRET","EW_formal","","key","j","16.654444444444703","640","356","自己","阴毒","Negative","morality","","","","","","","","","","",""
"714","","j","psychophysics","22","311852","0.0-7.0-3.0-0.8","5","4","5","4","3","5","3","5","5","5","5","2","0","1","2","2","1","1","2","5","5","5","5","5","4","4","5","5","5","6","7","8","9","8","7","8","7","9","5","7","4","7","6","6","6","1","7","7","1","6","6","7","7","7","5","6","7","5","6","1","6","3","7","5","7","7","6","1","7","7","7","7","7","1","7","7","7","6","7","656853379439394816","张","452","Male","[""坏他"",""坏我"",""好我"",""好他""]","[""弱他"",""弱我"",""强我"",""强他""]","","","","","","","","no","","","","","","","","","SRET","EW_formal","","key","j","16.651960784313726","640","356","朋友","庸碌","Negative","ability","","","","","","","","","","",""
"687","","f","psychophysics","23","313540","0.0-7.0-3.0-0.9","5","4","5","4","3","5","3","5","5","5","5","2","0","1","2","2","1","1","2","5","5","5","5","5","4","4","5","5","5","6","7","8","9","8","7","8","7","9","5","7","4","7","6","6","6","1","7","7","1","6","6","7","7","7","5","6","7","5","6","1","6","3","7","5","7","7","6","1","7","7","7","7","7","1","7","7","7","6","7","656853379439394816","张","452","Male","[""坏他"",""坏我"",""好我"",""好他""]","[""弱他"",""弱我"",""强我"",""强他""]","","","","","","","","yes","","","","","","","","","SRET","EW_formal","","key","f","16.654000000000234","640","356","自己","廉明","Positive","morality","","","","","","","","","","",""
"985","","f","psychophysics","24","315527","0.0-7.0-3.0-0.10","5","4","5","4","3","5","3","5","5","5","5","2","0","1","2","2","1","1","2","5","5","5","5","5","4","4","5","5","5","6","7","8","9","8","7","8","7","9","5","7","4","7","6","6","6","1","7","7","1","6","6","7","7","7","5","6","7","5","6","1","6","3","7","5","7","7","6","1","7","7","7","7","7","1","7","7","7","6","7","656853379439394816","张","452","Male","[""坏他"",""坏我"",""好我"",""好他""]","[""弱他"",""弱我"",""强我"",""强他""]","","","","","","","","yes","","","","","","","","","SRET","EW_formal","","key","f","16.655084745762615","640","356","朋友","淡泊","Positive","morality","","","","","","","","","","",""
"669","","j","psychophysics","25","317198","0.0-7.0-3.0-0.11","5","4","5","4","3","5","3","5","5","5","5","2","0","1","2","2","1","1","2","5","5","5","5","5","4","4","5","5","5","6","7","8","9","8","7","8","7","9","5","7","4","7","6","6","6","1","7","7","1","6","6","7","7","7","5","6","7","5","6","1","6","3","7","5","7","7","6","1","7","7","7","7","7","1","7","7","7","6","7","656853379439394816","张","452","Male","[""坏他"",""坏我"",""好我"",""好他""]","[""弱他"",""弱我"",""强我"",""强他""]","","","","","","","","no","","","","","","","","","SRET","EW_formal","","key","j","16.655999999999768","640","356","朋友","马虎","Negative","ability","","","","","","","","","","",""
"813","","f","psychophysics","26","319013","0.0-7.0-3.0-0.12","5","4","5","4","3","5","3","5","5","5","5","2","0","1","2","2","1","1","2","5","5","5","5","5","4","4","5","5","5","6","7","8","9","8","7","8","7","9","5","7","4","7","6","6","6","1","7","7","1","6","6","7","7","7","5","6","7","5","6","1","6","3","7","5","7","7","6","1","7","7","7","7","7","1","7","7","7","6","7","656853379439394816","张","452","Male","[""坏他"",""坏我"",""好我"",""好他""]","[""弱他"",""弱我"",""强我"",""强他""]","","","","","","","","yes","","","","","","","","","SRET","EW_formal","","key","f","16.65277777777778","640","356","朋友","顶事","Positive","ability","","","","","","","","","","",""
"979","","j","psychophysics","27","320994","0.0-7.0-3.0-0.13","5","4","5","4","3","5","3","5","5","5","5","2","0","1","2","2","1","1","2","5","5","5","5","5","4","4","5","5","5","6","7","8","9","8","7","8","7","9","5","7","4","7","6","6","6","1","7","7","1","6","6","7","7","7","5","6","7","5","6","1","6","3","7","5","7","7","6","1","7","7","7","7","7","1","7","7","7","6","7","656853379439394816","张","452","Male","[""坏他"",""坏我"",""好我"",""好他""]","[""弱他"",""弱我"",""强我"",""强他""]","","","","","","","","no","","","","","","","","","SRET","EW_formal","","key","j","16.649999999999604","640","356","自己","利己","Negative","morality","","","","","","","","","","",""
"539","","f","psychophysics","28","322535","0.0-7.0-3.0-0.14","5","4","5","4","3","5","3","5","5","5","5","2","0","1","2","2","1","1","2","5","5","5","5","5","4","4","5","5","5","6","7","8","9","8","7","8","7","9","5","7","4","7","6","6","6","1","7","7","1","6","6","7","7","7","5","6","7","5","6","1","6","3","7","5","7","7","6","1","7","7","7","7","7","1","7","7","7","6","7","656853379439394816","张","452","Male","[""坏他"",""坏我"",""好我"",""好他""]","[""弱他"",""弱我"",""强我"",""强他""]","","","","","","","","yes","","","","","","","","","SRET","EW_formal","","key","f","16.656043956044083","640","356","朋友","聪明","Positive","ability","","","","","","","","","","",""
"511","","j","psychophysics","29","324046","0.0-7.0-3.0-0.15","5","4","5","4","3","5","3","5","5","5","5","2","0","1","2","2","1","1","2","5","5","5","5","5","4","4","5","5","5","6","7","8","9","8","7","8","7","9","5","7","4","7","6","6","6","1","7","7","1","6","6","7","7","7","5","6","7","5","6","1","6","3","7","5","7","7","6","1","7","7","7","7","7","1","7","7","7","6","7","656853379439394816","张","452","Male","[""坏他"",""坏我"",""好我"",""好他""]","[""弱他"",""弱我"",""强我"",""强他""]","","","","","","","","no","","","","","","","","","SRET","EW_formal","","key","j","16.655555555555555","640","356","自己","贪腐","Negative","morality","","","","","","","","","","",""
"821","","j","psychophysics","30","325868","0.0-7.0-3.0-0.16","5","4","5","4","3","5","3","5","5","5","5","2","0","1","2","2","1","1","2","5","5","5","5","5","4","4","5","5","5","6","7","8","9","8","7","8","7","9","5","7","4","7","6","6","6","1","7","7","1","6","6","7","7","7","5","6","7","5","6","1","6","3","7","5","7","7","6","1","7","7","7","7","7","1","7","7","7","6","7","656853379439394816","张","452","Male","[""坏他"",""坏我"",""好我"",""好他""]","[""弱他"",""弱我"",""强我"",""强他""]","","","","","","","","no","","","","","","","","","SRET","EW_formal","","key","j","16.65462962962974","640","356","自己","业余","Negative","ability","","","","","","","","","","",""
"498","","j","psychophysics","31","327369","0.0-7.0-3.0-0.17","5","4","5","4","3","5","3","5","5","5","5","2","0","1","2","2","1","1","2","5","5","5","5","5","4","4","5","5","5","6","7","8","9","8","7","8","7","9","5","7","4","7","6","6","6","1","7","7","1","6","6","7","7","7","5","6","7","5","6","1","6","3","7","5","7","7","6","1","7","7","7","7","7","1","7","7","7","6","7","656853379439394816","张","452","Male","[""坏他"",""坏我"",""好我"",""好他""]","[""弱他"",""弱我"",""强我"",""强他""]","","","","","","","","no","","","","","","","","","SRET","EW_formal","","key","j","16.65505617977515","640","356","朋友","邪恶","Negative","morality","","","","","","","","","","",""
"610","","f","psychophysics","32","328981","0.0-7.0-3.0-0.18","5","4","5","4","3","5","3","5","5","5","5","2","0","1","2","2","1","1","2","5","5","5","5","5","4","4","5","5","5","6","7","8","9","8","7","8","7","9","5","7","4","7","6","6","6","1","7","7","1","6","6","7","7","7","5","6","7","5","6","1","6","3","7","5","7","7","6","1","7","7","7","7","7","1","7","7","7","6","7","656853379439394816","张","452","Male","[""坏他"",""坏我"",""好我"",""好他""]","[""弱他"",""弱我"",""强我"",""强他""]","","","","","","","","yes","","","","","","","","","SRET","EW_formal","","key","f","16.654166666666544","640","356","自己","正气","Positive","morality","","","","","","","","","","",""
"771","","j","psychophysics","33","330755","0.0-7.0-3.0-0.19","5","4","5","4","3","5","3","5","5","5","5","2","0","1","2","2","1","1","2","5","5","5","5","5","4","4","5","5","5","6","7","8","9","8","7","8","7","9","5","7","4","7","6","6","6","1","7","7","1","6","6","7","7","7","5","6","7","5","6","1","6","3","7","5","7","7","6","1","7","7","7","7","7","1","7","7","7","6","7","656853379439394816","张","452","Male","[""坏他"",""坏我"",""好我"",""好他""]","[""弱他"",""弱我"",""强我"",""强他""]","","","","","","","","no","","","","","","","","","SRET","EW_formal","","key","j","16.652830188679356","640","356","自己","弱智","Negative","ability","","","","","","","","","","",""
"846","","f","psychophysics","34","332602","0.0-7.0-3.0-0.20","5","4","5","4","3","5","3","5","5","5","5","2","0","1","2","2","1","1","2","5","5","5","5","5","4","4","5","5","5","6","7","8","9","8","7","8","7","9","5","7","4","7","6","6","6","1","7","7","1","6","6","7","7","7","5","6","7","5","6","1","6","3","7","5","7","7","6","1","7","7","7","7","7","1","7","7","7","6","7","656853379439394816","张","452","Male","[""坏他"",""坏我"",""好我"",""好他""]","[""弱他"",""弱我"",""强我"",""强他""]","","","","","","","","yes","","","","","","","","","SRET","EW_formal","","key","f","16.655454545454333","640","356","自己","中用","Positive","ability","","","","","","","","","","",""
"532","","f","psychophysics","35","334137","0.0-7.0-3.0-0.21","5","4","5","4","3","5","3","5","5","5","5","2","0","1","2","2","1","1","2","5","5","5","5","5","4","4","5","5","5","6","7","8","9","8","7","8","7","9","5","7","4","7","6","6","6","1","7","7","1","6","6","7","7","7","5","6","7","5","6","1","6","3","7","5","7","7","6","1","7","7","7","7","7","1","7","7","7","6","7","656853379439394816","张","452","Male","[""坏他"",""坏我"",""好我"",""好他""]","[""弱他"",""弱我"",""强我"",""强他""]","","","","","","","","yes","","","","","","","","","SRET","EW_formal","","key","f","16.656043956044083","640","356","朋友","能干","Positive","ability","","","","","","","","","","",""
"528","","f","psychophysics","36","335667","0.0-7.0-3.0-0.22","5","4","5","4","3","5","3","5","5","5","5","2","0","1","2","2","1","1","2","5","5","5","5","5","4","4","5","5","5","6","7","8","9","8","7","8","7","9","5","7","4","7","6","6","6","1","7","7","1","6","6","7","7","7","5","6","7","5","6","1","6","3","7","5","7","7","6","1","7","7","7","7","7","1","7","7","7","6","7","656853379439394816","张","452","Male","[""坏他"",""坏我"",""好我"",""好他""]","[""弱他"",""弱我"",""强我"",""强他""]","","","","","","","","yes","","","","","","","","","SRET","EW_formal","","key","f","16.65714285714273","640","356","自己","勤奋","Positive","ability","","","","","","","","","","",""
"548","","f","psychophysics","37","337217","0.0-7.0-3.0-0.23","5","4","5","4","3","5","3","5","5","5","5","2","0","1","2","2","1","1","2","5","5","5","5","5","4","4","5","5","5","6","7","8","9","8","7","8","7","9","5","7","4","7","6","6","6","1","7","7","1","6","6","7","7","7","5","6","7","5","6","1","6","3","7","5","7","7","6","1","7","7","7","7","7","1","7","7","7","6","7","656853379439394816","张","452","Male","[""坏他"",""坏我"",""好我"",""好他""]","[""弱他"",""弱我"",""强我"",""强他""]","","","","","","","","yes","","","","","","","","","SRET","EW_formal","","key","f","16.654347826087083","640","356","自己","精干","Positive","ability","","","","","","","","","","",""
"582","","f","psychophysics","38","338801","0.0-7.0-3.0-0.24","5","4","5","4","3","5","3","5","5","5","5","2","0","1","2","2","1","1","2","5","5","5","5","5","4","4","5","5","5","6","7","8","9","8","7","8","7","9","5","7","4","7","6","6","6","1","7","7","1","6","6","7","7","7","5","6","7","5","6","1","6","3","7","5","7","7","6","1","7","7","7","7","7","1","7","7","7","6","7","656853379439394816","张","452","Male","[""坏他"",""坏我"",""好我"",""好他""]","[""弱他"",""弱我"",""强我"",""强他""]","","","","","","","","yes","","","","","","","","","SRET","EW_formal","","key","f","16.656382978723528","640","356","朋友","依靠","Negative","ability","","","","","","","","","","",""
"562","","j","psychophysics","39","340366","0.0-7.0-3.0-0.25","5","4","5","4","3","5","3","5","5","5","5","2","0","1","2","2","1","1","2","5","5","5","5","5","4","4","5","5","5","6","7","8","9","8","7","8","7","9","5","7","4","7","6","6","6","1","7","7","1","6","6","7","7","7","5","6","7","5","6","1","6","3","7","5","7","7","6","1","7","7","7","7","7","1","7","7","7","6","7","656853379439394816","张","452","Male","[""坏他"",""坏我"",""好我"",""好他""]","[""弱他"",""弱我"",""强我"",""强他""]","","","","","","","","no","","","","","","","","","SRET","EW_formal","","key","j","16.65376344086009","640","356","自己","狡狯","Negative","morality","","","","","","","","","","",""
"528","","j","psychophysics","40","341895","0.0-7.0-3.0-0.26","5","4","5","4","3","5","3","5","5","5","5","2","0","1","2","2","1","1","2","5","5","5","5","5","4","4","5","5","5","6","7","8","9","8","7","8","7","9","5","7","4","7","6","6","6","1","7","7","1","6","6","7","7","7","5","6","7","5","6","1","6","3","7","5","7","7","6","1","7","7","7","7","7","1","7","7","7","6","7","656853379439394816","张","452","Male","[""坏他"",""坏我"",""好我"",""好他""]","[""弱他"",""弱我"",""强我"",""强他""]","","","","","","","","no","","","","","","","","","SRET","EW_formal","","key","j","16.653846153846153","640","356","朋友","不良","Negative","morality","","","","","","","","","","",""
"607","","j","psychophysics","41","343504","0.0-7.0-3.0-0.27","5","4","5","4","3","5","3","5","5","5","5","2","0","1","2","2","1","1","2","5","5","5","5","5","4","4","5","5","5","6","7","8","9","8","7","8","7","9","5","7","4","7","6","6","6","1","7","7","1","6","6","7","7","7","5","6","7","5","6","1","6","3","7","5","7","7","6","1","7","7","7","7","7","1","7","7","7","6","7","656853379439394816","张","452","Male","[""坏他"",""坏我"",""好我"",""好他""]","[""弱他"",""弱我"",""强我"",""强他""]","","","","","","","","no","","","","","","","","","SRET","EW_formal","","key","j","16.65368421052607","640","356","自己","怠惰","Negative","ability","","","","","","","","","","",""
"1179","","j","psychophysics","42","345685","0.0-7.0-3.0-0.28","5","4","5","4","3","5","3","5","5","5","5","2","0","1","2","2","1","1","2","5","5","5","5","5","4","4","5","5","5","6","7","8","9","8","7","8","7","9","5","7","4","7","6","6","6","1","7","7","1","6","6","7","7","7","5","6","7","5","6","1","6","3","7","5","7","7","6","1","7","7","7","7","7","1","7","7","7","6","7","656853379439394816","张","452","Male","[""坏他"",""坏我"",""好我"",""好他""]","[""弱他"",""弱我"",""强我"",""强他""]","","","","","","","","no","","","","","","","","","SRET","EW_formal","","key","j","16.652307692307602","640","356","朋友","独断","Negative","ability","","","","","","","","","","",""
"589","","f","psychophysics","43","347276","0.0-7.0-3.0-0.29","5","4","5","4","3","5","3","5","5","5","5","2","0","1","2","2","1","1","2","5","5","5","5","5","4","4","5","5","5","6","7","8","9","8","7","8","7","9","5","7","4","7","6","6","6","1","7","7","1","6","6","7","7","7","5","6","7","5","6","1","6","3","7","5","7","7","6","1","7","7","7","7","7","1","7","7","7","6","7","656853379439394816","张","452","Male","[""坏他"",""坏我"",""好我"",""好他""]","[""弱他"",""弱我"",""强我"",""强他""]","","","","","","","","yes","","","","","","","","","SRET","EW_formal","","key","f","16.655789473684088","640","356","朋友","诚信","Positive","morality","","","","","","","","","","",""
"563","","f","psychophysics","44","348840","0.0-7.0-3.0-0.30","5","4","5","4","3","5","3","5","5","5","5","2","0","1","2","2","1","1","2","5","5","5","5","5","4","4","5","5","5","6","7","8","9","8","7","8","7","9","5","7","4","7","6","6","6","1","7","7","1","6","6","7","7","7","5","6","7","5","6","1","6","3","7","5","7","7","6","1","7","7","7","7","7","1","7","7","7","6","7","656853379439394816","张","452","Male","[""坏他"",""坏我"",""好我"",""好他""]","[""弱他"",""弱我"",""强我"",""强他""]","","","","","","","","yes","","","","","","","","","SRET","EW_formal","","key","f","16.652688172043135","640","356","朋友","爱国","Positive","morality","","","","","","","","","","",""
"531","","f","psychophysics","45","350372","0.0-7.0-3.0-0.31","5","4","5","4","3","5","3","5","5","5","5","2","0","1","2","2","1","1","2","5","5","5","5","5","4","4","5","5","5","6","7","8","9","8","7","8","7","9","5","7","4","7","6","6","6","1","7","7","1","6","6","7","7","7","5","6","7","5","6","1","6","3","7","5","7","7","6","1","7","7","7","7","7","1","7","7","7","6","7","656853379439394816","张","452","Male","[""坏他"",""坏我"",""好我"",""好他""]","[""弱他"",""弱我"",""强我"",""强他""]","","","","","","","","yes","","","","","","","","","SRET","EW_formal","","key","f","16.6549450549448","640","356","自己","仁厚","Positive","morality","","","","","","","","","","",""
"537","","j","psychophysics","46","351910","0.0-7.0-3.0-0.32","5","4","5","4","3","5","3","5","5","5","5","2","0","1","2","2","1","1","2","5","5","5","5","5","4","4","5","5","5","6","7","8","9","8","7","8","7","9","5","7","4","7","6","6","6","1","7","7","1","6","6","7","7","7","5","6","7","5","6","1","6","3","7","5","7","7","6","1","7","7","7","7","7","1","7","7","7","6","7","656853379439394816","张","452","Male","[""坏他"",""坏我"",""好我"",""好他""]","[""弱他"",""弱我"",""强我"",""强他""]","","","","","","","","no","","","","","","","","","SRET","EW_formal","","key","j","16.65494505494544","640","356","朋友","混账","Negative","morality","","","","","","","","","","",""
"550","","f","psychophysics","47","353461","0.0-7.0-3.0-0.33","5","4","5","4","3","5","3","5","5","5","5","2","0","1","2","2","1","1","2","5","5","5","5","5","4","4","5","5","5","6","7","8","9","8","7","8","7","9","5","7","4","7","6","6","6","1","7","7","1","6","6","7","7","7","5","6","7","5","6","1","6","3","7","5","7","7","6","1","7","7","7","7","7","1","7","7","7","6","7","656853379439394816","张","452","Male","[""坏他"",""坏我"",""好我"",""好他""]","[""弱他"",""弱我"",""强我"",""强他""]","","","","","","","","yes","","","","","","","","","SRET","EW_formal","","key","f","16.654347826087083","640","356","自己","有力","Positive","ability","","","","","","","","","","",""
"475","","f","psychophysics","48","354940","0.0-7.0-3.0-0.34","5","4","5","4","3","5","3","5","5","5","5","2","0","1","2","2","1","1","2","5","5","5","5","5","4","4","5","5","5","6","7","8","9","8","7","8","7","9","5","7","4","7","6","6","6","1","7","7","1","6","6","7","7","7","5","6","7","5","6","1","6","3","7","5","7","7","6","1","7","7","7","7","7","1","7","7","7","6","7","656853379439394816","张","452","Male","[""坏他"",""坏我"",""好我"",""好他""]","[""弱他"",""弱我"",""强我"",""强他""]","","","","","","","","yes","","","","","","","","","SRET","EW_formal","","key","f","16.65568181818129","640","356","自己","善心","Positive","morality","","","","","","","","","","",""
"656","","j","psychophysics","49","356597","0.0-7.0-3.0-0.35","5","4","5","4","3","5","3","5","5","5","5","2","0","1","2","2","1","1","2","5","5","5","5","5","4","4","5","5","5","6","7","8","9","8","7","8","7","9","5","7","4","7","6","6","6","1","7","7","1","6","6","7","7","7","5","6","7","5","6","1","6","3","7","5","7","7","6","1","7","7","7","7","7","1","7","7","7","6","7","656853379439394816","张","452","Male","[""坏他"",""坏我"",""好我"",""好他""]","[""弱他"",""弱我"",""强我"",""强他""]","","","","","","","","no","","","","","","","","","SRET","EW_formal","","key","j","16.65353535353547","640","356","朋友","刻薄","Negative","morality","","","","","","","","","","",""
"612","","f","psychophysics","50","358213","0.0-7.0-3.0-0.36","5","4","5","4","3","5","3","5","5","5","5","2","0","1","2","2","1","1","2","5","5","5","5","5","4","4","5","5","5","6","7","8","9","8","7","8","7","9","5","7","4","7","6","6","6","1","7","7","1","6","6","7","7","7","5","6","7","5","6","1","6","3","7","5","7","7","6","1","7","7","7","7","7","1","7","7","7","6","7","656853379439394816","张","452","Male","[""坏他"",""坏我"",""好我"",""好他""]","[""弱他"",""弱我"",""强我"",""强他""]","","","","","","","","yes","","","","","","","","","SRET","EW_formal","","key","f","16.652083333333696","640","356","朋友","勤恳","Positive","morality","","","","","","","","","","",""
"543","","j","psychophysics","51","359757","0.0-7.0-3.0-0.37","5","4","5","4","3","5","3","5","5","5","5","2","0","1","2","2","1","1","2","5","5","5","5","5","4","4","5","5","5","6","7","8","9","8","7","8","7","9","5","7","4","7","6","6","6","1","7","7","1","6","6","7","7","7","5","6","7","5","6","1","6","3","7","5","7","7","6","1","7","7","7","7","7","1","7","7","7","6","7","656853379439394816","张","452","Male","[""坏他"",""坏我"",""好我"",""好他""]","[""弱他"",""弱我"",""强我"",""强他""]","","","","","","","","no","","","","","","","","","SRET","EW_formal","","key","j","16.651648351648223","640","356","朋友","龌龊","Negative","morality","","","","","","","","","","",""
"619","","j","psychophysics","52","361378","0.0-7.0-3.0-0.38","5","4","5","4","3","5","3","5","5","5","5","2","0","1","2","2","1","1","2","5","5","5","5","5","4","4","5","5","5","6","7","8","9","8","7","8","7","9","5","7","4","7","6","6","6","1","7","7","1","6","6","7","7","7","5","6","7","5","6","1","6","3","7","5","7","7","6","1","7","7","7","7","7","1","7","7","7","6","7","656853379439394816","张","452","Male","[""坏他"",""坏我"",""好我"",""好他""]","[""弱他"",""弱我"",""强我"",""强他""]","","","","","","","","no","","","","","","","","","SRET","EW_formal","","key","j","16.65360824742232","640","356","自己","背叛","Negative","morality","","","","","","","","","","",""
"484","","f","psychophysics","53","362864","0.0-7.0-3.0-0.39","5","4","5","4","3","5","3","5","5","5","5","2","0","1","2","2","1","1","2","5","5","5","5","5","4","4","5","5","5","6","7","8","9","8","7","8","7","9","5","7","4","7","6","6","6","1","7","7","1","6","6","7","7","7","5","6","7","5","6","1","6","3","7","5","7","7","6","1","7","7","7","7","7","1","7","7","7","6","7","656853379439394816","张","452","Male","[""坏他"",""坏我"",""好我"",""好他""]","[""弱他"",""弱我"",""强我"",""强他""]","","","","","","","","yes","","","","","","","","","SRET","EW_formal","","key","f","16.650000000000134","640","356","自己","博识","Positive","ability","","","","","","","","","","",""
"613","","j","psychophysics","54","364478","0.0-7.0-3.0-0.40","5","4","5","4","3","5","3","5","5","5","5","2","0","1","2","2","1","1","2","5","5","5","5","5","4","4","5","5","5","6","7","8","9","8","7","8","7","9","5","7","4","7","6","6","6","1","7","7","1","6","6","7","7","7","5","6","7","5","6","1","6","3","7","5","7","7","6","1","7","7","7","7","7","1","7","7","7","6","7","656853379439394816","张","452","Male","[""坏他"",""坏我"",""好我"",""好他""]","[""弱他"",""弱我"",""强我"",""强他""]","","","","","","","","no","","","","","","","","","SRET","EW_formal","","key","j","16.65312500000012","640","356","自己","诡诈","Negative","morality","","","","","","","","","","",""
"495","","f","psychophysics","55","365978","0.0-7.0-3.0-0.41","5","4","5","4","3","5","3","5","5","5","5","2","0","1","2","2","1","1","2","5","5","5","5","5","4","4","5","5","5","6","7","8","9","8","7","8","7","9","5","7","4","7","6","6","6","1","7","7","1","6","6","7","7","7","5","6","7","5","6","1","6","3","7","5","7","7","6","1","7","7","7","7","7","1","7","7","7","6","7","656853379439394816","张","452","Male","[""坏他"",""坏我"",""好我"",""好他""]","[""弱他"",""弱我"",""强我"",""强他""]","","","","","","","","yes","","","","","","","","","SRET","EW_formal","","key","f","16.65505617977515","640","356","自己","高明","Positive","ability","","","","","","","","","","",""
"513","","f","psychophysics","56","367494","0.0-7.0-3.0-0.42","5","4","5","4","3","5","3","5","5","5","5","2","0","1","2","2","1","1","2","5","5","5","5","5","4","4","5","5","5","6","7","8","9","8","7","8","7","9","5","7","4","7","6","6","6","1","7","7","1","6","6","7","7","7","5","6","7","5","6","1","6","3","7","5","7","7","6","1","7","7","7","7","7","1","7","7","7","6","7","656853379439394816","张","452","Male","[""坏他"",""坏我"",""好我"",""好他""]","[""弱他"",""弱我"",""强我"",""强他""]","","","","","","","","yes","","","","","","","","","SRET","EW_formal","","key","f","16.654444444444703","640","356","朋友","宽容","Positive","morality","","","","","","","","","","",""
"486","","f","psychophysics","57","368981","0.0-7.0-3.0-0.43","5","4","5","4","3","5","3","5","5","5","5","2","0","1","2","2","1","1","2","5","5","5","5","5","4","4","5","5","5","6","7","8","9","8","7","8","7","9","5","7","4","7","6","6","6","1","7","7","1","6","6","7","7","7","5","6","7","5","6","1","6","3","7","5","7","7","6","1","7","7","7","7","7","1","7","7","7","6","7","656853379439394816","张","452","Male","[""坏他"",""坏我"",""好我"",""好他""]","[""弱他"",""弱我"",""强我"",""强他""]","","","","","","","","yes","","","","","","","","","SRET","EW_formal","","key","f","16.65795454545481","640","356","自己","守信","Positive","morality","","","","","","","","","","",""
"462","","j","psychophysics","58","370446","0.0-7.0-3.0-0.44","5","4","5","4","3","5","3","5","5","5","5","2","0","1","2","2","1","1","2","5","5","5","5","5","4","4","5","5","5","6","7","8","9","8","7","8","7","9","5","7","4","7","6","6","6","1","7","7","1","6","6","7","7","7","5","6","7","5","6","1","6","3","7","5","7","7","6","1","7","7","7","7","7","1","7","7","7","6","7","656853379439394816","张","452","Male","[""坏他"",""坏我"",""好我"",""好他""]","[""弱他"",""弱我"",""强我"",""强他""]","","","","","","","","no","","","","","","","","","SRET","EW_formal","","key","j","16.652873563218257","640","356","自己","下流","Negative","morality","","","","","","","","","","",""
"549","","f","psychophysics","59","371998","0.0-7.0-3.0-0.45","5","4","5","4","3","5","3","5","5","5","5","2","0","1","2","2","1","1","2","5","5","5","5","5","4","4","5","5","5","6","7","8","9","8","7","8","7","9","5","7","4","7","6","6","6","1","7","7","1","6","6","7","7","7","5","6","7","5","6","1","6","3","7","5","7","7","6","1","7","7","7","7","7","1","7","7","7","6","7","656853379439394816","张","452","Male","[""坏他"",""坏我"",""好我"",""好他""]","[""弱他"",""弱我"",""强我"",""强他""]","","","","","","","","yes","","","","","","","","","SRET","EW_formal","","key","f","16.653260869565596","640","356","自己","扎实","Positive","ability","","","","","","","","","","",""
"563","","j","psychophysics","60","373562","0.0-7.0-3.0-0.46","5","4","5","4","3","5","3","5","5","5","5","2","0","1","2","2","1","1","2","5","5","5","5","5","4","4","5","5","5","6","7","8","9","8","7","8","7","9","5","7","4","7","6","6","6","1","7","7","1","6","6","7","7","7","5","6","7","5","6","1","6","3","7","5","7","7","6","1","7","7","7","7","7","1","7","7","7","6","7","656853379439394816","张","452","Male","[""坏他"",""坏我"",""好我"",""好他""]","[""弱他"",""弱我"",""强我"",""强他""]","","","","","","","","no","","","","","","","","","SRET","EW_formal","","key","j","16.65483870967767","640","356","朋友","盲目","Negative","ability","","","","","","","","","","",""
"615","","f","psychophysics","61","375178","0.0-7.0-3.0-0.47","5","4","5","4","3","5","3","5","5","5","5","2","0","1","2","2","1","1","2","5","5","5","5","5","4","4","5","5","5","6","7","8","9","8","7","8","7","9","5","7","4","7","6","6","6","1","7","7","1","6","6","7","7","7","5","6","7","5","6","1","6","3","7","5","7","7","6","1","7","7","7","7","7","1","7","7","7","6","7","656853379439394816","张","452","Male","[""坏他"",""坏我"",""好我"",""好他""]","[""弱他"",""弱我"",""强我"",""强他""]","","","","","","","","yes","","","","","","","","","SRET","EW_formal","","key","f","16.65625","640","356","自己","君子","Positive","morality","","","","","","","","","","",""
"711","","j","psychophysics","62","376891","0.0-7.0-3.0-0.48","5","4","5","4","3","5","3","5","5","5","5","2","0","1","2","2","1","1","2","5","5","5","5","5","4","4","5","5","5","6","7","8","9","8","7","8","7","9","5","7","4","7","6","6","6","1","7","7","1","6","6","7","7","7","5","6","7","5","6","1","6","3","7","5","7","7","6","1","7","7","7","7","7","1","7","7","7","6","7","656853379439394816","张","452","Male","[""坏他"",""坏我"",""好我"",""好他""]","[""弱他"",""弱我"",""强我"",""强他""]","","","","","","","","no","","","","","","","","","SRET","EW_formal","","key","j","16.653921568626995","640","356","朋友","犹豫","Negative","ability","","","","","","","","","","",""
"698","","f","psychophysics","63","378592","0.0-7.0-3.0-0.49","5","4","5","4","3","5","3","5","5","5","5","2","0","1","2","2","1","1","2","5","5","5","5","5","4","4","5","5","5","6","7","8","9","8","7","8","7","9","5","7","4","7","6","6","6","1","7","7","1","6","6","7","7","7","5","6","7","5","6","1","6","3","7","5","7","7","6","1","7","7","7","7","7","1","7","7","7","6","7","656853379439394816","张","452","Male","[""坏他"",""坏我"",""好我"",""好他""]","[""弱他"",""弱我"",""强我"",""强他""]","","","","","","","","yes","","","","","","","","","SRET","EW_formal","","key","f","16.653465346534652","640","356","朋友","远见","Positive","ability","","","","","","","","","","",""
"574","","f","psychophysics","64","380168","0.0-7.0-3.0-0.50","5","4","5","4","3","5","3","5","5","5","5","2","0","1","2","2","1","1","2","5","5","5","5","5","4","4","5","5","5","6","7","8","9","8","7","8","7","9","5","7","4","7","6","6","6","1","7","7","1","6","6","7","7","7","5","6","7","5","6","1","6","3","7","5","7","7","6","1","7","7","7","7","7","1","7","7","7","6","7","656853379439394816","张","452","Male","[""坏他"",""坏我"",""好我"",""好他""]","[""弱他"",""弱我"",""强我"",""强他""]","","","","","","","","yes","","","","","","","","","SRET","EW_formal","","key","f","16.654255319148938","640","356","朋友","礼貌","Positive","morality","","","","","","","","","","",""
"594","","f","psychophysics","65","381765","0.0-7.0-3.0-0.51","5","4","5","4","3","5","3","5","5","5","5","2","0","1","2","2","1","1","2","5","5","5","5","5","4","4","5","5","5","6","7","8","9","8","7","8","7","9","5","7","4","7","6","6","6","1","7","7","1","6","6","7","7","7","5","6","7","5","6","1","6","3","7","5","7","7","6","1","7","7","7","7","7","1","7","7","7","6","7","656853379439394816","张","452","Male","[""坏他"",""坏我"",""好我"",""好他""]","[""弱他"",""弱我"",""强我"",""强他""]","","","","","","","","yes","","","","","","","","","SRET","EW_formal","","key","f","16.65368421052607","640","356","自己","骁勇","Positive","ability","","","","","","","","","","",""
"486","","f","psychophysics","66","383253","0.0-7.0-3.0-0.52","5","4","5","4","3","5","3","5","5","5","5","2","0","1","2","2","1","1","2","5","5","5","5","5","4","4","5","5","5","6","7","8","9","8","7","8","7","9","5","7","4","7","6","6","6","1","7","7","1","6","6","7","7","7","5","6","7","5","6","1","6","3","7","5","7","7","6","1","7","7","7","7","7","1","7","7","7","6","7","656853379439394816","张","452","Male","[""坏他"",""坏我"",""好我"",""好他""]","[""弱他"",""弱我"",""强我"",""强他""]","","","","","","","","yes","","","","","","","","","SRET","EW_formal","","key","f","16.65568181818195","640","356","朋友","忠良","Positive","morality","","","","","","","","","","",""
"459","","f","psychophysics","67","384714","0.0-7.0-3.0-0.53","5","4","5","4","3","5","3","5","5","5","5","2","0","1","2","2","1","1","2","5","5","5","5","5","4","4","5","5","5","6","7","8","9","8","7","8","7","9","5","7","4","7","6","6","6","1","7","7","1","6","6","7","7","7","5","6","7","5","6","1","6","3","7","5","7","7","6","1","7","7","7","7","7","1","7","7","7","6","7","656853379439394816","张","452","Male","[""坏他"",""坏我"",""好我"",""好他""]","[""弱他"",""弱我"",""强我"",""强他""]","","","","","","","","yes","","","","","","","","","SRET","EW_formal","","key","f","16.652873563218257","640","356","自己","忠勇","Positive","morality","","","","","","","","","","",""
"465","","j","psychophysics","68","386181","0.0-7.0-3.0-0.54","5","4","5","4","3","5","3","5","5","5","5","2","0","1","2","2","1","1","2","5","5","5","5","5","4","4","5","5","5","6","7","8","9","8","7","8","7","9","5","7","4","7","6","6","6","1","7","7","1","6","6","7","7","7","5","6","7","5","6","1","6","3","7","5","7","7","6","1","7","7","7","7","7","1","7","7","7","6","7","656853379439394816","张","452","Male","[""坏他"",""坏我"",""好我"",""好他""]","[""弱他"",""弱我"",""强我"",""强他""]","","","","","","","","no","","","","","","","","","SRET","EW_formal","","key","j","16.654022988505346","640","356","朋友","罪恶","Negative","morality","","","","","","","","","","",""
"684","","f","psychophysics","69","387867","0.0-7.0-3.0-0.55","5","4","5","4","3","5","3","5","5","5","5","2","0","1","2","2","1","1","2","5","5","5","5","5","4","4","5","5","5","6","7","8","9","8","7","8","7","9","5","7","4","7","6","6","6","1","7","7","1","6","6","7","7","7","5","6","7","5","6","1","6","3","7","5","7","7","6","1","7","7","7","7","7","1","7","7","7","6","7","656853379439394816","张","452","Male","[""坏他"",""坏我"",""好我"",""好他""]","[""弱他"",""弱我"",""强我"",""强他""]","","","","","","","","yes","","","","","","","","","SRET","EW_formal","","key","f","16.652999999999885","640","356","朋友","义气","Positive","morality","","","","","","","","","","",""
"510","","j","psychophysics","70","389380","0.0-7.0-3.0-0.56","5","4","5","4","3","5","3","5","5","5","5","2","0","1","2","2","1","1","2","5","5","5","5","5","4","4","5","5","5","6","7","8","9","8","7","8","7","9","5","7","4","7","6","6","6","1","7","7","1","6","6","7","7","7","5","6","7","5","6","1","6","3","7","5","7","7","6","1","7","7","7","7","7","1","7","7","7","6","7","656853379439394816","张","452","Male","[""坏他"",""坏我"",""好我"",""好他""]","[""弱他"",""弱我"",""强我"",""强他""]","","","","","","","","no","","","","","","","","","SRET","EW_formal","","key","j","16.655555555555555","640","356","自己","偏私","Negative","morality","","","","","","","","","","",""
"846","","j","psychophysics","71","391229","0.0-7.0-3.0-0.57","5","4","5","4","3","5","3","5","5","5","5","2","0","1","2","2","1","1","2","5","5","5","5","5","4","4","5","5","5","6","7","8","9","8","7","8","7","9","5","7","4","7","6","6","6","1","7","7","1","6","6","7","7","7","5","6","7","5","6","1","6","3","7","5","7","7","6","1","7","7","7","7","7","1","7","7","7","6","7","656853379439394816","张","452","Male","[""坏他"",""坏我"",""好我"",""好他""]","[""弱他"",""弱我"",""强我"",""强他""]","","","","","","","","no","","","","","","","","","SRET","EW_formal","","key","j","16.654545454545456","640","356","自己","屈才","Negative","ability","","","","","","","","","","",""
"550","","f","psychophysics","72","392780","0.0-7.0-3.0-0.58","5","4","5","4","3","5","3","5","5","5","5","2","0","1","2","2","1","1","2","5","5","5","5","5","4","4","5","5","5","6","7","8","9","8","7","8","7","9","5","7","4","7","6","6","6","1","7","7","1","6","6","7","7","7","5","6","7","5","6","1","6","3","7","5","7","7","6","1","7","7","7","7","7","1","7","7","7","6","7","656853379439394816","张","452","Male","[""坏他"",""坏我"",""好我"",""好他""]","[""弱他"",""弱我"",""强我"",""强他""]","","","","","","","","yes","","","","","","","","","SRET","EW_formal","","key","f","16.65543478260857","640","356","朋友","自律","Positive","ability","","","","","","","","","","",""
"793","","j","psychophysics","73","394576","0.0-7.0-3.0-0.59","5","4","5","4","3","5","3","5","5","5","5","2","0","1","2","2","1","1","2","5","5","5","5","5","4","4","5","5","5","6","7","8","9","8","7","8","7","9","5","7","4","7","6","6","6","1","7","7","1","6","6","7","7","7","5","6","7","5","6","1","6","3","7","5","7","7","6","1","7","7","7","7","7","1","7","7","7","6","7","656853379439394816","张","452","Male","[""坏他"",""坏我"",""好我"",""好他""]","[""弱他"",""弱我"",""强我"",""强他""]","","","","","","","","no","","","","","","","","","SRET","EW_formal","","key","j","16.654205607476637","640","356","朋友","差生","Negative","ability","","","","","","","","","","",""
"509","","f","psychophysics","74","396088","0.0-7.0-3.0-0.60","5","4","5","4","3","5","3","5","5","5","5","2","0","1","2","2","1","1","2","5","5","5","5","5","4","4","5","5","5","6","7","8","9","8","7","8","7","9","5","7","4","7","6","6","6","1","7","7","1","6","6","7","7","7","5","6","7","5","6","1","6","3","7","5","7","7","6","1","7","7","7","7","7","1","7","7","7","6","7","656853379439394816","张","452","Male","[""坏他"",""坏我"",""好我"",""好他""]","[""弱他"",""弱我"",""强我"",""强他""]","","","","","","","","yes","","","","","","","","","SRET","EW_formal","","key","f","16.654444444444703","640","356","自己","文明","Positive","morality","","","","","","","","","","",""
"621","","j","psychophysics","75","397710","0.0-7.0-3.0-0.61","5","4","5","4","3","5","3","5","5","5","5","2","0","1","2","2","1","1","2","5","5","5","5","5","4","4","5","5","5","6","7","8","9","8","7","8","7","9","5","7","4","7","6","6","6","1","7","7","1","6","6","7","7","7","5","6","7","5","6","1","6","3","7","5","7","7","6","1","7","7","7","7","7","1","7","7","7","6","7","656853379439394816","张","452","Male","[""坏他"",""坏我"",""好我"",""好他""]","[""弱他"",""弱我"",""强我"",""强他""]","","","","","","","","no","","","","","","","","","SRET","EW_formal","","key","j","16.65625","640","356","朋友","自私","Negative","morality","","","","","","","","","","",""
"517","","j","psychophysics","76","399229","0.0-7.0-3.0-0.62","5","4","5","4","3","5","3","5","5","5","5","2","0","1","2","2","1","1","2","5","5","5","5","5","4","4","5","5","5","6","7","8","9","8","7","8","7","9","5","7","4","7","6","6","6","1","7","7","1","6","6","7","7","7","5","6","7","5","6","1","6","3","7","5","7","7","6","1","7","7","7","7","7","1","7","7","7","6","7","656853379439394816","张","452","Male","[""坏他"",""坏我"",""好我"",""好他""]","[""弱他"",""弱我"",""强我"",""强他""]","","","","","","","","no","","","","","","","","","SRET","EW_formal","","key","j","16.653846153846153","640","356","自己","愚痴","Negative","ability","","","","","","","","","","",""
"489","","j","psychophysics","77","400721","0.0-7.0-3.0-0.63","5","4","5","4","3","5","3","5","5","5","5","2","0","1","2","2","1","1","2","5","5","5","5","5","4","4","5","5","5","6","7","8","9","8","7","8","7","9","5","7","4","7","6","6","6","1","7","7","1","6","6","7","7","7","5","6","7","5","6","1","6","3","7","5","7","7","6","1","7","7","7","7","7","1","7","7","7","6","7","656853379439394816","张","452","Male","[""坏他"",""坏我"",""好我"",""好他""]","[""弱他"",""弱我"",""强我"",""强他""]","","","","","","","","no","","","","","","","","","SRET","EW_formal","","key","j","16.65568181818195","640","356","朋友","毛糙","Negative","ability","","","","","","","","","","",""
"592","","f","psychophysics","78","402316","0.0-7.0-3.0-0.64","5","4","5","4","3","5","3","5","5","5","5","2","0","1","2","2","1","1","2","5","5","5","5","5","4","4","5","5","5","6","7","8","9","8","7","8","7","9","5","7","4","7","6","6","6","1","7","7","1","6","6","7","7","7","5","6","7","5","6","1","6","3","7","5","7","7","6","1","7","7","7","7","7","1","7","7","7","6","7","656853379439394816","张","452","Male","[""坏他"",""坏我"",""好我"",""好他""]","[""弱他"",""弱我"",""强我"",""强他""]","","","","","","","","yes","","","","","","","","","SRET","EW_formal","","key","f","16.652631578947368","640","356","自己","清廉","Positive","morality","","","","","","","","","","",""
"570","","j","psychophysics","79","403888","0.0-7.0-3.0-0.65","5","4","5","4","3","5","3","5","5","5","5","2","0","1","2","2","1","1","2","5","5","5","5","5","4","4","5","5","5","6","7","8","9","8","7","8","7","9","5","7","4","7","6","6","6","1","7","7","1","6","6","7","7","7","5","6","7","5","6","1","6","3","7","5","7","7","6","1","7","7","7","7","7","1","7","7","7","6","7","656853379439394816","张","452","Male","[""坏他"",""坏我"",""好我"",""好他""]","[""弱他"",""弱我"",""强我"",""强他""]","","","","","","","","no","","","","","","","","","SRET","EW_formal","","key","j","16.65483870967767","640","356","朋友","逞强","Negative","ability","","","","","","","","","","",""
"524","","j","psychophysics","80","405414","0.0-7.0-3.0-0.66","5","4","5","4","3","5","3","5","5","5","5","2","0","1","2","2","1","1","2","5","5","5","5","5","4","4","5","5","5","6","7","8","9","8","7","8","7","9","5","7","4","7","6","6","6","1","7","7","1","6","6","7","7","7","5","6","7","5","6","1","6","3","7","5","7","7","6","1","7","7","7","7","7","1","7","7","7","6","7","656853379439394816","张","452","Male","[""坏他"",""坏我"",""好我"",""好他""]","[""弱他"",""弱我"",""强我"",""强他""]","","","","","","","","no","","","","","","","","","SRET","EW_formal","","key","j","16.653846153846153","640","356","自己","卑鄙","Negative","morality","","","","","","","","","","",""
"494","","f","psychophysics","81","406910","0.0-7.0-3.0-0.67","5","4","5","4","3","5","3","5","5","5","5","2","0","1","2","2","1","1","2","5","5","5","5","5","4","4","5","5","5","6","7","8","9","8","7","8","7","9","5","7","4","7","6","6","6","1","7","7","1","6","6","7","7","7","5","6","7","5","6","1","6","3","7","5","7","7","6","1","7","7","7","7","7","1","7","7","7","6","7","656853379439394816","张","452","Male","[""坏他"",""坏我"",""好我"",""好他""]","[""弱他"",""弱我"",""强我"",""强他""]","","","","","","","","yes","","","","","","","","","SRET","EW_formal","","key","f","16.652808988763784","640","356","朋友","仁爱","Positive","morality","","","","","","","","","","",""
"483","","j","psychophysics","82","408395","0.0-7.0-3.0-0.68","5","4","5","4","3","5","3","5","5","5","5","2","0","1","2","2","1","1","2","5","5","5","5","5","4","4","5","5","5","6","7","8","9","8","7","8","7","9","5","7","4","7","6","6","6","1","7","7","1","6","6","7","7","7","5","6","7","5","6","1","6","3","7","5","7","7","6","1","7","7","7","7","7","1","7","7","7","6","7","656853379439394816","张","452","Male","[""坏他"",""坏我"",""好我"",""好他""]","[""弱他"",""弱我"",""强我"",""强他""]","","","","","","","","no","","","","","","","","","SRET","EW_formal","","key","j","16.65568181818195","640","356","自己","笨蛋","Negative","ability","","","","","","","","","","",""
"549","","j","psychophysics","83","409947","0.0-7.0-3.0-0.69","5","4","5","4","3","5","3","5","5","5","5","2","0","1","2","2","1","1","2","5","5","5","5","5","4","4","5","5","5","6","7","8","9","8","7","8","7","9","5","7","4","7","6","6","6","1","7","7","1","6","6","7","7","7","5","6","7","5","6","1","6","3","7","5","7","7","6","1","7","7","7","7","7","1","7","7","7","6","7","656853379439394816","张","452","Male","[""坏他"",""坏我"",""好我"",""好他""]","[""弱他"",""弱我"",""强我"",""强他""]","","","","","","","","no","","","","","","","","","SRET","EW_formal","","key","j","16.652173913043477","640","356","自己","迂拙","Negative","ability","","","","","","","","","","",""
"522","","f","psychophysics","84","411470","0.0-7.0-3.0-0.70","5","4","5","4","3","5","3","5","5","5","5","2","0","1","2","2","1","1","2","5","5","5","5","5","4","4","5","5","5","6","7","8","9","8","7","8","7","9","5","7","4","7","6","6","6","1","7","7","1","6","6","7","7","7","5","6","7","5","6","1","6","3","7","5","7","7","6","1","7","7","7","7","7","1","7","7","7","6","7","656853379439394816","张","452","Male","[""坏他"",""坏我"",""好我"",""好他""]","[""弱他"",""弱我"",""强我"",""强他""]","","","","","","","","yes","","","","","","","","","SRET","EW_formal","","key","f","16.65494505494544","640","356","朋友","智慧","Positive","ability","","","","","","","","","","",""
"709","","j","psychophysics","85","413181","0.0-7.0-3.0-0.71","5","4","5","4","3","5","3","5","5","5","5","2","0","1","2","2","1","1","2","5","5","5","5","5","4","4","5","5","5","6","7","8","9","8","7","8","7","9","5","7","4","7","6","6","6","1","7","7","1","6","6","7","7","7","5","6","7","5","6","1","6","3","7","5","7","7","6","1","7","7","7","7","7","1","7","7","7","6","7","656853379439394816","张","452","Male","[""坏他"",""坏我"",""好我"",""好他""]","[""弱他"",""弱我"",""强我"",""强他""]","","","","","","","","no","","","","","","","","","SRET","EW_formal","","key","j","16.652475247524407","640","356","朋友","新手","Negative","ability","","","","","","","","","","",""
"500","","f","psychophysics","86","414683","0.0-7.0-3.0-0.72","5","4","5","4","3","5","3","5","5","5","5","2","0","1","2","2","1","1","2","5","5","5","5","5","4","4","5","5","5","6","7","8","9","8","7","8","7","9","5","7","4","7","6","6","6","1","7","7","1","6","6","7","7","7","5","6","7","5","6","1","6","3","7","5","7","7","6","1","7","7","7","7","7","1","7","7","7","6","7","656853379439394816","张","452","Male","[""坏他"",""坏我"",""好我"",""好他""]","[""弱他"",""弱我"",""强我"",""强他""]","","","","","","","","yes","","","","","","","","","SRET","EW_formal","","key","f","16.652222222222353","640","356","自己","敬业","Positive","morality","","","","","","","","","","",""
"501","","j","psychophysics","87","416186","0.0-7.0-3.0-0.73","5","4","5","4","3","5","3","5","5","5","5","2","0","1","2","2","1","1","2","5","5","5","5","5","4","4","5","5","5","6","7","8","9","8","7","8","7","9","5","7","4","7","6","6","6","1","7","7","1","6","6","7","7","7","5","6","7","5","6","1","6","3","7","5","7","7","6","1","7","7","7","7","7","1","7","7","7","6","7","656853379439394816","张","452","Male","[""坏他"",""坏我"",""好我"",""好他""]","[""弱他"",""弱我"",""强我"",""强他""]","","","","","","","","no","","","","","","","","","SRET","EW_formal","","key","j","16.651685393258425","640","356","朋友","奸诈","Negative","morality","","","","","","","","","","",""
"486","","f","psychophysics","88","417673","0.0-7.0-3.0-0.74","5","4","5","4","3","5","3","5","5","5","5","2","0","1","2","2","1","1","2","5","5","5","5","5","4","4","5","5","5","6","7","8","9","8","7","8","7","9","5","7","4","7","6","6","6","1","7","7","1","6","6","7","7","7","5","6","7","5","6","1","6","3","7","5","7","7","6","1","7","7","7","7","7","1","7","7","7","6","7","656853379439394816","张","452","Male","[""坏他"",""坏我"",""好我"",""好他""]","[""弱他"",""弱我"",""强我"",""强他""]","","","","","","","","yes","","","","","","","","","SRET","EW_formal","","key","f","16.65568181818129","640","356","朋友","周到","Positive","ability","","","","","","","","","","",""
"539","","f","psychophysics","89","419215","0.0-7.0-3.0-0.75","5","4","5","4","3","5","3","5","5","5","5","2","0","1","2","2","1","1","2","5","5","5","5","5","4","4","5","5","5","6","7","8","9","8","7","8","7","9","5","7","4","7","6","6","6","1","7","7","1","6","6","7","7","7","5","6","7","5","6","1","6","3","7","5","7","7","6","1","7","7","7","7","7","1","7","7","7","6","7","656853379439394816","张","452","Male","[""坏他"",""坏我"",""好我"",""好他""]","[""弱他"",""弱我"",""强我"",""强他""]","","","","","","","","yes","","","","","","","","","SRET","EW_formal","","key","f","16.65543478260857","640","356","自己","敏捷","Positive","ability","","","","","","","","","","",""
"575","","j","psychophysics","90","420794","0.0-7.0-3.0-0.76","5","4","5","4","3","5","3","5","5","5","5","2","0","1","2","2","1","1","2","5","5","5","5","5","4","4","5","5","5","6","7","8","9","8","7","8","7","9","5","7","4","7","6","6","6","1","7","7","1","6","6","7","7","7","5","6","7","5","6","1","6","3","7","5","7","7","6","1","7","7","7","7","7","1","7","7","7","6","7","656853379439394816","张","452","Male","[""坏他"",""坏我"",""好我"",""好他""]","[""弱他"",""弱我"",""强我"",""强他""]","","","","","","","","no","","","","","","","","","SRET","EW_formal","","key","j","16.651063829787358","640","356","自己","无知","Negative","ability","","","","","","","","","","",""
"541","","j","psychophysics","91","422337","0.0-7.0-3.0-0.77","5","4","5","4","3","5","3","5","5","5","5","2","0","1","2","2","1","1","2","5","5","5","5","5","4","4","5","5","5","6","7","8","9","8","7","8","7","9","5","7","4","7","6","6","6","1","7","7","1","6","6","7","7","7","5","6","7","5","6","1","6","3","7","5","7","7","6","1","7","7","7","7","7","1","7","7","7","6","7","656853379439394816","张","452","Male","[""坏他"",""坏我"",""好我"",""好他""]","[""弱他"",""弱我"",""强我"",""强他""]","","","","","","","","no","","","","","","","","","SRET","EW_formal","","key","j","16.656043956044083","640","356","自己","粗心","Negative","ability","","","","","","","","","","",""
"652","","j","psychophysics","92","423991","0.0-7.0-3.0-0.78","5","4","5","4","3","5","3","5","5","5","5","2","0","1","2","2","1","1","2","5","5","5","5","5","4","4","5","5","5","6","7","8","9","8","7","8","7","9","5","7","4","7","6","6","6","1","7","7","1","6","6","7","7","7","5","6","7","5","6","1","6","3","7","5","7","7","6","1","7","7","7","7","7","1","7","7","7","6","7","656853379439394816","张","452","Male","[""坏他"",""坏我"",""好我"",""好他""]","[""弱他"",""弱我"",""强我"",""强他""]","","","","","","","","no","","","","","","","","","SRET","EW_formal","","key","j","16.652525252525017","640","356","朋友","利落","Positive","ability","","","","","","","","","","",""
"651","","j","psychophysics","93","425644","0.0-7.0-3.0-0.79","5","4","5","4","3","5","3","5","5","5","5","2","0","1","2","2","1","1","2","5","5","5","5","5","4","4","5","5","5","6","7","8","9","8","7","8","7","9","5","7","4","7","6","6","6","1","7","7","1","6","6","7","7","7","5","6","7","5","6","1","6","3","7","5","7","7","6","1","7","7","7","7","7","1","7","7","7","6","7","656853379439394816","张","452","Male","[""坏他"",""坏我"",""好我"",""好他""]","[""弱他"",""弱我"",""强我"",""强他""]","","","","","","","","no","","","","","","","","","SRET","EW_formal","","key","j","16.651020408163145","640","356","自己","黑心","Negative","morality","","","","","","","","","","",""
"1280","","f","psychophysics","94","427927","0.0-7.0-3.0-0.80","5","4","5","4","3","5","3","5","5","5","5","2","0","1","2","2","1","1","2","5","5","5","5","5","4","4","5","5","5","6","7","8","9","8","7","8","7","9","5","7","4","7","6","6","6","1","7","7","1","6","6","7","7","7","5","6","7","5","6","1","6","3","7","5","7","7","6","1","7","7","7","7","7","1","7","7","7","6","7","656853379439394816","张","452","Male","[""坏他"",""坏我"",""好我"",""好他""]","[""弱他"",""弱我"",""强我"",""强他""]","","","","","","","","yes","","","","","","","","","SRET","EW_formal","","key","f","16.651470588235124","640","356","朋友","无私","Positive","morality","","","","","","","","","","",""
"786","","f","psychophysics","95","429714","0.0-7.0-3.0-0.81","5","4","5","4","3","5","3","5","5","5","5","2","0","1","2","2","1","1","2","5","5","5","5","5","4","4","5","5","5","6","7","8","9","8","7","8","7","9","5","7","4","7","6","6","6","1","7","7","1","6","6","7","7","7","5","6","7","5","6","1","6","3","7","5","7","7","6","1","7","7","7","7","7","1","7","7","7","6","7","656853379439394816","张","452","Male","[""坏他"",""坏我"",""好我"",""好他""]","[""弱他"",""弱我"",""强我"",""强他""]","","","","","","","","yes","","","","","","","","","SRET","EW_formal","","key","f","16.654716981131745","640","356","朋友","变通","Positive","ability","","","","","","","","","","",""
"1074","","f","psychophysics","96","431789","0.0-7.0-3.0-0.82","5","4","5","4","3","5","3","5","5","5","5","2","0","1","2","2","1","1","2","5","5","5","5","5","4","4","5","5","5","6","7","8","9","8","7","8","7","9","5","7","4","7","6","6","6","1","7","7","1","6","6","7","7","7","5","6","7","5","6","1","6","3","7","5","7","7","6","1","7","7","7","7","7","1","7","7","7","6","7","656853379439394816","张","452","Male","[""坏他"",""坏我"",""好我"",""好他""]","[""弱他"",""弱我"",""强我"",""强他""]","","","","","","","","yes","","","","","","","","","SRET","EW_formal","","key","f","16.653225806451612","640","356","朋友","刻苦","Positive","ability","","","","","","","","","","",""
"746","","f","psychophysics","97","433536","0.0-7.0-3.0-0.83","5","4","5","4","3","5","3","5","5","5","5","2","0","1","2","2","1","1","2","5","5","5","5","5","4","4","5","5","5","6","7","8","9","8","7","8","7","9","5","7","4","7","6","6","6","1","7","7","1","6","6","7","7","7","5","6","7","5","6","1","6","3","7","5","7","7","6","1","7","7","7","7","7","1","7","7","7","6","7","656853379439394816","张","452","Male","[""坏他"",""坏我"",""好我"",""好他""]","[""弱他"",""弱我"",""强我"",""强他""]","","","","","","","","yes","","","","","","","","","SRET","EW_formal","","key","f","16.65096153846165","640","356","自己","沉着","Positive","ability","","","","","","","","","","",""
"750","","j","psychophysics","98","435288","0.0-7.0-3.0-0.84","5","4","5","4","3","5","3","5","5","5","5","2","0","1","2","2","1","1","2","5","5","5","5","5","4","4","5","5","5","6","7","8","9","8","7","8","7","9","5","7","4","7","6","6","6","1","7","7","1","6","6","7","7","7","5","6","7","5","6","1","6","3","7","5","7","7","6","1","7","7","7","7","7","1","7","7","7","6","7","656853379439394816","张","452","Male","[""坏他"",""坏我"",""好我"",""好他""]","[""弱他"",""弱我"",""强我"",""强他""]","","","","","","","","no","","","","","","","","","SRET","EW_formal","","key","j","16.65480769230803","640","356","自己","缓慢","Negative","ability","","","","","","","","","","",""
"582","","f","psychophysics","99","436872","0.0-7.0-3.0-0.85","5","4","5","4","3","5","3","5","5","5","5","2","0","1","2","2","1","1","2","5","5","5","5","5","4","4","5","5","5","6","7","8","9","8","7","8","7","9","5","7","4","7","6","6","6","1","7","7","1","6","6","7","7","7","5","6","7","5","6","1","6","3","7","5","7","7","6","1","7","7","7","7","7","1","7","7","7","6","7","656853379439394816","张","452","Male","[""坏他"",""坏我"",""好我"",""好他""]","[""弱他"",""弱我"",""强我"",""强他""]","","","","","","","","yes","","","","","","","","","SRET","EW_formal","","key","f","16.656382978723528","640","356","朋友","素养","Positive","morality","","","","","","","","","","",""
"536","","f","psychophysics","100","438411","0.0-7.0-3.0-0.86","5","4","5","4","3","5","3","5","5","5","5","2","0","1","2","2","1","1","2","5","5","5","5","5","4","4","5","5","5","6","7","8","9","8","7","8","7","9","5","7","4","7","6","6","6","1","7","7","1","6","6","7","7","7","5","6","7","5","6","1","6","3","7","5","7","7","6","1","7","7","7","7","7","1","7","7","7","6","7","656853379439394816","张","452","Male","[""坏他"",""坏我"",""好我"",""好他""]","[""弱他"",""弱我"",""强我"",""强他""]","","","","","","","","yes","","","","","","","","","SRET","EW_formal","","key","f","16.65714285714273","640","356","自己","主见","Positive","ability","","","","","","","","","","",""
"519","","j","psychophysics","101","439933","0.0-7.0-3.0-0.87","5","4","5","4","3","5","3","5","5","5","5","2","0","1","2","2","1","1","2","5","5","5","5","5","4","4","5","5","5","6","7","8","9","8","7","8","7","9","5","7","4","7","6","6","6","1","7","7","1","6","6","7","7","7","5","6","7","5","6","1","6","3","7","5","7","7","6","1","7","7","7","7","7","1","7","7","7","6","7","656853379439394816","张","452","Male","[""坏他"",""坏我"",""好我"",""好他""]","[""弱他"",""弱我"",""强我"",""强他""]","","","","","","","","no","","","","","","","","","SRET","EW_formal","","key","j","16.65714285714337","640","356","朋友","低俗","Negative","morality","","","","","","","","","","",""
"28409","
    <p><div style='color:white;font-size:35px; line-height:20px;'>计算任务</div></p><br>
    <p><div style='color:red;font-size:25px; line-height:20px;'>接下来，您将看到一些四则运算题，<b>请从键盘选择 0-9 进行反应。</b></div></p>
    <p><div style='color:red;font-size:25px; line-height:20px;'>请尽可能快地进行计算，计算的速度和正确率将影响报酬的发放。</div></p>
    <p><div class='footer' style='color:white;font-size:25px; line-height:20px;'>如果对本实验还有不清楚之处，请立即向实验员咨询。</p><p style='color:white;font-size:25px; line-height:20px;'>如果您明白了规则：</p><p style='color:white;font-size:22px; line-height:20px;'>请按 继续 进入练习</p>
    </div>
    ","0","html-button-response","102","468344","0.0-7.0-4.0","5","4","5","4","3","5","3","5","5","5","5","2","0","1","2","2","1","1","2","5","5","5","5","5","4","4","5","5","5","6","7","8","9","8","7","8","7","9","5","7","4","7","6","6","6","1","7","7","1","6","6","7","7","7","5","6","7","5","6","1","6","3","7","5","7","7","6","1","7","7","7","7","7","1","7","7","7","6","7","656853379439394816","张","452","Male","[""坏他"",""坏我"",""好我"",""好他""]","[""弱他"",""弱我"",""强我"",""强他""]","","","","","","","","","","","","","","","","","SRET_math","math_instructions","Sat Jan 20 2024 00:21:48 GMT+0800 (中国标准时间)","","","","","","","","","","","","","","","","","","","",""
"2104","","2","psychophysics","103","470456","0.0-7.0-5.0-0.0","5","4","5","4","3","5","3","5","5","5","5","2","0","1","2","2","1","1","2","5","5","5","5","5","4","4","5","5","5","6","7","8","9","8","7","8","7","9","5","7","4","7","6","6","6","1","7","7","1","6","6","7","7","7","5","6","7","5","6","1","6","3","7","5","7","7","6","1","7","7","7","7","7","1","7","7","7","6","7","656853379439394816","张","452","Male","[""坏他"",""坏我"",""好我"",""好他""]","[""弱他"",""弱我"",""强我"",""强他""]","","","","","","","","2","","","","","","","","","SRET","SRET_math_calculate","","key","2","16.652755905511995","640","356","","","","","8/4= ?","2","1","","","","","","","",""
"2415","","7","psychophysics","104","472873","0.0-7.0-5.0-0.1","5","4","5","4","3","5","3","5","5","5","5","2","0","1","2","2","1","1","2","5","5","5","5","5","4","4","5","5","5","6","7","8","9","8","7","8","7","9","5","7","4","7","6","6","6","1","7","7","1","6","6","7","7","7","5","6","7","5","6","1","6","3","7","5","7","7","6","1","7","7","7","7","7","1","7","7","7","6","7","656853379439394816","张","452","Male","[""坏他"",""坏我"",""好我"",""好他""]","[""弱他"",""弱我"",""强我"",""强他""]","","","","","","","","7","","","","","","","","","SRET","SRET_math_calculate","","key","7","16.65277777777778","640","356","","","","","21/3= ? ","7","1","","","","","","","",""
"2175","","9","psychophysics","105","475050","0.0-7.0-5.0-0.2","5","4","5","4","3","5","3","5","5","5","5","2","0","1","2","2","1","1","2","5","5","5","5","5","4","4","5","5","5","6","7","8","9","8","7","8","7","9","5","7","4","7","6","6","6","1","7","7","1","6","6","7","7","7","5","6","7","5","6","1","6","3","7","5","7","7","6","1","7","7","7","7","7","1","7","7","7","6","7","656853379439394816","张","452","Male","[""坏他"",""坏我"",""好我"",""好他""]","[""弱他"",""弱我"",""强我"",""强他""]","","","","","","","","9","","","","","","","","","SRET","SRET_math_calculate","","key","9","16.6530769230771","640","356","","","","","6+3= ?","9","1","","","","","","","",""
"2111","","7","psychophysics","106","477163","0.0-7.0-5.0-0.3","5","4","5","4","3","5","3","5","5","5","5","2","0","1","2","2","1","1","2","5","5","5","5","5","4","4","5","5","5","6","7","8","9","8","7","8","7","9","5","7","4","7","6","6","6","1","7","7","1","6","6","7","7","7","5","6","7","5","6","1","6","3","7","5","7","7","6","1","7","7","7","7","7","1","7","7","7","6","7","656853379439394816","张","452","Male","[""坏他"",""坏我"",""好我"",""好他""]","[""弱他"",""弱我"",""强我"",""强他""]","","","","","","","","7","","","","","","","","","SRET","SRET_math_calculate","","key","7","16.65317460317451","640","356","","","","","13-6= ?","7","1","","","","","","","",""
"1952","","9","psychophysics","107","479118","0.0-7.0-5.0-0.4","5","4","5","4","3","5","3","5","5","5","5","2","0","1","2","2","1","1","2","5","5","5","5","5","4","4","5","5","5","6","7","8","9","8","7","8","7","9","5","7","4","7","6","6","6","1","7","7","1","6","6","7","7","7","5","6","7","5","6","1","6","3","7","5","7","7","6","1","7","7","7","7","7","1","7","7","7","6","7","656853379439394816","张","452","Male","[""坏他"",""坏我"",""好我"",""好他""]","[""弱他"",""弱我"",""强我"",""强他""]","","","","","","","","9","","","","","","","","","SRET","SRET_math_calculate","","key","9","16.65431034482779","640","356","","","","","3+6= ?","9","1","","","","","","","",""
"2035","","7","psychophysics","108","481155","0.0-7.0-5.0-0.5","5","4","5","4","3","5","3","5","5","5","5","2","0","1","2","2","1","1","2","5","5","5","5","5","4","4","5","5","5","6","7","8","9","8","7","8","7","9","5","7","4","7","6","6","6","1","7","7","1","6","6","7","7","7","5","6","7","5","6","1","6","3","7","5","7","7","6","1","7","7","7","7","7","1","7","7","7","6","7","656853379439394816","张","452","Male","[""坏他"",""坏我"",""好我"",""好他""]","[""弱他"",""弱我"",""强我"",""强他""]","","","","","","","","7","","","","","","","","","SRET","SRET_math_calculate","","key","7","16.65289256198347","640","356","","","","","12-5= ?","7","1","","","","","","","",""
"1889","","9","psychophysics","109","483046","0.0-7.0-5.0-0.6","5","4","5","4","3","5","3","5","5","5","5","2","0","1","2","2","1","1","2","5","5","5","5","5","4","4","5","5","5","6","7","8","9","8","7","8","7","9","5","7","4","7","6","6","6","1","7","7","1","6","6","7","7","7","5","6","7","5","6","1","6","3","7","5","7","7","6","1","7","7","7","7","7","1","7","7","7","6","7","656853379439394816","张","452","Male","[""坏他"",""坏我"",""好我"",""好他""]","[""弱他"",""弱我"",""强我"",""强他""]","","","","","","","","9","","","","","","","","","SRET","SRET_math_calculate","","key","9","16.65398230088516","640","356","","","","","4+5= ?","9","1","","","","","","","",""
"1839","","7","psychophysics","110","484887","0.0-7.0-5.0-0.7","5","4","5","4","3","5","3","5","5","5","5","2","0","1","2","2","1","1","2","5","5","5","5","5","4","4","5","5","5","6","7","8","9","8","7","8","7","9","5","7","4","7","6","6","6","1","7","7","1","6","6","7","7","7","5","6","7","5","6","1","6","3","7","5","7","7","6","1","7","7","7","7","7","1","7","7","7","6","7","656853379439394816","张","452","Male","[""坏他"",""坏我"",""好我"",""好他""]","[""弱他"",""弱我"",""强我"",""强他""]","","","","","","","","7","","","","","","","","","SRET","SRET_math_calculate","","key","7","16.65229357798144","640","356","","","","","4+3= ?","7","1","","","","","","","",""
"2120","","5","psychophysics","111","487011","0.0-7.0-5.0-0.8","5","4","5","4","3","5","3","5","5","5","5","2","0","1","2","2","1","1","2","5","5","5","5","5","4","4","5","5","5","6","7","8","9","8","7","8","7","9","5","7","4","7","6","6","6","1","7","7","1","6","6","7","7","7","5","6","7","5","6","1","6","3","7","5","7","7","6","1","7","7","7","7","7","1","7","7","7","6","7","656853379439394816","张","452","Male","[""坏他"",""坏我"",""好我"",""好他""]","[""弱他"",""弱我"",""强我"",""强他""]","","","","","","","","5","","","","","","","","","SRET","SRET_math_calculate","","key","5","16.654330708661693","640","356","","","","","8-3= ? ","5","1","","","","","","","",""
"2152","","1","psychophysics","112","489165","0.0-7.0-5.0-0.9","5","4","5","4","3","5","3","5","5","5","5","2","0","1","2","2","1","1","2","5","5","5","5","5","4","4","5","5","5","6","7","8","9","8","7","8","7","9","5","7","4","7","6","6","6","1","7","7","1","6","6","7","7","7","5","6","7","5","6","1","6","3","7","5","7","7","6","1","7","7","7","7","7","1","7","7","7","6","7","656853379439394816","张","452","Male","[""坏他"",""坏我"",""好我"",""好他""]","[""弱他"",""弱我"",""强我"",""强他""]","","","","","","","","1","","","","","","","","","SRET","SRET_math_calculate","","key","1","16.653124999999818","640","356","","","","","4/4= ?","1","1","","","","","","","",""
"2620","","0","psychophysics","113","491787","0.0-7.0-5.0-0.10","5","4","5","4","3","5","3","5","5","5","5","2","0","1","2","2","1","1","2","5","5","5","5","5","4","4","5","5","5","6","7","8","9","8","7","8","7","9","5","7","4","7","6","6","6","1","7","7","1","6","6","7","7","7","5","6","7","5","6","1","6","3","7","5","7","7","6","1","7","7","7","7","7","1","7","7","7","6","7","656853379439394816","张","452","Male","[""坏他"",""坏我"",""好我"",""好他""]","[""弱他"",""弱我"",""强我"",""强他""]","","","","","","","","0","","","","","","","","","SRET","SRET_math_calculate","","key","0","16.654140127388608","640","356","","","","","9-9= ?","0","1","","","","","","","",""
"2469","","3","psychophysics","114","494259","0.0-7.0-5.0-0.11","5","4","5","4","3","5","3","5","5","5","5","2","0","1","2","2","1","1","2","5","5","5","5","5","4","4","5","5","5","6","7","8","9","8","7","8","7","9","5","7","4","7","6","6","6","1","7","7","1","6","6","7","7","7","5","6","7","5","6","1","6","3","7","5","7","7","6","1","7","7","7","7","7","1","7","7","7","6","7","656853379439394816","张","452","Male","[""坏他"",""坏我"",""好我"",""好他""]","[""弱他"",""弱我"",""强我"",""强他""]","","","","","","","","3","","","","","","","","","SRET","SRET_math_calculate","","key","3","16.65442176870756","640","356","","","","","3*1= ?","3","1","","","","","","","",""
"2107","","2","psychophysics","115","496369","0.0-7.0-5.0-0.12","5","4","5","4","3","5","3","5","5","5","5","2","0","1","2","2","1","1","2","5","5","5","5","5","4","4","5","5","5","6","7","8","9","8","7","8","7","9","5","7","4","7","6","6","6","1","7","7","1","6","6","7","7","7","5","6","7","5","6","1","6","3","7","5","7","7","6","1","7","7","7","7","7","1","7","7","7","6","7","656853379439394816","张","452","Male","[""坏他"",""坏我"",""好我"",""好他""]","[""弱他"",""弱我"",""强我"",""强他""]","","","","","","","","2","","","","","","","","","SRET","SRET_math_calculate","","key","2","16.65317460317451","640","356","","","","","12/6= ?","2","1","","","","","","","",""
"2097","","0","psychophysics","116","498467","0.0-7.0-5.0-0.13","5","4","5","4","3","5","3","5","5","5","5","2","0","1","2","2","1","1","2","5","5","5","5","5","4","4","5","5","5","6","7","8","9","8","7","8","7","9","5","7","4","7","6","6","6","1","7","7","1","6","6","7","7","7","5","6","7","5","6","1","6","3","7","5","7","7","6","1","7","7","7","7","7","1","7","7","7","6","7","656853379439394816","张","452","Male","[""坏他"",""坏我"",""好我"",""好他""]","[""弱他"",""弱我"",""强我"",""强他""]","","","","","","","","0","","","","","","","","","SRET","SRET_math_calculate","","key","0","16.65280000000028","640","356","","","","","12-12= ?","0","1","","","","","","","",""
"1945","","4","psychophysics","117","500415","0.0-7.0-5.0-0.14","5","4","5","4","3","5","3","5","5","5","5","2","0","1","2","2","1","1","2","5","5","5","5","5","4","4","5","5","5","6","7","8","9","8","7","8","7","9","5","7","4","7","6","6","6","1","7","7","1","6","6","7","7","7","5","6","7","5","6","1","6","3","7","5","7","7","6","1","7","7","7","7","7","1","7","7","7","6","7","656853379439394816","张","452","Male","[""坏他"",""坏我"",""好我"",""好他""]","[""弱他"",""弱我"",""强我"",""强他""]","","","","","","","","4","","","","","","","","","SRET","SRET_math_calculate","","key","4","16.65258620689665","640","356","","","","","9-5= ?","4","1","","","","","","","",""
"2093","","1","psychophysics","118","502509","0.0-7.0-5.0-0.15","5","4","5","4","3","5","3","5","5","5","5","2","0","1","2","2","1","1","2","5","5","5","5","5","4","4","5","5","5","6","7","8","9","8","7","8","7","9","5","7","4","7","6","6","6","1","7","7","1","6","6","7","7","7","5","6","7","5","6","1","6","3","7","5","7","7","6","1","7","7","7","7","7","1","7","7","7","6","7","656853379439394816","张","452","Male","[""坏他"",""坏我"",""好我"",""好他""]","[""弱他"",""弱我"",""强我"",""强他""]","","","","","","","","1","","","","","","","","","SRET","SRET_math_calculate","","key","1","16.652799999999814","640","356","","","","","30-29= ?","1","1","","","","","","","",""
"2163","","6","psychophysics","119","504675","0.0-7.0-5.0-0.16","5","4","5","4","3","5","3","5","5","5","5","2","0","1","2","2","1","1","2","5","5","5","5","5","4","4","5","5","5","6","7","8","9","8","7","8","7","9","5","7","4","7","6","6","6","1","7","7","1","6","6","7","7","7","5","6","7","5","6","1","6","3","7","5","7","7","6","1","7","7","7","7","7","1","7","7","7","6","7","656853379439394816","张","452","Male","[""坏他"",""坏我"",""好我"",""好他""]","[""弱他"",""弱我"",""强我"",""强他""]","","","","","","","","6","","","","","","","","","SRET","SRET_math_calculate","","key","6","16.653488372092934","640","356","","","","","3+3= ?","6","1","","","","","","","",""
"1813","","2","psychophysics","120","506489","0.0-7.0-5.0-0.17","5","4","5","4","3","5","3","5","5","5","5","2","0","1","2","2","1","1","2","5","5","5","5","5","4","4","5","5","5","6","7","8","9","8","7","8","7","9","5","7","4","7","6","6","6","1","7","7","1","6","6","7","7","7","5","6","7","5","6","1","6","3","7","5","7","7","6","1","7","7","7","7","7","1","7","7","7","6","7","656853379439394816","张","452","Male","[""坏他"",""坏我"",""好我"",""好他""]","[""弱他"",""弱我"",""强我"",""强他""]","","","","","","","","2","","","","","","","","","SRET","SRET_math_calculate","","key","2","16.65092592592582","640","356","","","","","9-7= ?","2","1","","","","","","","",""
"2131","","8","psychophysics","121","508622","0.0-7.0-5.0-0.18","5","4","5","4","3","5","3","5","5","5","5","2","0","1","2","2","1","1","2","5","5","5","5","5","4","4","5","5","5","6","7","8","9","8","7","8","7","9","5","7","4","7","6","6","6","1","7","7","1","6","6","7","7","7","5","6","7","5","6","1","6","3","7","5","7","7","6","1","7","7","7","7","7","1","7","7","7","6","7","656853379439394816","张","452","Male","[""坏他"",""坏我"",""好我"",""好他""]","[""弱他"",""弱我"",""强我"",""强他""]","","","","","","","","8","","","","","","","","","SRET","SRET_math_calculate","","key","8","16.655118110236312","640","356","","","","","50-42= ?","8","1","","","","","","","",""
"2184","","7","psychophysics","122","510807","0.0-7.0-5.0-0.19","5","4","5","4","3","5","3","5","5","5","5","2","0","1","2","2","1","1","2","5","5","5","5","5","4","4","5","5","5","6","7","8","9","8","7","8","7","9","5","7","4","7","6","6","6","1","7","7","1","6","6","7","7","7","5","6","7","5","6","1","6","3","7","5","7","7","6","1","7","7","7","7","7","1","7","7","7","6","7","656853379439394816","张","452","Male","[""坏他"",""坏我"",""好我"",""好他""]","[""弱他"",""弱我"",""强我"",""强他""]","","","","","","","","7","","","","","","","","","SRET","SRET_math_calculate","","key","7","16.654615384615205","640","356","","","","","9-2= ?","7","1","","","","","","","",""
"1992","","2","psychophysics","123","512802","0.0-7.0-5.0-0.20","5","4","5","4","3","5","3","5","5","5","5","2","0","1","2","2","1","1","2","5","5","5","5","5","4","4","5","5","5","6","7","8","9","8","7","8","7","9","5","7","4","7","6","6","6","1","7","7","1","6","6","7","7","7","5","6","7","5","6","1","6","3","7","5","7","7","6","1","7","7","7","7","7","1","7","7","7","6","7","656853379439394816","张","452","Male","[""坏他"",""坏我"",""好我"",""好他""]","[""弱他"",""弱我"",""强我"",""强他""]","","","","","","","","2","","","","","","","","","SRET","SRET_math_calculate","","key","2","16.652941176470197","640","356","","","","","18/9= ?","2","1","","","","","","","",""
"2049","","9","psychophysics","124","514854","0.0-7.0-5.0-0.21","5","4","5","4","3","5","3","5","5","5","5","2","0","1","2","2","1","1","2","5","5","5","5","5","4","4","5","5","5","6","7","8","9","8","7","8","7","9","5","7","4","7","6","6","6","1","7","7","1","6","6","7","7","7","5","6","7","5","6","1","6","3","7","5","7","7","6","1","7","7","7","7","7","1","7","7","7","6","7","656853379439394816","张","452","Male","[""坏他"",""坏我"",""好我"",""好他""]","[""弱他"",""弱我"",""强我"",""强他""]","","","","","","","","9","","","","","","","","","SRET","SRET_math_calculate","","key","9","16.653278688524686","640","356","","","","","5+4= ?","9","1","","","","","","","",""
"1995","","2","psychophysics","125","516851","0.0-7.0-5.0-0.22","5","4","5","4","3","5","3","5","5","5","5","2","0","1","2","2","1","1","2","5","5","5","5","5","4","4","5","5","5","6","7","8","9","8","7","8","7","9","5","7","4","7","6","6","6","1","7","7","1","6","6","7","7","7","5","6","7","5","6","1","6","3","7","5","7","7","6","1","7","7","7","7","7","1","7","7","7","6","7","656853379439394816","张","452","Male","[""坏他"",""坏我"",""好我"",""好他""]","[""弱他"",""弱我"",""强我"",""强他""]","","","","","","","","2","","","","","","","","","SRET","SRET_math_calculate","","key","2","16.652941176470687","640","356","","","","","8-6= ?","2","1","","","","","","","",""
"1819","","2","psychophysics","126","518672","0.0-7.0-5.0-0.23","5","4","5","4","3","5","3","5","5","5","5","2","0","1","2","2","1","1","2","5","5","5","5","5","4","4","5","5","5","6","7","8","9","8","7","8","7","9","5","7","4","7","6","6","6","1","7","7","1","6","6","7","7","7","5","6","7","5","6","1","6","3","7","5","7","7","6","1","7","7","7","7","7","1","7","7","7","6","7","656853379439394816","张","452","Male","[""坏他"",""坏我"",""好我"",""好他""]","[""弱他"",""弱我"",""强我"",""强他""]","","","","","","","","2","","","","","","","","","SRET","SRET_math_calculate","","key","2","16.65370370370349","640","356","","","","","1+1= ?","2","1","","","","","","","",""
"2204","","0","psychophysics","127","520878","0.0-7.0-5.0-0.24","5","4","5","4","3","5","3","5","5","5","5","2","0","1","2","2","1","1","2","5","5","5","5","5","4","4","5","5","5","6","7","8","9","8","7","8","7","9","5","7","4","7","6","6","6","1","7","7","1","6","6","7","7","7","5","6","7","5","6","1","6","3","7","5","7","7","6","1","7","7","7","7","7","1","7","7","7","6","7","656853379439394816","张","452","Male","[""坏他"",""坏我"",""好我"",""好他""]","[""弱他"",""弱我"",""强我"",""强他""]","","","","","","","","0","","","","","","","","","SRET","SRET_math_calculate","","key","0","16.65227272727299","640","356","","","","","6*0= ?","0","1","","","","","","","",""
"2071","","9","psychophysics","128","522951","0.0-7.0-5.0-0.25","5","4","5","4","3","5","3","5","5","5","5","2","0","1","2","2","1","1","2","5","5","5","5","5","4","4","5","5","5","6","7","8","9","8","7","8","7","9","5","7","4","7","6","6","6","1","7","7","1","6","6","7","7","7","5","6","7","5","6","1","6","3","7","5","7","7","6","1","7","7","7","7","7","1","7","7","7","6","7","656853379439394816","张","452","Male","[""坏他"",""坏我"",""好我"",""好他""]","[""弱他"",""弱我"",""强我"",""强他""]","","","","","","","","9","","","","","","","","","SRET","SRET_math_calculate","","key","9","16.652845528455664","640","356","","","","","8+1= ?","9","1","","","","","","","",""
"1897","","8","psychophysics","129","524850","0.0-7.0-5.0-0.26","5","4","5","4","3","5","3","5","5","5","5","2","0","1","2","2","1","1","2","5","5","5","5","5","4","4","5","5","5","6","7","8","9","8","7","8","7","9","5","7","4","7","6","6","6","1","7","7","1","6","6","7","7","7","5","6","7","5","6","1","6","3","7","5","7","7","6","1","7","7","7","7","7","1","7","7","7","6","7","656853379439394816","张","452","Male","[""坏他"",""坏我"",""好我"",""好他""]","[""弱他"",""弱我"",""强我"",""强他""]","","","","","","","","8","","","","","","","","","SRET","SRET_math_calculate","","key","8","16.655752212389174","640","356","","","","","1*8= ?","8","1","","","","","","","",""
"2628","","6","psychophysics","130","527480","0.0-7.0-5.0-0.27","5","4","5","4","3","5","3","5","5","5","5","2","0","1","2","2","1","1","2","5","5","5","5","5","4","4","5","5","5","6","7","8","9","8","7","8","7","9","5","7","4","7","6","6","6","1","7","7","1","6","6","7","7","7","5","6","7","5","6","1","6","3","7","5","7","7","6","1","7","7","7","7","7","1","7","7","7","6","7","656853379439394816","张","452","Male","[""坏他"",""坏我"",""好我"",""好他""]","[""弱他"",""弱我"",""强我"",""强他""]","","","","","","","","6","","","","","","","","","SRET","SRET_math_calculate","","key","6","16.652229299363206","640","356","","","","","3*2= ?","6","1","","","","","","","",""
"2058","","8","psychophysics","131","529540","0.0-7.0-5.0-0.28","5","4","5","4","3","5","3","5","5","5","5","2","0","1","2","2","1","1","2","5","5","5","5","5","4","4","5","5","5","6","7","8","9","8","7","8","7","9","5","7","4","7","6","6","6","1","7","7","1","6","6","7","7","7","5","6","7","5","6","1","6","3","7","5","7","7","6","1","7","7","7","7","7","1","7","7","7","6","7","656853379439394816","张","452","Male","[""坏他"",""坏我"",""好我"",""好他""]","[""弱他"",""弱我"",""强我"",""强他""]","","","","","","","","8","","","","","","","","","SRET","SRET_math_calculate","","key","8","16.653658536585557","640","356","","","","","11-3= ?","8","1","","","","","","","",""
"1966","","8","psychophysics","132","531507","0.0-7.0-5.0-0.29","5","4","5","4","3","5","3","5","5","5","5","2","0","1","2","2","1","1","2","5","5","5","5","5","4","4","5","5","5","6","7","8","9","8","7","8","7","9","5","7","4","7","6","6","6","1","7","7","1","6","6","7","7","7","5","6","7","5","6","1","6","3","7","5","7","7","6","1","7","7","7","7","7","1","7","7","7","6","7","656853379439394816","张","452","Male","[""坏他"",""坏我"",""好我"",""好他""]","[""弱他"",""弱我"",""强我"",""强他""]","","","","","","","","8","","","","","","","","","SRET","SRET_math_calculate","","key","8","16.652991452991653","640","356","","","","","13-5= ?","8","1","","","","","","","",""
"2050","","6","psychophysics","133","533559","0.0-7.0-5.0-0.30","5","4","5","4","3","5","3","5","5","5","5","2","0","1","2","2","1","1","2","5","5","5","5","5","4","4","5","5","5","6","7","8","9","8","7","8","7","9","5","7","4","7","6","6","6","1","7","7","1","6","6","7","7","7","5","6","7","5","6","1","6","3","7","5","7","7","6","1","7","7","7","7","7","1","7","7","7","6","7","656853379439394816","张","452","Male","[""坏他"",""坏我"",""好我"",""好他""]","[""弱他"",""弱我"",""强我"",""强他""]","","","","","","","","6","","","","","","","","","SRET","SRET_math_calculate","","key","6","16.654098360655166","640","356","","","","","4+2= ?","6","1","","","","","","","",""
"2109","","4","psychophysics","134","535669","0.0-7.0-5.0-0.31","5","4","5","4","3","5","3","5","5","5","5","2","0","1","2","2","1","1","2","5","5","5","5","5","4","4","5","5","5","6","7","8","9","8","7","8","7","9","5","7","4","7","6","6","6","1","7","7","1","6","6","7","7","7","5","6","7","5","6","1","6","3","7","5","7","7","6","1","7","7","7","7","7","1","7","7","7","6","7","656853379439394816","张","452","Male","[""坏他"",""坏我"",""好我"",""好他""]","[""弱他"",""弱我"",""强我"",""强他""]","","","","","","","","4","","","","","","","","","SRET","SRET_math_calculate","","key","4","16.654761904761905","640","356","","","","","3+1= ?","4","1","","","","","","","",""
"1954","","9","psychophysics","135","537625","0.0-7.0-5.0-0.32","5","4","5","4","3","5","3","5","5","5","5","2","0","1","2","2","1","1","2","5","5","5","5","5","4","4","5","5","5","6","7","8","9","8","7","8","7","9","5","7","4","7","6","6","6","1","7","7","1","6","6","7","7","7","5","6","7","5","6","1","6","3","7","5","7","7","6","1","7","7","7","7","7","1","7","7","7","6","7","656853379439394816","张","452","Male","[""坏他"",""坏我"",""好我"",""好他""]","[""弱他"",""弱我"",""强我"",""强他""]","","","","","","","","9","","","","","","","","","SRET","SRET_math_calculate","","key","9","16.65344827586247","640","356","","","","","1+8= ?","9","1","","","","","","","",""
"1960","","8","psychophysics","136","539587","0.0-7.0-5.0-0.33","5","4","5","4","3","5","3","5","5","5","5","2","0","1","2","2","1","1","2","5","5","5","5","5","4","4","5","5","5","6","7","8","9","8","7","8","7","9","5","7","4","7","6","6","6","1","7","7","1","6","6","7","7","7","5","6","7","5","6","1","6","3","7","5","7","7","6","1","7","7","7","7","7","1","7","7","7","6","7","656853379439394816","张","452","Male","[""坏他"",""坏我"",""好我"",""好他""]","[""弱他"",""弱我"",""强我"",""强他""]","","","","","","","","8","","","","","","","","","SRET","SRET_math_calculate","","key","8","16.653846153846153","640","356","","","","","1+7= ?","8","1","","","","","","","",""
"2130","","0","psychophysics","137","541718","0.0-7.0-5.0-0.34","5","4","5","4","3","5","3","5","5","5","5","2","0","1","2","2","1","1","2","5","5","5","5","5","4","4","5","5","5","6","7","8","9","8","7","8","7","9","5","7","4","7","6","6","6","1","7","7","1","6","6","7","7","7","5","6","7","5","6","1","6","3","7","5","7","7","6","1","7","7","7","7","7","1","7","7","7","6","7","656853379439394816","张","452","Male","[""坏他"",""坏我"",""好我"",""好他""]","[""弱他"",""弱我"",""强我"",""强他""]","","","","","","","","0","","","","","","","","","SRET","SRET_math_calculate","","key","0","16.65590551181139","640","356","","","","","22-22= ?","0","1","","","","","","","",""
"1757","","8","psychophysics","138","543477","0.0-7.0-5.0-0.35","5","4","5","4","3","5","3","5","5","5","5","2","0","1","2","2","1","1","2","5","5","5","5","5","4","4","5","5","5","6","7","8","9","8","7","8","7","9","5","7","4","7","6","6","6","1","7","7","1","6","6","7","7","7","5","6","7","5","6","1","6","3","7","5","7","7","6","1","7","7","7","7","7","1","7","7","7","6","7","656853379439394816","张","452","Male","[""坏他"",""坏我"",""好我"",""好他""]","[""弱他"",""弱我"",""强我"",""强他""]","","","","","","","","8","","","","","","","","","SRET","SRET_math_calculate","","key","8","16.652380952380952","640","356","","","","","6+2= ?","8","1","","","","","","","",""
"1762","","9","psychophysics","139","545242","0.0-7.0-5.0-0.36","5","4","5","4","3","5","3","5","5","5","5","2","0","1","2","2","1","1","2","5","5","5","5","5","4","4","5","5","5","6","7","8","9","8","7","8","7","9","5","7","4","7","6","6","6","1","7","7","1","6","6","7","7","7","5","6","7","5","6","1","6","3","7","5","7","7","6","1","7","7","7","7","7","1","7","7","7","6","7","656853379439394816","张","452","Male","[""坏他"",""坏我"",""好我"",""好他""]","[""弱他"",""弱我"",""强我"",""强他""]","","","","","","","","9","","","","","","","","","SRET","SRET_math_calculate","","key","9","16.652380952380952","640","356","","","","","2+7= ?","9","1","","","","","","","",""
"2119","","3","psychophysics","140","547363","0.0-7.0-5.0-0.37","5","4","5","4","3","5","3","5","5","5","5","2","0","1","2","2","1","1","2","5","5","5","5","5","4","4","5","5","5","6","7","8","9","8","7","8","7","9","5","7","4","7","6","6","6","1","7","7","1","6","6","7","7","7","5","6","7","5","6","1","6","3","7","5","7","7","6","1","7","7","7","7","7","1","7","7","7","6","7","656853379439394816","张","452","Male","[""坏他"",""坏我"",""好我"",""好他""]","[""弱他"",""弱我"",""强我"",""强他""]","","","","","","","","3","","","","","","","","","SRET","SRET_math_calculate","","key","3","16.655555555556294","640","356","","","","","21/7=  ?","3","1","","","","","","","",""
"2213","","2","psychophysics","141","549579","0.0-7.0-5.0-0.38","5","4","5","4","3","5","3","5","5","5","5","2","0","1","2","2","1","1","2","5","5","5","5","5","4","4","5","5","5","6","7","8","9","8","7","8","7","9","5","7","4","7","6","6","6","1","7","7","1","6","6","7","7","7","5","6","7","5","6","1","6","3","7","5","7","7","6","1","7","7","7","7","7","1","7","7","7","6","7","656853379439394816","张","452","Male","[""坏他"",""坏我"",""好我"",""好他""]","[""弱他"",""弱我"",""强我"",""强他""]","","","","","","","","2","","","","","","","","","SRET","SRET_math_calculate","","key","2","16.65606060606043","640","356","","","","","22/11= ?","2","1","","","","","","","",""
"1931","","8","psychophysics","142","551511","0.0-7.0-5.0-0.39","5","4","5","4","3","5","3","5","5","5","5","2","0","1","2","2","1","1","2","5","5","5","5","5","4","4","5","5","5","6","7","8","9","8","7","8","7","9","5","7","4","7","6","6","6","1","7","7","1","6","6","7","7","7","5","6","7","5","6","1","6","3","7","5","7","7","6","1","7","7","7","7","7","1","7","7","7","6","7","656853379439394816","张","452","Male","[""坏他"",""坏我"",""好我"",""好他""]","[""弱他"",""弱我"",""强我"",""强他""]","","","","","","","","8","","","","","","","","","SRET","SRET_math_calculate","","key","8","16.653043478260667","640","356","","","","","9-1= ?","8","1","","","","","","","",""
