"rt","stimulus","response","trial_type","trial_index","time_elapsed","internal_node_id","swb_1","swb_2","swb_3","swb_4","swb_5","LOT_1","LOT_2","LOT_3","LOT_4","LOT_5","LOT_6","IPC_1","IPC_2","IPC_3","IPC_4","IPC_5","IPC_6","IPC_7","IPC_8","MorIden_1","MorIden_2","MorIden_3","MorIden_4","MorIden_5","MorIden_6","MorIden_7","MorIden_8","MorIden_9","MorIden_10","moralSeImag_1","moralSeImag_2","moralSeImag_3","moralSeImag_4","moralSeImag_5","moralSeImag_6","moralSeImag_7","moralSeImag_8","moralSeImag_9","sde_1","sde_2","sde_3","sde_4","sde_5","sde_6","sde_7","sde_8","sde_9","sde_10","trap2","sde_11","sde_12","sde_13","sde_14","sde_15","sde_16","sde_17","sde_18","sde_19","sde_20","IM_1","IM_2","IM_3","IM_4","IM_5","IM_6","IM_7","IM_8","IM_9","IM_10","IM_11","IM_12","IM_13","IM_14","IM_15","IM_16","IM_17","IM_18","IM_19","IM_20","subj_idx","friend_name","ParticipantID","Sex","Word","Word2","value","success","timeout","failed_images","failed_audio","failed_video","user_agent","responses","item_order","radio_event_ids","radio_event_times","key_event_times","mouse_event_times","straightlining","zigzagging","honeypot","task_id","screen_id","time_stamp","response_type","key_press","avg_frame_time","center_x","center_y","person","word","valence","domain","math","correct_response","correct","status","view_history","identity","duration","Image","condition","question_order","trap2_item"
"1133","
   <p><div style='color:white; font-size: 25px'>您好，欢迎参加本次实验。</div></p>
   <p><div style='color:white; font-size: 25px'>为充分保障您的权利，请确保您已经知晓并同意《参与实验同意书》以及《数据公开知情同意书》。</div></p>
   <p><div style='color:white; font-size: 25px'>如果您未见过上述内容，请咨询实验员。</div></p>
   <p style='color:white; font-size: 25px'>如果您选择继续实验，则表示您已经清楚两份知情同意书的内容并同意。</p>
   <p><div style = ""color: pink;font-size:30px;"">请确保您记得day0的实验编号，您将在本次实验输入该编号，若您忘记，请咨询实验员后作答。</div></p>
   <p><div style = ""color:lightblue;font-size:25px;"">请您尽可能认真地作答，我们将依据您在各问卷和按键任务中的作答质量发放报酬。</div></p>
   <p> <div style = ""color: green""><按空格键至下页></div> </p>
   "," ","html-keyboard-response","0","1137","0.0-0.0","5","7","6","6","2","4","3","5","5","5","5","1","-1","1","-2","1","2","2","1","5","5","5","5","5","3","4","4","4","5","5","7","5","5","4","8","7","8","9","5","6","6","7","5","3","6","5","6","5","1","4","3","4","5","5","6","5","5","6","7","3","6","3","3","2","6","3","6","6","7","3","2","7","2","3","6","3","7","5","6","781451640430661634","王","373","Male","[""好他"",""好我"",""坏他"",""坏我""]","[""强他"",""强我"",""弱他"",""弱我""]","","","","","","","","","","","","","","","","","","","","","","","","","","","","","","","","","","","","","","",""
"","","","call-function","1","1138","0.0-1.0-0.0","5","7","6","6","2","4","3","5","5","5","5","1","-1","1","-2","1","2","2","1","5","5","5","5","5","3","4","4","4","5","5","7","5","5","4","8","7","8","9","5","6","6","7","5","3","6","5","6","5","1","4","3","4","5","5","6","5","5","6","7","3","6","3","3","2","6","3","6","6","7","3","2","7","2","3","6","3","7","5","6","781451640430661634","王","373","Male","[""好他"",""好我"",""坏他"",""坏我""]","[""强他"",""强我"",""弱他"",""弱我""]","","","","","","","","","","","","","","","","","","","","","","","","","","","","","","","","","","","","","","",""
"135261","","[{""name"":""Sex"",""value"":""0""},{""name"":""friend_name"",""value"":""王""},{""name"":""ParticipantID"",""value"":""373""}]","survey-html-form","2","136400","0.0-1.0-1.0","5","7","6","6","2","4","3","5","5","5","5","1","-1","1","-2","1","2","2","1","5","5","5","5","5","3","4","4","4","5","5","7","5","5","4","8","7","8","9","5","6","6","7","5","3","6","5","6","5","1","4","3","4","5","5","6","5","5","6","7","3","6","3","3","2","6","3","6","6","7","3","2","7","2","3","6","3","7","5","6","781451640430661634","王","373","Male","[""好他"",""好我"",""坏他"",""坏我""]","[""强他"",""强我"",""弱他"",""弱我""]","","","","","","","","","","","","","","","","","","","","","","","","","","","","","","","","","","","","","","",""
"","","","preload","3","136649","0.0-2.0","5","7","6","6","2","4","3","5","5","5","5","1","-1","1","-2","1","2","2","1","5","5","5","5","5","3","4","4","4","5","5","7","5","5","4","8","7","8","9","5","6","6","7","5","3","6","5","6","5","1","4","3","4","5","5","6","5","5","6","7","3","6","3","3","2","6","3","6","6","7","3","2","7","2","3","6","3","7","5","6","781451640430661634","王","373","Male","[""好他"",""好我"",""坏他"",""坏我""]","[""强他"",""强我"",""弱他"",""弱我""]","","true","false","[]","[]","[]","","","","","","","","","","","","","","","","","","","","","","","","","","","","","","","","",""
"","","","fullscreen","4","150765","0.0-3.0","5","7","6","6","2","4","3","5","5","5","5","1","-1","1","-2","1","2","2","1","5","5","5","5","5","3","4","4","4","5","5","7","5","5","4","8","7","8","9","5","6","6","7","5","3","6","5","6","5","1","4","3","4","5","5","6","5","5","6","7","3","6","3","3","2","6","3","6","6","7","3","2","7","2","3","6","3","7","5","6","781451640430661634","王","373","Male","[""好他"",""好我"",""坏他"",""坏我""]","[""强他"",""强我"",""弱他"",""弱我""]","","true","","","","","{}","","","","","","","","","","","","","","","","","","","","","","","","","","","","","","","",""
"10277.399999999907","","{""Q01"":""5"",""Q02"":""7"",""Q03"":""6"",""Q04"":""6"",""Q05"":""2""}","survey-template","5","161045","0.0-4.0","5","7","6","6","2","4","3","5","5","5","5","1","-1","1","-2","1","2","2","1","5","5","5","5","5","3","4","4","4","5","5","7","5","5","4","8","7","8","9","5","6","6","7","5","3","6","5","6","5","1","4","3","4","5","5","6","5","5","6","7","3","6","3","3","2","6","3","6","6","7","3","2","7","2","3","6","3","7","5","6","781451640430661634","王","373","Male","[""好他"",""好我"",""坏他"",""坏我""]","[""强他"",""强我"",""弱他"",""弱我""]","","","","","","","","{""Q01"":""5"",""Q02"":""7"",""Q03"":""6"",""Q04"":""6"",""Q05"":""2""}","[0,1,2,3,4]","[""Q01"",""Q02"",""Q03"",""Q04"",""Q05""]","[3590.399999999907,4678.199999999721,6066.199999999721,7986.299999999814,9597.899999999907]","[]","[3590.399999999907,4678.199999999721,6066.199999999721,7986.299999999814,9597.899999999907,10276.19999999972]","0.4","0.25","0","","","","","","","","","","","","","","","","","","","","","","",""
"20348","","{""Q01"":""4"",""Q02"":""3"",""Q03"":""5"",""Q04"":""5"",""Q05"":""5"",""Q06"":""5""}","survey-template","6","181396","0.0-5.0","5","7","6","6","2","4","3","5","5","5","5","1","-1","1","-2","1","2","2","1","5","5","5","5","5","3","4","4","4","5","5","7","5","5","4","8","7","8","9","5","6","6","7","5","3","6","5","6","5","1","4","3","4","5","5","6","5","5","6","7","3","6","3","3","2","6","3","6","6","7","3","2","7","2","3","6","3","7","5","6","781451640430661634","王","373","Male","[""好他"",""好我"",""坏他"",""坏我""]","[""强他"",""强我"",""弱他"",""弱我""]","","","","","","","","{""Q01"":""4"",""Q02"":""3"",""Q03"":""5"",""Q04"":""5"",""Q05"":""5"",""Q06"":""5""}","[0,1,2,3,4,5]","[""Q01"",""Q03"",""Q02"",""Q04"",""Q05"",""Q06""]","[8907.899999999907,9985,12624.899999999907,16023,16887.700000000186,18422.899999999907]","[]","[8907.899999999907,9985,12624.899999999907,15371.200000000186,16023,16887.700000000186,18422.899999999907,20347.200000000186]","0.3333333333333333","0.6","0","","","","","","","","","","","","","","","","","","","","","","",""
"15626.100000000093","","{""Q01"":""1"",""Q02"":""-1"",""Q03"":""1"",""Q04"":""-2"",""Q05"":""1"",""Q06"":""2"",""Q07"":""2"",""Q08"":""1""}","survey-template","7","197027","0.0-6.0","5","7","6","6","2","4","3","5","5","5","5","1","-1","1","-2","1","2","2","1","5","5","5","5","5","3","4","4","4","5","5","7","5","5","4","8","7","8","9","5","6","6","7","5","3","6","5","6","5","1","4","3","4","5","5","6","5","5","6","7","3","6","3","3","2","6","3","6","6","7","3","2","7","2","3","6","3","7","5","6","781451640430661634","王","373","Male","[""好他"",""好我"",""坏他"",""坏我""]","[""强他"",""强我"",""弱他"",""弱我""]","","","","","","","","{""Q01"":""1"",""Q02"":""-1"",""Q03"":""1"",""Q04"":""-2"",""Q05"":""1"",""Q06"":""2"",""Q07"":""2"",""Q08"":""1""}","[0,1,2,3,4,5,6,7]","[""Q01"",""Q02"",""Q03"",""Q04"",""Q05"",""Q06"",""Q07"",""Q08""]","[3609.399999999907,5204.399999999907,6788.799999999814,8914.69999999972,10706.799999999814,11874.899999999907,13314.799999999814,15100.600000000093]","[]","[3609.399999999907,5204.399999999907,6788.799999999814,8406.899999999907,8914.69999999972,10706.799999999814,11874.899999999907,13314.799999999814,15100.600000000093,15624.799999999814]","0.5","0.2857142857142857","0","","","","","","","","","","","","","","","","","","","","","","",""
"9209","
    <p><div style='color:white;font-size:35px; line-height:20px;'>词汇评估任务</div></p><br>
    <p><div style='color:white;font-size:25px; line-height:20px;'>请再次回忆该亲密的朋友，你们至少2年前就认识了，并且最近2年经常见面。</div></p>
    <p><div style='color:white;font-size:25px; line-height:20px;'>在本实验中，您将会看到一些形容词。</div></p>
    <p><div style='color:yellow;font-size:25px; line-height:20px;'>您的任务是判断这些形容词是否符合对您自己或您的朋友的描述。</div></p><p style='font-size:35px'>符合按<span style=""color:lightgreen""> j 键</span>，不符合按<span style=""color:red""> f 键</span></p>","0","html-button-response","8","206239","0.0-7.0-0.0","5","7","6","6","2","4","3","5","5","5","5","1","-1","1","-2","1","2","2","1","5","5","5","5","5","3","4","4","4","5","5","7","5","5","4","8","7","8","9","5","6","6","7","5","3","6","5","6","5","1","4","3","4","5","5","6","5","5","6","7","3","6","3","3","2","6","3","6","6","7","3","2","7","2","3","6","3","7","5","6","781451640430661634","王","373","Male","[""好他"",""好我"",""坏他"",""坏我""]","[""强他"",""强我"",""弱他"",""弱我""]","","","","","","","","","","","","","","","","","SRET_EW","EW_instructions","Sat Jan 20 2024 14:29:57 GMT+0800 (中国标准时间)","","","","","","","","","","","","","","","","","","","",""
"null","","null","psychophysics","9","209246","0.0-7.0-1.0-0.0","5","7","6","6","2","4","3","5","5","5","5","1","-1","1","-2","1","2","2","1","5","5","5","5","5","3","4","4","4","5","5","7","5","5","4","8","7","8","9","5","6","6","7","5","3","6","5","6","5","1","4","3","4","5","5","6","5","5","6","7","3","6","3","3","2","6","3","6","6","7","3","2","7","2","3","6","3","7","5","6","781451640430661634","王","373","Male","[""好他"",""好我"",""坏他"",""坏我""]","[""强他"",""强我"",""弱他"",""弱我""]","","","","","","","","","","","","","","","","","SRET_EW","EW_practice","","key","null","16.651666666666763","768","428","自己","刻板","Negative","ability","","","","","","","","","","",""
"910","","j","psychophysics","10","211160","0.0-7.0-1.0-0.1","5","7","6","6","2","4","3","5","5","5","5","1","-1","1","-2","1","2","2","1","5","5","5","5","5","3","4","4","4","5","5","7","5","5","4","8","7","8","9","5","6","6","7","5","3","6","5","6","5","1","4","3","4","5","5","6","5","5","6","7","3","6","3","3","2","6","3","6","6","7","3","2","7","2","3","6","3","7","5","6","781451640430661634","王","373","Male","[""好他"",""好我"",""坏他"",""坏我""]","[""强他"",""强我"",""弱他"",""弱我""]","","","","","","","","yes","","","","","","","","","SRET_EW","EW_practice","","key","j","16.654385964912333","768","428","朋友","忠实","Positive","morality","","","","","","","","","","",""
"984","","f","psychophysics","11","213148","0.0-7.0-1.0-0.2","5","7","6","6","2","4","3","5","5","5","5","1","-1","1","-2","1","2","2","1","5","5","5","5","5","3","4","4","4","5","5","7","5","5","4","8","7","8","9","5","6","6","7","5","3","6","5","6","5","1","4","3","4","5","5","6","5","5","6","7","3","6","3","3","2","6","3","6","6","7","3","2","7","2","3","6","3","7","5","6","781451640430661634","王","373","Male","[""好他"",""好我"",""坏他"",""坏我""]","[""强他"",""强我"",""弱他"",""弱我""]","","","","","","","","no","","","","","","","","","SRET_EW","EW_practice","","key","f","16.65508474576286","768","428","朋友","徇私","Negative","morality","","","","","","","","","","",""
"814","","j","psychophysics","12","214963","0.0-7.0-1.0-0.3","5","7","6","6","2","4","3","5","5","5","5","1","-1","1","-2","1","2","2","1","5","5","5","5","5","3","4","4","4","5","5","7","5","5","4","8","7","8","9","5","6","6","7","5","3","6","5","6","5","1","4","3","4","5","5","6","5","5","6","7","3","6","3","3","2","6","3","6","6","7","3","2","7","2","3","6","3","7","5","6","781451640430661634","王","373","Male","[""好他"",""好我"",""坏他"",""坏我""]","[""强他"",""强我"",""弱他"",""弱我""]","","","","","","","","yes","","","","","","","","","SRET_EW","EW_practice","","key","j","16.654128440366865","768","428","自己","严谨","Positive","ability","","","","","","","","","","",""
"11813","
    <p><div style='color:white;font-size:35px; line-height:20px;'>请您再次阅读实验要求</div></p><br>
    <p><div style='color:white;font-size:25px; line-height:20px;'>请回忆某一个亲密的朋友，你们至少2年前就认识了，并且最近2年经常见面。</div></p>
    <p><div style='color:white;font-size:25px; line-height:20px;'>在本实验中，您将会看到一些形容词。</div></p>
    <p><div style='color:yellow;font-size:25px; line-height:20px;'>您的任务是判断这些形容词是否符合对您自己或您的朋友的描述。</div></p>
    <p><div class='footer' style='font-size:25px; line-height:20px;'>如果对本实验还有不清楚之处，请立即向实验员咨询。</p><p style='font-size:25px; line-height:20px;'>如果您明白了规则：</p><p style='font-size:22px; line-height:20px;'>请按 继续 进入正式实验</p>
    </div>
    <p style='font-size:35px'>符合按<span style=""color:lightgreen""> j 键</span>，不符合按<span style=""color:red""> f 键</span></p>","0","html-button-response","13","226777","0.0-7.0-2.0","5","7","6","6","2","4","3","5","5","5","5","1","-1","1","-2","1","2","2","1","5","5","5","5","5","3","4","4","4","5","5","7","5","5","4","8","7","8","9","5","6","6","7","5","3","6","5","6","5","1","4","3","4","5","5","6","5","5","6","7","3","6","3","3","2","6","3","6","6","7","3","2","7","2","3","6","3","7","5","6","781451640430661634","王","373","Male","[""好他"",""好我"",""坏他"",""坏我""]","[""强他"",""强我"",""弱他"",""弱我""]","","","","","","","","","","","","","","","","","SRET_EW","prac_instructions","Sat Jan 20 2024 14:29:57 GMT+0800 (中国标准时间)","","","","","","","","","","","","","","","","","","","",""
"524","","j","psychophysics","14","228302","0.0-7.0-3.0-0.0","5","7","6","6","2","4","3","5","5","5","5","1","-1","1","-2","1","2","2","1","5","5","5","5","5","3","4","4","4","5","5","7","5","5","4","8","7","8","9","5","6","6","7","5","3","6","5","6","5","1","4","3","4","5","5","6","5","5","6","7","3","6","3","3","2","6","3","6","6","7","3","2","7","2","3","6","3","7","5","6","781451640430661634","王","373","Male","[""好他"",""好我"",""坏他"",""坏我""]","[""强他"",""强我"",""弱他"",""弱我""]","","","","","","","","yes","","","","","","","","","SRET","EW_formal","","key","j","16.651648351648543","768","428","自己","坚贞","Positive","morality","","","","","","","","","","",""
"774","","f","psychophysics","15","230078","0.0-7.0-3.0-0.1","5","7","6","6","2","4","3","5","5","5","5","1","-1","1","-2","1","2","2","1","5","5","5","5","5","3","4","4","4","5","5","7","5","5","4","8","7","8","9","5","6","6","7","5","3","6","5","6","5","1","4","3","4","5","5","6","5","5","6","7","3","6","3","3","2","6","3","6","6","7","3","2","7","2","3","6","3","7","5","6","781451640430661634","王","373","Male","[""好他"",""好我"",""坏他"",""坏我""]","[""强他"",""强我"",""弱他"",""弱我""]","","","","","","","","no","","","","","","","","","SRET","EW_formal","","key","f","16.65283018867908","768","428","朋友","迷糊","Negative","ability","","","","","","","","","","",""
"943","","j","psychophysics","16","232023","0.0-7.0-3.0-0.2","5","7","6","6","2","4","3","5","5","5","5","1","-1","1","-2","1","2","2","1","5","5","5","5","5","3","4","4","4","5","5","7","5","5","4","8","7","8","9","5","6","6","7","5","3","6","5","6","5","1","4","3","4","5","5","6","5","5","6","7","3","6","3","3","2","6","3","6","6","7","3","2","7","2","3","6","3","7","5","6","781451640430661634","王","373","Male","[""好他"",""好我"",""坏他"",""坏我""]","[""强他"",""强我"",""弱他"",""弱我""]","","","","","","","","yes","","","","","","","","","SRET","EW_formal","","key","j","16.654310344827536","768","428","朋友","务实","Positive","ability","","","","","","","","","","",""
"584","","f","psychophysics","17","233609","0.0-7.0-3.0-0.3","5","7","6","6","2","4","3","5","5","5","5","1","-1","1","-2","1","2","2","1","5","5","5","5","5","3","4","4","4","5","5","7","5","5","4","8","7","8","9","5","6","6","7","5","3","6","5","6","5","1","4","3","4","5","5","6","5","5","6","7","3","6","3","3","2","6","3","6","6","7","3","2","7","2","3","6","3","7","5","6","781451640430661634","王","373","Male","[""好他"",""好我"",""坏他"",""坏我""]","[""强他"",""强我"",""弱他"",""弱我""]","","","","","","","","no","","","","","","","","","SRET","EW_formal","","key","f","16.654255319148938","768","428","自己","说谎","Negative","morality","","","","","","","","","","",""
"806","","j","psychophysics","18","235417","0.0-7.0-3.0-0.4","5","7","6","6","2","4","3","5","5","5","5","1","-1","1","-2","1","2","2","1","5","5","5","5","5","3","4","4","4","5","5","7","5","5","4","8","7","8","9","5","6","6","7","5","3","6","5","6","5","1","4","3","4","5","5","6","5","5","6","7","3","6","3","3","2","6","3","6","6","7","3","2","7","2","3","6","3","7","5","6","781451640430661634","王","373","Male","[""好他"",""好我"",""坏他"",""坏我""]","[""强他"",""强我"",""弱他"",""弱我""]","","","","","","","","yes","","","","","","","","","SRET","EW_formal","","key","j","16.65462962962974","768","428","自己","扎实","Positive","ability","","","","","","","","","","",""
"1178","","f","psychophysics","19","237597","0.0-7.0-3.0-0.5","5","7","6","6","2","4","3","5","5","5","5","1","-1","1","-2","1","2","2","1","5","5","5","5","5","3","4","4","4","5","5","7","5","5","4","8","7","8","9","5","6","6","7","5","3","6","5","6","5","1","4","3","4","5","5","6","5","5","6","7","3","6","3","3","2","6","3","6","6","7","3","2","7","2","3","6","3","7","5","6","781451640430661634","王","373","Male","[""好他"",""好我"",""坏他"",""坏我""]","[""强他"",""强我"",""弱他"",""弱我""]","","","","","","","","no","","","","","","","","","SRET","EW_formal","","key","f","16.654263565891426","768","428","朋友","迟钝","Negative","ability","","","","","","","","","","",""
"884","","j","psychophysics","20","239482","0.0-7.0-3.0-0.6","5","7","6","6","2","4","3","5","5","5","5","1","-1","1","-2","1","2","2","1","5","5","5","5","5","3","4","4","4","5","5","7","5","5","4","8","7","8","9","5","6","6","7","5","3","6","5","6","5","1","4","3","4","5","5","6","5","5","6","7","3","6","3","3","2","6","3","6","6","7","3","2","7","2","3","6","3","7","5","6","781451640430661634","王","373","Male","[""好他"",""好我"",""坏他"",""坏我""]","[""强他"",""强我"",""弱他"",""弱我""]","","","","","","","","yes","","","","","","","","","SRET","EW_formal","","key","j","16.65309734513264","768","428","朋友","自私","Negative","morality","","","","","","","","","","",""
"584","","j","psychophysics","21","241068","0.0-7.0-3.0-0.7","5","7","6","6","2","4","3","5","5","5","5","1","-1","1","-2","1","2","2","1","5","5","5","5","5","3","4","4","4","5","5","7","5","5","4","8","7","8","9","5","6","6","7","5","3","6","5","6","5","1","4","3","4","5","5","6","5","5","6","7","3","6","3","3","2","6","3","6","6","7","3","2","7","2","3","6","3","7","5","6","781451640430661634","王","373","Male","[""好他"",""好我"",""坏他"",""坏我""]","[""强他"",""强我"",""弱他"",""弱我""]","","","","","","","","yes","","","","","","","","","SRET","EW_formal","","key","j","16.65319148936164","768","428","朋友","孝顺","Positive","morality","","","","","","","","","","",""
"637","","f","psychophysics","22","242707","0.0-7.0-3.0-0.8","5","7","6","6","2","4","3","5","5","5","5","1","-1","1","-2","1","2","2","1","5","5","5","5","5","3","4","4","4","5","5","7","5","5","4","8","7","8","9","5","6","6","7","5","3","6","5","6","5","1","4","3","4","5","5","6","5","5","6","7","3","6","3","3","2","6","3","6","6","7","3","2","7","2","3","6","3","7","5","6","781451640430661634","王","373","Male","[""好他"",""好我"",""坏他"",""坏我""]","[""强他"",""强我"",""弱他"",""弱我""]","","","","","","","","no","","","","","","","","","SRET","EW_formal","","key","f","16.65360824742262","768","428","朋友","盲目","Negative","ability","","","","","","","","","","",""
"533","","f","psychophysics","23","244242","0.0-7.0-3.0-0.9","5","7","6","6","2","4","3","5","5","5","5","1","-1","1","-2","1","2","2","1","5","5","5","5","5","3","4","4","4","5","5","7","5","5","4","8","7","8","9","5","6","6","7","5","3","6","5","6","5","1","4","3","4","5","5","6","5","5","6","7","3","6","3","3","2","6","3","6","6","7","3","2","7","2","3","6","3","7","5","6","781451640430661634","王","373","Male","[""好他"",""好我"",""坏他"",""坏我""]","[""强他"",""强我"",""弱他"",""弱我""]","","","","","","","","no","","","","","","","","","SRET","EW_formal","","key","f","16.656043956044083","768","428","朋友","愚痴","Negative","ability","","","","","","","","","","",""
"565","","f","psychophysics","24","245808","0.0-7.0-3.0-0.10","5","7","6","6","2","4","3","5","5","5","5","1","-1","1","-2","1","2","2","1","5","5","5","5","5","3","4","4","4","5","5","7","5","5","4","8","7","8","9","5","6","6","7","5","3","6","5","6","5","1","4","3","4","5","5","6","5","5","6","7","3","6","3","3","2","6","3","6","6","7","3","2","7","2","3","6","3","7","5","6","781451640430661634","王","373","Male","[""好他"",""好我"",""坏他"",""坏我""]","[""强他"",""强我"",""弱他"",""弱我""]","","","","","","","","no","","","","","","","","","SRET","EW_formal","","key","f","16.655319148936233","768","428","朋友","诡诈","Negative","morality","","","","","","","","","","",""
"755","","j","psychophysics","25","247565","0.0-7.0-3.0-0.11","5","7","6","6","2","4","3","5","5","5","5","1","-1","1","-2","1","2","2","1","5","5","5","5","5","3","4","4","4","5","5","7","5","5","4","8","7","8","9","5","6","6","7","5","3","6","5","6","5","1","4","3","4","5","5","6","5","5","6","7","3","6","3","3","2","6","3","6","6","7","3","2","7","2","3","6","3","7","5","6","781451640430661634","王","373","Male","[""好他"",""好我"",""坏他"",""坏我""]","[""强他"",""强我"",""弱他"",""弱我""]","","","","","","","","yes","","","","","","","","","SRET","EW_formal","","key","j","16.65288461538484","768","428","自己","诚信","Positive","morality","","","","","","","","","","",""
"676","","f","psychophysics","26","249243","0.0-7.0-3.0-0.12","5","7","6","6","2","4","3","5","5","5","5","1","-1","1","-2","1","2","2","1","5","5","5","5","5","3","4","4","4","5","5","7","5","5","4","8","7","8","9","5","6","6","7","5","3","6","5","6","5","1","4","3","4","5","5","6","5","5","6","7","3","6","3","3","2","6","3","6","6","7","3","2","7","2","3","6","3","7","5","6","781451640430661634","王","373","Male","[""好他"",""好我"",""坏他"",""坏我""]","[""强他"",""强我"",""弱他"",""弱我""]","","","","","","","","no","","","","","","","","","SRET","EW_formal","","key","f","16.65600000000006","768","428","朋友","狡诈","Negative","morality","","","","","","","","","","",""
"683","","j","psychophysics","27","250927","0.0-7.0-3.0-0.13","5","7","6","6","2","4","3","5","5","5","5","1","-1","1","-2","1","2","2","1","5","5","5","5","5","3","4","4","4","5","5","7","5","5","4","8","7","8","9","5","6","6","7","5","3","6","5","6","5","1","4","3","4","5","5","6","5","5","6","7","3","6","3","3","2","6","3","6","6","7","3","2","7","2","3","6","3","7","5","6","781451640430661634","王","373","Male","[""好他"",""好我"",""坏他"",""坏我""]","[""强他"",""强我"",""弱他"",""弱我""]","","","","","","","","yes","","","","","","","","","SRET","EW_formal","","key","j","16.652999999999885","768","428","朋友","善良","Positive","morality","","","","","","","","","","",""
"552","","f","psychophysics","28","252481","0.0-7.0-3.0-0.14","5","7","6","6","2","4","3","5","5","5","5","1","-1","1","-2","1","2","2","1","5","5","5","5","5","3","4","4","4","5","5","7","5","5","4","8","7","8","9","5","6","6","7","5","3","6","5","6","5","1","4","3","4","5","5","6","5","5","6","7","3","6","3","3","2","6","3","6","6","7","3","2","7","2","3","6","3","7","5","6","781451640430661634","王","373","Male","[""好他"",""好我"",""坏他"",""坏我""]","[""强他"",""强我"",""弱他"",""弱我""]","","","","","","","","no","","","","","","","","","SRET","EW_formal","","key","f","16.652173913043477","768","428","自己","龌龊","Negative","morality","","","","","","","","","","",""
"866","","f","psychophysics","29","254348","0.0-7.0-3.0-0.15","5","7","6","6","2","4","3","5","5","5","5","1","-1","1","-2","1","2","2","1","5","5","5","5","5","3","4","4","4","5","5","7","5","5","4","8","7","8","9","5","6","6","7","5","3","6","5","6","5","1","4","3","4","5","5","6","5","5","6","7","3","6","3","3","2","6","3","6","6","7","3","2","7","2","3","6","3","7","5","6","781451640430661634","王","373","Male","[""好他"",""好我"",""坏他"",""坏我""]","[""强他"",""强我"",""弱他"",""弱我""]","","","","","","","","no","","","","","","","","","SRET","EW_formal","","key","f","16.65585585585575","768","428","自己","虚伪","Negative","morality","","","","","","","","","","",""
"536","","j","psychophysics","30","255886","0.0-7.0-3.0-0.16","5","7","6","6","2","4","3","5","5","5","5","1","-1","1","-2","1","2","2","1","5","5","5","5","5","3","4","4","4","5","5","7","5","5","4","8","7","8","9","5","6","6","7","5","3","6","5","6","5","1","4","3","4","5","5","6","5","5","6","7","3","6","3","3","2","6","3","6","6","7","3","2","7","2","3","6","3","7","5","6","781451640430661634","王","373","Male","[""好他"",""好我"",""坏他"",""坏我""]","[""强他"",""强我"",""弱他"",""弱我""]","","","","","","","","yes","","","","","","","","","SRET","EW_formal","","key","j","16.654347826087083","768","428","自己","忠勇","Positive","morality","","","","","","","","","","",""
"618","","j","psychophysics","31","257507","0.0-7.0-3.0-0.17","5","7","6","6","2","4","3","5","5","5","5","1","-1","1","-2","1","2","2","1","5","5","5","5","5","3","4","4","4","5","5","7","5","5","4","8","7","8","9","5","6","6","7","5","3","6","5","6","5","1","4","3","4","5","5","6","5","5","6","7","3","6","3","3","2","6","3","6","6","7","3","2","7","2","3","6","3","7","5","6","781451640430661634","王","373","Male","[""好他"",""好我"",""坏他"",""坏我""]","[""强他"",""强我"",""弱他"",""弱我""]","","","","","","","","yes","","","","","","","","","SRET","EW_formal","","key","j","16.653124999999818","768","428","自己","礼貌","Positive","morality","","","","","","","","","","",""
"693","","f","psychophysics","32","259200","0.0-7.0-3.0-0.18","5","7","6","6","2","4","3","5","5","5","5","1","-1","1","-2","1","2","2","1","5","5","5","5","5","3","4","4","4","5","5","7","5","5","4","8","7","8","9","5","6","6","7","5","3","6","5","6","5","1","4","3","4","5","5","6","5","5","6","7","3","6","3","3","2","6","3","6","6","7","3","2","7","2","3","6","3","7","5","6","781451640430661634","王","373","Male","[""好他"",""好我"",""坏他"",""坏我""]","[""强他"",""强我"",""弱他"",""弱我""]","","","","","","","","no","","","","","","","","","SRET","EW_formal","","key","f","16.65544554455457","768","428","朋友","无耻","Negative","morality","","","","","","","","","","",""
"915","","f","psychophysics","33","261116","0.0-7.0-3.0-0.19","5","7","6","6","2","4","3","5","5","5","5","1","-1","1","-2","1","2","2","1","5","5","5","5","5","3","4","4","4","5","5","7","5","5","4","8","7","8","9","5","6","6","7","5","3","6","5","6","5","1","4","3","4","5","5","6","5","5","6","7","3","6","3","3","2","6","3","6","6","7","3","2","7","2","3","6","3","7","5","6","781451640430661634","王","373","Male","[""好他"",""好我"",""坏他"",""坏我""]","[""强他"",""强我"",""弱他"",""弱我""]","","","","","","","","no","","","","","","","","","SRET","EW_formal","","key","f","16.653508771929825","768","428","自己","马虎","Negative","ability","","","","","","","","","","",""
"729","","f","psychophysics","34","262847","0.0-7.0-3.0-0.20","5","7","6","6","2","4","3","5","5","5","5","1","-1","1","-2","1","2","2","1","5","5","5","5","5","3","4","4","4","5","5","7","5","5","4","8","7","8","9","5","6","6","7","5","3","6","5","6","5","1","4","3","4","5","5","6","5","5","6","7","3","6","3","3","2","6","3","6","6","7","3","2","7","2","3","6","3","7","5","6","781451640430661634","王","373","Male","[""好他"",""好我"",""坏他"",""坏我""]","[""强他"",""强我"",""弱他"",""弱我""]","","","","","","","","no","","","","","","","","","SRET","EW_formal","","key","f","16.651456310679666","768","428","自己","势利","Negative","morality","","","","","","","","","","",""
"590","","f","psychophysics","35","264438","0.0-7.0-3.0-0.21","5","7","6","6","2","4","3","5","5","5","5","1","-1","1","-2","1","2","2","1","5","5","5","5","5","3","4","4","4","5","5","7","5","5","4","8","7","8","9","5","6","6","7","5","3","6","5","6","5","1","4","3","4","5","5","6","5","5","6","7","3","6","3","3","2","6","3","6","6","7","3","2","7","2","3","6","3","7","5","6","781451640430661634","王","373","Male","[""好他"",""好我"",""坏他"",""坏我""]","[""强他"",""强我"",""弱他"",""弱我""]","","","","","","","","no","","","","","","","","","SRET","EW_formal","","key","f","16.654255319148938","768","428","自己","毛糙","Negative","ability","","","","","","","","","","",""
"586","","j","psychophysics","36","266027","0.0-7.0-3.0-0.22","5","7","6","6","2","4","3","5","5","5","5","1","-1","1","-2","1","2","2","1","5","5","5","5","5","3","4","4","4","5","5","7","5","5","4","8","7","8","9","5","6","6","7","5","3","6","5","6","5","1","4","3","4","5","5","6","5","5","6","7","3","6","3","3","2","6","3","6","6","7","3","2","7","2","3","6","3","7","5","6","781451640430661634","王","373","Male","[""好他"",""好我"",""坏他"",""坏我""]","[""强他"",""强我"",""弱他"",""弱我""]","","","","","","","","yes","","","","","","","","","SRET","EW_formal","","key","j","16.653684210526684","768","428","自己","忠诚","Positive","morality","","","","","","","","","","",""
"604","","f","psychophysics","37","267632","0.0-7.0-3.0-0.23","5","7","6","6","2","4","3","5","5","5","5","1","-1","1","-2","1","2","2","1","5","5","5","5","5","3","4","4","4","5","5","7","5","5","4","8","7","8","9","5","6","6","7","5","3","6","5","6","5","1","4","3","4","5","5","6","5","5","6","7","3","6","3","3","2","6","3","6","6","7","3","2","7","2","3","6","3","7","5","6","781451640430661634","王","373","Male","[""好他"",""好我"",""坏他"",""坏我""]","[""强他"",""强我"",""弱他"",""弱我""]","","","","","","","","no","","","","","","","","","SRET","EW_formal","","key","f","16.651578947368055","768","428","自己","外行","Negative","ability","","","","","","","","","","",""
"597","","f","psychophysics","38","269230","0.0-7.0-3.0-0.24","5","7","6","6","2","4","3","5","5","5","5","1","-1","1","-2","1","2","2","1","5","5","5","5","5","3","4","4","4","5","5","7","5","5","4","8","7","8","9","5","6","6","7","5","3","6","5","6","5","1","4","3","4","5","5","6","5","5","6","7","3","6","3","3","2","6","3","6","6","7","3","2","7","2","3","6","3","7","5","6","781451640430661634","王","373","Male","[""好他"",""好我"",""坏他"",""坏我""]","[""强他"",""强我"",""弱他"",""弱我""]","","","","","","","","no","","","","","","","","","SRET","EW_formal","","key","f","16.655789473684088","768","428","自己","无能","Negative","ability","","","","","","","","","","",""
"582","","j","psychophysics","39","270812","0.0-7.0-3.0-0.25","5","7","6","6","2","4","3","5","5","5","5","1","-1","1","-2","1","2","2","1","5","5","5","5","5","3","4","4","4","5","5","7","5","5","4","8","7","8","9","5","6","6","7","5","3","6","5","6","5","1","4","3","4","5","5","6","5","5","6","7","3","6","3","3","2","6","3","6","6","7","3","2","7","2","3","6","3","7","5","6","781451640430661634","王","373","Male","[""好他"",""好我"",""坏他"",""坏我""]","[""强他"",""强我"",""弱他"",""弱我""]","","","","","","","","yes","","","","","","","","","SRET","EW_formal","","key","j","16.65319148936133","768","428","朋友","勤奋","Positive","ability","","","","","","","","","","",""
"652","","f","psychophysics","40","272467","0.0-7.0-3.0-0.26","5","7","6","6","2","4","3","5","5","5","5","1","-1","1","-2","1","2","2","1","5","5","5","5","5","3","4","4","4","5","5","7","5","5","4","8","7","8","9","5","6","6","7","5","3","6","5","6","5","1","4","3","4","5","5","6","5","5","6","7","3","6","3","3","2","6","3","6","6","7","3","2","7","2","3","6","3","7","5","6","781451640430661634","王","373","Male","[""好他"",""好我"",""坏他"",""坏我""]","[""强他"",""强我"",""弱他"",""弱我""]","","","","","","","","no","","","","","","","","","SRET","EW_formal","","key","f","16.656122448980067","768","428","自己","拙笨","Negative","ability","","","","","","","","","","",""
"840","","j","psychophysics","41","274309","0.0-7.0-3.0-0.27","5","7","6","6","2","4","3","5","5","5","5","1","-1","1","-2","1","2","2","1","5","5","5","5","5","3","4","4","4","5","5","7","5","5","4","8","7","8","9","5","6","6","7","5","3","6","5","6","5","1","4","3","4","5","5","6","5","5","6","7","3","6","3","3","2","6","3","6","6","7","3","2","7","2","3","6","3","7","5","6","781451640430661634","王","373","Male","[""好他"",""好我"",""坏他"",""坏我""]","[""强他"",""强我"",""弱他"",""弱我""]","","","","","","","","yes","","","","","","","","","SRET","EW_formal","","key","j","16.65181818181829","768","428","朋友","高尚","Positive","morality","","","","","","","","","","",""
"795","","f","psychophysics","42","276105","0.0-7.0-3.0-0.28","5","7","6","6","2","4","3","5","5","5","5","1","-1","1","-2","1","2","2","1","5","5","5","5","5","3","4","4","4","5","5","7","5","5","4","8","7","8","9","5","6","6","7","5","3","6","5","6","5","1","4","3","4","5","5","6","5","5","6","7","3","6","3","3","2","6","3","6","6","7","3","2","7","2","3","6","3","7","5","6","781451640430661634","王","373","Male","[""好他"",""好我"",""坏他"",""坏我""]","[""强他"",""强我"",""弱他"",""弱我""]","","","","","","","","no","","","","","","","","","SRET","EW_formal","","key","f","16.65514018691567","768","428","朋友","阴毒","Negative","morality","","","","","","","","","","",""
"930","","j","psychophysics","43","278036","0.0-7.0-3.0-0.29","5","7","6","6","2","4","3","5","5","5","5","1","-1","1","-2","1","2","2","1","5","5","5","5","5","3","4","4","4","5","5","7","5","5","4","8","7","8","9","5","6","6","7","5","3","6","5","6","5","1","4","3","4","5","5","6","5","5","6","7","3","6","3","3","2","6","3","6","6","7","3","2","7","2","3","6","3","7","5","6","781451640430661634","王","373","Male","[""好他"",""好我"",""坏他"",""坏我""]","[""强他"",""强我"",""弱他"",""弱我""]","","","","","","","","yes","","","","","","","","","SRET","EW_formal","","key","j","16.652173913043477","768","428","朋友","高洁","Positive","morality","","","","","","","","","","",""
"583","","j","psychophysics","44","279620","0.0-7.0-3.0-0.30","5","7","6","6","2","4","3","5","5","5","5","1","-1","1","-2","1","2","2","1","5","5","5","5","5","3","4","4","4","5","5","7","5","5","4","8","7","8","9","5","6","6","7","5","3","6","5","6","5","1","4","3","4","5","5","6","5","5","6","7","3","6","3","3","2","6","3","6","6","7","3","2","7","2","3","6","3","7","5","6","781451640430661634","王","373","Male","[""好他"",""好我"",""坏他"",""坏我""]","[""强他"",""强我"",""弱他"",""弱我""]","","","","","","","","yes","","","","","","","","","SRET","EW_formal","","key","j","16.654255319148938","768","428","自己","博识","Positive","ability","","","","","","","","","","",""
"627","","j","psychophysics","45","281249","0.0-7.0-3.0-0.31","5","7","6","6","2","4","3","5","5","5","5","1","-1","1","-2","1","2","2","1","5","5","5","5","5","3","4","4","4","5","5","7","5","5","4","8","7","8","9","5","6","6","7","5","3","6","5","6","5","1","4","3","4","5","5","6","5","5","6","7","3","6","3","3","2","6","3","6","6","7","3","2","7","2","3","6","3","7","5","6","781451640430661634","王","373","Male","[""好他"",""好我"",""坏他"",""坏我""]","[""强他"",""强我"",""弱他"",""弱我""]","","","","","","","","yes","","","","","","","","","SRET","EW_formal","","key","j","16.657731958762767","768","428","自己","思辨","Positive","ability","","","","","","","","","","",""
"823","","j","psychophysics","46","283074","0.0-7.0-3.0-0.32","5","7","6","6","2","4","3","5","5","5","5","1","-1","1","-2","1","2","2","1","5","5","5","5","5","3","4","4","4","5","5","7","5","5","4","8","7","8","9","5","6","6","7","5","3","6","5","6","5","1","4","3","4","5","5","6","5","5","6","7","3","6","3","3","2","6","3","6","6","7","3","2","7","2","3","6","3","7","5","6","781451640430661634","王","373","Male","[""好他"",""好我"",""坏他"",""坏我""]","[""强他"",""强我"",""弱他"",""弱我""]","","","","","","","","yes","","","","","","","","","SRET","EW_formal","","key","j","16.65277777777778","768","428","自己","沉着","Positive","ability","","","","","","","","","","",""
"585","","j","psychophysics","47","284661","0.0-7.0-3.0-0.33","5","7","6","6","2","4","3","5","5","5","5","1","-1","1","-2","1","2","2","1","5","5","5","5","5","3","4","4","4","5","5","7","5","5","4","8","7","8","9","5","6","6","7","5","3","6","5","6","5","1","4","3","4","5","5","6","5","5","6","7","3","6","3","3","2","6","3","6","6","7","3","2","7","2","3","6","3","7","5","6","781451640430661634","王","373","Male","[""好他"",""好我"",""坏他"",""坏我""]","[""强他"",""强我"",""弱他"",""弱我""]","","","","","","","","yes","","","","","","","","","SRET","EW_formal","","key","j","16.65368421052607","768","428","自己","细心","Positive","ability","","","","","","","","","","",""
"555","","j","psychophysics","48","286217","0.0-7.0-3.0-0.34","5","7","6","6","2","4","3","5","5","5","5","1","-1","1","-2","1","2","2","1","5","5","5","5","5","3","4","4","4","5","5","7","5","5","4","8","7","8","9","5","6","6","7","5","3","6","5","6","5","1","4","3","4","5","5","6","5","5","6","7","3","6","3","3","2","6","3","6","6","7","3","2","7","2","3","6","3","7","5","6","781451640430661634","王","373","Male","[""好他"",""好我"",""坏他"",""坏我""]","[""强他"",""强我"",""弱他"",""弱我""]","","","","","","","","yes","","","","","","","","","SRET","EW_formal","","key","j","16.65108695652136","768","428","自己","廉明","Positive","morality","","","","","","","","","","",""
"798","","f","psychophysics","49","288016","0.0-7.0-3.0-0.35","5","7","6","6","2","4","3","5","5","5","5","1","-1","1","-2","1","2","2","1","5","5","5","5","5","3","4","4","4","5","5","7","5","5","4","8","7","8","9","5","6","6","7","5","3","6","5","6","5","1","4","3","4","5","5","6","5","5","6","7","3","6","3","3","2","6","3","6","6","7","3","2","7","2","3","6","3","7","5","6","781451640430661634","王","373","Male","[""好他"",""好我"",""坏他"",""坏我""]","[""强他"",""强我"",""弱他"",""弱我""]","","","","","","","","no","","","","","","","","","SRET","EW_formal","","key","f","16.655140186916213","768","428","朋友","精干","Positive","ability","","","","","","","","","","",""
"1289","","j","psychophysics","50","290306","0.0-7.0-3.0-0.36","5","7","6","6","2","4","3","5","5","5","5","1","-1","1","-2","1","2","2","1","5","5","5","5","5","3","4","4","4","5","5","7","5","5","4","8","7","8","9","5","6","6","7","5","3","6","5","6","5","1","4","3","4","5","5","6","5","5","6","7","3","6","3","3","2","6","3","6","6","7","3","2","7","2","3","6","3","7","5","6","781451640430661634","王","373","Male","[""好他"",""好我"",""坏他"",""坏我""]","[""强他"",""强我"",""弱他"",""弱我""]","","","","","","","","yes","","","","","","","","","SRET","EW_formal","","key","j","16.6540145985404","768","428","朋友","懂行","Positive","ability","","","","","","","","","","",""
"639","","f","psychophysics","51","291946","0.0-7.0-3.0-0.37","5","7","6","6","2","4","3","5","5","5","5","1","-1","1","-2","1","2","2","1","5","5","5","5","5","3","4","4","4","5","5","7","5","5","4","8","7","8","9","5","6","6","7","5","3","6","5","6","5","1","4","3","4","5","5","6","5","5","6","7","3","6","3","3","2","6","3","6","6","7","3","2","7","2","3","6","3","7","5","6","781451640430661634","王","373","Male","[""好他"",""好我"",""坏他"",""坏我""]","[""强他"",""强我"",""弱他"",""弱我""]","","","","","","","","no","","","","","","","","","SRET","EW_formal","","key","f","16.651546391752696","768","428","朋友","拖延","Negative","ability","","","","","","","","","","",""
"716","","j","psychophysics","52","293663","0.0-7.0-3.0-0.38","5","7","6","6","2","4","3","5","5","5","5","1","-1","1","-2","1","2","2","1","5","5","5","5","5","3","4","4","4","5","5","7","5","5","4","8","7","8","9","5","6","6","7","5","3","6","5","6","5","1","4","3","4","5","5","6","5","5","6","7","3","6","3","3","2","6","3","6","6","7","3","2","7","2","3","6","3","7","5","6","781451640430661634","王","373","Male","[""好他"",""好我"",""坏他"",""坏我""]","[""强他"",""强我"",""弱他"",""弱我""]","","","","","","","","yes","","","","","","","","","SRET","EW_formal","","key","j","16.652941176470932","768","428","朋友","侠义","Positive","morality","","","","","","","","","","",""
"741","","f","psychophysics","53","295406","0.0-7.0-3.0-0.39","5","7","6","6","2","4","3","5","5","5","5","1","-1","1","-2","1","2","2","1","5","5","5","5","5","3","4","4","4","5","5","7","5","5","4","8","7","8","9","5","6","6","7","5","3","6","5","6","5","1","4","3","4","5","5","6","5","5","6","7","3","6","3","3","2","6","3","6","6","7","3","2","7","2","3","6","3","7","5","6","781451640430661634","王","373","Male","[""好他"",""好我"",""坏他"",""坏我""]","[""强他"",""强我"",""弱他"",""弱我""]","","","","","","","","no","","","","","","","","","SRET","EW_formal","","key","f","16.654807692307468","768","428","朋友","庸碌","Negative","ability","","","","","","","","","","",""
"646","","j","psychophysics","54","297054","0.0-7.0-3.0-0.40","5","7","6","6","2","4","3","5","5","5","5","1","-1","1","-2","1","2","2","1","5","5","5","5","5","3","4","4","4","5","5","7","5","5","4","8","7","8","9","5","6","6","7","5","3","6","5","6","5","1","4","3","4","5","5","6","5","5","6","7","3","6","3","3","2","6","3","6","6","7","3","2","7","2","3","6","3","7","5","6","781451640430661634","王","373","Male","[""好他"",""好我"",""坏他"",""坏我""]","[""强他"",""强我"",""弱他"",""弱我""]","","","","","","","","yes","","","","","","","","","SRET","EW_formal","","key","j","16.655102040816445","768","428","自己","无私","Positive","morality","","","","","","","","","","",""
"894","","j","psychophysics","55","298951","0.0-7.0-3.0-0.41","5","7","6","6","2","4","3","5","5","5","5","1","-1","1","-2","1","2","2","1","5","5","5","5","5","3","4","4","4","5","5","7","5","5","4","8","7","8","9","5","6","6","7","5","3","6","5","6","5","1","4","3","4","5","5","6","5","5","6","7","3","6","3","3","2","6","3","6","6","7","3","2","7","2","3","6","3","7","5","6","781451640430661634","王","373","Male","[""好他"",""好我"",""坏他"",""坏我""]","[""强他"",""强我"",""弱他"",""弱我""]","","","","","","","","yes","","","","","","","","","SRET","EW_formal","","key","j","16.65575221238969","768","428","朋友","全才","Positive","ability","","","","","","","","","","",""
"551","","j","psychophysics","56","300504","0.0-7.0-3.0-0.42","5","7","6","6","2","4","3","5","5","5","5","1","-1","1","-2","1","2","2","1","5","5","5","5","5","3","4","4","4","5","5","7","5","5","4","8","7","8","9","5","6","6","7","5","3","6","5","6","5","1","4","3","4","5","5","6","5","5","6","7","3","6","3","3","2","6","3","6","6","7","3","2","7","2","3","6","3","7","5","6","781451640430661634","王","373","Male","[""好他"",""好我"",""坏他"",""坏我""]","[""强他"",""强我"",""弱他"",""弱我""]","","","","","","","","yes","","","","","","","","","SRET","EW_formal","","key","j","16.651086956521993","768","428","朋友","坚持","Positive","ability","","","","","","","","","","",""
"818","","f","psychophysics","57","302324","0.0-7.0-3.0-0.43","5","7","6","6","2","4","3","5","5","5","5","1","-1","1","-2","1","2","2","1","5","5","5","5","5","3","4","4","4","5","5","7","5","5","4","8","7","8","9","5","6","6","7","5","3","6","5","6","5","1","4","3","4","5","5","6","5","5","6","7","3","6","3","3","2","6","3","6","6","7","3","2","7","2","3","6","3","7","5","6","781451640430661634","王","373","Male","[""好他"",""好我"",""坏他"",""坏我""]","[""强他"",""强我"",""弱他"",""弱我""]","","","","","","","","no","","","","","","","","","SRET","EW_formal","","key","f","16.65555555555545","768","428","朋友","短浅","Negative","ability","","","","","","","","","","",""
"619","","f","psychophysics","58","303944","0.0-7.0-3.0-0.44","5","7","6","6","2","4","3","5","5","5","5","1","-1","1","-2","1","2","2","1","5","5","5","5","5","3","4","4","4","5","5","7","5","5","4","8","7","8","9","5","6","6","7","5","3","6","5","6","5","1","4","3","4","5","5","6","5","5","6","7","3","6","3","3","2","6","3","6","6","7","3","2","7","2","3","6","3","7","5","6","781451640430661634","王","373","Male","[""好他"",""好我"",""坏他"",""坏我""]","[""强他"",""强我"",""弱他"",""弱我""]","","","","","","","","no","","","","","","","","","SRET","EW_formal","","key","f","16.65463917525773","768","428","自己","缺德","Negative","morality","","","","","","","","","","",""
"812","","j","psychophysics","59","305757","0.0-7.0-3.0-0.45","5","7","6","6","2","4","3","5","5","5","5","1","-1","1","-2","1","2","2","1","5","5","5","5","5","3","4","4","4","5","5","7","5","5","4","8","7","8","9","5","6","6","7","5","3","6","5","6","5","1","4","3","4","5","5","6","5","5","6","7","3","6","3","3","2","6","3","6","6","7","3","2","7","2","3","6","3","7","5","6","781451640430661634","王","373","Male","[""好他"",""好我"",""坏他"",""坏我""]","[""强他"",""强我"",""弱他"",""弱我""]","","","","","","","","yes","","","","","","","","","SRET","EW_formal","","key","j","16.654205607476637","768","428","朋友","守信","Positive","morality","","","","","","","","","","",""
"585","","f","psychophysics","60","307344","0.0-7.0-3.0-0.46","5","7","6","6","2","4","3","5","5","5","5","1","-1","1","-2","1","2","2","1","5","5","5","5","5","3","4","4","4","5","5","7","5","5","4","8","7","8","9","5","6","6","7","5","3","6","5","6","5","1","4","3","4","5","5","6","5","5","6","7","3","6","3","3","2","6","3","6","6","7","3","2","7","2","3","6","3","7","5","6","781451640430661634","王","373","Male","[""好他"",""好我"",""坏他"",""坏我""]","[""强他"",""强我"",""弱他"",""弱我""]","","","","","","","","no","","","","","","","","","SRET","EW_formal","","key","f","16.65052631578935","768","428","自己","粗心","Negative","ability","","","","","","","","","","",""
"663","","j","psychophysics","61","309007","0.0-7.0-3.0-0.47","5","7","6","6","2","4","3","5","5","5","5","1","-1","1","-2","1","2","2","1","5","5","5","5","5","3","4","4","4","5","5","7","5","5","4","8","7","8","9","5","6","6","7","5","3","6","5","6","5","1","4","3","4","5","5","6","5","5","6","7","3","6","3","3","2","6","3","6","6","7","3","2","7","2","3","6","3","7","5","6","781451640430661634","王","373","Male","[""好他"",""好我"",""坏他"",""坏我""]","[""强他"",""强我"",""弱他"",""弱我""]","","","","","","","","yes","","","","","","","","","SRET","EW_formal","","key","j","16.650505050505284","768","428","自己","独断","Negative","ability","","","","","","","","","","",""
"584","","j","psychophysics","62","310593","0.0-7.0-3.0-0.48","5","7","6","6","2","4","3","5","5","5","5","1","-1","1","-2","1","2","2","1","5","5","5","5","5","3","4","4","4","5","5","7","5","5","4","8","7","8","9","5","6","6","7","5","3","6","5","6","5","1","4","3","4","5","5","6","5","5","6","7","3","6","3","3","2","6","3","6","6","7","3","2","7","2","3","6","3","7","5","6","781451640430661634","王","373","Male","[""好他"",""好我"",""坏他"",""坏我""]","[""强他"",""强我"",""弱他"",""弱我""]","","","","","","","","yes","","","","","","","","","SRET","EW_formal","","key","j","16.65106382978674","768","428","朋友","奉献","Positive","morality","","","","","","","","","","",""
"763","","f","psychophysics","63","312358","0.0-7.0-3.0-0.49","5","7","6","6","2","4","3","5","5","5","5","1","-1","1","-2","1","2","2","1","5","5","5","5","5","3","4","4","4","5","5","7","5","5","4","8","7","8","9","5","6","6","7","5","3","6","5","6","5","1","4","3","4","5","5","6","5","5","6","7","3","6","3","3","2","6","3","6","6","7","3","2","7","2","3","6","3","7","5","6","781451640430661634","王","373","Male","[""好他"",""好我"",""坏他"",""坏我""]","[""强他"",""强我"",""弱他"",""弱我""]","","","","","","","","no","","","","","","","","","SRET","EW_formal","","key","f","16.653333333333112","768","428","自己","无为","Negative","ability","","","","","","","","","","",""
"880","","j","psychophysics","64","314240","0.0-7.0-3.0-0.50","5","7","6","6","2","4","3","5","5","5","5","1","-1","1","-2","1","2","2","1","5","5","5","5","5","3","4","4","4","5","5","7","5","5","4","8","7","8","9","5","6","6","7","5","3","6","5","6","5","1","4","3","4","5","5","6","5","5","6","7","3","6","3","3","2","6","3","6","6","7","3","2","7","2","3","6","3","7","5","6","781451640430661634","王","373","Male","[""好他"",""好我"",""坏他"",""坏我""]","[""强他"",""强我"",""弱他"",""弱我""]","","","","","","","","yes","","","","","","","","","SRET","EW_formal","","key","j","16.651785714285715","768","428","自己","干练","Positive","ability","","","","","","","","","","",""
"546","","j","psychophysics","65","315788","0.0-7.0-3.0-0.51","5","7","6","6","2","4","3","5","5","5","5","1","-1","1","-2","1","2","2","1","5","5","5","5","5","3","4","4","4","5","5","7","5","5","4","8","7","8","9","5","6","6","7","5","3","6","5","6","5","1","4","3","4","5","5","6","5","5","6","7","3","6","3","3","2","6","3","6","6","7","3","2","7","2","3","6","3","7","5","6","781451640430661634","王","373","Male","[""好他"",""好我"",""坏他"",""坏我""]","[""强他"",""强我"",""弱他"",""弱我""]","","","","","","","","yes","","","","","","","","","SRET","EW_formal","","key","j","16.655434782609202","768","428","自己","坦荡","Positive","morality","","","","","","","","","","",""
"1021","","j","psychophysics","66","317810","0.0-7.0-3.0-0.52","5","7","6","6","2","4","3","5","5","5","5","1","-1","1","-2","1","2","2","1","5","5","5","5","5","3","4","4","4","5","5","7","5","5","4","8","7","8","9","5","6","6","7","5","3","6","5","6","5","1","4","3","4","5","5","6","5","5","6","7","3","6","3","3","2","6","3","6","6","7","3","2","7","2","3","6","3","7","5","6","781451640430661634","王","373","Male","[""好他"",""好我"",""坏他"",""坏我""]","[""强他"",""强我"",""弱他"",""弱我""]","","","","","","","","yes","","","","","","","","","SRET","EW_formal","","key","j","16.653333333333528","768","428","朋友","顶事","Positive","ability","","","","","","","","","","",""
"857","","j","psychophysics","67","319671","0.0-7.0-3.0-0.53","5","7","6","6","2","4","3","5","5","5","5","1","-1","1","-2","1","2","2","1","5","5","5","5","5","3","4","4","4","5","5","7","5","5","4","8","7","8","9","5","6","6","7","5","3","6","5","6","5","1","4","3","4","5","5","6","5","5","6","7","3","6","3","3","2","6","3","6","6","7","3","2","7","2","3","6","3","7","5","6","781451640430661634","王","373","Male","[""好他"",""好我"",""坏他"",""坏我""]","[""强他"",""强我"",""弱他"",""弱我""]","","","","","","","","yes","","","","","","","","","SRET","EW_formal","","key","j","16.652252252251937","768","428","自己","文明","Positive","morality","","","","","","","","","","",""
"725","","f","psychophysics","68","321399","0.0-7.0-3.0-0.54","5","7","6","6","2","4","3","5","5","5","5","1","-1","1","-2","1","2","2","1","5","5","5","5","5","3","4","4","4","5","5","7","5","5","4","8","7","8","9","5","6","6","7","5","3","6","5","6","5","1","4","3","4","5","5","6","5","5","6","7","3","6","3","3","2","6","3","6","6","7","3","2","7","2","3","6","3","7","5","6","781451640430661634","王","373","Male","[""好他"",""好我"",""坏他"",""坏我""]","[""强他"",""强我"",""弱他"",""弱我""]","","","","","","","","no","","","","","","","","","SRET","EW_formal","","key","f","16.655339805825243","768","428","朋友","怠惰","Negative","ability","","","","","","","","","","",""
"869","","f","psychophysics","69","323269","0.0-7.0-3.0-0.55","5","7","6","6","2","4","3","5","5","5","5","1","-1","1","-2","1","2","2","1","5","5","5","5","5","3","4","4","4","5","5","7","5","5","4","8","7","8","9","5","6","6","7","5","3","6","5","6","5","1","4","3","4","5","5","6","5","5","6","7","3","6","3","3","2","6","3","6","6","7","3","2","7","2","3","6","3","7","5","6","781451640430661634","王","373","Male","[""好他"",""好我"",""坏他"",""坏我""]","[""强他"",""强我"",""弱他"",""弱我""]","","","","","","","","no","","","","","","","","","SRET","EW_formal","","key","f","16.65135135135177","768","428","自己","差生","Negative","ability","","","","","","","","","","",""
"838","","f","psychophysics","70","325109","0.0-7.0-3.0-0.56","5","7","6","6","2","4","3","5","5","5","5","1","-1","1","-2","1","2","2","1","5","5","5","5","5","3","4","4","4","5","5","7","5","5","4","8","7","8","9","5","6","6","7","5","3","6","5","6","5","1","4","3","4","5","5","6","5","5","6","7","3","6","3","3","2","6","3","6","6","7","3","2","7","2","3","6","3","7","5","6","781451640430661634","王","373","Male","[""好他"",""好我"",""坏他"",""坏我""]","[""强他"",""强我"",""弱他"",""弱我""]","","","","","","","","no","","","","","","","","","SRET","EW_formal","","key","f","16.652727272727695","768","428","朋友","歹毒","Negative","morality","","","","","","","","","","",""
"855","","j","psychophysics","71","326965","0.0-7.0-3.0-0.57","5","7","6","6","2","4","3","5","5","5","5","1","-1","1","-2","1","2","2","1","5","5","5","5","5","3","4","4","4","5","5","7","5","5","4","8","7","8","9","5","6","6","7","5","3","6","5","6","5","1","4","3","4","5","5","6","5","5","6","7","3","6","3","3","2","6","3","6","6","7","3","2","7","2","3","6","3","7","5","6","781451640430661634","王","373","Male","[""好他"",""好我"",""坏他"",""坏我""]","[""强他"",""强我"",""弱他"",""弱我""]","","","","","","","","yes","","","","","","","","","SRET","EW_formal","","key","j","16.653636363636046","768","428","朋友","谦逊","Positive","morality","","","","","","","","","","",""
"711","","j","psychophysics","72","328677","0.0-7.0-3.0-0.58","5","7","6","6","2","4","3","5","5","5","5","1","-1","1","-2","1","2","2","1","5","5","5","5","5","3","4","4","4","5","5","7","5","5","4","8","7","8","9","5","6","6","7","5","3","6","5","6","5","1","4","3","4","5","5","6","5","5","6","7","3","6","3","3","2","6","3","6","6","7","3","2","7","2","3","6","3","7","5","6","781451640430661634","王","373","Male","[""好他"",""好我"",""坏他"",""坏我""]","[""强他"",""强我"",""弱他"",""弱我""]","","","","","","","","yes","","","","","","","","","SRET","EW_formal","","key","j","16.65294117647036","768","428","朋友","刻苦","Positive","ability","","","","","","","","","","",""
"1053","","j","psychophysics","73","330731","0.0-7.0-3.0-0.59","5","7","6","6","2","4","3","5","5","5","5","1","-1","1","-2","1","2","2","1","5","5","5","5","5","3","4","4","4","5","5","7","5","5","4","8","7","8","9","5","6","6","7","5","3","6","5","6","5","1","4","3","4","5","5","6","5","5","6","7","3","6","3","3","2","6","3","6","6","7","3","2","7","2","3","6","3","7","5","6","781451640430661634","王","373","Male","[""好他"",""好我"",""坏他"",""坏我""]","[""强他"",""强我"",""弱他"",""弱我""]","","","","","","","","yes","","","","","","","","","SRET","EW_formal","","key","j","16.65409836065564","768","428","自己","宽容","Positive","morality","","","","","","","","","","",""
"655","","f","psychophysics","74","332387","0.0-7.0-3.0-0.60","5","7","6","6","2","4","3","5","5","5","5","1","-1","1","-2","1","2","2","1","5","5","5","5","5","3","4","4","4","5","5","7","5","5","4","8","7","8","9","5","6","6","7","5","3","6","5","6","5","1","4","3","4","5","5","6","5","5","6","7","3","6","3","3","2","6","3","6","6","7","3","2","7","2","3","6","3","7","5","6","781451640430661634","王","373","Male","[""好他"",""好我"",""坏他"",""坏我""]","[""强他"",""强我"",""弱他"",""弱我""]","","","","","","","","no","","","","","","","","","SRET","EW_formal","","key","f","16.65555555555579","768","428","自己","失信","Negative","morality","","","","","","","","","","",""
"893","","j","psychophysics","75","334282","0.0-7.0-3.0-0.61","5","7","6","6","2","4","3","5","5","5","5","1","-1","1","-2","1","2","2","1","5","5","5","5","5","3","4","4","4","5","5","7","5","5","4","8","7","8","9","5","6","6","7","5","3","6","5","6","5","1","4","3","4","5","5","6","5","5","6","7","3","6","3","3","2","6","3","6","6","7","3","2","7","2","3","6","3","7","5","6","781451640430661634","王","373","Male","[""好他"",""好我"",""坏他"",""坏我""]","[""强他"",""强我"",""弱他"",""弱我""]","","","","","","","","yes","","","","","","","","","SRET","EW_formal","","key","j","16.65357142857153","768","428","朋友","肯干","Positive","ability","","","","","","","","","","",""
"604","","f","psychophysics","76","335888","0.0-7.0-3.0-0.62","5","7","6","6","2","4","3","5","5","5","5","1","-1","1","-2","1","2","2","1","5","5","5","5","5","3","4","4","4","5","5","7","5","5","4","8","7","8","9","5","6","6","7","5","3","6","5","6","5","1","4","3","4","5","5","6","5","5","6","7","3","6","3","3","2","6","3","6","6","7","3","2","7","2","3","6","3","7","5","6","781451640430661634","王","373","Male","[""好他"",""好我"",""坏他"",""坏我""]","[""强他"",""强我"",""弱他"",""弱我""]","","","","","","","","no","","","","","","","","","SRET","EW_formal","","key","f","16.655208333333576","768","428","朋友","小人","Negative","morality","","","","","","","","","","",""
"684","","j","psychophysics","77","337573","0.0-7.0-3.0-0.63","5","7","6","6","2","4","3","5","5","5","5","1","-1","1","-2","1","2","2","1","5","5","5","5","5","3","4","4","4","5","5","7","5","5","4","8","7","8","9","5","6","6","7","5","3","6","5","6","5","1","4","3","4","5","5","6","5","5","6","7","3","6","3","3","2","6","3","6","6","7","3","2","7","2","3","6","3","7","5","6","781451640430661634","王","373","Male","[""好他"",""好我"",""坏他"",""坏我""]","[""强他"",""强我"",""弱他"",""弱我""]","","","","","","","","yes","","","","","","","","","SRET","EW_formal","","key","j","16.654000000000234","768","428","自己","毅力","Positive","ability","","","","","","","","","","",""
"603","","j","psychophysics","78","339178","0.0-7.0-3.0-0.64","5","7","6","6","2","4","3","5","5","5","5","1","-1","1","-2","1","2","2","1","5","5","5","5","5","3","4","4","4","5","5","7","5","5","4","8","7","8","9","5","6","6","7","5","3","6","5","6","5","1","4","3","4","5","5","6","5","5","6","7","3","6","3","3","2","6","3","6","6","7","3","2","7","2","3","6","3","7","5","6","781451640430661634","王","373","Male","[""好他"",""好我"",""坏他"",""坏我""]","[""强他"",""强我"",""弱他"",""弱我""]","","","","","","","","yes","","","","","","","","","SRET","EW_formal","","key","j","16.654736842105386","768","428","自己","独立","Positive","ability","","","","","","","","","","",""
"544","","f","psychophysics","79","340723","0.0-7.0-3.0-0.65","5","7","6","6","2","4","3","5","5","5","5","1","-1","1","-2","1","2","2","1","5","5","5","5","5","3","4","4","4","5","5","7","5","5","4","8","7","8","9","5","6","6","7","5","3","6","5","6","5","1","4","3","4","5","5","6","5","5","6","7","3","6","3","3","2","6","3","6","6","7","3","2","7","2","3","6","3","7","5","6","781451640430661634","王","373","Male","[""好他"",""好我"",""坏他"",""坏我""]","[""强他"",""强我"",""弱他"",""弱我""]","","","","","","","","no","","","","","","","","","SRET","EW_formal","","key","f","16.653260869565596","768","428","自己","卑鄙","Negative","morality","","","","","","","","","","",""
"621","","j","psychophysics","80","342346","0.0-7.0-3.0-0.66","5","7","6","6","2","4","3","5","5","5","5","1","-1","1","-2","1","2","2","1","5","5","5","5","5","3","4","4","4","5","5","7","5","5","4","8","7","8","9","5","6","6","7","5","3","6","5","6","5","1","4","3","4","5","5","6","5","5","6","7","3","6","3","3","2","6","3","6","6","7","3","2","7","2","3","6","3","7","5","6","781451640430661634","王","373","Male","[""好他"",""好我"",""坏他"",""坏我""]","[""强他"",""强我"",""弱他"",""弱我""]","","","","","","","","yes","","","","","","","","","SRET","EW_formal","","key","j","16.65463917525773","768","428","朋友","果决","Positive","ability","","","","","","","","","","",""
"706","","f","psychophysics","81","344054","0.0-7.0-3.0-0.67","5","7","6","6","2","4","3","5","5","5","5","1","-1","1","-2","1","2","2","1","5","5","5","5","5","3","4","4","4","5","5","7","5","5","4","8","7","8","9","5","6","6","7","5","3","6","5","6","5","1","4","3","4","5","5","6","5","5","6","7","3","6","3","3","2","6","3","6","6","7","3","2","7","2","3","6","3","7","5","6","781451640430661634","王","373","Male","[""好他"",""好我"",""坏他"",""坏我""]","[""强他"",""强我"",""弱他"",""弱我""]","","","","","","","","no","","","","","","","","","SRET","EW_formal","","key","f","16.652475247524983","768","428","朋友","贪污","Negative","morality","","","","","","","","","","",""
"567","","f","psychophysics","82","345623","0.0-7.0-3.0-0.68","5","7","6","6","2","4","3","5","5","5","5","1","-1","1","-2","1","2","2","1","5","5","5","5","5","3","4","4","4","5","5","7","5","5","4","8","7","8","9","5","6","6","7","5","3","6","5","6","5","1","4","3","4","5","5","6","5","5","6","7","3","6","3","3","2","6","3","6","6","7","3","2","7","2","3","6","3","7","5","6","781451640430661634","王","373","Male","[""好他"",""好我"",""坏他"",""坏我""]","[""强他"",""强我"",""弱他"",""弱我""]","","","","","","","","no","","","","","","","","","SRET","EW_formal","","key","f","16.65376344086009","768","428","朋友","无知","Negative","ability","","","","","","","","","","",""
"810","","f","psychophysics","83","347434","0.0-7.0-3.0-0.69","5","7","6","6","2","4","3","5","5","5","5","1","-1","1","-2","1","2","2","1","5","5","5","5","5","3","4","4","4","5","5","7","5","5","4","8","7","8","9","5","6","6","7","5","3","6","5","6","5","1","4","3","4","5","5","6","5","5","6","7","3","6","3","3","2","6","3","6","6","7","3","2","7","2","3","6","3","7","5","6","781451640430661634","王","373","Male","[""好他"",""好我"",""坏他"",""坏我""]","[""强他"",""强我"",""弱他"",""弱我""]","","","","","","","","no","","","","","","","","","SRET","EW_formal","","key","f","16.65555555555545","768","428","自己","奸险","Negative","morality","","","","","","","","","","",""
"807","","f","psychophysics","84","349242","0.0-7.0-3.0-0.70","5","7","6","6","2","4","3","5","5","5","5","1","-1","1","-2","1","2","2","1","5","5","5","5","5","3","4","4","4","5","5","7","5","5","4","8","7","8","9","5","6","6","7","5","3","6","5","6","5","1","4","3","4","5","5","6","5","5","6","7","3","6","3","3","2","6","3","6","6","7","3","2","7","2","3","6","3","7","5","6","781451640430661634","王","373","Male","[""好他"",""好我"",""坏他"",""坏我""]","[""强他"",""强我"",""弱他"",""弱我""]","","","","","","","","no","","","","","","","","","SRET","EW_formal","","key","f","16.65462962962974","768","428","朋友","逞强","Negative","ability","","","","","","","","","","",""
"703","","j","psychophysics","85","350946","0.0-7.0-3.0-0.71","5","7","6","6","2","4","3","5","5","5","5","1","-1","1","-2","1","2","2","1","5","5","5","5","5","3","4","4","4","5","5","7","5","5","4","8","7","8","9","5","6","6","7","5","3","6","5","6","5","1","4","3","4","5","5","6","5","5","6","7","3","6","3","3","2","6","3","6","6","7","3","2","7","2","3","6","3","7","5","6","781451640430661634","王","373","Male","[""好他"",""好我"",""坏他"",""坏我""]","[""强他"",""强我"",""弱他"",""弱我""]","","","","","","","","yes","","","","","","","","","SRET","EW_formal","","key","j","16.651485148514737","768","428","朋友","守时","Positive","morality","","","","","","","","","","",""
"657","","f","psychophysics","86","352604","0.0-7.0-3.0-0.72","5","7","6","6","2","4","3","5","5","5","5","1","-1","1","-2","1","2","2","1","5","5","5","5","5","3","4","4","4","5","5","7","5","5","4","8","7","8","9","5","6","6","7","5","3","6","5","6","5","1","4","3","4","5","5","6","5","5","6","7","3","6","3","3","2","6","3","6","6","7","3","2","7","2","3","6","3","7","5","6","781451640430661634","王","373","Male","[""好他"",""好我"",""坏他"",""坏我""]","[""强他"",""强我"",""弱他"",""弱我""]","","","","","","","","no","","","","","","","","","SRET","EW_formal","","key","f","16.650505050505284","768","428","自己","罪恶","Negative","morality","","","","","","","","","","",""
"842","","j","psychophysics","87","354447","0.0-7.0-3.0-0.73","5","7","6","6","2","4","3","5","5","5","5","1","-1","1","-2","1","2","2","1","5","5","5","5","5","3","4","4","4","5","5","7","5","5","4","8","7","8","9","5","6","6","7","5","3","6","5","6","5","1","4","3","4","5","5","6","5","5","6","7","3","6","3","3","2","6","3","6","6","7","3","2","7","2","3","6","3","7","5","6","781451640430661634","王","373","Male","[""好他"",""好我"",""坏他"",""坏我""]","[""强他"",""强我"",""弱他"",""弱我""]","","","","","","","","yes","","","","","","","","","SRET","EW_formal","","key","j","16.65321100917442","768","428","朋友","清廉","Positive","morality","","","","","","","","","","",""
"740","","f","psychophysics","88","356189","0.0-7.0-3.0-0.74","5","7","6","6","2","4","3","5","5","5","5","1","-1","1","-2","1","2","2","1","5","5","5","5","5","3","4","4","4","5","5","7","5","5","4","8","7","8","9","5","6","6","7","5","3","6","5","6","5","1","4","3","4","5","5","6","5","5","6","7","3","6","3","3","2","6","3","6","6","7","3","2","7","2","3","6","3","7","5","6","781451640430661634","王","373","Male","[""好他"",""好我"",""坏他"",""坏我""]","[""强他"",""强我"",""弱他"",""弱我""]","","","","","","","","no","","","","","","","","","SRET","EW_formal","","key","f","16.65288461538484","768","428","自己","拜金","Negative","morality","","","","","","","","","","",""
"666","","j","psychophysics","89","357856","0.0-7.0-3.0-0.75","5","7","6","6","2","4","3","5","5","5","5","1","-1","1","-2","1","2","2","1","5","5","5","5","5","3","4","4","4","5","5","7","5","5","4","8","7","8","9","5","6","6","7","5","3","6","5","6","5","1","4","3","4","5","5","6","5","5","6","7","3","6","3","3","2","6","3","6","6","7","3","2","7","2","3","6","3","7","5","6","781451640430661634","王","373","Male","[""好他"",""好我"",""坏他"",""坏我""]","[""强他"",""强我"",""弱他"",""弱我""]","","","","","","","","yes","","","","","","","","","SRET","EW_formal","","key","j","16.654545454545335","768","428","自己","努力","Positive","ability","","","","","","","","","","",""
"601","","f","psychophysics","90","359460","0.0-7.0-3.0-0.76","5","7","6","6","2","4","3","5","5","5","5","1","-1","1","-2","1","2","2","1","5","5","5","5","5","3","4","4","4","5","5","7","5","5","4","8","7","8","9","5","6","6","7","5","3","6","5","6","5","1","4","3","4","5","5","6","5","5","6","7","3","6","3","3","2","6","3","6","6","7","3","2","7","2","3","6","3","7","5","6","781451640430661634","王","373","Male","[""好他"",""好我"",""坏他"",""坏我""]","[""强他"",""强我"",""弱他"",""弱我""]","","","","","","","","no","","","","","","","","","SRET","EW_formal","","key","f","16.655789473684088","768","428","自己","刻薄","Negative","morality","","","","","","","","","","",""
"616","","f","psychophysics","91","361077","0.0-7.0-3.0-0.77","5","7","6","6","2","4","3","5","5","5","5","1","-1","1","-2","1","2","2","1","5","5","5","5","5","3","4","4","4","5","5","7","5","5","4","8","7","8","9","5","6","6","7","5","3","6","5","6","5","1","4","3","4","5","5","6","5","5","6","7","3","6","3","3","2","6","3","6","6","7","3","2","7","2","3","6","3","7","5","6","781451640430661634","王","373","Male","[""好他"",""好我"",""坏他"",""坏我""]","[""强他"",""强我"",""弱他"",""弱我""]","","","","","","","","no","","","","","","","","","SRET","EW_formal","","key","f","16.652083333333696","768","428","朋友","业余","Negative","ability","","","","","","","","","","",""
"808","","j","psychophysics","92","362887","0.0-7.0-3.0-0.78","5","7","6","6","2","4","3","5","5","5","5","1","-1","1","-2","1","2","2","1","5","5","5","5","5","3","4","4","4","5","5","7","5","5","4","8","7","8","9","5","6","6","7","5","3","6","5","6","5","1","4","3","4","5","5","6","5","5","6","7","3","6","3","3","2","6","3","6","6","7","3","2","7","2","3","6","3","7","5","6","781451640430661634","王","373","Male","[""好他"",""好我"",""坏他"",""坏我""]","[""强他"",""强我"",""弱他"",""弱我""]","","","","","","","","yes","","","","","","","","","SRET","EW_formal","","key","j","16.65555555555545","768","428","自己","远见","Positive","ability","","","","","","","","","","",""
"710","","j","psychophysics","93","364599","0.0-7.0-3.0-0.79","5","7","6","6","2","4","3","5","5","5","5","1","-1","1","-2","1","2","2","1","5","5","5","5","5","3","4","4","4","5","5","7","5","5","4","8","7","8","9","5","6","6","7","5","3","6","5","6","5","1","4","3","4","5","5","6","5","5","6","7","3","6","3","3","2","6","3","6","6","7","3","2","7","2","3","6","3","7","5","6","781451640430661634","王","373","Male","[""好他"",""好我"",""坏他"",""坏我""]","[""强他"",""强我"",""弱他"",""弱我""]","","","","","","","","yes","","","","","","","","","SRET","EW_formal","","key","j","16.6549019607842","768","428","自己","刚正","Positive","morality","","","","","","","","","","",""
"962","","f","psychophysics","94","366562","0.0-7.0-3.0-0.80","5","7","6","6","2","4","3","5","5","5","5","1","-1","1","-2","1","2","2","1","5","5","5","5","5","3","4","4","4","5","5","7","5","5","4","8","7","8","9","5","6","6","7","5","3","6","5","6","5","1","4","3","4","5","5","6","5","5","6","7","3","6","3","3","2","6","3","6","6","7","3","2","7","2","3","6","3","7","5","6","781451640430661634","王","373","Male","[""好他"",""好我"",""坏他"",""坏我""]","[""强他"",""强我"",""弱他"",""弱我""]","","","","","","","","no","","","","","","","","","SRET","EW_formal","","key","f","16.652991452991156","768","428","自己","才尽","Negative","ability","","","","","","","","","","",""
"673","","f","psychophysics","95","368237","0.0-7.0-3.0-0.81","5","7","6","6","2","4","3","5","5","5","5","1","-1","1","-2","1","2","2","1","5","5","5","5","5","3","4","4","4","5","5","7","5","5","4","8","7","8","9","5","6","6","7","5","3","6","5","6","5","1","4","3","4","5","5","6","5","5","6","7","3","6","3","3","2","6","3","6","6","7","3","2","7","2","3","6","3","7","5","6","781451640430661634","王","373","Male","[""好他"",""好我"",""坏他"",""坏我""]","[""强他"",""强我"",""弱他"",""弱我""]","","","","","","","","no","","","","","","","","","SRET","EW_formal","","key","f","16.65353535353547","768","428","朋友","偏私","Negative","morality","","","","","","","","","","",""
"686","","j","psychophysics","96","369924","0.0-7.0-3.0-0.82","5","7","6","6","2","4","3","5","5","5","5","1","-1","1","-2","1","2","2","1","5","5","5","5","5","3","4","4","4","5","5","7","5","5","4","8","7","8","9","5","6","6","7","5","3","6","5","6","5","1","4","3","4","5","5","6","5","5","6","7","3","6","3","3","2","6","3","6","6","7","3","2","7","2","3","6","3","7","5","6","781451640430661634","王","373","Male","[""好他"",""好我"",""坏他"",""坏我""]","[""强他"",""强我"",""弱他"",""弱我""]","","","","","","","","yes","","","","","","","","","SRET","EW_formal","","key","j","16.654455445544325","768","428","朋友","高明","Positive","ability","","","","","","","","","","",""
"565","","f","psychophysics","97","371490","0.0-7.0-3.0-0.83","5","7","6","6","2","4","3","5","5","5","5","1","-1","1","-2","1","2","2","1","5","5","5","5","5","3","4","4","4","5","5","7","5","5","4","8","7","8","9","5","6","6","7","5","3","6","5","6","5","1","4","3","4","5","5","6","5","5","6","7","3","6","3","3","2","6","3","6","6","7","3","2","7","2","3","6","3","7","5","6","781451640430661634","王","373","Male","[""好他"",""好我"",""坏他"",""坏我""]","[""强他"",""强我"",""弱他"",""弱我""]","","","","","","","","no","","","","","","","","","SRET","EW_formal","","key","f","16.651612903225555","768","428","朋友","奸诈","Negative","morality","","","","","","","","","","",""
"1040","","j","psychophysics","98","373531","0.0-7.0-3.0-0.84","5","7","6","6","2","4","3","5","5","5","5","1","-1","1","-2","1","2","2","1","5","5","5","5","5","3","4","4","4","5","5","7","5","5","4","8","7","8","9","5","6","6","7","5","3","6","5","6","5","1","4","3","4","5","5","6","5","5","6","7","3","6","3","3","2","6","3","6","6","7","3","2","7","2","3","6","3","7","5","6","781451640430661634","王","373","Male","[""好他"",""好我"",""坏他"",""坏我""]","[""强他"",""强我"",""弱他"",""弱我""]","","","","","","","","yes","","","","","","","","","SRET","EW_formal","","key","j","16.65289256198347","768","428","朋友","素养","Positive","morality","","","","","","","","","","",""
"765","","f","psychophysics","99","375298","0.0-7.0-3.0-0.85","5","7","6","6","2","4","3","5","5","5","5","1","-1","1","-2","1","2","2","1","5","5","5","5","5","3","4","4","4","5","5","7","5","5","4","8","7","8","9","5","6","6","7","5","3","6","5","6","5","1","4","3","4","5","5","6","5","5","6","7","3","6","3","3","2","6","3","6","6","7","3","2","7","2","3","6","3","7","5","6","781451640430661634","王","373","Male","[""好他"",""好我"",""坏他"",""坏我""]","[""强他"",""强我"",""弱他"",""弱我""]","","","","","","","","no","","","","","","","","","SRET","EW_formal","","key","f","16.653333333333112","768","428","朋友","低俗","Negative","morality","","","","","","","","","","",""
"607","","j","psychophysics","100","376907","0.0-7.0-3.0-0.86","5","7","6","6","2","4","3","5","5","5","5","1","-1","1","-2","1","2","2","1","5","5","5","5","5","3","4","4","4","5","5","7","5","5","4","8","7","8","9","5","6","6","7","5","3","6","5","6","5","1","4","3","4","5","5","6","5","5","6","7","3","6","3","3","2","6","3","6","6","7","3","2","7","2","3","6","3","7","5","6","781451640430661634","王","373","Male","[""好他"",""好我"",""坏他"",""坏我""]","[""强他"",""强我"",""弱他"",""弱我""]","","","","","","","","yes","","","","","","","","","SRET","EW_formal","","key","j","16.654166666666544","768","428","自己","主见","Positive","ability","","","","","","","","","","",""
"615","","f","psychophysics","101","378523","0.0-7.0-3.0-0.87","5","7","6","6","2","4","3","5","5","5","5","1","-1","1","-2","1","2","2","1","5","5","5","5","5","3","4","4","4","5","5","7","5","5","4","8","7","8","9","5","6","6","7","5","3","6","5","6","5","1","4","3","4","5","5","6","5","5","6","7","3","6","3","3","2","6","3","6","6","7","3","2","7","2","3","6","3","7","5","6","781451640430661634","王","373","Male","[""好他"",""好我"",""坏他"",""坏我""]","[""强他"",""强我"",""弱他"",""弱我""]","","","","","","","","no","","","","","","","","","SRET","EW_formal","","key","f","16.651041666666668","768","428","自己","缓慢","Negative","ability","","","","","","","","","","",""
"2960","
    <p><div style='color:white;font-size:35px; line-height:20px;'>计算任务</div></p><br>
    <p><div style='color:red;font-size:25px; line-height:20px;'>接下来，您将看到一些四则运算题，<b>请从键盘选择 0-9 进行反应。</b></div></p>
    <p><div style='color:red;font-size:25px; line-height:20px;'>请尽可能快地进行计算，计算的速度和正确率将影响报酬的发放。</div></p>
    <p><div class='footer' style='color:white;font-size:25px; line-height:20px;'>如果对本实验还有不清楚之处，请立即向实验员咨询。</p><p style='color:white;font-size:25px; line-height:20px;'>如果您明白了规则：</p><p style='color:white;font-size:22px; line-height:20px;'>请按 继续 进入练习</p>
    </div>
    ","0","html-button-response","102","381485","0.0-7.0-4.0","5","7","6","6","2","4","3","5","5","5","5","1","-1","1","-2","1","2","2","1","5","5","5","5","5","3","4","4","4","5","5","7","5","5","4","8","7","8","9","5","6","6","7","5","3","6","5","6","5","1","4","3","4","5","5","6","5","5","6","7","3","6","3","3","2","6","3","6","6","7","3","2","7","2","3","6","3","7","5","6","781451640430661634","王","373","Male","[""好他"",""好我"",""坏他"",""坏我""]","[""强他"",""强我"",""弱他"",""弱我""]","","","","","","","","","","","","","","","","","SRET_math","math_instructions","Sat Jan 20 2024 14:29:57 GMT+0800 (中国标准时间)","","","","","","","","","","","","","","","","","","","",""
"1772","","3","psychophysics","103","383260","0.0-7.0-5.0-0.0","5","7","6","6","2","4","3","5","5","5","5","1","-1","1","-2","1","2","2","1","5","5","5","5","5","3","4","4","4","5","5","7","5","5","4","8","7","8","9","5","6","6","7","5","3","6","5","6","5","1","4","3","4","5","5","6","5","5","6","7","3","6","3","3","2","6","3","6","6","7","3","2","7","2","3","6","3","7","5","6","781451640430661634","王","373","Male","[""好他"",""好我"",""坏他"",""坏我""]","[""强他"",""强我"",""弱他"",""弱我""]","","","","","","","","3","","","","","","","","","SRET","SRET_math_calculate","","key","3","16.557943925233754","768","428","","","","","3*1= ?","3","1","","","","","","","",""
"1925","","0","psychophysics","104","385186","0.0-7.0-5.0-0.1","5","7","6","6","2","4","3","5","5","5","5","1","-1","1","-2","1","2","2","1","5","5","5","5","5","3","4","4","4","5","5","7","5","5","4","8","7","8","9","5","6","6","7","5","3","6","5","6","5","1","4","3","4","5","5","6","5","5","6","7","3","6","3","3","2","6","3","6","6","7","3","2","7","2","3","6","3","7","5","6","781451640430661634","王","373","Male","[""好他"",""好我"",""坏他"",""坏我""]","[""强他"",""强我"",""弱他"",""弱我""]","","","","","","","","0","","","","","","","","","SRET","SRET_math_calculate","","key","0","16.65526315789484","768","428","","","","","9-9= ?","0","1","","","","","","","",""
"1704","","2","psychophysics","105","386892","0.0-7.0-5.0-0.2","5","7","6","6","2","4","3","5","5","5","5","1","-1","1","-2","1","2","2","1","5","5","5","5","5","3","4","4","4","5","5","7","5","5","4","8","7","8","9","5","6","6","7","5","3","6","5","6","5","1","4","3","4","5","5","6","5","5","6","7","3","6","3","3","2","6","3","6","6","7","3","2","7","2","3","6","3","7","5","6","781451640430661634","王","373","Male","[""好他"",""好我"",""坏他"",""坏我""]","[""强他"",""强我"",""弱他"",""弱我""]","","","","","","","","2","","","","","","","","","SRET","SRET_math_calculate","","key","2","16.655882352941404","768","428","","","","","1+1= ?","2","1","","","","","","","",""
"1911","","0","psychophysics","106","388804","0.0-7.0-5.0-0.3","5","7","6","6","2","4","3","5","5","5","5","1","-1","1","-2","1","2","2","1","5","5","5","5","5","3","4","4","4","5","5","7","5","5","4","8","7","8","9","5","6","6","7","5","3","6","5","6","5","1","4","3","4","5","5","6","5","5","6","7","3","6","3","3","2","6","3","6","6","7","3","2","7","2","3","6","3","7","5","6","781451640430661634","王","373","Male","[""好他"",""好我"",""坏他"",""坏我""]","[""强他"",""强我"",""弱他"",""弱我""]","","","","","","","","0","","","","","","","","","SRET","SRET_math_calculate","","key","0","16.65175438596481","768","428","","","","","12-12= ?","0","1","","","","","","","",""
"2594","","4","psychophysics","107","391401","0.0-7.0-5.0-0.4","5","7","6","6","2","4","3","5","5","5","5","1","-1","1","-2","1","2","2","1","5","5","5","5","5","3","4","4","4","5","5","7","5","5","4","8","7","8","9","5","6","6","7","5","3","6","5","6","5","1","4","3","4","5","5","6","5","5","6","7","3","6","3","3","2","6","3","6","6","7","3","2","7","2","3","6","3","7","5","6","781451640430661634","王","373","Male","[""好他"",""好我"",""坏他"",""坏我""]","[""强他"",""强我"",""弱他"",""弱我""]","","","","","","","","4","","","","","","","","","SRET","SRET_math_calculate","","key","4","16.652903225806153","768","428","","","","","13-9= ?","4","1","","","","","","","",""
"2158","","8","psychophysics","108","393560","0.0-7.0-5.0-0.5","5","7","6","6","2","4","3","5","5","5","5","1","-1","1","-2","1","2","2","1","5","5","5","5","5","3","4","4","4","5","5","7","5","5","4","8","7","8","9","5","6","6","7","5","3","6","5","6","5","1","4","3","4","5","5","6","5","5","6","7","3","6","3","3","2","6","3","6","6","7","3","2","7","2","3","6","3","7","5","6","781451640430661634","王","373","Male","[""好他"",""好我"",""坏他"",""坏我""]","[""强他"",""强我"",""弱他"",""弱我""]","","","","","","","","8","","","","","","","","","SRET","SRET_math_calculate","","key","8","16.65234375","768","428","","","","","1+7= ?","8","1","","","","","","","",""
"3229","","9","psychophysics","109","396791","0.0-7.0-5.0-0.6","5","7","6","6","2","4","3","5","5","5","5","1","-1","1","-2","1","2","2","1","5","5","5","5","5","3","4","4","4","5","5","7","5","5","4","8","7","8","9","5","6","6","7","5","3","6","5","6","5","1","4","3","4","5","5","6","5","5","6","7","3","6","3","3","2","6","3","6","6","7","3","2","7","2","3","6","3","7","5","6","781451640430661634","王","373","Male","[""好他"",""好我"",""坏他"",""坏我""]","[""强他"",""强我"",""弱他"",""弱我""]","","","","","","","","9","","","","","","","","","SRET","SRET_math_calculate","","key","9","16.653886010362754","768","428","","","","","81/9= ?","9","1","","","","","","","",""
"2174","","8","psychophysics","110","398966","0.0-7.0-5.0-0.7","5","7","6","6","2","4","3","5","5","5","5","1","-1","1","-2","1","2","2","1","5","5","5","5","5","3","4","4","4","5","5","7","5","5","4","8","7","8","9","5","6","6","7","5","3","6","5","6","5","1","4","3","4","5","5","6","5","5","6","7","3","6","3","3","2","6","3","6","6","7","3","2","7","2","3","6","3","7","5","6","781451640430661634","王","373","Male","[""好他"",""好我"",""坏他"",""坏我""]","[""强他"",""强我"",""弱他"",""弱我""]","","","","","","","","8","","","","","","","","","SRET","SRET_math_calculate","","key","8","16.655384615384705","768","428","","","","","1*8= ?","8","1","","","","","","","",""
"1997","","5","psychophysics","111","400963","0.0-7.0-5.0-0.8","5","7","6","6","2","4","3","5","5","5","5","1","-1","1","-2","1","2","2","1","5","5","5","5","5","3","4","4","4","5","5","7","5","5","4","8","7","8","9","5","6","6","7","5","3","6","5","6","5","1","4","3","4","5","5","6","5","5","6","7","3","6","3","3","2","6","3","6","6","7","3","2","7","2","3","6","3","7","5","6","781451640430661634","王","373","Male","[""好他"",""好我"",""坏他"",""坏我""]","[""强他"",""强我"",""弱他"",""弱我""]","","","","","","","","5","","","","","","","","","SRET","SRET_math_calculate","","key","5","16.65126050420168","768","428","","","","","3+2= ?","5","1","","","","","","","",""
"2864","","5","psychophysics","112","403829","0.0-7.0-5.0-0.9","5","7","6","6","2","4","3","5","5","5","5","1","-1","1","-2","1","2","2","1","5","5","5","5","5","3","4","4","4","5","5","7","5","5","4","8","7","8","9","5","6","6","7","5","3","6","5","6","5","1","4","3","4","5","5","6","5","5","6","7","3","6","3","3","2","6","3","6","6","7","3","2","7","2","3","6","3","7","5","6","781451640430661634","王","373","Male","[""好他"",""好我"",""坏他"",""坏我""]","[""强他"",""强我"",""弱他"",""弱我""]","","","","","","","","5","","","","","","","","","SRET","SRET_math_calculate","","key","5","16.653801169590576","768","428","","","","","12-7= ?","5","1","","","","","","","",""
"1918","","7","psychophysics","113","405748","0.0-7.0-5.0-0.10","5","7","6","6","2","4","3","5","5","5","5","1","-1","1","-2","1","2","2","1","5","5","5","5","5","3","4","4","4","5","5","7","5","5","4","8","7","8","9","5","6","6","7","5","3","6","5","6","5","1","4","3","4","5","5","6","5","5","6","7","3","6","3","3","2","6","3","6","6","7","3","2","7","2","3","6","3","7","5","6","781451640430661634","王","373","Male","[""好他"",""好我"",""坏他"",""坏我""]","[""强他"",""强我"",""弱他"",""弱我""]","","","","","","","","7","","","","","","","","","SRET","SRET_math_calculate","","key","7","16.654385964912077","768","428","","","","","5+2= ?","7","1","","","","","","","",""
"2275","","5","psychophysics","114","408026","0.0-7.0-5.0-0.11","5","7","6","6","2","4","3","5","5","5","5","1","-1","1","-2","1","2","2","1","5","5","5","5","5","3","4","4","4","5","5","7","5","5","4","8","7","8","9","5","6","6","7","5","3","6","5","6","5","1","4","3","4","5","5","6","5","5","6","7","3","6","3","3","2","6","3","6","6","7","3","2","7","2","3","6","3","7","5","6","781451640430661634","王","373","Male","[""好他"",""好我"",""坏他"",""坏我""]","[""强他"",""强我"",""弱他"",""弱我""]","","","","","","","","5","","","","","","","","","SRET","SRET_math_calculate","","key","5","16.65514705882336","768","428","","","","","17-12= ? ","5","1","","","","","","","",""
"1863","","3","psychophysics","115","409890","0.0-7.0-5.0-0.12","5","7","6","6","2","4","3","5","5","5","5","1","-1","1","-2","1","2","2","1","5","5","5","5","5","3","4","4","4","5","5","7","5","5","4","8","7","8","9","5","6","6","7","5","3","6","5","6","5","1","4","3","4","5","5","6","5","5","6","7","3","6","3","3","2","6","3","6","6","7","3","2","7","2","3","6","3","7","5","6","781451640430661634","王","373","Male","[""好他"",""好我"",""坏他"",""坏我""]","[""强他"",""强我"",""弱他"",""弱我""]","","","","","","","","3","","","","","","","","","SRET","SRET_math_calculate","","key","3","16.654954954954537","768","428","","","","","2+1= ?","3","1","","","","","","","",""
"1919","","9","psychophysics","116","411809","0.0-7.0-5.0-0.13","5","7","6","6","2","4","3","5","5","5","5","1","-1","1","-2","1","2","2","1","5","5","5","5","5","3","4","4","4","5","5","7","5","5","4","8","7","8","9","5","6","6","7","5","3","6","5","6","5","1","4","3","4","5","5","6","5","5","6","7","3","6","3","3","2","6","3","6","6","7","3","2","7","2","3","6","3","7","5","6","781451640430661634","王","373","Male","[""好他"",""好我"",""坏他"",""坏我""]","[""强他"",""强我"",""弱他"",""弱我""]","","","","","","","","9","","","","","","","","","SRET","SRET_math_calculate","","key","9","16.653508771929825","768","428","","","","","1*9= ?","9","1","","","","","","","",""
"1969","","8","psychophysics","117","413780","0.0-7.0-5.0-0.14","5","7","6","6","2","4","3","5","5","5","5","1","-1","1","-2","1","2","2","1","5","5","5","5","5","3","4","4","4","5","5","7","5","5","4","8","7","8","9","5","6","6","7","5","3","6","5","6","5","1","4","3","4","5","5","6","5","5","6","7","3","6","3","3","2","6","3","6","6","7","3","2","7","2","3","6","3","7","5","6","781451640430661634","王","373","Male","[""好他"",""好我"",""坏他"",""坏我""]","[""强他"",""强我"",""弱他"",""弱我""]","","","","","","","","8","","","","","","","","","SRET","SRET_math_calculate","","key","8","16.655555555555654","768","428","","","","","5+3= ?","8","1","","","","","","","",""
"1718","","7","psychophysics","118","415502","0.0-7.0-5.0-0.15","5","7","6","6","2","4","3","5","5","5","5","1","-1","1","-2","1","2","2","1","5","5","5","5","5","3","4","4","4","5","5","7","5","5","4","8","7","8","9","5","6","6","7","5","3","6","5","6","5","1","4","3","4","5","5","6","5","5","6","7","3","6","3","3","2","6","3","6","6","7","3","2","7","2","3","6","3","7","5","6","781451640430661634","王","373","Male","[""好他"",""好我"",""坏他"",""坏我""]","[""强他"",""强我"",""弱他"",""弱我""]","","","","","","","","7","","","","","","","","","SRET","SRET_math_calculate","","key","7","16.654368932038494","768","428","","","","","1+6= ?","7","1","","","","","","","",""
"2700","","6","psychophysics","119","418203","0.0-7.0-5.0-0.16","5","7","6","6","2","4","3","5","5","5","5","1","-1","1","-2","1","2","2","1","5","5","5","5","5","3","4","4","4","5","5","7","5","5","4","8","7","8","9","5","6","6","7","5","3","6","5","6","5","1","4","3","4","5","5","6","5","5","6","7","3","6","3","3","2","6","3","6","6","7","3","2","7","2","3","6","3","7","5","6","781451640430661634","王","373","Male","[""好他"",""好我"",""坏他"",""坏我""]","[""强他"",""强我"",""弱他"",""弱我""]","","","","","","","","6","","","","","","","","","SRET","SRET_math_calculate","","key","6","16.653416149068033","768","428","","","","","8-2= ?","6","1","","","","","","","",""
"2169","","7","psychophysics","120","420374","0.0-7.0-5.0-0.17","5","7","6","6","2","4","3","5","5","5","5","1","-1","1","-2","1","2","2","1","5","5","5","5","5","3","4","4","4","5","5","7","5","5","4","8","7","8","9","5","6","6","7","5","3","6","5","6","5","1","4","3","4","5","5","6","5","5","6","7","3","6","3","3","2","6","3","6","6","7","3","2","7","2","3","6","3","7","5","6","781451640430661634","王","373","Male","[""好他"",""好我"",""坏他"",""坏我""]","[""强他"",""强我"",""弱他"",""弱我""]","","","","","","","","7","","","","","","","","","SRET","SRET_math_calculate","","key","7","16.652713178294665","768","428","","","","","12-5= ?","7","1","","","","","","","",""
"2454","","5","psychophysics","121","422829","0.0-7.0-5.0-0.18","5","7","6","6","2","4","3","5","5","5","5","1","-1","1","-2","1","2","2","1","5","5","5","5","5","3","4","4","4","5","5","7","5","5","4","8","7","8","9","5","6","6","7","5","3","6","5","6","5","1","4","3","4","5","5","6","5","5","6","7","3","6","3","3","2","6","3","6","6","7","3","2","7","2","3","6","3","7","5","6","781451640430661634","王","373","Male","[""好他"",""好我"",""坏他"",""坏我""]","[""强他"",""强我"",""弱他"",""弱我""]","","","","","","","","5","","","","","","","","","SRET","SRET_math_calculate","","key","5","16.65442176870756","768","428","","","","","5/1= ?","5","1","","","","","","","",""
"1917","","5","psychophysics","122","424748","0.0-7.0-5.0-0.19","5","7","6","6","2","4","3","5","5","5","5","1","-1","1","-2","1","2","2","1","5","5","5","5","5","3","4","4","4","5","5","7","5","5","4","8","7","8","9","5","6","6","7","5","3","6","5","6","5","1","4","3","4","5","5","6","5","5","6","7","3","6","3","3","2","6","3","6","6","7","3","2","7","2","3","6","3","7","5","6","781451640430661634","王","373","Male","[""好他"",""好我"",""坏他"",""坏我""]","[""强他"",""强我"",""弱他"",""弱我""]","","","","","","","","5","","","","","","","","","SRET","SRET_math_calculate","","key","5","16.652631578947062","768","428","","","","","10-5= ?","5","1","","","","","","","",""
"2341","","2","psychophysics","123","427090","0.0-7.0-5.0-0.20","5","7","6","6","2","4","3","5","5","5","5","1","-1","1","-2","1","2","2","1","5","5","5","5","5","3","4","4","4","5","5","7","5","5","4","8","7","8","9","5","6","6","7","5","3","6","5","6","5","1","4","3","4","5","5","6","5","5","6","7","3","6","3","3","2","6","3","6","6","7","3","2","7","2","3","6","3","7","5","6","781451640430661634","王","373","Male","[""好他"",""好我"",""坏他"",""坏我""]","[""强他"",""强我"",""弱他"",""弱我""]","","","","","","","","2","","","","","","","","","SRET","SRET_math_calculate","","key","2","16.652517985611595","768","428","","","","","9-7= ?","2","1","","","","","","","",""
"2017","","6","psychophysics","124","429109","0.0-7.0-5.0-0.21","5","7","6","6","2","4","3","5","5","5","5","1","-1","1","-2","1","2","2","1","5","5","5","5","5","3","4","4","4","5","5","7","5","5","4","8","7","8","9","5","6","6","7","5","3","6","5","6","5","1","4","3","4","5","5","6","5","5","6","7","3","6","3","3","2","6","3","6","6","7","3","2","7","2","3","6","3","7","5","6","781451640430661634","王","373","Male","[""好他"",""好我"",""坏他"",""坏我""]","[""强他"",""强我"",""弱他"",""弱我""]","","","","","","","","6","","","","","","","","","SRET","SRET_math_calculate","","key","6","16.65371900826427","768","428","","","","","9-3= ?","6","1","","","","","","","",""
"2058","","6","psychophysics","125","431169","0.0-7.0-5.0-0.22","5","7","6","6","2","4","3","5","5","5","5","1","-1","1","-2","1","2","2","1","5","5","5","5","5","3","4","4","4","5","5","7","5","5","4","8","7","8","9","5","6","6","7","5","3","6","5","6","5","1","4","3","4","5","5","6","5","5","6","7","3","6","3","3","2","6","3","6","6","7","3","2","7","2","3","6","3","7","5","6","781451640430661634","王","373","Male","[""好他"",""好我"",""坏他"",""坏我""]","[""强他"",""强我"",""弱他"",""弱我""]","","","","","","","","6","","","","","","","","","SRET","SRET_math_calculate","","key","6","16.653658536585557","768","428","","","","","2+4= ?","6","1","","","","","","","",""
"3179","","8","psychophysics","126","434351","0.0-7.0-5.0-0.23","5","7","6","6","2","4","3","5","5","5","5","1","-1","1","-2","1","2","2","1","5","5","5","5","5","3","4","4","4","5","5","7","5","5","4","8","7","8","9","5","6","6","7","5","3","6","5","6","5","1","4","3","4","5","5","6","5","5","6","7","3","6","3","3","2","6","3","6","6","7","3","2","7","2","3","6","3","7","5","6","781451640430661634","王","373","Male","[""好他"",""好我"",""坏他"",""坏我""]","[""强他"",""强我"",""弱他"",""弱我""]","","","","","","","","8","","","","","","","","","SRET","SRET_math_calculate","","key","8","16.65343915343915","768","428","","","","","72/9= ?","8","1","","","","","","","",""
"2418","","5","psychophysics","127","436771","0.0-7.0-5.0-0.24","5","7","6","6","2","4","3","5","5","5","5","1","-1","1","-2","1","2","2","1","5","5","5","5","5","3","4","4","4","5","5","7","5","5","4","8","7","8","9","5","6","6","7","5","3","6","5","6","5","1","4","3","4","5","5","6","5","5","6","7","3","6","3","3","2","6","3","6","6","7","3","2","7","2","3","6","3","7","5","6","781451640430661634","王","373","Male","[""好他"",""好我"",""坏他"",""坏我""]","[""强他"",""强我"",""弱他"",""弱我""]","","","","","","","","5","","","","","","","","","SRET","SRET_math_calculate","","key","5","16.653103448275942","768","428","","","","","14-9= ?","5","1","","","","","","","",""
"2531","","7","psychophysics","128","439303","0.0-7.0-5.0-0.25","5","7","6","6","2","4","3","5","5","5","5","1","-1","1","-2","1","2","2","1","5","5","5","5","5","3","4","4","4","5","5","7","5","5","4","8","7","8","9","5","6","6","7","5","3","6","5","6","5","1","4","3","4","5","5","6","5","5","6","7","3","6","3","3","2","6","3","6","6","7","3","2","7","2","3","6","3","7","5","6","781451640430661634","王","373","Male","[""好他"",""好我"",""坏他"",""坏我""]","[""强他"",""强我"",""弱他"",""弱我""]","","","","","","","","7","","","","","","","","","SRET","SRET_math_calculate","","key","7","16.65298013245018","768","428","","","","","21/3= ? ","7","1","","","","","","","",""
"2576","","8","psychophysics","129","441880","0.0-7.0-5.0-0.26","5","7","6","6","2","4","3","5","5","5","5","1","-1","1","-2","1","2","2","1","5","5","5","5","5","3","4","4","4","5","5","7","5","5","4","8","7","8","9","5","6","6","7","5","3","6","5","6","5","1","4","3","4","5","5","6","5","5","6","7","3","6","3","3","2","6","3","6","6","7","3","2","7","2","3","6","3","7","5","6","781451640430661634","王","373","Male","[""好他"",""好我"",""坏他"",""坏我""]","[""强他"",""强我"",""弱他"",""弱我""]","","","","","","","","8","","","","","","","","","SRET","SRET_math_calculate","","key","8","16.65389610389618","768","428","","","","","56/7= ?","8","1","","","","","","","",""
"1886","","9","psychophysics","130","443766","0.0-7.0-5.0-0.27","5","7","6","6","2","4","3","5","5","5","5","1","-1","1","-2","1","2","2","1","5","5","5","5","5","3","4","4","4","5","5","7","5","5","4","8","7","8","9","5","6","6","7","5","3","6","5","6","5","1","4","3","4","5","5","6","5","5","6","7","3","6","3","3","2","6","3","6","6","7","3","2","7","2","3","6","3","7","5","6","781451640430661634","王","373","Male","[""好他"",""好我"",""坏他"",""坏我""]","[""强他"",""强我"",""弱他"",""弱我""]","","","","","","","","9","","","","","","","","","SRET","SRET_math_calculate","","key","9","16.65446428571418","768","428","","","","","4+5= ?","9","1","","","","","","","",""
"1747","","9","psychophysics","131","445516","0.0-7.0-5.0-0.28","5","7","6","6","2","4","3","5","5","5","5","1","-1","1","-2","1","2","2","1","5","5","5","5","5","3","4","4","4","5","5","7","5","5","4","8","7","8","9","5","6","6","7","5","3","6","5","6","5","1","4","3","4","5","5","6","5","5","6","7","3","6","3","3","2","6","3","6","6","7","3","2","7","2","3","6","3","7","5","6","781451640430661634","王","373","Male","[""好他"",""好我"",""坏他"",""坏我""]","[""强他"",""强我"",""弱他"",""弱我""]","","","","","","","","9","","","","","","","","","SRET","SRET_math_calculate","","key","9","16.655769230769344","768","428","","","","","1+8= ?","9","1","","","","","","","",""
"2178","","7","psychophysics","132","447695","0.0-7.0-5.0-0.29","5","7","6","6","2","4","3","5","5","5","5","1","-1","1","-2","1","2","2","1","5","5","5","5","5","3","4","4","4","5","5","7","5","5","4","8","7","8","9","5","6","6","7","5","3","6","5","6","5","1","4","3","4","5","5","6","5","5","6","7","3","6","3","3","2","6","3","6","6","7","3","2","7","2","3","6","3","7","5","6","781451640430661634","王","373","Male","[""好他"",""好我"",""坏他"",""坏我""]","[""强他"",""强我"",""弱他"",""弱我""]","","","","","","","","7","","","","","","","","","SRET","SRET_math_calculate","","key","7","16.656153846153757","768","428","","","","","49/7 = ?","7","1","","","","","","","",""
"2718","","2","psychophysics","133","450414","0.0-7.0-5.0-0.30","5","7","6","6","2","4","3","5","5","5","5","1","-1","1","-2","1","2","2","1","5","5","5","5","5","3","4","4","4","5","5","7","5","5","4","8","7","8","9","5","6","6","7","5","3","6","5","6","5","1","4","3","4","5","5","6","5","5","6","7","3","6","3","3","2","6","3","6","6","7","3","2","7","2","3","6","3","7","5","6","781451640430661634","王","373","Male","[""好他"",""好我"",""坏他"",""坏我""]","[""强他"",""强我"",""弱他"",""弱我""]","","","","","","","","2","","","","","","","","","SRET","SRET_math_calculate","","key","2","16.65432098765432","768","428","","","","","90/45= ?","2","1","","","","","","","",""
"2023","","9","psychophysics","134","452438","0.0-7.0-5.0-0.31","5","7","6","6","2","4","3","5","5","5","5","1","-1","1","-2","1","2","2","1","5","5","5","5","5","3","4","4","4","5","5","7","5","5","4","8","7","8","9","5","6","6","7","5","3","6","5","6","5","1","4","3","4","5","5","6","5","5","6","7","3","6","3","3","2","6","3","6","6","7","3","2","7","2","3","6","3","7","5","6","781451640430661634","王","373","Male","[""好他"",""好我"",""坏他"",""坏我""]","[""强他"",""强我"",""弱他"",""弱我""]","","","","","","","","9","","","","","","","","","SRET","SRET_math_calculate","","key","9","16.65702479338843","768","428","","","","","3+6= ?","9","1","","","","","","","",""
"1944","","5","psychophysics","135","454383","0.0-7.0-5.0-0.32","5","7","6","6","2","4","3","5","5","5","5","1","-1","1","-2","1","2","2","1","5","5","5","5","5","3","4","4","4","5","5","7","5","5","4","8","7","8","9","5","6","6","7","5","3","6","5","6","5","1","4","3","4","5","5","6","5","5","6","7","3","6","3","3","2","6","3","6","6","7","3","2","7","2","3","6","3","7","5","6","781451640430661634","王","373","Male","[""好他"",""好我"",""坏他"",""坏我""]","[""强他"",""强我"",""弱他"",""弱我""]","","","","","","","","5","","","","","","","","","SRET","SRET_math_calculate","","key","5","16.65344827586197","768","428","","","","","15-10= ?","5","1","","","","","","","",""
"1843","","6","psychophysics","136","456227","0.0-7.0-5.0-0.33","5","7","6","6","2","4","3","5","5","5","5","1","-1","1","-2","1","2","2","1","5","5","5","5","5","3","4","4","4","5","5","7","5","5","4","8","7","8","9","5","6","6","7","5","3","6","5","6","5","1","4","3","4","5","5","6","5","5","6","7","3","6","3","3","2","6","3","6","6","7","3","2","7","2","3","6","3","7","5","6","781451640430661634","王","373","Male","[""好他"",""好我"",""坏他"",""坏我""]","[""强他"",""强我"",""弱他"",""弱我""]","","","","","","","","6","","","","","","","","","SRET","SRET_math_calculate","","key","6","16.654128440366865","768","428","","","","","5+1= ?","6","1","","","","","","","",""
"1807","","5","psychophysics","137","458036","0.0-7.0-5.0-0.34","5","7","6","6","2","4","3","5","5","5","5","1","-1","1","-2","1","2","2","1","5","5","5","5","5","3","4","4","4","5","5","7","5","5","4","8","7","8","9","5","6","6","7","5","3","6","5","6","5","1","4","3","4","5","5","6","5","5","6","7","3","6","3","3","2","6","3","6","6","7","3","2","7","2","3","6","3","7","5","6","781451640430661634","王","373","Male","[""好他"",""好我"",""坏他"",""坏我""]","[""强他"",""强我"",""弱他"",""弱我""]","","","","","","","","5","","","","","","","","","SRET","SRET_math_calculate","","key","5","16.65370370370349","768","428","","","","","2+3= ?","5","1","","","","","","","",""
"1892","","2","psychophysics","138","459929","0.0-7.0-5.0-0.35","5","7","6","6","2","4","3","5","5","5","5","1","-1","1","-2","1","2","2","1","5","5","5","5","5","3","4","4","4","5","5","7","5","5","4","8","7","8","9","5","6","6","7","5","3","6","5","6","5","1","4","3","4","5","5","6","5","5","6","7","3","6","3","3","2","6","3","6","6","7","3","2","7","2","3","6","3","7","5","6","781451640430661634","王","373","Male","[""好他"",""好我"",""坏他"",""坏我""]","[""强他"",""强我"",""弱他"",""弱我""]","","","","","","","","2","","","","","","","","","SRET","SRET_math_calculate","","key","2","16.653982300884646","768","428","","","","","5-3= ?","2","1","","","","","","","",""
"1934","","1","psychophysics","139","461865","0.0-7.0-5.0-0.36","5","7","6","6","2","4","3","5","5","5","5","1","-1","1","-2","1","2","2","1","5","5","5","5","5","3","4","4","4","5","5","7","5","5","4","8","7","8","9","5","6","6","7","5","3","6","5","6","5","1","4","3","4","5","5","6","5","5","6","7","3","6","3","3","2","6","3","6","6","7","3","2","7","2","3","6","3","7","5","6","781451640430661634","王","373","Male","[""好他"",""好我"",""坏他"",""坏我""]","[""强他"",""强我"",""弱他"",""弱我""]","","","","","","","","1","","","","","","","","","SRET","SRET_math_calculate","","key","1","16.653913043477857","768","428","","","","","9-8= ?","1","1","","","","","","","",""
"2165","","9","psychophysics","140","464031","0.0-7.0-5.0-0.37","5","7","6","6","2","4","3","5","5","5","5","1","-1","1","-2","1","2","2","1","5","5","5","5","5","3","4","4","4","5","5","7","5","5","4","8","7","8","9","5","6","6","7","5","3","6","5","6","5","1","4","3","4","5","5","6","5","5","6","7","3","6","3","3","2","6","3","6","6","7","3","2","7","2","3","6","3","7","5","6","781451640430661634","王","373","Male","[""好他"",""好我"",""坏他"",""坏我""]","[""强他"",""强我"",""弱他"",""弱我""]","","","","","","","","9","","","","","","","","","SRET","SRET_math_calculate","","key","9","16.652713178294665","768","428","","","","","7+2= ?","9","1","","","","","","","",""
"1797","","1","psychophysics","141","465830","0.0-7.0-5.0-0.38","5","7","6","6","2","4","3","5","5","5","5","1","-1","1","-2","1","2","2","1","5","5","5","5","5","3","4","4","4","5","5","7","5","5","4","8","7","8","9","5","6","6","7","5","3","6","5","6","5","1","4","3","4","5","5","6","5","5","6","7","3","6","3","3","2","6","3","6","6","7","3","2","7","2","3","6","3","7","5","6","781451640430661634","王","373","Male","[""好他"",""好我"",""坏他"",""坏我""]","[""强他"",""强我"",""弱他"",""弱我""]","","","","","","","","1","","","","","","","","","SRET","SRET_math_calculate","","key","1","16.6532710280376","768","428","","","","","10-9= ?","1","1","","","","","","","",""
"2095","","8","psychophysics","142","467926","0.0-7.0-5.0-0.39","5","7","6","6","2","4","3","5","5","5","5","1","-1","1","-2","1","2","2","1","5","5","5","5","5","3","4","4","4","5","5","7","5","5","4","8","7","8","9","5","6","6","7","5","3","6","5","6","5","1","4","3","4","5","5","6","5","5","6","7","3","6","3","3","2","6","3","6","6","7","3","2","7","2","3","6","3","7","5","6","781451640430661634","王","373","Male","[""好他"",""好我"",""坏他"",""坏我""]","[""强他"",""强我"",""弱他"",""弱我""]","","","","","","","","8","","","","","","","","","SRET","SRET_math_calculate","","key","8","16.653600000000093","768","428","","","","","4+4= ?","8","1","","","","","","","",""
