"rt","stimulus","response","trial_type","trial_index","time_elapsed","internal_node_id","swb_1","swb_2","swb_3","swb_4","swb_5","LOT_1","LOT_2","LOT_3","LOT_4","LOT_5","LOT_6","IPC_1","IPC_2","IPC_3","IPC_4","IPC_5","IPC_6","IPC_7","IPC_8","MorIden_1","MorIden_2","MorIden_3","MorIden_4","MorIden_5","MorIden_6","MorIden_7","MorIden_8","MorIden_9","MorIden_10","moralSeImag_1","moralSeImag_2","moralSeImag_3","moralSeImag_4","moralSeImag_5","moralSeImag_6","moralSeImag_7","moralSeImag_8","moralSeImag_9","sde_1","sde_2","sde_3","sde_4","sde_5","sde_6","sde_7","sde_8","sde_9","sde_10","trap2","sde_11","sde_12","sde_13","sde_14","sde_15","sde_16","sde_17","sde_18","sde_19","sde_20","IM_1","IM_2","IM_3","IM_4","IM_5","IM_6","IM_7","IM_8","IM_9","IM_10","IM_11","IM_12","IM_13","IM_14","IM_15","IM_16","IM_17","IM_18","IM_19","IM_20","subj_idx","friend_name","ParticipantID","Sex","Word","Word2","value","success","timeout","failed_images","failed_audio","failed_video","user_agent","responses","item_order","radio_event_ids","radio_event_times","key_event_times","mouse_event_times","straightlining","zigzagging","honeypot","view_history","response_type","key_press","avg_frame_time","center_x","center_y","correct_response","correct","identity","Image","word","condition","task_id","screen_id","time_stamp","person","valence","domain","math","status","duration","question_order","trap2_item"
"54009","
   <p><div style='color:white; font-size: 25px'>您好，欢迎参加本次实验。</div></p>
   <p><div style='color:white; font-size: 25px'>为充分保障您的权利，请确保您已经知晓并同意《参与实验同意书》以及《数据公开知情同意书》。</div></p>
   <p><div style='color:white; font-size: 25px'>如果您未见过上述内容，请咨询实验员。</div></p>
   <p style='color:white; font-size: 25px'>如果您选择继续实验，则表示您已经清楚两份知情同意书的内容并同意。</p>
   <p><div style = ""color: pink;font-size:30px;"">请确保您记得day0的实验编号，您将在本次实验输入该编号，若您忘记，请咨询实验员后作答。</div></p>
   <p><div style = ""color:lightblue;font-size:25px;"">请您尽可能认真地作答，我们将依据您在各问卷和按键任务中的作答质量发放报酬。</div></p>
   <p> <div style = ""color: green""><按空格键至下页></div> </p>
   "," ","html-keyboard-response","0","54011","0.0-0.0","6","5","7","6","6","4","4","4","5","5","4","0","0","1","2","1","1","2","2","4","5","5","5","4","4","5","4","5","4","6","7","7","8","3","7","5","4","7","5","6","5","5","6","3","6","7","6","7","1","6","3","6","5","3","3","6","7","6","5","3","6","3","3","3","5","5","6","7","7","7","3","7","1","3","3","7","7","3","6","783420776295698434","王","195","Male","[""好我"",""好他"",""坏他"",""坏我""]","[""强我"",""强他"",""弱他"",""弱我""]","","","","","","","","","","","","","","","","","","","","","","","","","","","","","","","","","","","","","","",""
"","","","call-function","1","54014","0.0-1.0-0.0","6","5","7","6","6","4","4","4","5","5","4","0","0","1","2","1","1","2","2","4","5","5","5","4","4","5","4","5","4","6","7","7","8","3","7","5","4","7","5","6","5","5","6","3","6","7","6","7","1","6","3","6","5","3","3","6","7","6","5","3","6","3","3","3","5","5","6","7","7","7","3","7","1","3","3","7","7","3","6","783420776295698434","王","195","Male","[""好我"",""好他"",""坏他"",""坏我""]","[""强我"",""强他"",""弱他"",""弱我""]","","","","","","","","","","","","","","","","","","","","","","","","","","","","","","","","","","","","","","",""
"26726","","[{""name"":""Sex"",""value"":""0""},{""name"":""friend_name"",""value"":""王""},{""name"":""ParticipantID"",""value"":""195""}]","survey-html-form","2","80740","0.0-1.0-1.0","6","5","7","6","6","4","4","4","5","5","4","0","0","1","2","1","1","2","2","4","5","5","5","4","4","5","4","5","4","6","7","7","8","3","7","5","4","7","5","6","5","5","6","3","6","7","6","7","1","6","3","6","5","3","3","6","7","6","5","3","6","3","3","3","5","5","6","7","7","7","3","7","1","3","3","7","7","3","6","783420776295698434","王","195","Male","[""好我"",""好他"",""坏他"",""坏我""]","[""强我"",""强他"",""弱他"",""弱我""]","","","","","","","","","","","","","","","","","","","","","","","","","","","","","","","","","","","","","","",""
"","","","preload","3","81321","0.0-2.0","6","5","7","6","6","4","4","4","5","5","4","0","0","1","2","1","1","2","2","4","5","5","5","4","4","5","4","5","4","6","7","7","8","3","7","5","4","7","5","6","5","5","6","3","6","7","6","7","1","6","3","6","5","3","3","6","7","6","5","3","6","3","3","3","5","5","6","7","7","7","3","7","1","3","3","7","7","3","6","783420776295698434","王","195","Male","[""好我"",""好他"",""坏他"",""坏我""]","[""强我"",""强他"",""弱他"",""弱我""]","","true","false","[]","[]","[]","","","","","","","","","","","","","","","","","","","","","","","","","","","","","","","","",""
"","","","fullscreen","4","83610","0.0-3.0","6","5","7","6","6","4","4","4","5","5","4","0","0","1","2","1","1","2","2","4","5","5","5","4","4","5","4","5","4","6","7","7","8","3","7","5","4","7","5","6","5","5","6","3","6","7","6","7","1","6","3","6","5","3","3","6","7","6","5","3","6","3","3","3","5","5","6","7","7","7","3","7","1","3","3","7","7","3","6","783420776295698434","王","195","Male","[""好我"",""好他"",""坏他"",""坏我""]","[""强我"",""强他"",""弱他"",""弱我""]","","true","","","","","{}","","","","","","","","","","","","","","","","","","","","","","","","","","","","","","","",""
"10777.800000190735","","{""Q01"":""6"",""Q02"":""5"",""Q03"":""7"",""Q04"":""6"",""Q05"":""6""}","survey-template","5","94390","0.0-4.0","6","5","7","6","6","4","4","4","5","5","4","0","0","1","2","1","1","2","2","4","5","5","5","4","4","5","4","5","4","6","7","7","8","3","7","5","4","7","5","6","5","5","6","3","6","7","6","7","1","6","3","6","5","3","3","6","7","6","5","3","6","3","3","3","5","5","6","7","7","7","3","7","1","3","3","7","7","3","6","783420776295698434","王","195","Male","[""好我"",""好他"",""坏他"",""坏我""]","[""强我"",""强他"",""弱他"",""弱我""]","","","","","","","","{""Q01"":""6"",""Q02"":""5"",""Q03"":""7"",""Q04"":""6"",""Q05"":""6""}","[0,1,2,3,4]","[""Q01"",""Q02"",""Q03"",""Q04"",""Q05""]","[2824.800000190735,6648.5,7936.800000190735,9328,10104.200000286102]","[]","[2824.800000190735,5120.10000038147,5664.200000286102,6648.5,7936.800000190735,9328,10104.200000286102,10776.60000038147]","0.6","0.5","0","","","","","","","","","","","","","","","","","","","","","","",""
"25851.199999809265","","{""Q01"":""4"",""Q02"":""4"",""Q03"":""4"",""Q04"":""5"",""Q05"":""5"",""Q06"":""4""}","survey-template","6","120246","0.0-5.0","6","5","7","6","6","4","4","4","5","5","4","0","0","1","2","1","1","2","2","4","5","5","5","4","4","5","4","5","4","6","7","7","8","3","7","5","4","7","5","6","5","5","6","3","6","7","6","7","1","6","3","6","5","3","3","6","7","6","5","3","6","3","3","3","5","5","6","7","7","7","3","7","1","3","3","7","7","3","6","783420776295698434","王","195","Male","[""好我"",""好他"",""坏他"",""坏我""]","[""强我"",""强他"",""弱他"",""弱我""]","","","","","","","","{""Q01"":""4"",""Q02"":""4"",""Q03"":""4"",""Q04"":""5"",""Q05"":""5"",""Q06"":""4""}","[0,1,2,3,4,5]","[""Q01"",""Q02"",""Q03"",""Q04"",""Q05"",""Q06""]","[2409.199999809265,10216.799999713898,11754.799999713898,15881.199999809265,16697.599999904633,21313.099999904633]","[]","[1984.9000000953674,2409.199999809265,10216.799999713898,11754.799999713898,15881.199999809265,16697.599999904633,21313.099999904633,25850.199999809265]","0.5","0","0","","","","","","","","","","","","","","","","","","","","","","",""
"19979.599999904633","","{""Q01"":""0"",""Q02"":""0"",""Q03"":""1"",""Q04"":""2"",""Q05"":""1"",""Q06"":""1"",""Q07"":""2"",""Q08"":""2""}","survey-template","7","140230","0.0-6.0","6","5","7","6","6","4","4","4","5","5","4","0","0","1","2","1","1","2","2","4","5","5","5","4","4","5","4","5","4","6","7","7","8","3","7","5","4","7","5","6","5","5","6","3","6","7","6","7","1","6","3","6","5","3","3","6","7","6","5","3","6","3","3","3","5","5","6","7","7","7","3","7","1","3","3","7","7","3","6","783420776295698434","王","195","Male","[""好我"",""好他"",""坏他"",""坏我""]","[""强我"",""强他"",""弱他"",""弱我""]","","","","","","","","{""Q01"":""0"",""Q02"":""0"",""Q03"":""1"",""Q04"":""2"",""Q05"":""1"",""Q06"":""1"",""Q07"":""2"",""Q08"":""2""}","[0,1,2,3,4,5,6,7]","[""Q01"",""Q02"",""Q03"",""Q04"",""Q05"",""Q06"",""Q07"",""Q08""]","[2762.300000190735,6050.099999904633,9386.099999904633,10817.900000095367,14210.199999809265,15514.699999809265,17738.300000190735,18746]","[]","[2762.300000190735,6050.099999904633,9386.099999904633,10817.900000095367,14210.199999809265,15514.699999809265,17738.300000190735,18746,19978.300000190735]","0.375","0.5714285714285714","0","","","","","","","","","","","","","","","","","","","","","","",""
"10707","","","instructions","8","150941","0.0-7.0","6","5","7","6","6","4","4","4","5","5","4","0","0","1","2","1","1","2","2","4","5","5","5","4","4","5","4","5","4","6","7","7","8","3","7","5","4","7","5","6","5","5","6","3","6","7","6","7","1","6","3","6","5","3","3","6","7","6","5","3","6","3","3","3","5","5","6","7","7","7","3","7","1","3","3","7","7","3","6","783420776295698434","王","195","Male","[""好我"",""好他"",""坏他"",""坏我""]","[""强我"",""强他"",""弱他"",""弱我""]","","","","","","","","","","","","","","","","","[{""page_index"":0,""viewing_time"":10707}]","","","","","","","","","","","","","","","","","","","","","",""
"35006","","","instructions","9","185949","0.0-8.0-1.0-0.0","6","5","7","6","6","4","4","4","5","5","4","0","0","1","2","1","1","2","2","4","5","5","5","4","4","5","4","5","4","6","7","7","8","3","7","5","4","7","5","6","5","5","6","3","6","7","6","7","1","6","3","6","5","3","3","6","7","6","5","3","6","3","3","3","5","5","6","7","7","7","3","7","1","3","3","7","7","3","6","783420776295698434","王","195","Male","[""好我"",""好他"",""坏他"",""坏我""]","[""强我"",""强他"",""弱他"",""弱我""]","","","","","","","","","","","","","","","","","[{""page_index"":0,""viewing_time"":8750},{""page_index"":1,""viewing_time"":20808},{""page_index"":2,""viewing_time"":2744},{""page_index"":3,""viewing_time"":2704}]","","","","","","","","","","","","","","","","","","","","","",""
"1048","","f","psychophysics","10","188001","0.0-8.0-1.0-1.0-0.0-0.0","6","5","7","6","6","4","4","4","5","5","4","0","0","1","2","1","1","2","2","4","5","5","5","4","4","5","4","5","4","6","7","7","8","3","7","5","4","7","5","6","5","5","6","3","6","7","6","7","1","6","3","6","5","3","3","6","7","6","5","3","6","3","3","3","5","5","6","7","7","7","3","7","1","3","3","7","7","3","6","783420776295698434","王","195","Male","[""好我"",""好他"",""坏他"",""坏我""]","[""强我"",""强他"",""弱他"",""弱我""]","","","","","","","","nonmatch","","","","","","","","","","key","f","16.674327868852547","768","428","j","false","match","img/ellipse.png","弱他","弱他","prac_ALT2_ability","practice_ability","","","","","","","","",""
"null","<span style='color:red; font-size: 70px;'>错误! </span>","null","html-keyboard-response","11","188502","0.0-8.0-1.0-1.0-0.0-1.0","6","5","7","6","6","4","4","4","5","5","4","0","0","1","2","1","1","2","2","4","5","5","5","4","4","5","4","5","4","6","7","7","8","3","7","5","4","7","5","6","5","5","6","3","6","7","6","7","1","6","3","6","5","3","3","6","7","6","5","3","6","3","3","3","5","5","6","7","7","7","3","7","1","3","3","7","7","3","6","783420776295698434","王","195","Male","[""好我"",""好他"",""坏他"",""坏我""]","[""强我"",""强他"",""弱他"",""弱我""]","","","","","","","","","","","","","","","","","","","","","","","","","","","","","","feedback_test","","","","","","","","",""
"858","","j","psychophysics","12","190364","0.0-8.0-1.0-1.0-0.0-0.1","6","5","7","6","6","4","4","4","5","5","4","0","0","1","2","1","1","2","2","4","5","5","5","4","4","5","4","5","4","6","7","7","8","3","7","5","4","7","5","6","5","5","6","3","6","7","6","7","1","6","3","6","5","3","3","6","7","6","5","3","6","3","3","3","5","5","6","7","7","7","3","7","1","3","3","7","7","3","6","783420776295698434","王","195","Male","[""好我"",""好他"",""坏他"",""坏我""]","[""强我"",""强他"",""弱他"",""弱我""]","","","","","","","","match","","","","","","","","","","key","j","16.674072072071944","768","428","j","true","match","img/square.png","强我","强我","prac_ALT2_ability","practice_ability","","","","","","","","",""
"null","<span style='color:GreenYellow; font-size: 70px;'>正确! </span>","null","html-keyboard-response","13","190866","0.0-8.0-1.0-1.0-0.0-1.1","6","5","7","6","6","4","4","4","5","5","4","0","0","1","2","1","1","2","2","4","5","5","5","4","4","5","4","5","4","6","7","7","8","3","7","5","4","7","5","6","5","5","6","3","6","7","6","7","1","6","3","6","5","3","3","6","7","6","5","3","6","3","3","3","5","5","6","7","7","7","3","7","1","3","3","7","7","3","6","783420776295698434","王","195","Male","[""好我"",""好他"",""坏他"",""坏我""]","[""强我"",""强他"",""弱他"",""弱我""]","","","","","","","","","","","","","","","","","","","","","","","","","","","","","","feedback_test","","","","","","","","",""
"1035","","f","psychophysics","14","192902","0.0-8.0-1.0-1.0-0.0-0.2","6","5","7","6","6","4","4","4","5","5","4","0","0","1","2","1","1","2","2","4","5","5","5","4","4","5","4","5","4","6","7","7","8","3","7","5","4","7","5","6","5","5","6","3","6","7","6","7","1","6","3","6","5","3","3","6","7","6","5","3","6","3","3","3","5","5","6","7","7","7","3","7","1","3","3","7","7","3","6","783420776295698434","王","195","Male","[""好我"",""好他"",""坏他"",""坏我""]","[""强我"",""强他"",""弱他"",""弱我""]","","","","","","","","nonmatch","","","","","","","","","","key","f","16.675099173553765","768","428","f","true","nonmatch","img/trapezoid.png","弱他","弱我","prac_ALT2_ability","practice_ability","","","","","","","","",""
"null","<span style='color:GreenYellow; font-size: 70px;'>正确! </span>","null","html-keyboard-response","15","193404","0.0-8.0-1.0-1.0-0.0-1.2","6","5","7","6","6","4","4","4","5","5","4","0","0","1","2","1","1","2","2","4","5","5","5","4","4","5","4","5","4","6","7","7","8","3","7","5","4","7","5","6","5","5","6","3","6","7","6","7","1","6","3","6","5","3","3","6","7","6","5","3","6","3","3","3","5","5","6","7","7","7","3","7","1","3","3","7","7","3","6","783420776295698434","王","195","Male","[""好我"",""好他"",""坏他"",""坏我""]","[""强我"",""强他"",""弱他"",""弱我""]","","","","","","","","","","","","","","","","","","","","","","","","","","","","","","feedback_test","","","","","","","","",""
"924","","f","psychophysics","16","195330","0.0-8.0-1.0-1.0-0.0-0.3","6","5","7","6","6","4","4","4","5","5","4","0","0","1","2","1","1","2","2","4","5","5","5","4","4","5","4","5","4","6","7","7","8","3","7","5","4","7","5","6","5","5","6","3","6","7","6","7","1","6","3","6","5","3","3","6","7","6","5","3","6","3","3","3","5","5","6","7","7","7","3","7","1","3","3","7","7","3","6","783420776295698434","王","195","Male","[""好我"",""好他"",""坏他"",""坏我""]","[""强我"",""强他"",""弱他"",""弱我""]","","","","","","","","nonmatch","","","","","","","","","","key","f","16.674438596491214","768","428","j","false","match","img/trapezoid.png","弱我","弱我","prac_ALT2_ability","practice_ability","","","","","","","","",""
"null","<span style='color:red; font-size: 70px;'>错误! </span>","null","html-keyboard-response","17","195831","0.0-8.0-1.0-1.0-0.0-1.3","6","5","7","6","6","4","4","4","5","5","4","0","0","1","2","1","1","2","2","4","5","5","5","4","4","5","4","5","4","6","7","7","8","3","7","5","4","7","5","6","5","5","6","3","6","7","6","7","1","6","3","6","5","3","3","6","7","6","5","3","6","3","3","3","5","5","6","7","7","7","3","7","1","3","3","7","7","3","6","783420776295698434","王","195","Male","[""好我"",""好他"",""坏他"",""坏我""]","[""强我"",""强他"",""弱他"",""弱我""]","","","","","","","","","","","","","","","","","","","","","","","","","","","","","","feedback_test","","","","","","","","",""
"1008","","j","psychophysics","18","197840","0.0-8.0-1.0-1.0-0.0-0.4","6","5","7","6","6","4","4","4","5","5","4","0","0","1","2","1","1","2","2","4","5","5","5","4","4","5","4","5","4","6","7","7","8","3","7","5","4","7","5","6","5","5","6","3","6","7","6","7","1","6","3","6","5","3","3","6","7","6","5","3","6","3","3","3","5","5","6","7","7","7","3","7","1","3","3","7","7","3","6","783420776295698434","王","195","Male","[""好我"",""好他"",""坏他"",""坏我""]","[""强我"",""强他"",""弱他"",""弱我""]","","","","","","","","match","","","","","","","","","","key","j","16.673050420168014","768","428","f","false","nonmatch","img/hexagon.png","强我","强他","prac_ALT2_ability","practice_ability","","","","","","","","",""
"null","<span style='color:red; font-size: 70px;'>错误! </span>","null","html-keyboard-response","19","198341","0.0-8.0-1.0-1.0-0.0-1.4","6","5","7","6","6","4","4","4","5","5","4","0","0","1","2","1","1","2","2","4","5","5","5","4","4","5","4","5","4","6","7","7","8","3","7","5","4","7","5","6","5","5","6","3","6","7","6","7","1","6","3","6","5","3","3","6","7","6","5","3","6","3","3","3","5","5","6","7","7","7","3","7","1","3","3","7","7","3","6","783420776295698434","王","195","Male","[""好我"",""好他"",""坏他"",""坏我""]","[""强我"",""强他"",""弱他"",""弱我""]","","","","","","","","","","","","","","","","","","","","","","","","","","","","","","feedback_test","","","","","","","","",""
"null","","null","psychophysics","20","200545","0.0-8.0-1.0-1.0-0.0-0.5","6","5","7","6","6","4","4","4","5","5","4","0","0","1","2","1","1","2","2","4","5","5","5","4","4","5","4","5","4","6","7","7","8","3","7","5","4","7","5","6","5","5","6","3","6","7","6","7","1","6","3","6","5","3","3","6","7","6","5","3","6","3","3","3","5","5","6","7","7","7","3","7","1","3","3","7","7","3","6","783420776295698434","王","195","Male","[""好我"",""好他"",""坏他"",""坏我""]","[""强我"",""强他"",""弱他"",""弱我""]","","","","","","","","null","","","","","","","","","","key","null","16.675633587786272","768","428","j","false","match","img/hexagon.png","强他","强他","prac_ALT2_ability","practice_ability","","","","","","","","",""
"null","<span class='add_' style='color:yellow; font-size: 70px;'> 太慢! </span>","null","html-keyboard-response","21","201046","0.0-8.0-1.0-1.0-0.0-1.5","6","5","7","6","6","4","4","4","5","5","4","0","0","1","2","1","1","2","2","4","5","5","5","4","4","5","4","5","4","6","7","7","8","3","7","5","4","7","5","6","5","5","6","3","6","7","6","7","1","6","3","6","5","3","3","6","7","6","5","3","6","3","3","3","5","5","6","7","7","7","3","7","1","3","3","7","7","3","6","783420776295698434","王","195","Male","[""好我"",""好他"",""坏他"",""坏我""]","[""强我"",""强他"",""弱他"",""弱我""]","","","","","","","","","","","","","","","","","","","","","","","","","","","","","","feedback_test","","","","","","","","",""
"848","","f","psychophysics","22","202895","0.0-8.0-1.0-1.0-0.0-0.6","6","5","7","6","6","4","4","4","5","5","4","0","0","1","2","1","1","2","2","4","5","5","5","4","4","5","4","5","4","6","7","7","8","3","7","5","4","7","5","6","5","5","6","3","6","7","6","7","1","6","3","6","5","3","3","6","7","6","5","3","6","3","3","3","5","5","6","7","7","7","3","7","1","3","3","7","7","3","6","783420776295698434","王","195","Male","[""好我"",""好他"",""坏他"",""坏我""]","[""强我"",""强他"",""弱他"",""弱我""]","","","","","","","","nonmatch","","","","","","","","","","key","f","16.673963636363624","768","428","f","true","nonmatch","img/hexagon.png","弱我","强他","prac_ALT2_ability","practice_ability","","","","","","","","",""
"null","<span style='color:GreenYellow; font-size: 70px;'>正确! </span>","null","html-keyboard-response","23","203397","0.0-8.0-1.0-1.0-0.0-1.6","6","5","7","6","6","4","4","4","5","5","4","0","0","1","2","1","1","2","2","4","5","5","5","4","4","5","4","5","4","6","7","7","8","3","7","5","4","7","5","6","5","5","6","3","6","7","6","7","1","6","3","6","5","3","3","6","7","6","5","3","6","3","3","3","5","5","6","7","7","7","3","7","1","3","3","7","7","3","6","783420776295698434","王","195","Male","[""好我"",""好他"",""坏他"",""坏我""]","[""强我"",""强他"",""弱他"",""弱我""]","","","","","","","","","","","","","","","","","","","","","","","","","","","","","","feedback_test","","","","","","","","",""
"792","","j","psychophysics","24","205190","0.0-8.0-1.0-1.0-0.0-0.7","6","5","7","6","6","4","4","4","5","5","4","0","0","1","2","1","1","2","2","4","5","5","5","4","4","5","4","5","4","6","7","7","8","3","7","5","4","7","5","6","5","5","6","3","6","7","6","7","1","6","3","6","5","3","3","6","7","6","5","3","6","3","3","3","5","5","6","7","7","7","3","7","1","3","3","7","7","3","6","783420776295698434","王","195","Male","[""好我"",""好他"",""坏他"",""坏我""]","[""强我"",""强他"",""弱他"",""弱我""]","","","","","","","","match","","","","","","","","","","key","j","16.675813084111926","768","428","f","false","nonmatch","img/square.png","强他","强我","prac_ALT2_ability","practice_ability","","","","","","","","",""
"null","<span style='color:red; font-size: 70px;'>错误! </span>","null","html-keyboard-response","25","205691","0.0-8.0-1.0-1.0-0.0-1.7","6","5","7","6","6","4","4","4","5","5","4","0","0","1","2","1","1","2","2","4","5","5","5","4","4","5","4","5","4","6","7","7","8","3","7","5","4","7","5","6","5","5","6","3","6","7","6","7","1","6","3","6","5","3","3","6","7","6","5","3","6","3","3","3","5","5","6","7","7","7","3","7","1","3","3","7","7","3","6","783420776295698434","王","195","Male","[""好我"",""好他"",""坏他"",""坏我""]","[""强我"",""强他"",""弱他"",""弱我""]","","","","","","","","","","","","","","","","","","","","","","","","","","","","","","feedback_test","","","","","","","","",""
"634","","j","psychophysics","26","207327","0.0-8.0-1.0-1.0-0.0-0.8","6","5","7","6","6","4","4","4","5","5","4","0","0","1","2","1","1","2","2","4","5","5","5","4","4","5","4","5","4","6","7","7","8","3","7","5","4","7","5","6","5","5","6","3","6","7","6","7","1","6","3","6","5","3","3","6","7","6","5","3","6","3","3","3","5","5","6","7","7","7","3","7","1","3","3","7","7","3","6","783420776295698434","王","195","Male","[""好我"",""好他"",""坏他"",""坏我""]","[""强我"",""强他"",""弱他"",""弱我""]","","","","","","","","match","","","","","","","","","","key","j","16.671793814433183","768","428","j","true","match","img/square.png","强我","强我","prac_ALT2_ability","practice_ability","","","","","","","","",""
"null","<span style='color:GreenYellow; font-size: 70px;'>正确! </span>","null","html-keyboard-response","27","207828","0.0-8.0-1.0-1.0-0.0-1.8","6","5","7","6","6","4","4","4","5","5","4","0","0","1","2","1","1","2","2","4","5","5","5","4","4","5","4","5","4","6","7","7","8","3","7","5","4","7","5","6","5","5","6","3","6","7","6","7","1","6","3","6","5","3","3","6","7","6","5","3","6","3","3","3","5","5","6","7","7","7","3","7","1","3","3","7","7","3","6","783420776295698434","王","195","Male","[""好我"",""好他"",""坏他"",""坏我""]","[""强我"",""强他"",""弱他"",""弱我""]","","","","","","","","","","","","","","","","","","","","","","","","","","","","","","feedback_test","","","","","","","","",""
"1030","","f","psychophysics","28","209859","0.0-8.0-1.0-1.0-0.0-0.9","6","5","7","6","6","4","4","4","5","5","4","0","0","1","2","1","1","2","2","4","5","5","5","4","4","5","4","5","4","6","7","7","8","3","7","5","4","7","5","6","5","5","6","3","6","7","6","7","1","6","3","6","5","3","3","6","7","6","5","3","6","3","3","3","5","5","6","7","7","7","3","7","1","3","3","7","7","3","6","783420776295698434","王","195","Male","[""好我"",""好他"",""坏他"",""坏我""]","[""强我"",""强他"",""弱他"",""弱我""]","","","","","","","","nonmatch","","","","","","","","","","key","f","16.675570247933933","768","428","j","false","match","img/hexagon.png","强他","强他","prac_ALT2_ability","practice_ability","","","","","","","","",""
"null","<span style='color:red; font-size: 70px;'>错误! </span>","null","html-keyboard-response","29","210360","0.0-8.0-1.0-1.0-0.0-1.9","6","5","7","6","6","4","4","4","5","5","4","0","0","1","2","1","1","2","2","4","5","5","5","4","4","5","4","5","4","6","7","7","8","3","7","5","4","7","5","6","5","5","6","3","6","7","6","7","1","6","3","6","5","3","3","6","7","6","5","3","6","3","3","3","5","5","6","7","7","7","3","7","1","3","3","7","7","3","6","783420776295698434","王","195","Male","[""好我"",""好他"",""坏他"",""坏我""]","[""强我"",""强他"",""弱他"",""弱我""]","","","","","","","","","","","","","","","","","","","","","","","","","","","","","","feedback_test","","","","","","","","",""
"1121","","j","psychophysics","30","212483","0.0-8.0-1.0-1.0-0.0-0.10","6","5","7","6","6","4","4","4","5","5","4","0","0","1","2","1","1","2","2","4","5","5","5","4","4","5","4","5","4","6","7","7","8","3","7","5","4","7","5","6","5","5","6","3","6","7","6","7","1","6","3","6","5","3","3","6","7","6","5","3","6","3","3","3","5","5","6","7","7","7","3","7","1","3","3","7","7","3","6","783420776295698434","王","195","Male","[""好我"",""好他"",""坏他"",""坏我""]","[""强我"",""强他"",""弱他"",""弱我""]","","","","","","","","match","","","","","","","","","","key","j","16.67408730158728","768","428","f","false","nonmatch","img/square.png","弱他","强我","prac_ALT2_ability","practice_ability","","","","","","","","",""
"null","<span style='color:red; font-size: 70px;'>错误! </span>","null","html-keyboard-response","31","212985","0.0-8.0-1.0-1.0-0.0-1.10","6","5","7","6","6","4","4","4","5","5","4","0","0","1","2","1","1","2","2","4","5","5","5","4","4","5","4","5","4","6","7","7","8","3","7","5","4","7","5","6","5","5","6","3","6","7","6","7","1","6","3","6","5","3","3","6","7","6","5","3","6","3","3","3","5","5","6","7","7","7","3","7","1","3","3","7","7","3","6","783420776295698434","王","195","Male","[""好我"",""好他"",""坏他"",""坏我""]","[""强我"",""强他"",""弱他"",""弱我""]","","","","","","","","","","","","","","","","","","","","","","","","","","","","","","feedback_test","","","","","","","","",""
"1045","","f","psychophysics","32","215031","0.0-8.0-1.0-1.0-0.0-0.11","6","5","7","6","6","4","4","4","5","5","4","0","0","1","2","1","1","2","2","4","5","5","5","4","4","5","4","5","4","6","7","7","8","3","7","5","4","7","5","6","5","5","6","3","6","7","6","7","1","6","3","6","5","3","3","6","7","6","5","3","6","3","3","3","5","5","6","7","7","7","3","7","1","3","3","7","7","3","6","783420776295698434","王","195","Male","[""好我"",""好他"",""坏他"",""坏我""]","[""强我"",""强他"",""弱他"",""弱我""]","","","","","","","","nonmatch","","","","","","","","","","key","f","16.67539344262308","768","428","f","true","nonmatch","img/ellipse.png","强我","弱他","prac_ALT2_ability","practice_ability","","","","","","","","",""
"null","<span style='color:GreenYellow; font-size: 70px;'>正确! </span>","null","html-keyboard-response","33","215532","0.0-8.0-1.0-1.0-0.0-1.11","6","5","7","6","6","4","4","4","5","5","4","0","0","1","2","1","1","2","2","4","5","5","5","4","4","5","4","5","4","6","7","7","8","3","7","5","4","7","5","6","5","5","6","3","6","7","6","7","1","6","3","6","5","3","3","6","7","6","5","3","6","3","3","3","5","5","6","7","7","7","3","7","1","3","3","7","7","3","6","783420776295698434","王","195","Male","[""好我"",""好他"",""坏他"",""坏我""]","[""强我"",""强他"",""弱他"",""弱我""]","","","","","","","","","","","","","","","","","","","","","","","","","","","","","","feedback_test","","","","","","","","",""
"691","","j","psychophysics","34","217225","0.0-8.0-1.0-1.0-0.0-0.12","6","5","7","6","6","4","4","4","5","5","4","0","0","1","2","1","1","2","2","4","5","5","5","4","4","5","4","5","4","6","7","7","8","3","7","5","4","7","5","6","5","5","6","3","6","7","6","7","1","6","3","6","5","3","3","6","7","6","5","3","6","3","3","3","5","5","6","7","7","7","3","7","1","3","3","7","7","3","6","783420776295698434","王","195","Male","[""好我"",""好他"",""坏他"",""坏我""]","[""强我"",""强他"",""弱他"",""弱我""]","","","","","","","","match","","","","","","","","","","key","j","16.677683168316793","768","428","j","true","match","img/square.png","强我","强我","prac_ALT2_ability","practice_ability","","","","","","","","",""
"null","<span style='color:GreenYellow; font-size: 70px;'>正确! </span>","null","html-keyboard-response","35","217727","0.0-8.0-1.0-1.0-0.0-1.12","6","5","7","6","6","4","4","4","5","5","4","0","0","1","2","1","1","2","2","4","5","5","5","4","4","5","4","5","4","6","7","7","8","3","7","5","4","7","5","6","5","5","6","3","6","7","6","7","1","6","3","6","5","3","3","6","7","6","5","3","6","3","3","3","5","5","6","7","7","7","3","7","1","3","3","7","7","3","6","783420776295698434","王","195","Male","[""好我"",""好他"",""坏他"",""坏我""]","[""强我"",""强他"",""弱他"",""弱我""]","","","","","","","","","","","","","","","","","","","","","","","","","","","","","","feedback_test","","","","","","","","",""
"830","","f","psychophysics","36","219558","0.0-8.0-1.0-1.0-0.0-0.13","6","5","7","6","6","4","4","4","5","5","4","0","0","1","2","1","1","2","2","4","5","5","5","4","4","5","4","5","4","6","7","7","8","3","7","5","4","7","5","6","5","5","6","3","6","7","6","7","1","6","3","6","5","3","3","6","7","6","5","3","6","3","3","3","5","5","6","7","7","7","3","7","1","3","3","7","7","3","6","783420776295698434","王","195","Male","[""好我"",""好他"",""坏他"",""坏我""]","[""强我"",""强他"",""弱他"",""弱我""]","","","","","","","","nonmatch","","","","","","","","","","key","f","16.672825688073292","768","428","f","true","nonmatch","img/square.png","弱我","强我","prac_ALT2_ability","practice_ability","","","","","","","","",""
"null","<span style='color:GreenYellow; font-size: 70px;'>正确! </span>","null","html-keyboard-response","37","220059","0.0-8.0-1.0-1.0-0.0-1.13","6","5","7","6","6","4","4","4","5","5","4","0","0","1","2","1","1","2","2","4","5","5","5","4","4","5","4","5","4","6","7","7","8","3","7","5","4","7","5","6","5","5","6","3","6","7","6","7","1","6","3","6","5","3","3","6","7","6","5","3","6","3","3","3","5","5","6","7","7","7","3","7","1","3","3","7","7","3","6","783420776295698434","王","195","Male","[""好我"",""好他"",""坏他"",""坏我""]","[""强我"",""强他"",""弱他"",""弱我""]","","","","","","","","","","","","","","","","","","","","","","","","","","","","","","feedback_test","","","","","","","","",""
"null","","null","psychophysics","38","222262","0.0-8.0-1.0-1.0-0.0-0.14","6","5","7","6","6","4","4","4","5","5","4","0","0","1","2","1","1","2","2","4","5","5","5","4","4","5","4","5","4","6","7","7","8","3","7","5","4","7","5","6","5","5","6","3","6","7","6","7","1","6","3","6","5","3","3","6","7","6","5","3","6","3","3","3","5","5","6","7","7","7","3","7","1","3","3","7","7","3","6","783420776295698434","王","195","Male","[""好我"",""好他"",""坏他"",""坏我""]","[""强我"",""强他"",""弱他"",""弱我""]","","","","","","","","null","","","","","","","","","","key","null","16.67495419847346","768","428","f","false","nonmatch","img/trapezoid.png","强他","弱我","prac_ALT2_ability","practice_ability","","","","","","","","",""
"null","<span class='add_' style='color:yellow; font-size: 70px;'> 太慢! </span>","null","html-keyboard-response","39","222764","0.0-8.0-1.0-1.0-0.0-1.14","6","5","7","6","6","4","4","4","5","5","4","0","0","1","2","1","1","2","2","4","5","5","5","4","4","5","4","5","4","6","7","7","8","3","7","5","4","7","5","6","5","5","6","3","6","7","6","7","1","6","3","6","5","3","3","6","7","6","5","3","6","3","3","3","5","5","6","7","7","7","3","7","1","3","3","7","7","3","6","783420776295698434","王","195","Male","[""好我"",""好他"",""坏他"",""坏我""]","[""强我"",""强他"",""弱他"",""弱我""]","","","","","","","","","","","","","","","","","","","","","","","","","","","","","","feedback_test","","","","","","","","",""
"793","","f","psychophysics","40","224558","0.0-8.0-1.0-1.0-0.0-0.15","6","5","7","6","6","4","4","4","5","5","4","0","0","1","2","1","1","2","2","4","5","5","5","4","4","5","4","5","4","6","7","7","8","3","7","5","4","7","5","6","5","5","6","3","6","7","6","7","1","6","3","6","5","3","3","6","7","6","5","3","6","3","3","3","5","5","6","7","7","7","3","7","1","3","3","7","7","3","6","783420776295698434","王","195","Male","[""好我"",""好他"",""坏他"",""坏我""]","[""强我"",""强他"",""弱他"",""弱我""]","","","","","","","","nonmatch","","","","","","","","","","key","f","16.674452830188663","768","428","j","false","match","img/hexagon.png","强他","强他","prac_ALT2_ability","practice_ability","","","","","","","","",""
"null","<span style='color:red; font-size: 70px;'>错误! </span>","null","html-keyboard-response","41","225060","0.0-8.0-1.0-1.0-0.0-1.15","6","5","7","6","6","4","4","4","5","5","4","0","0","1","2","1","1","2","2","4","5","5","5","4","4","5","4","5","4","6","7","7","8","3","7","5","4","7","5","6","5","5","6","3","6","7","6","7","1","6","3","6","5","3","3","6","7","6","5","3","6","3","3","3","5","5","6","7","7","7","3","7","1","3","3","7","7","3","6","783420776295698434","王","195","Male","[""好我"",""好他"",""坏他"",""坏我""]","[""强我"",""强他"",""弱他"",""弱我""]","","","","","","","","","","","","","","","","","","","","","","","","","","","","","","feedback_test","","","","","","","","",""
"956","","j","psychophysics","42","227019","0.0-8.0-1.0-1.0-0.0-0.16","6","5","7","6","6","4","4","4","5","5","4","0","0","1","2","1","1","2","2","4","5","5","5","4","4","5","4","5","4","6","7","7","8","3","7","5","4","7","5","6","5","5","6","3","6","7","6","7","1","6","3","6","5","3","3","6","7","6","5","3","6","3","3","3","5","5","6","7","7","7","3","7","1","3","3","7","7","3","6","783420776295698434","王","195","Male","[""好我"",""好他"",""坏他"",""坏我""]","[""强我"",""强他"",""弱他"",""弱我""]","","","","","","","","match","","","","","","","","","","key","j","16.673629310344857","768","428","j","true","match","img/trapezoid.png","弱我","弱我","prac_ALT2_ability","practice_ability","","","","","","","","",""
"null","<span style='color:GreenYellow; font-size: 70px;'>正确! </span>","null","html-keyboard-response","43","227520","0.0-8.0-1.0-1.0-0.0-1.16","6","5","7","6","6","4","4","4","5","5","4","0","0","1","2","1","1","2","2","4","5","5","5","4","4","5","4","5","4","6","7","7","8","3","7","5","4","7","5","6","5","5","6","3","6","7","6","7","1","6","3","6","5","3","3","6","7","6","5","3","6","3","3","3","5","5","6","7","7","7","3","7","1","3","3","7","7","3","6","783420776295698434","王","195","Male","[""好我"",""好他"",""坏他"",""坏我""]","[""强我"",""强他"",""弱他"",""弱我""]","","","","","","","","","","","","","","","","","","","","","","","","","","","","","","feedback_test","","","","","","","","",""
"652","","f","psychophysics","44","229174","0.0-8.0-1.0-1.0-0.0-0.17","6","5","7","6","6","4","4","4","5","5","4","0","0","1","2","1","1","2","2","4","5","5","5","4","4","5","4","5","4","6","7","7","8","3","7","5","4","7","5","6","5","5","6","3","6","7","6","7","1","6","3","6","5","3","3","6","7","6","5","3","6","3","3","3","5","5","6","7","7","7","3","7","1","3","3","7","7","3","6","783420776295698434","王","195","Male","[""好我"",""好他"",""坏他"",""坏我""]","[""强我"",""强他"",""弱他"",""弱我""]","","","","","","","","nonmatch","","","","","","","","","","key","f","16.675744897959163","768","428","j","false","match","img/trapezoid.png","弱我","弱我","prac_ALT2_ability","practice_ability","","","","","","","","",""
"null","<span style='color:red; font-size: 70px;'>错误! </span>","null","html-keyboard-response","45","229676","0.0-8.0-1.0-1.0-0.0-1.17","6","5","7","6","6","4","4","4","5","5","4","0","0","1","2","1","1","2","2","4","5","5","5","4","4","5","4","5","4","6","7","7","8","3","7","5","4","7","5","6","5","5","6","3","6","7","6","7","1","6","3","6","5","3","3","6","7","6","5","3","6","3","3","3","5","5","6","7","7","7","3","7","1","3","3","7","7","3","6","783420776295698434","王","195","Male","[""好我"",""好他"",""坏他"",""坏我""]","[""强我"",""强他"",""弱他"",""弱我""]","","","","","","","","","","","","","","","","","","","","","","","","","","","","","","feedback_test","","","","","","","","",""
"974","","f","psychophysics","46","231651","0.0-8.0-1.0-1.0-0.0-0.18","6","5","7","6","6","4","4","4","5","5","4","0","0","1","2","1","1","2","2","4","5","5","5","4","4","5","4","5","4","6","7","7","8","3","7","5","4","7","5","6","5","5","6","3","6","7","6","7","1","6","3","6","5","3","3","6","7","6","5","3","6","3","3","3","5","5","6","7","7","7","3","7","1","3","3","7","7","3","6","783420776295698434","王","195","Male","[""好我"",""好他"",""坏他"",""坏我""]","[""强我"",""强他"",""弱他"",""弱我""]","","","","","","","","nonmatch","","","","","","","","","","key","f","16.61647008547015","768","428","f","true","nonmatch","img/ellipse.png","弱我","弱他","prac_ALT2_ability","practice_ability","","","","","","","","",""
"null","<span style='color:GreenYellow; font-size: 70px;'>正确! </span>","null","html-keyboard-response","47","232153","0.0-8.0-1.0-1.0-0.0-1.18","6","5","7","6","6","4","4","4","5","5","4","0","0","1","2","1","1","2","2","4","5","5","5","4","4","5","4","5","4","6","7","7","8","3","7","5","4","7","5","6","5","5","6","3","6","7","6","7","1","6","3","6","5","3","3","6","7","6","5","3","6","3","3","3","5","5","6","7","7","7","3","7","1","3","3","7","7","3","6","783420776295698434","王","195","Male","[""好我"",""好他"",""坏他"",""坏我""]","[""强我"",""强他"",""弱他"",""弱我""]","","","","","","","","","","","","","","","","","","","","","","","","","","","","","","feedback_test","","","","","","","","",""
"1147","","f","psychophysics","48","234301","0.0-8.0-1.0-1.0-0.0-0.19","6","5","7","6","6","4","4","4","5","5","4","0","0","1","2","1","1","2","2","4","5","5","5","4","4","5","4","5","4","6","7","7","8","3","7","5","4","7","5","6","5","5","6","3","6","7","6","7","1","6","3","6","5","3","3","6","7","6","5","3","6","3","3","3","5","5","6","7","7","7","3","7","1","3","3","7","7","3","6","783420776295698434","王","195","Male","[""好我"",""好他"",""坏他"",""坏我""]","[""强我"",""强他"",""弱他"",""弱我""]","","","","","","","","nonmatch","","","","","","","","","","key","f","16.673546875000056","768","428","f","true","nonmatch","img/ellipse.png","强他","弱他","prac_ALT2_ability","practice_ability","","","","","","","","",""
"null","<span style='color:GreenYellow; font-size: 70px;'>正确! </span>","null","html-keyboard-response","49","234802","0.0-8.0-1.0-1.0-0.0-1.19","6","5","7","6","6","4","4","4","5","5","4","0","0","1","2","1","1","2","2","4","5","5","5","4","4","5","4","5","4","6","7","7","8","3","7","5","4","7","5","6","5","5","6","3","6","7","6","7","1","6","3","6","5","3","3","6","7","6","5","3","6","3","3","3","5","5","6","7","7","7","3","7","1","3","3","7","7","3","6","783420776295698434","王","195","Male","[""好我"",""好他"",""坏他"",""坏我""]","[""强我"",""强他"",""弱他"",""弱我""]","","","","","","","","","","","","","","","","","","","","","","","","","","","","","","feedback_test","","","","","","","","",""
"1165","","j","psychophysics","50","236969","0.0-8.0-1.0-1.0-0.0-0.20","6","5","7","6","6","4","4","4","5","5","4","0","0","1","2","1","1","2","2","4","5","5","5","4","4","5","4","5","4","6","7","7","8","3","7","5","4","7","5","6","5","5","6","3","6","7","6","7","1","6","3","6","5","3","3","6","7","6","5","3","6","3","3","3","5","5","6","7","7","7","3","7","1","3","3","7","7","3","6","783420776295698434","王","195","Male","[""好我"",""好他"",""坏他"",""坏我""]","[""强我"",""强他"",""弱他"",""弱我""]","","","","","","","","match","","","","","","","","","","key","j","16.672689922480636","768","428","f","false","nonmatch","img/trapezoid.png","强我","弱我","prac_ALT2_ability","practice_ability","","","","","","","","",""
"null","<span style='color:red; font-size: 70px;'>错误! </span>","null","html-keyboard-response","51","237471","0.0-8.0-1.0-1.0-0.0-1.20","6","5","7","6","6","4","4","4","5","5","4","0","0","1","2","1","1","2","2","4","5","5","5","4","4","5","4","5","4","6","7","7","8","3","7","5","4","7","5","6","5","5","6","3","6","7","6","7","1","6","3","6","5","3","3","6","7","6","5","3","6","3","3","3","5","5","6","7","7","7","3","7","1","3","3","7","7","3","6","783420776295698434","王","195","Male","[""好我"",""好他"",""坏他"",""坏我""]","[""强我"",""强他"",""弱他"",""弱我""]","","","","","","","","","","","","","","","","","","","","","","","","","","","","","","feedback_test","","","","","","","","",""
"956","","j","psychophysics","52","239429","0.0-8.0-1.0-1.0-0.0-0.21","6","5","7","6","6","4","4","4","5","5","4","0","0","1","2","1","1","2","2","4","5","5","5","4","4","5","4","5","4","6","7","7","8","3","7","5","4","7","5","6","5","5","6","3","6","7","6","7","1","6","3","6","5","3","3","6","7","6","5","3","6","3","3","3","5","5","6","7","7","7","3","7","1","3","3","7","7","3","6","783420776295698434","王","195","Male","[""好我"",""好他"",""坏他"",""坏我""]","[""强我"",""强他"",""弱他"",""弱我""]","","","","","","","","match","","","","","","","","","","key","j","16.671689655172393","768","428","f","false","nonmatch","img/hexagon.png","弱他","强他","prac_ALT2_ability","practice_ability","","","","","","","","",""
"null","<span style='color:red; font-size: 70px;'>错误! </span>","null","html-keyboard-response","53","239930","0.0-8.0-1.0-1.0-0.0-1.21","6","5","7","6","6","4","4","4","5","5","4","0","0","1","2","1","1","2","2","4","5","5","5","4","4","5","4","5","4","6","7","7","8","3","7","5","4","7","5","6","5","5","6","3","6","7","6","7","1","6","3","6","5","3","3","6","7","6","5","3","6","3","3","3","5","5","6","7","7","7","3","7","1","3","3","7","7","3","6","783420776295698434","王","195","Male","[""好我"",""好他"",""坏他"",""坏我""]","[""强我"",""强他"",""弱他"",""弱我""]","","","","","","","","","","","","","","","","","","","","","","","","","","","","","","feedback_test","","","","","","","","",""
"728","","f","psychophysics","54","241660","0.0-8.0-1.0-1.0-0.0-0.22","6","5","7","6","6","4","4","4","5","5","4","0","0","1","2","1","1","2","2","4","5","5","5","4","4","5","4","5","4","6","7","7","8","3","7","5","4","7","5","6","5","5","6","3","6","7","6","7","1","6","3","6","5","3","3","6","7","6","5","3","6","3","3","3","5","5","6","7","7","7","3","7","1","3","3","7","7","3","6","783420776295698434","王","195","Male","[""好我"",""好他"",""坏他"",""坏我""]","[""强我"",""强他"",""弱他"",""弱我""]","","","","","","","","nonmatch","","","","","","","","","","key","f","16.672872549019623","768","428","j","false","match","img/ellipse.png","弱他","弱他","prac_ALT2_ability","practice_ability","","","","","","","","",""
"null","<span style='color:red; font-size: 70px;'>错误! </span>","null","html-keyboard-response","55","242161","0.0-8.0-1.0-1.0-0.0-1.22","6","5","7","6","6","4","4","4","5","5","4","0","0","1","2","1","1","2","2","4","5","5","5","4","4","5","4","5","4","6","7","7","8","3","7","5","4","7","5","6","5","5","6","3","6","7","6","7","1","6","3","6","5","3","3","6","7","6","5","3","6","3","3","3","5","5","6","7","7","7","3","7","1","3","3","7","7","3","6","783420776295698434","王","195","Male","[""好我"",""好他"",""坏他"",""坏我""]","[""强我"",""强他"",""弱他"",""弱我""]","","","","","","","","","","","","","","","","","","","","","","","","","","","","","","feedback_test","","","","","","","","",""
"766","","f","psychophysics","56","243928","0.0-8.0-1.0-1.0-0.0-0.23","6","5","7","6","6","4","4","4","5","5","4","0","0","1","2","1","1","2","2","4","5","5","5","4","4","5","4","5","4","6","7","7","8","3","7","5","4","7","5","6","5","5","6","3","6","7","6","7","1","6","3","6","5","3","3","6","7","6","5","3","6","3","3","3","5","5","6","7","7","7","3","7","1","3","3","7","7","3","6","783420776295698434","王","195","Male","[""好我"",""好他"",""坏他"",""坏我""]","[""强我"",""强他"",""弱他"",""弱我""]","","","","","","","","nonmatch","","","","","","","","","","key","f","16.675942857142736","768","428","j","false","match","img/ellipse.png","弱他","弱他","prac_ALT2_ability","practice_ability","","","","","","","","",""
"null","<span style='color:red; font-size: 70px;'>错误! </span>","null","html-keyboard-response","57","244429","0.0-8.0-1.0-1.0-0.0-1.23","6","5","7","6","6","4","4","4","5","5","4","0","0","1","2","1","1","2","2","4","5","5","5","4","4","5","4","5","4","6","7","7","8","3","7","5","4","7","5","6","5","5","6","3","6","7","6","7","1","6","3","6","5","3","3","6","7","6","5","3","6","3","3","3","5","5","6","7","7","7","3","7","1","3","3","7","7","3","6","783420776295698434","王","195","Male","[""好我"",""好他"",""坏他"",""坏我""]","[""强我"",""强他"",""弱他"",""弱我""]","","","","","","","","","","","","","","","","","","","","","","","","","","","","","","feedback_test","","","","","","","","",""
"847","","j","psychophysics","58","246278","0.0-8.0-1.0-1.0-0.0-0.24","6","5","7","6","6","4","4","4","5","5","4","0","0","1","2","1","1","2","2","4","5","5","5","4","4","5","4","5","4","6","7","7","8","3","7","5","4","7","5","6","5","5","6","3","6","7","6","7","1","6","3","6","5","3","3","6","7","6","5","3","6","3","3","3","5","5","6","7","7","7","3","7","1","3","3","7","7","3","6","783420776295698434","王","195","Male","[""好我"",""好他"",""坏他"",""坏我""]","[""强我"",""强他"",""弱他"",""弱我""]","","","","","","","","match","","","","","","","","","","key","j","16.674154545454606","768","428","j","true","match","img/hexagon.png","强他","强他","prac_ALT2_ability","practice_ability","","","","","","","","",""
"null","<span style='color:GreenYellow; font-size: 70px;'>正确! </span>","null","html-keyboard-response","59","246779","0.0-8.0-1.0-1.0-0.0-1.24","6","5","7","6","6","4","4","4","5","5","4","0","0","1","2","1","1","2","2","4","5","5","5","4","4","5","4","5","4","6","7","7","8","3","7","5","4","7","5","6","5","5","6","3","6","7","6","7","1","6","3","6","5","3","3","6","7","6","5","3","6","3","3","3","5","5","6","7","7","7","3","7","1","3","3","7","7","3","6","783420776295698434","王","195","Male","[""好我"",""好他"",""坏他"",""坏我""]","[""强我"",""强他"",""弱他"",""弱我""]","","","","","","","","","","","","","","","","","","","","","","","","","","","","","","feedback_test","","","","","","","","",""
"788","","f","psychophysics","60","248569","0.0-8.0-1.0-1.0-0.0-0.25","6","5","7","6","6","4","4","4","5","5","4","0","0","1","2","1","1","2","2","4","5","5","5","4","4","5","4","5","4","6","7","7","8","3","7","5","4","7","5","6","5","5","6","3","6","7","6","7","1","6","3","6","5","3","3","6","7","6","5","3","6","3","3","3","5","5","6","7","7","7","3","7","1","3","3","7","7","3","6","783420776295698434","王","195","Male","[""好我"",""好他"",""坏他"",""坏我""]","[""强我"",""强他"",""弱他"",""弱我""]","","","","","","","","nonmatch","","","","","","","","","","key","f","16.674429906542233","768","428","f","true","nonmatch","img/ellipse.png","强我","弱他","prac_ALT2_ability","practice_ability","","","","","","","","",""
"null","<span style='color:GreenYellow; font-size: 70px;'>正确! </span>","null","html-keyboard-response","61","249070","0.0-8.0-1.0-1.0-0.0-1.25","6","5","7","6","6","4","4","4","5","5","4","0","0","1","2","1","1","2","2","4","5","5","5","4","4","5","4","5","4","6","7","7","8","3","7","5","4","7","5","6","5","5","6","3","6","7","6","7","1","6","3","6","5","3","3","6","7","6","5","3","6","3","3","3","5","5","6","7","7","7","3","7","1","3","3","7","7","3","6","783420776295698434","王","195","Male","[""好我"",""好他"",""坏他"",""坏我""]","[""强我"",""强他"",""弱他"",""弱我""]","","","","","","","","","","","","","","","","","","","","","","","","","","","","","","feedback_test","","","","","","","","",""
"1001","","f","psychophysics","62","251073","0.0-8.0-1.0-1.0-0.0-0.26","6","5","7","6","6","4","4","4","5","5","4","0","0","1","2","1","1","2","2","4","5","5","5","4","4","5","4","5","4","6","7","7","8","3","7","5","4","7","5","6","5","5","6","3","6","7","6","7","1","6","3","6","5","3","3","6","7","6","5","3","6","3","3","3","5","5","6","7","7","7","3","7","1","3","3","7","7","3","6","783420776295698434","王","195","Male","[""好我"",""好他"",""坏他"",""坏我""]","[""强我"",""强他"",""弱他"",""弱我""]","","","","","","","","nonmatch","","","","","","","","","","key","f","16.67255462184886","768","428","j","false","match","img/hexagon.png","强他","强他","prac_ALT2_ability","practice_ability","","","","","","","","",""
"null","<span style='color:red; font-size: 70px;'>错误! </span>","null","html-keyboard-response","63","251574","0.0-8.0-1.0-1.0-0.0-1.26","6","5","7","6","6","4","4","4","5","5","4","0","0","1","2","1","1","2","2","4","5","5","5","4","4","5","4","5","4","6","7","7","8","3","7","5","4","7","5","6","5","5","6","3","6","7","6","7","1","6","3","6","5","3","3","6","7","6","5","3","6","3","3","3","5","5","6","7","7","7","3","7","1","3","3","7","7","3","6","783420776295698434","王","195","Male","[""好我"",""好他"",""坏他"",""坏我""]","[""强我"",""强他"",""弱他"",""弱我""]","","","","","","","","","","","","","","","","","","","","","","","","","","","","","","feedback_test","","","","","","","","",""
"629","","j","psychophysics","64","253205","0.0-8.0-1.0-1.0-0.0-0.27","6","5","7","6","6","4","4","4","5","5","4","0","0","1","2","1","1","2","2","4","5","5","5","4","4","5","4","5","4","6","7","7","8","3","7","5","4","7","5","6","5","5","6","3","6","7","6","7","1","6","3","6","5","3","3","6","7","6","5","3","6","3","3","3","5","5","6","7","7","7","3","7","1","3","3","7","7","3","6","783420776295698434","王","195","Male","[""好我"",""好他"",""坏他"",""坏我""]","[""强我"",""强他"",""弱他"",""弱我""]","","","","","","","","match","","","","","","","","","","key","j","16.672103092783686","768","428","j","true","match","img/square.png","强我","强我","prac_ALT2_ability","practice_ability","","","","","","","","",""
"null","<span style='color:GreenYellow; font-size: 70px;'>正确! </span>","null","html-keyboard-response","65","253705","0.0-8.0-1.0-1.0-0.0-1.27","6","5","7","6","6","4","4","4","5","5","4","0","0","1","2","1","1","2","2","4","5","5","5","4","4","5","4","5","4","6","7","7","8","3","7","5","4","7","5","6","5","5","6","3","6","7","6","7","1","6","3","6","5","3","3","6","7","6","5","3","6","3","3","3","5","5","6","7","7","7","3","7","1","3","3","7","7","3","6","783420776295698434","王","195","Male","[""好我"",""好他"",""坏他"",""坏我""]","[""强我"",""强他"",""弱他"",""弱我""]","","","","","","","","","","","","","","","","","","","","","","","","","","","","","","feedback_test","","","","","","","","",""
"849","","f","psychophysics","66","255556","0.0-8.0-1.0-1.0-0.0-0.28","6","5","7","6","6","4","4","4","5","5","4","0","0","1","2","1","1","2","2","4","5","5","5","4","4","5","4","5","4","6","7","7","8","3","7","5","4","7","5","6","5","5","6","3","6","7","6","7","1","6","3","6","5","3","3","6","7","6","5","3","6","3","3","3","5","5","6","7","7","7","3","7","1","3","3","7","7","3","6","783420776295698434","王","195","Male","[""好我"",""好他"",""坏他"",""坏我""]","[""强我"",""强他"",""弱他"",""弱我""]","","","","","","","","nonmatch","","","","","","","","","","key","f","16.67370909090916","768","428","j","false","match","img/trapezoid.png","弱我","弱我","prac_ALT2_ability","practice_ability","","","","","","","","",""
"null","<span style='color:red; font-size: 70px;'>错误! </span>","null","html-keyboard-response","67","256057","0.0-8.0-1.0-1.0-0.0-1.28","6","5","7","6","6","4","4","4","5","5","4","0","0","1","2","1","1","2","2","4","5","5","5","4","4","5","4","5","4","6","7","7","8","3","7","5","4","7","5","6","5","5","6","3","6","7","6","7","1","6","3","6","5","3","3","6","7","6","5","3","6","3","3","3","5","5","6","7","7","7","3","7","1","3","3","7","7","3","6","783420776295698434","王","195","Male","[""好我"",""好他"",""坏他"",""坏我""]","[""强我"",""强他"",""弱他"",""弱我""]","","","","","","","","","","","","","","","","","","","","","","","","","","","","","","feedback_test","","","","","","","","",""
"823","","f","psychophysics","68","257882","0.0-8.0-1.0-1.0-0.0-0.29","6","5","7","6","6","4","4","4","5","5","4","0","0","1","2","1","1","2","2","4","5","5","5","4","4","5","4","5","4","6","7","7","8","3","7","5","4","7","5","6","5","5","6","3","6","7","6","7","1","6","3","6","5","3","3","6","7","6","5","3","6","3","3","3","5","5","6","7","7","7","3","7","1","3","3","7","7","3","6","783420776295698434","王","195","Male","[""好我"",""好他"",""坏他"",""坏我""]","[""强我"",""强他"",""弱他"",""弱我""]","","","","","","","","nonmatch","","","","","","","","","","key","f","16.6746296296295","768","428","f","true","nonmatch","img/trapezoid.png","弱他","弱我","prac_ALT2_ability","practice_ability","","","","","","","","",""
"null","<span style='color:GreenYellow; font-size: 70px;'>正确! </span>","null","html-keyboard-response","69","258383","0.0-8.0-1.0-1.0-0.0-1.29","6","5","7","6","6","4","4","4","5","5","4","0","0","1","2","1","1","2","2","4","5","5","5","4","4","5","4","5","4","6","7","7","8","3","7","5","4","7","5","6","5","5","6","3","6","7","6","7","1","6","3","6","5","3","3","6","7","6","5","3","6","3","3","3","5","5","6","7","7","7","3","7","1","3","3","7","7","3","6","783420776295698434","王","195","Male","[""好我"",""好他"",""坏他"",""坏我""]","[""强我"",""强他"",""弱他"",""弱我""]","","","","","","","","","","","","","","","","","","","","","","","","","","","","","","feedback_test","","","","","","","","",""
"619","","f","psychophysics","70","260003","0.0-8.0-1.0-1.0-0.0-0.30","6","5","7","6","6","4","4","4","5","5","4","0","0","1","2","1","1","2","2","4","5","5","5","4","4","5","4","5","4","6","7","7","8","3","7","5","4","7","5","6","5","5","6","3","6","7","6","7","1","6","3","6","5","3","3","6","7","6","5","3","6","3","3","3","5","5","6","7","7","7","3","7","1","3","3","7","7","3","6","783420776295698434","王","195","Male","[""好我"",""好他"",""坏他"",""坏我""]","[""强我"",""强他"",""弱他"",""弱我""]","","","","","","","","nonmatch","","","","","","","","","","key","f","16.675562499999916","768","428","j","false","match","img/ellipse.png","弱他","弱他","prac_ALT2_ability","practice_ability","","","","","","","","",""
"null","<span style='color:red; font-size: 70px;'>错误! </span>","null","html-keyboard-response","71","260504","0.0-8.0-1.0-1.0-0.0-1.30","6","5","7","6","6","4","4","4","5","5","4","0","0","1","2","1","1","2","2","4","5","5","5","4","4","5","4","5","4","6","7","7","8","3","7","5","4","7","5","6","5","5","6","3","6","7","6","7","1","6","3","6","5","3","3","6","7","6","5","3","6","3","3","3","5","5","6","7","7","7","3","7","1","3","3","7","7","3","6","783420776295698434","王","195","Male","[""好我"",""好他"",""坏他"",""坏我""]","[""强我"",""强他"",""弱他"",""弱我""]","","","","","","","","","","","","","","","","","","","","","","","","","","","","","","feedback_test","","","","","","","","",""
"763","","f","psychophysics","72","262268","0.0-8.0-1.0-1.0-0.0-0.31","6","5","7","6","6","4","4","4","5","5","4","0","0","1","2","1","1","2","2","4","5","5","5","4","4","5","4","5","4","6","7","7","8","3","7","5","4","7","5","6","5","5","6","3","6","7","6","7","1","6","3","6","5","3","3","6","7","6","5","3","6","3","3","3","5","5","6","7","7","7","3","7","1","3","3","7","7","3","6","783420776295698434","王","195","Male","[""好我"",""好他"",""坏他"",""坏我""]","[""强我"",""强他"",""弱他"",""弱我""]","","","","","","","","nonmatch","","","","","","","","","","key","f","16.67150961538461","768","428","f","true","nonmatch","img/hexagon.png","弱我","强他","prac_ALT2_ability","practice_ability","","","","","","","","",""
"null","<span style='color:GreenYellow; font-size: 70px;'>正确! </span>","null","html-keyboard-response","73","262769","0.0-8.0-1.0-1.0-0.0-1.31","6","5","7","6","6","4","4","4","5","5","4","0","0","1","2","1","1","2","2","4","5","5","5","4","4","5","4","5","4","6","7","7","8","3","7","5","4","7","5","6","5","5","6","3","6","7","6","7","1","6","3","6","5","3","3","6","7","6","5","3","6","3","3","3","5","5","6","7","7","7","3","7","1","3","3","7","7","3","6","783420776295698434","王","195","Male","[""好我"",""好他"",""坏他"",""坏我""]","[""强我"",""强他"",""弱他"",""弱我""]","","","","","","","","","","","","","","","","","","","","","","","","","","","","","","feedback_test","","","","","","","","",""
"1021","","j","psychophysics","74","264792","0.0-8.0-1.0-1.0-0.0-0.32","6","5","7","6","6","4","4","4","5","5","4","0","0","1","2","1","1","2","2","4","5","5","5","4","4","5","4","5","4","6","7","7","8","3","7","5","4","7","5","6","5","5","6","3","6","7","6","7","1","6","3","6","5","3","3","6","7","6","5","3","6","3","3","3","5","5","6","7","7","7","3","7","1","3","3","7","7","3","6","783420776295698434","王","195","Male","[""好我"",""好他"",""坏他"",""坏我""]","[""强我"",""强他"",""弱他"",""弱我""]","","","","","","","","match","","","","","","","","","","key","j","16.67535537190077","768","428","f","false","nonmatch","img/hexagon.png","强我","强他","prac_ALT2_ability","practice_ability","","","","","","","","",""
"null","<span style='color:red; font-size: 70px;'>错误! </span>","null","html-keyboard-response","75","265293","0.0-8.0-1.0-1.0-0.0-1.32","6","5","7","6","6","4","4","4","5","5","4","0","0","1","2","1","1","2","2","4","5","5","5","4","4","5","4","5","4","6","7","7","8","3","7","5","4","7","5","6","5","5","6","3","6","7","6","7","1","6","3","6","5","3","3","6","7","6","5","3","6","3","3","3","5","5","6","7","7","7","3","7","1","3","3","7","7","3","6","783420776295698434","王","195","Male","[""好我"",""好他"",""坏他"",""坏我""]","[""强我"",""强他"",""弱他"",""弱我""]","","","","","","","","","","","","","","","","","","","","","","","","","","","","","","feedback_test","","","","","","","","",""
"626","","j","psychophysics","76","266921","0.0-8.0-1.0-1.0-0.0-0.33","6","5","7","6","6","4","4","4","5","5","4","0","0","1","2","1","1","2","2","4","5","5","5","4","4","5","4","5","4","6","7","7","8","3","7","5","4","7","5","6","5","5","6","3","6","7","6","7","1","6","3","6","5","3","3","6","7","6","5","3","6","3","3","3","5","5","6","7","7","7","3","7","1","3","3","7","7","3","6","783420776295698434","王","195","Male","[""好我"",""好他"",""坏他"",""坏我""]","[""强我"",""强他"",""弱他"",""弱我""]","","","","","","","","match","","","","","","","","","","key","j","16.673197916666442","768","428","j","true","match","img/square.png","强我","强我","prac_ALT2_ability","practice_ability","","","","","","","","",""
"null","<span style='color:GreenYellow; font-size: 70px;'>正确! </span>","null","html-keyboard-response","77","267422","0.0-8.0-1.0-1.0-0.0-1.33","6","5","7","6","6","4","4","4","5","5","4","0","0","1","2","1","1","2","2","4","5","5","5","4","4","5","4","5","4","6","7","7","8","3","7","5","4","7","5","6","5","5","6","3","6","7","6","7","1","6","3","6","5","3","3","6","7","6","5","3","6","3","3","3","5","5","6","7","7","7","3","7","1","3","3","7","7","3","6","783420776295698434","王","195","Male","[""好我"",""好他"",""坏他"",""坏我""]","[""强我"",""强他"",""弱他"",""弱我""]","","","","","","","","","","","","","","","","","","","","","","","","","","","","","","feedback_test","","","","","","","","",""
"853","","j","psychophysics","78","269277","0.0-8.0-1.0-1.0-0.0-0.34","6","5","7","6","6","4","4","4","5","5","4","0","0","1","2","1","1","2","2","4","5","5","5","4","4","5","4","5","4","6","7","7","8","3","7","5","4","7","5","6","5","5","6","3","6","7","6","7","1","6","3","6","5","3","3","6","7","6","5","3","6","3","3","3","5","5","6","7","7","7","3","7","1","3","3","7","7","3","6","783420776295698434","王","195","Male","[""好我"",""好他"",""坏他"",""坏我""]","[""强我"",""强他"",""弱他"",""弱我""]","","","","","","","","match","","","","","","","","","","key","j","16.673369369369425","768","428","j","true","match","img/trapezoid.png","弱我","弱我","prac_ALT2_ability","practice_ability","","","","","","","","",""
"null","<span style='color:GreenYellow; font-size: 70px;'>正确! </span>","null","html-keyboard-response","79","269779","0.0-8.0-1.0-1.0-0.0-1.34","6","5","7","6","6","4","4","4","5","5","4","0","0","1","2","1","1","2","2","4","5","5","5","4","4","5","4","5","4","6","7","7","8","3","7","5","4","7","5","6","5","5","6","3","6","7","6","7","1","6","3","6","5","3","3","6","7","6","5","3","6","3","3","3","5","5","6","7","7","7","3","7","1","3","3","7","7","3","6","783420776295698434","王","195","Male","[""好我"",""好他"",""坏他"",""坏我""]","[""强我"",""强他"",""弱他"",""弱我""]","","","","","","","","","","","","","","","","","","","","","","","","","","","","","","feedback_test","","","","","","","","",""
"853","","f","psychophysics","80","271634","0.0-8.0-1.0-1.0-0.0-0.35","6","5","7","6","6","4","4","4","5","5","4","0","0","1","2","1","1","2","2","4","5","5","5","4","4","5","4","5","4","6","7","7","8","3","7","5","4","7","5","6","5","5","6","3","6","7","6","7","1","6","3","6","5","3","3","6","7","6","5","3","6","3","3","3","5","5","6","7","7","7","3","7","1","3","3","7","7","3","6","783420776295698434","王","195","Male","[""好我"",""好他"",""坏他"",""坏我""]","[""强我"",""强他"",""弱他"",""弱我""]","","","","","","","","nonmatch","","","","","","","","","","key","f","16.67333636363619","768","428","f","true","nonmatch","img/ellipse.png","强他","弱他","prac_ALT2_ability","practice_ability","","","","","","","","",""
"null","<span style='color:GreenYellow; font-size: 70px;'>正确! </span>","null","html-keyboard-response","81","272136","0.0-8.0-1.0-1.0-0.0-1.35","6","5","7","6","6","4","4","4","5","5","4","0","0","1","2","1","1","2","2","4","5","5","5","4","4","5","4","5","4","6","7","7","8","3","7","5","4","7","5","6","5","5","6","3","6","7","6","7","1","6","3","6","5","3","3","6","7","6","5","3","6","3","3","3","5","5","6","7","7","7","3","7","1","3","3","7","7","3","6","783420776295698434","王","195","Male","[""好我"",""好他"",""坏他"",""坏我""]","[""强我"",""强他"",""弱他"",""弱我""]","","","","","","","","","","","","","","","","","","","","","","","","","","","","","","feedback_test","","","","","","","","",""
"913","","f","psychophysics","82","274051","0.0-8.0-1.0-1.0-0.0-0.36","6","5","7","6","6","4","4","4","5","5","4","0","0","1","2","1","1","2","2","4","5","5","5","4","4","5","4","5","4","6","7","7","8","3","7","5","4","7","5","6","5","5","6","3","6","7","6","7","1","6","3","6","5","3","3","6","7","6","5","3","6","3","3","3","5","5","6","7","7","7","3","7","1","3","3","7","7","3","6","783420776295698434","王","195","Male","[""好我"",""好他"",""坏他"",""坏我""]","[""强我"",""强他"",""弱他"",""弱我""]","","","","","","","","nonmatch","","","","","","","","","","key","f","16.6719561403509","768","428","j","false","match","img/ellipse.png","弱他","弱他","prac_ALT2_ability","practice_ability","","","","","","","","",""
"null","<span style='color:red; font-size: 70px;'>错误! </span>","null","html-keyboard-response","83","274553","0.0-8.0-1.0-1.0-0.0-1.36","6","5","7","6","6","4","4","4","5","5","4","0","0","1","2","1","1","2","2","4","5","5","5","4","4","5","4","5","4","6","7","7","8","3","7","5","4","7","5","6","5","5","6","3","6","7","6","7","1","6","3","6","5","3","3","6","7","6","5","3","6","3","3","3","5","5","6","7","7","7","3","7","1","3","3","7","7","3","6","783420776295698434","王","195","Male","[""好我"",""好他"",""坏他"",""坏我""]","[""强我"",""强他"",""弱他"",""弱我""]","","","","","","","","","","","","","","","","","","","","","","","","","","","","","","feedback_test","","","","","","","","",""
"672","","j","psychophysics","84","276226","0.0-8.0-1.0-1.0-0.0-0.37","6","5","7","6","6","4","4","4","5","5","4","0","0","1","2","1","1","2","2","4","5","5","5","4","4","5","4","5","4","6","7","7","8","3","7","5","4","7","5","6","5","5","6","3","6","7","6","7","1","6","3","6","5","3","3","6","7","6","5","3","6","3","3","3","5","5","6","7","7","7","3","7","1","3","3","7","7","3","6","783420776295698434","王","195","Male","[""好我"",""好他"",""坏他"",""坏我""]","[""强我"",""强他"",""弱他"",""弱我""]","","","","","","","","match","","","","","","","","","","key","j","16.67194949494936","768","428","f","false","nonmatch","img/square.png","强他","强我","prac_ALT2_ability","practice_ability","","","","","","","","",""
"null","<span style='color:red; font-size: 70px;'>错误! </span>","null","html-keyboard-response","85","276727","0.0-8.0-1.0-1.0-0.0-1.37","6","5","7","6","6","4","4","4","5","5","4","0","0","1","2","1","1","2","2","4","5","5","5","4","4","5","4","5","4","6","7","7","8","3","7","5","4","7","5","6","5","5","6","3","6","7","6","7","1","6","3","6","5","3","3","6","7","6","5","3","6","3","3","3","5","5","6","7","7","7","3","7","1","3","3","7","7","3","6","783420776295698434","王","195","Male","[""好我"",""好他"",""坏他"",""坏我""]","[""强我"",""强他"",""弱他"",""弱我""]","","","","","","","","","","","","","","","","","","","","","","","","","","","","","","feedback_test","","","","","","","","",""
"955","","j","psychophysics","86","278684","0.0-8.0-1.0-1.0-0.0-0.38","6","5","7","6","6","4","4","4","5","5","4","0","0","1","2","1","1","2","2","4","5","5","5","4","4","5","4","5","4","6","7","7","8","3","7","5","4","7","5","6","5","5","6","3","6","7","6","7","1","6","3","6","5","3","3","6","7","6","5","3","6","3","3","3","5","5","6","7","7","7","3","7","1","3","3","7","7","3","6","783420776295698434","王","195","Male","[""好我"",""好他"",""坏他"",""坏我""]","[""强我"",""强他"",""弱他"",""弱我""]","","","","","","","","match","","","","","","","","","","key","j","16.548103448276002","768","428","j","true","match","img/ellipse.png","弱他","弱他","prac_ALT2_ability","practice_ability","","","","","","","","",""
"null","<span style='color:GreenYellow; font-size: 70px;'>正确! </span>","null","html-keyboard-response","87","279184","0.0-8.0-1.0-1.0-0.0-1.38","6","5","7","6","6","4","4","4","5","5","4","0","0","1","2","1","1","2","2","4","5","5","5","4","4","5","4","5","4","6","7","7","8","3","7","5","4","7","5","6","5","5","6","3","6","7","6","7","1","6","3","6","5","3","3","6","7","6","5","3","6","3","3","3","5","5","6","7","7","7","3","7","1","3","3","7","7","3","6","783420776295698434","王","195","Male","[""好我"",""好他"",""坏他"",""坏我""]","[""强我"",""强他"",""弱他"",""弱我""]","","","","","","","","","","","","","","","","","","","","","","","","","","","","","","feedback_test","","","","","","","","",""
"989","","f","psychophysics","88","281176","0.0-8.0-1.0-1.0-0.0-0.39","6","5","7","6","6","4","4","4","5","5","4","0","0","1","2","1","1","2","2","4","5","5","5","4","4","5","4","5","4","6","7","7","8","3","7","5","4","7","5","6","5","5","6","3","6","7","6","7","1","6","3","6","5","3","3","6","7","6","5","3","6","3","3","3","5","5","6","7","7","7","3","7","1","3","3","7","7","3","6","783420776295698434","王","195","Male","[""好我"",""好他"",""坏他"",""坏我""]","[""强我"",""强他"",""弱他"",""弱我""]","","","","","","","","nonmatch","","","","","","","","","","key","f","16.671711864406678","768","428","f","true","nonmatch","img/trapezoid.png","强他","弱我","prac_ALT2_ability","practice_ability","","","","","","","","",""
"null","<span style='color:GreenYellow; font-size: 70px;'>正确! </span>","null","html-keyboard-response","89","281677","0.0-8.0-1.0-1.0-0.0-1.39","6","5","7","6","6","4","4","4","5","5","4","0","0","1","2","1","1","2","2","4","5","5","5","4","4","5","4","5","4","6","7","7","8","3","7","5","4","7","5","6","5","5","6","3","6","7","6","7","1","6","3","6","5","3","3","6","7","6","5","3","6","3","3","3","5","5","6","7","7","7","3","7","1","3","3","7","7","3","6","783420776295698434","王","195","Male","[""好我"",""好他"",""坏他"",""坏我""]","[""强我"",""强他"",""弱他"",""弱我""]","","","","","","","","","","","","","","","","","","","","","","","","","","","","","","feedback_test","","","","","","","","",""
"1021","","f","psychophysics","90","283701","0.0-8.0-1.0-1.0-0.0-0.40","6","5","7","6","6","4","4","4","5","5","4","0","0","1","2","1","1","2","2","4","5","5","5","4","4","5","4","5","4","6","7","7","8","3","7","5","4","7","5","6","5","5","6","3","6","7","6","7","1","6","3","6","5","3","3","6","7","6","5","3","6","3","3","3","5","5","6","7","7","7","3","7","1","3","3","7","7","3","6","783420776295698434","王","195","Male","[""好我"",""好他"",""坏他"",""坏我""]","[""强我"",""强他"",""弱他"",""弱我""]","","","","","","","","nonmatch","","","","","","","","","","key","f","16.67426446281","768","428","f","true","nonmatch","img/trapezoid.png","强我","弱我","prac_ALT2_ability","practice_ability","","","","","","","","",""
"null","<span style='color:GreenYellow; font-size: 70px;'>正确! </span>","null","html-keyboard-response","91","284204","0.0-8.0-1.0-1.0-0.0-1.40","6","5","7","6","6","4","4","4","5","5","4","0","0","1","2","1","1","2","2","4","5","5","5","4","4","5","4","5","4","6","7","7","8","3","7","5","4","7","5","6","5","5","6","3","6","7","6","7","1","6","3","6","5","3","3","6","7","6","5","3","6","3","3","3","5","5","6","7","7","7","3","7","1","3","3","7","7","3","6","783420776295698434","王","195","Male","[""好我"",""好他"",""坏他"",""坏我""]","[""强我"",""强他"",""弱他"",""弱我""]","","","","","","","","","","","","","","","","","","","","","","","","","","","","","","feedback_test","","","","","","","","",""
"816","","f","psychophysics","92","286023","0.0-8.0-1.0-1.0-0.0-0.41","6","5","7","6","6","4","4","4","5","5","4","0","0","1","2","1","1","2","2","4","5","5","5","4","4","5","4","5","4","6","7","7","8","3","7","5","4","7","5","6","5","5","6","3","6","7","6","7","1","6","3","6","5","3","3","6","7","6","5","3","6","3","3","3","5","5","6","7","7","7","3","7","1","3","3","7","7","3","6","783420776295698434","王","195","Male","[""好我"",""好他"",""坏他"",""坏我""]","[""强我"",""强他"",""弱他"",""弱我""]","","","","","","","","nonmatch","","","","","","","","","","key","f","16.67379629629647","768","428","f","true","nonmatch","img/square.png","弱他","强我","prac_ALT2_ability","practice_ability","","","","","","","","",""
"null","<span style='color:GreenYellow; font-size: 70px;'>正确! </span>","null","html-keyboard-response","93","286525","0.0-8.0-1.0-1.0-0.0-1.41","6","5","7","6","6","4","4","4","5","5","4","0","0","1","2","1","1","2","2","4","5","5","5","4","4","5","4","5","4","6","7","7","8","3","7","5","4","7","5","6","5","5","6","3","6","7","6","7","1","6","3","6","5","3","3","6","7","6","5","3","6","3","3","3","5","5","6","7","7","7","3","7","1","3","3","7","7","3","6","783420776295698434","王","195","Male","[""好我"",""好他"",""坏他"",""坏我""]","[""强我"",""强他"",""弱他"",""弱我""]","","","","","","","","","","","","","","","","","","","","","","","","","","","","","","feedback_test","","","","","","","","",""
"859","","j","psychophysics","94","288385","0.0-8.0-1.0-1.0-0.0-0.42","6","5","7","6","6","4","4","4","5","5","4","0","0","1","2","1","1","2","2","4","5","5","5","4","4","5","4","5","4","6","7","7","8","3","7","5","4","7","5","6","5","5","6","3","6","7","6","7","1","6","3","6","5","3","3","6","7","6","5","3","6","3","3","3","5","5","6","7","7","7","3","7","1","3","3","7","7","3","6","783420776295698434","王","195","Male","[""好我"",""好他"",""坏他"",""坏我""]","[""强我"",""强他"",""弱他"",""弱我""]","","","","","","","","match","","","","","","","","","","key","j","16.674135135134854","768","428","j","true","match","img/hexagon.png","强他","强他","prac_ALT2_ability","practice_ability","","","","","","","","",""
"null","<span style='color:GreenYellow; font-size: 70px;'>正确! </span>","null","html-keyboard-response","95","288886","0.0-8.0-1.0-1.0-0.0-1.42","6","5","7","6","6","4","4","4","5","5","4","0","0","1","2","1","1","2","2","4","5","5","5","4","4","5","4","5","4","6","7","7","8","3","7","5","4","7","5","6","5","5","6","3","6","7","6","7","1","6","3","6","5","3","3","6","7","6","5","3","6","3","3","3","5","5","6","7","7","7","3","7","1","3","3","7","7","3","6","783420776295698434","王","195","Male","[""好我"",""好他"",""坏他"",""坏我""]","[""强我"",""强他"",""弱他"",""弱我""]","","","","","","","","","","","","","","","","","","","","","","","","","","","","","","feedback_test","","","","","","","","",""
"800","","f","psychophysics","96","290688","0.0-8.0-1.0-1.0-0.0-0.43","6","5","7","6","6","4","4","4","5","5","4","0","0","1","2","1","1","2","2","4","5","5","5","4","4","5","4","5","4","6","7","7","8","3","7","5","4","7","5","6","5","5","6","3","6","7","6","7","1","6","3","6","5","3","3","6","7","6","5","3","6","3","3","3","5","5","6","7","7","7","3","7","1","3","3","7","7","3","6","783420776295698434","王","195","Male","[""好我"",""好他"",""坏他"",""坏我""]","[""强我"",""强他"",""弱他"",""弱我""]","","","","","","","","nonmatch","","","","","","","","","","key","f","16.673261682242895","768","428","f","true","nonmatch","img/hexagon.png","弱他","强他","prac_ALT2_ability","practice_ability","","","","","","","","",""
"null","<span style='color:GreenYellow; font-size: 70px;'>正确! </span>","null","html-keyboard-response","97","291190","0.0-8.0-1.0-1.0-0.0-1.43","6","5","7","6","6","4","4","4","5","5","4","0","0","1","2","1","1","2","2","4","5","5","5","4","4","5","4","5","4","6","7","7","8","3","7","5","4","7","5","6","5","5","6","3","6","7","6","7","1","6","3","6","5","3","3","6","7","6","5","3","6","3","3","3","5","5","6","7","7","7","3","7","1","3","3","7","7","3","6","783420776295698434","王","195","Male","[""好我"",""好他"",""坏他"",""坏我""]","[""强我"",""强他"",""弱他"",""弱我""]","","","","","","","","","","","","","","","","","","","","","","","","","","","","","","feedback_test","","","","","","","","",""
"603","","j","psychophysics","98","292795","0.0-8.0-1.0-1.0-0.0-0.44","6","5","7","6","6","4","4","4","5","5","4","0","0","1","2","1","1","2","2","4","5","5","5","4","4","5","4","5","4","6","7","7","8","3","7","5","4","7","5","6","5","5","6","3","6","7","6","7","1","6","3","6","5","3","3","6","7","6","5","3","6","3","3","3","5","5","6","7","7","7","3","7","1","3","3","7","7","3","6","783420776295698434","王","195","Male","[""好我"",""好他"",""坏他"",""坏我""]","[""强我"",""强他"",""弱他"",""弱我""]","","","","","","","","match","","","","","","","","","","key","j","16.676442105263032","768","428","f","false","nonmatch","img/square.png","弱我","强我","prac_ALT2_ability","practice_ability","","","","","","","","",""
"null","<span style='color:red; font-size: 70px;'>错误! </span>","null","html-keyboard-response","99","293297","0.0-8.0-1.0-1.0-0.0-1.44","6","5","7","6","6","4","4","4","5","5","4","0","0","1","2","1","1","2","2","4","5","5","5","4","4","5","4","5","4","6","7","7","8","3","7","5","4","7","5","6","5","5","6","3","6","7","6","7","1","6","3","6","5","3","3","6","7","6","5","3","6","3","3","3","5","5","6","7","7","7","3","7","1","3","3","7","7","3","6","783420776295698434","王","195","Male","[""好我"",""好他"",""坏他"",""坏我""]","[""强我"",""强他"",""弱他"",""弱我""]","","","","","","","","","","","","","","","","","","","","","","","","","","","","","","feedback_test","","","","","","","","",""
"706","","j","psychophysics","100","295004","0.0-8.0-1.0-1.0-0.0-0.45","6","5","7","6","6","4","4","4","5","5","4","0","0","1","2","1","1","2","2","4","5","5","5","4","4","5","4","5","4","6","7","7","8","3","7","5","4","7","5","6","5","5","6","3","6","7","6","7","1","6","3","6","5","3","3","6","7","6","5","3","6","3","3","3","5","5","6","7","7","7","3","7","1","3","3","7","7","3","6","783420776295698434","王","195","Male","[""好我"",""好他"",""坏他"",""坏我""]","[""强我"",""强他"",""弱他"",""弱我""]","","","","","","","","match","","","","","","","","","","key","j","16.675872549019736","768","428","j","true","match","img/square.png","强我","强我","prac_ALT2_ability","practice_ability","","","","","","","","",""
"null","<span style='color:GreenYellow; font-size: 70px;'>正确! </span>","null","html-keyboard-response","101","295505","0.0-8.0-1.0-1.0-0.0-1.45","6","5","7","6","6","4","4","4","5","5","4","0","0","1","2","1","1","2","2","4","5","5","5","4","4","5","4","5","4","6","7","7","8","3","7","5","4","7","5","6","5","5","6","3","6","7","6","7","1","6","3","6","5","3","3","6","7","6","5","3","6","3","3","3","5","5","6","7","7","7","3","7","1","3","3","7","7","3","6","783420776295698434","王","195","Male","[""好我"",""好他"",""坏他"",""坏我""]","[""强我"",""强他"",""弱他"",""弱我""]","","","","","","","","","","","","","","","","","","","","","","","","","","","","","","feedback_test","","","","","","","","",""
"754","","f","psychophysics","102","297260","0.0-8.0-1.0-1.0-0.0-0.46","6","5","7","6","6","4","4","4","5","5","4","0","0","1","2","1","1","2","2","4","5","5","5","4","4","5","4","5","4","6","7","7","8","3","7","5","4","7","5","6","5","5","6","3","6","7","6","7","1","6","3","6","5","3","3","6","7","6","5","3","6","3","3","3","5","5","6","7","7","7","3","7","1","3","3","7","7","3","6","783420776295698434","王","195","Male","[""好我"",""好他"",""坏他"",""坏我""]","[""强我"",""强他"",""弱他"",""弱我""]","","","","","","","","nonmatch","","","","","","","","","","key","f","16.672759615384656","768","428","j","false","match","img/trapezoid.png","弱我","弱我","prac_ALT2_ability","practice_ability","","","","","","","","",""
"null","<span style='color:red; font-size: 70px;'>错误! </span>","null","html-keyboard-response","103","297761","0.0-8.0-1.0-1.0-0.0-1.46","6","5","7","6","6","4","4","4","5","5","4","0","0","1","2","1","1","2","2","4","5","5","5","4","4","5","4","5","4","6","7","7","8","3","7","5","4","7","5","6","5","5","6","3","6","7","6","7","1","6","3","6","5","3","3","6","7","6","5","3","6","3","3","3","5","5","6","7","7","7","3","7","1","3","3","7","7","3","6","783420776295698434","王","195","Male","[""好我"",""好他"",""坏他"",""坏我""]","[""强我"",""强他"",""弱他"",""弱我""]","","","","","","","","","","","","","","","","","","","","","","","","","","","","","","feedback_test","","","","","","","","",""
"729","","f","psychophysics","104","299493","0.0-8.0-1.0-1.0-0.0-0.47","6","5","7","6","6","4","4","4","5","5","4","0","0","1","2","1","1","2","2","4","5","5","5","4","4","5","4","5","4","6","7","7","8","3","7","5","4","7","5","6","5","5","6","3","6","7","6","7","1","6","3","6","5","3","3","6","7","6","5","3","6","3","3","3","5","5","6","7","7","7","3","7","1","3","3","7","7","3","6","783420776295698434","王","195","Male","[""好我"",""好他"",""坏他"",""坏我""]","[""强我"",""强他"",""弱他"",""弱我""]","","","","","","","","nonmatch","","","","","","","","","","key","f","16.67422330097094","768","428","f","true","nonmatch","img/ellipse.png","弱我","弱他","prac_ALT2_ability","practice_ability","","","","","","","","",""
"null","<span style='color:GreenYellow; font-size: 70px;'>正确! </span>","null","html-keyboard-response","105","299994","0.0-8.0-1.0-1.0-0.0-1.47","6","5","7","6","6","4","4","4","5","5","4","0","0","1","2","1","1","2","2","4","5","5","5","4","4","5","4","5","4","6","7","7","8","3","7","5","4","7","5","6","5","5","6","3","6","7","6","7","1","6","3","6","5","3","3","6","7","6","5","3","6","3","3","3","5","5","6","7","7","7","3","7","1","3","3","7","7","3","6","783420776295698434","王","195","Male","[""好我"",""好他"",""坏他"",""坏我""]","[""强我"",""强他"",""弱他"",""弱我""]","","","","","","","","","","","","","","","","","","","","","","","","","","","","","","feedback_test","","","","","","","","",""
"53300","<style>.context{color:white; font-size: 35px; line-height:40px}</style>                          <div><p class='context'>您正确回答了54% 的试次。</p><p class='context'>您的平均反应时为849毫秒。</p><p class='context'>恭喜您完成练习。按空格键继续。</p></div>"," ","html-keyboard-response","106","353296","0.0-8.0-1.0-1.0-1.0-0.0","6","5","7","6","6","4","4","4","5","5","4","0","0","1","2","1","1","2","2","4","5","5","5","4","4","5","4","5","4","6","7","7","8","3","7","5","4","7","5","6","5","5","6","3","6","7","6","7","1","6","3","6","5","3","3","6","7","6","5","3","6","3","3","3","5","5","6","7","7","7","3","7","1","3","3","7","7","3","6","783420776295698434","王","195","Male","[""好我"",""好他"",""坏他"",""坏我""]","[""强我"",""强他"",""弱他"",""弱我""]","","","","","","","","","","","","","","","","","","","","","","","","","","","","","","","","","","","","","","",""
"9147","","","instructions","107","362446","0.0-8.0-1.0-1.0-1.0-1.0","6","5","7","6","6","4","4","4","5","5","4","0","0","1","2","1","1","2","2","4","5","5","5","4","4","5","4","5","4","6","7","7","8","3","7","5","4","7","5","6","5","5","6","3","6","7","6","7","1","6","3","6","5","3","3","6","7","6","5","3","6","3","3","3","5","5","6","7","7","7","3","7","1","3","3","7","7","3","6","783420776295698434","王","195","Male","[""好我"",""好他"",""坏他"",""坏我""]","[""强我"",""强他"",""弱他"",""弱我""]","","","","","","","","","","","","","","","","","[{""page_index"":0,""viewing_time"":1658},{""page_index"":1,""viewing_time"":5481},{""page_index"":2,""viewing_time"":2008}]","","","","","","","","","","","","","","","","","","","","","",""
"661","","f","psychophysics","108","364109","0.0-8.0-1.0-1.1-0.1-0.48","6","5","7","6","6","4","4","4","5","5","4","0","0","1","2","1","1","2","2","4","5","5","5","4","4","5","4","5","4","6","7","7","8","3","7","5","4","7","5","6","5","5","6","3","6","7","6","7","1","6","3","6","5","3","3","6","7","6","5","3","6","3","3","3","5","5","6","7","7","7","3","7","1","3","3","7","7","3","6","783420776295698434","王","195","Male","[""好我"",""好他"",""坏他"",""坏我""]","[""强我"",""强他"",""弱他"",""弱我""]","","","","","","","","nonmatch","","","","","","","","","","key","f","16.675479591836588","768","428","f","true","nonmatch","img/trapezoid.png","强我","弱我","prac_ALT2_ability","practice_ability","","","","","","","","",""
"null","<span style='color:GreenYellow; font-size: 70px;'>正确! </span>","null","html-keyboard-response","109","364610","0.0-8.0-1.0-1.1-0.1-1.48","6","5","7","6","6","4","4","4","5","5","4","0","0","1","2","1","1","2","2","4","5","5","5","4","4","5","4","5","4","6","7","7","8","3","7","5","4","7","5","6","5","5","6","3","6","7","6","7","1","6","3","6","5","3","3","6","7","6","5","3","6","3","3","3","5","5","6","7","7","7","3","7","1","3","3","7","7","3","6","783420776295698434","王","195","Male","[""好我"",""好他"",""坏他"",""坏我""]","[""强我"",""强他"",""弱他"",""弱我""]","","","","","","","","","","","","","","","","","","","","","","","","","","","","","","feedback_test","","","","","","","","",""
"637","","j","psychophysics","110","366249","0.0-8.0-1.0-1.1-0.1-0.49","6","5","7","6","6","4","4","4","5","5","4","0","0","1","2","1","1","2","2","4","5","5","5","4","4","5","4","5","4","6","7","7","8","3","7","5","4","7","5","6","5","5","6","3","6","7","6","7","1","6","3","6","5","3","3","6","7","6","5","3","6","3","3","3","5","5","6","7","7","7","3","7","1","3","3","7","7","3","6","783420776295698434","王","195","Male","[""好我"",""好他"",""坏他"",""坏我""]","[""强我"",""强他"",""弱他"",""弱我""]","","","","","","","","match","","","","","","","","","","key","j","16.535268041237433","768","428","j","true","match","img/square.png","强我","强我","prac_ALT2_ability","practice_ability","","","","","","","","",""
"null","<span style='color:GreenYellow; font-size: 70px;'>正确! </span>","null","html-keyboard-response","111","366751","0.0-8.0-1.0-1.1-0.1-1.49","6","5","7","6","6","4","4","4","5","5","4","0","0","1","2","1","1","2","2","4","5","5","5","4","4","5","4","5","4","6","7","7","8","3","7","5","4","7","5","6","5","5","6","3","6","7","6","7","1","6","3","6","5","3","3","6","7","6","5","3","6","3","3","3","5","5","6","7","7","7","3","7","1","3","3","7","7","3","6","783420776295698434","王","195","Male","[""好我"",""好他"",""坏他"",""坏我""]","[""强我"",""强他"",""弱他"",""弱我""]","","","","","","","","","","","","","","","","","","","","","","","","","","","","","","feedback_test","","","","","","","","",""
"676","","f","psychophysics","112","368428","0.0-8.0-1.0-1.1-0.1-0.50","6","5","7","6","6","4","4","4","5","5","4","0","0","1","2","1","1","2","2","4","5","5","5","4","4","5","4","5","4","6","7","7","8","3","7","5","4","7","5","6","5","5","6","3","6","7","6","7","1","6","3","6","5","3","3","6","7","6","5","3","6","3","3","3","5","5","6","7","7","7","3","7","1","3","3","7","7","3","6","783420776295698434","王","195","Male","[""好我"",""好他"",""坏他"",""坏我""]","[""强我"",""强他"",""弱他"",""弱我""]","","","","","","","","nonmatch","","","","","","","","","","key","f","16.675757575757224","768","428","f","true","nonmatch","img/hexagon.png","弱他","强他","prac_ALT2_ability","practice_ability","","","","","","","","",""
"null","<span style='color:GreenYellow; font-size: 70px;'>正确! </span>","null","html-keyboard-response","113","368940","0.0-8.0-1.0-1.1-0.1-1.50","6","5","7","6","6","4","4","4","5","5","4","0","0","1","2","1","1","2","2","4","5","5","5","4","4","5","4","5","4","6","7","7","8","3","7","5","4","7","5","6","5","5","6","3","6","7","6","7","1","6","3","6","5","3","3","6","7","6","5","3","6","3","3","3","5","5","6","7","7","7","3","7","1","3","3","7","7","3","6","783420776295698434","王","195","Male","[""好我"",""好他"",""坏他"",""坏我""]","[""强我"",""强他"",""弱他"",""弱我""]","","","","","","","","","","","","","","","","","","","","","","","","","","","","","","feedback_test","","","","","","","","",""
"849","","f","psychophysics","114","370791","0.0-8.0-1.0-1.1-0.1-0.51","6","5","7","6","6","4","4","4","5","5","4","0","0","1","2","1","1","2","2","4","5","5","5","4","4","5","4","5","4","6","7","7","8","3","7","5","4","7","5","6","5","5","6","3","6","7","6","7","1","6","3","6","5","3","3","6","7","6","5","3","6","3","3","3","5","5","6","7","7","7","3","7","1","3","3","7","7","3","6","783420776295698434","王","195","Male","[""好我"",""好他"",""坏他"",""坏我""]","[""强我"",""强他"",""弱他"",""弱我""]","","","","","","","","nonmatch","","","","","","","","","","key","f","16.675199999999975","768","428","f","true","nonmatch","img/ellipse.png","强我","弱他","prac_ALT2_ability","practice_ability","","","","","","","","",""
"null","<span style='color:GreenYellow; font-size: 70px;'>正确! </span>","null","html-keyboard-response","115","371292","0.0-8.0-1.0-1.1-0.1-1.51","6","5","7","6","6","4","4","4","5","5","4","0","0","1","2","1","1","2","2","4","5","5","5","4","4","5","4","5","4","6","7","7","8","3","7","5","4","7","5","6","5","5","6","3","6","7","6","7","1","6","3","6","5","3","3","6","7","6","5","3","6","3","3","3","5","5","6","7","7","7","3","7","1","3","3","7","7","3","6","783420776295698434","王","195","Male","[""好我"",""好他"",""坏他"",""坏我""]","[""强我"",""强他"",""弱他"",""弱我""]","","","","","","","","","","","","","","","","","","","","","","","","","","","","","","feedback_test","","","","","","","","",""
"675","","f","psychophysics","116","372969","0.0-8.0-1.0-1.1-0.1-0.52","6","5","7","6","6","4","4","4","5","5","4","0","0","1","2","1","1","2","2","4","5","5","5","4","4","5","4","5","4","6","7","7","8","3","7","5","4","7","5","6","5","5","6","3","6","7","6","7","1","6","3","6","5","3","3","6","7","6","5","3","6","3","3","3","5","5","6","7","7","7","3","7","1","3","3","7","7","3","6","783420776295698434","王","195","Male","[""好我"",""好他"",""坏他"",""坏我""]","[""强我"",""强他"",""弱他"",""弱我""]","","","","","","","","nonmatch","","","","","","","","","","key","f","16.67439000000013","768","428","f","true","nonmatch","img/square.png","强他","强我","prac_ALT2_ability","practice_ability","","","","","","","","",""
"null","<span style='color:GreenYellow; font-size: 70px;'>正确! </span>","null","html-keyboard-response","117","373471","0.0-8.0-1.0-1.1-0.1-1.52","6","5","7","6","6","4","4","4","5","5","4","0","0","1","2","1","1","2","2","4","5","5","5","4","4","5","4","5","4","6","7","7","8","3","7","5","4","7","5","6","5","5","6","3","6","7","6","7","1","6","3","6","5","3","3","6","7","6","5","3","6","3","3","3","5","5","6","7","7","7","3","7","1","3","3","7","7","3","6","783420776295698434","王","195","Male","[""好我"",""好他"",""坏他"",""坏我""]","[""强我"",""强他"",""弱他"",""弱我""]","","","","","","","","","","","","","","","","","","","","","","","","","","","","","","feedback_test","","","","","","","","",""
"816","","j","psychophysics","118","375289","0.0-8.0-1.0-1.1-0.1-0.53","6","5","7","6","6","4","4","4","5","5","4","0","0","1","2","1","1","2","2","4","5","5","5","4","4","5","4","5","4","6","7","7","8","3","7","5","4","7","5","6","5","5","6","3","6","7","6","7","1","6","3","6","5","3","3","6","7","6","5","3","6","3","3","3","5","5","6","7","7","7","3","7","1","3","3","7","7","3","6","783420776295698434","王","195","Male","[""好我"",""好他"",""坏他"",""坏我""]","[""强我"",""强他"",""弱他"",""弱我""]","","","","","","","","match","","","","","","","","","","key","j","16.674638888888662","768","428","j","true","match","img/square.png","强我","强我","prac_ALT2_ability","practice_ability","","","","","","","","",""
"null","<span style='color:GreenYellow; font-size: 70px;'>正确! </span>","null","html-keyboard-response","119","375789","0.0-8.0-1.0-1.1-0.1-1.53","6","5","7","6","6","4","4","4","5","5","4","0","0","1","2","1","1","2","2","4","5","5","5","4","4","5","4","5","4","6","7","7","8","3","7","5","4","7","5","6","5","5","6","3","6","7","6","7","1","6","3","6","5","3","3","6","7","6","5","3","6","3","3","3","5","5","6","7","7","7","3","7","1","3","3","7","7","3","6","783420776295698434","王","195","Male","[""好我"",""好他"",""坏他"",""坏我""]","[""强我"",""强他"",""弱他"",""弱我""]","","","","","","","","","","","","","","","","","","","","","","","","","","","","","","feedback_test","","","","","","","","",""
"795","","f","psychophysics","120","377585","0.0-8.0-1.0-1.1-0.1-0.54","6","5","7","6","6","4","4","4","5","5","4","0","0","1","2","1","1","2","2","4","5","5","5","4","4","5","4","5","4","6","7","7","8","3","7","5","4","7","5","6","5","5","6","3","6","7","6","7","1","6","3","6","5","3","3","6","7","6","5","3","6","3","3","3","5","5","6","7","7","7","3","7","1","3","3","7","7","3","6","783420776295698434","王","195","Male","[""好我"",""好他"",""坏他"",""坏我""]","[""强我"",""强他"",""弱他"",""弱我""]","","","","","","","","nonmatch","","","","","","","","","","key","f","16.673168224298884","768","428","f","true","nonmatch","img/hexagon.png","弱我","强他","prac_ALT2_ability","practice_ability","","","","","","","","",""
"null","<span style='color:GreenYellow; font-size: 70px;'>正确! </span>","null","html-keyboard-response","121","378087","0.0-8.0-1.0-1.1-0.1-1.54","6","5","7","6","6","4","4","4","5","5","4","0","0","1","2","1","1","2","2","4","5","5","5","4","4","5","4","5","4","6","7","7","8","3","7","5","4","7","5","6","5","5","6","3","6","7","6","7","1","6","3","6","5","3","3","6","7","6","5","3","6","3","3","3","5","5","6","7","7","7","3","7","1","3","3","7","7","3","6","783420776295698434","王","195","Male","[""好我"",""好他"",""坏他"",""坏我""]","[""强我"",""强他"",""弱他"",""弱我""]","","","","","","","","","","","","","","","","","","","","","","","","","","","","","","feedback_test","","","","","","","","",""
"765","","f","psychophysics","122","379854","0.0-8.0-1.0-1.1-0.1-0.55","6","5","7","6","6","4","4","4","5","5","4","0","0","1","2","1","1","2","2","4","5","5","5","4","4","5","4","5","4","6","7","7","8","3","7","5","4","7","5","6","5","5","6","3","6","7","6","7","1","6","3","6","5","3","3","6","7","6","5","3","6","3","3","3","5","5","6","7","7","7","3","7","1","3","3","7","7","3","6","783420776295698434","王","195","Male","[""好我"",""好他"",""坏他"",""坏我""]","[""强我"",""强他"",""弱他"",""弱我""]","","","","","","","","nonmatch","","","","","","","","","","key","f","16.672923809523873","768","428","f","true","nonmatch","img/square.png","弱他","强我","prac_ALT2_ability","practice_ability","","","","","","","","",""
"null","<span style='color:GreenYellow; font-size: 70px;'>正确! </span>","null","html-keyboard-response","123","380361","0.0-8.0-1.0-1.1-0.1-1.55","6","5","7","6","6","4","4","4","5","5","4","0","0","1","2","1","1","2","2","4","5","5","5","4","4","5","4","5","4","6","7","7","8","3","7","5","4","7","5","6","5","5","6","3","6","7","6","7","1","6","3","6","5","3","3","6","7","6","5","3","6","3","3","3","5","5","6","7","7","7","3","7","1","3","3","7","7","3","6","783420776295698434","王","195","Male","[""好我"",""好他"",""坏他"",""坏我""]","[""强我"",""强他"",""弱他"",""弱我""]","","","","","","","","","","","","","","","","","","","","","","","","","","","","","","feedback_test","","","","","","","","",""
"967","","f","psychophysics","124","382332","0.0-8.0-1.0-1.1-0.1-0.56","6","5","7","6","6","4","4","4","5","5","4","0","0","1","2","1","1","2","2","4","5","5","5","4","4","5","4","5","4","6","7","7","8","3","7","5","4","7","5","6","5","5","6","3","6","7","6","7","1","6","3","6","5","3","3","6","7","6","5","3","6","3","3","3","5","5","6","7","7","7","3","7","1","3","3","7","7","3","6","783420776295698434","王","195","Male","[""好我"",""好他"",""坏他"",""坏我""]","[""强我"",""强他"",""弱他"",""弱我""]","","","","","","","","nonmatch","","","","","","","","","","key","f","16.675299145299224","768","428","j","false","match","img/ellipse.png","弱他","弱他","prac_ALT2_ability","practice_ability","","","","","","","","",""
"null","<span style='color:red; font-size: 70px;'>错误! </span>","null","html-keyboard-response","125","382832","0.0-8.0-1.0-1.1-0.1-1.56","6","5","7","6","6","4","4","4","5","5","4","0","0","1","2","1","1","2","2","4","5","5","5","4","4","5","4","5","4","6","7","7","8","3","7","5","4","7","5","6","5","5","6","3","6","7","6","7","1","6","3","6","5","3","3","6","7","6","5","3","6","3","3","3","5","5","6","7","7","7","3","7","1","3","3","7","7","3","6","783420776295698434","王","195","Male","[""好我"",""好他"",""坏他"",""坏我""]","[""强我"",""强他"",""弱他"",""弱我""]","","","","","","","","","","","","","","","","","","","","","","","","","","","","","","feedback_test","","","","","","","","",""
"937","","j","psychophysics","126","384772","0.0-8.0-1.0-1.1-0.1-0.57","6","5","7","6","6","4","4","4","5","5","4","0","0","1","2","1","1","2","2","4","5","5","5","4","4","5","4","5","4","6","7","7","8","3","7","5","4","7","5","6","5","5","6","3","6","7","6","7","1","6","3","6","5","3","3","6","7","6","5","3","6","3","3","3","5","5","6","7","7","7","3","7","1","3","3","7","7","3","6","783420776295698434","王","195","Male","[""好我"",""好他"",""坏他"",""坏我""]","[""强我"",""强他"",""弱他"",""弱我""]","","","","","","","","match","","","","","","","","","","key","j","16.673603448276168","768","428","j","true","match","img/hexagon.png","强他","强他","prac_ALT2_ability","practice_ability","","","","","","","","",""
"null","<span style='color:GreenYellow; font-size: 70px;'>正确! </span>","null","html-keyboard-response","127","385274","0.0-8.0-1.0-1.1-0.1-1.57","6","5","7","6","6","4","4","4","5","5","4","0","0","1","2","1","1","2","2","4","5","5","5","4","4","5","4","5","4","6","7","7","8","3","7","5","4","7","5","6","5","5","6","3","6","7","6","7","1","6","3","6","5","3","3","6","7","6","5","3","6","3","3","3","5","5","6","7","7","7","3","7","1","3","3","7","7","3","6","783420776295698434","王","195","Male","[""好我"",""好他"",""坏他"",""坏我""]","[""强我"",""强他"",""弱他"",""弱我""]","","","","","","","","","","","","","","","","","","","","","","","","","","","","","","feedback_test","","","","","","","","",""
"717","","j","psychophysics","128","386992","0.0-8.0-1.0-1.1-0.1-0.58","6","5","7","6","6","4","4","4","5","5","4","0","0","1","2","1","1","2","2","4","5","5","5","4","4","5","4","5","4","6","7","7","8","3","7","5","4","7","5","6","5","5","6","3","6","7","6","7","1","6","3","6","5","3","3","6","7","6","5","3","6","3","3","3","5","5","6","7","7","7","3","7","1","3","3","7","7","3","6","783420776295698434","王","195","Male","[""好我"",""好他"",""坏他"",""坏我""]","[""强我"",""强他"",""弱他"",""弱我""]","","","","","","","","match","","","","","","","","","","key","j","16.675764705882493","768","428","j","true","match","img/trapezoid.png","弱我","弱我","prac_ALT2_ability","practice_ability","","","","","","","","",""
"null","<span style='color:GreenYellow; font-size: 70px;'>正确! </span>","null","html-keyboard-response","129","387493","0.0-8.0-1.0-1.1-0.1-1.58","6","5","7","6","6","4","4","4","5","5","4","0","0","1","2","1","1","2","2","4","5","5","5","4","4","5","4","5","4","6","7","7","8","3","7","5","4","7","5","6","5","5","6","3","6","7","6","7","1","6","3","6","5","3","3","6","7","6","5","3","6","3","3","3","5","5","6","7","7","7","3","7","1","3","3","7","7","3","6","783420776295698434","王","195","Male","[""好我"",""好他"",""坏他"",""坏我""]","[""强我"",""强他"",""弱他"",""弱我""]","","","","","","","","","","","","","","","","","","","","","","","","","","","","","","feedback_test","","","","","","","","",""
"705","","f","psychophysics","130","389199","0.0-8.0-1.0-1.1-0.1-0.59","6","5","7","6","6","4","4","4","5","5","4","0","0","1","2","1","1","2","2","4","5","5","5","4","4","5","4","5","4","6","7","7","8","3","7","5","4","7","5","6","5","5","6","3","6","7","6","7","1","6","3","6","5","3","3","6","7","6","5","3","6","3","3","3","5","5","6","7","7","7","3","7","1","3","3","7","7","3","6","783420776295698434","王","195","Male","[""好我"",""好他"",""坏他"",""坏我""]","[""强我"",""强他"",""弱他"",""弱我""]","","","","","","","","nonmatch","","","","","","","","","","key","f","16.67311881188105","768","428","f","true","nonmatch","img/hexagon.png","强我","强他","prac_ALT2_ability","practice_ability","","","","","","","","",""
"null","<span style='color:GreenYellow; font-size: 70px;'>正确! </span>","null","html-keyboard-response","131","389701","0.0-8.0-1.0-1.1-0.1-1.59","6","5","7","6","6","4","4","4","5","5","4","0","0","1","2","1","1","2","2","4","5","5","5","4","4","5","4","5","4","6","7","7","8","3","7","5","4","7","5","6","5","5","6","3","6","7","6","7","1","6","3","6","5","3","3","6","7","6","5","3","6","3","3","3","5","5","6","7","7","7","3","7","1","3","3","7","7","3","6","783420776295698434","王","195","Male","[""好我"",""好他"",""坏他"",""坏我""]","[""强我"",""强他"",""弱他"",""弱我""]","","","","","","","","","","","","","","","","","","","","","","","","","","","","","","feedback_test","","","","","","","","",""
"656","","j","psychophysics","132","391361","0.0-8.0-1.0-1.1-0.1-0.60","6","5","7","6","6","4","4","4","5","5","4","0","0","1","2","1","1","2","2","4","5","5","5","4","4","5","4","5","4","6","7","7","8","3","7","5","4","7","5","6","5","5","6","3","6","7","6","7","1","6","3","6","5","3","3","6","7","6","5","3","6","3","3","3","5","5","6","7","7","7","3","7","1","3","3","7","7","3","6","783420776295698434","王","195","Male","[""好我"",""好他"",""坏他"",""坏我""]","[""强我"",""强他"",""弱他"",""弱我""]","","","","","","","","match","","","","","","","","","","key","j","16.675838383838343","768","428","j","true","match","img/square.png","强我","强我","prac_ALT2_ability","practice_ability","","","","","","","","",""
"null","<span style='color:GreenYellow; font-size: 70px;'>正确! </span>","null","html-keyboard-response","133","391863","0.0-8.0-1.0-1.1-0.1-1.60","6","5","7","6","6","4","4","4","5","5","4","0","0","1","2","1","1","2","2","4","5","5","5","4","4","5","4","5","4","6","7","7","8","3","7","5","4","7","5","6","5","5","6","3","6","7","6","7","1","6","3","6","5","3","3","6","7","6","5","3","6","3","3","3","5","5","6","7","7","7","3","7","1","3","3","7","7","3","6","783420776295698434","王","195","Male","[""好我"",""好他"",""坏他"",""坏我""]","[""强我"",""强他"",""弱他"",""弱我""]","","","","","","","","","","","","","","","","","","","","","","","","","","","","","","feedback_test","","","","","","","","",""
"735","","j","psychophysics","134","393599","0.0-8.0-1.0-1.1-0.1-0.61","6","5","7","6","6","4","4","4","5","5","4","0","0","1","2","1","1","2","2","4","5","5","5","4","4","5","4","5","4","6","7","7","8","3","7","5","4","7","5","6","5","5","6","3","6","7","6","7","1","6","3","6","5","3","3","6","7","6","5","3","6","3","3","3","5","5","6","7","7","7","3","7","1","3","3","7","7","3","6","783420776295698434","王","195","Male","[""好我"",""好他"",""坏他"",""坏我""]","[""强我"",""强他"",""弱他"",""弱我""]","","","","","","","","match","","","","","","","","","","key","j","16.67242718446611","768","428","f","false","nonmatch","img/trapezoid.png","强他","弱我","prac_ALT2_ability","practice_ability","","","","","","","","",""
"null","<span style='color:red; font-size: 70px;'>错误! </span>","null","html-keyboard-response","135","394099","0.0-8.0-1.0-1.1-0.1-1.61","6","5","7","6","6","4","4","4","5","5","4","0","0","1","2","1","1","2","2","4","5","5","5","4","4","5","4","5","4","6","7","7","8","3","7","5","4","7","5","6","5","5","6","3","6","7","6","7","1","6","3","6","5","3","3","6","7","6","5","3","6","3","3","3","5","5","6","7","7","7","3","7","1","3","3","7","7","3","6","783420776295698434","王","195","Male","[""好我"",""好他"",""坏他"",""坏我""]","[""强我"",""强他"",""弱他"",""弱我""]","","","","","","","","","","","","","","","","","","","","","","","","","","","","","","feedback_test","","","","","","","","",""
"786","","j","psychophysics","136","395887","0.0-8.0-1.0-1.1-0.1-0.62","6","5","7","6","6","4","4","4","5","5","4","0","0","1","2","1","1","2","2","4","5","5","5","4","4","5","4","5","4","6","7","7","8","3","7","5","4","7","5","6","5","5","6","3","6","7","6","7","1","6","3","6","5","3","3","6","7","6","5","3","6","3","3","3","5","5","6","7","7","7","3","7","1","3","3","7","7","3","6","783420776295698434","王","195","Male","[""好我"",""好他"",""坏他"",""坏我""]","[""强我"",""强他"",""弱他"",""弱我""]","","","","","","","","match","","","","","","","","","","key","j","16.67561320754708","768","428","j","true","match","img/trapezoid.png","弱我","弱我","prac_ALT2_ability","practice_ability","","","","","","","","",""
"null","<span style='color:GreenYellow; font-size: 70px;'>正确! </span>","null","html-keyboard-response","137","396388","0.0-8.0-1.0-1.1-0.1-1.62","6","5","7","6","6","4","4","4","5","5","4","0","0","1","2","1","1","2","2","4","5","5","5","4","4","5","4","5","4","6","7","7","8","3","7","5","4","7","5","6","5","5","6","3","6","7","6","7","1","6","3","6","5","3","3","6","7","6","5","3","6","3","3","3","5","5","6","7","7","7","3","7","1","3","3","7","7","3","6","783420776295698434","王","195","Male","[""好我"",""好他"",""坏他"",""坏我""]","[""强我"",""强他"",""弱他"",""弱我""]","","","","","","","","","","","","","","","","","","","","","","","","","","","","","","feedback_test","","","","","","","","",""
"804","","f","psychophysics","138","398195","0.0-8.0-1.0-1.1-0.1-0.63","6","5","7","6","6","4","4","4","5","5","4","0","0","1","2","1","1","2","2","4","5","5","5","4","4","5","4","5","4","6","7","7","8","3","7","5","4","7","5","6","5","5","6","3","6","7","6","7","1","6","3","6","5","3","3","6","7","6","5","3","6","3","3","3","5","5","6","7","7","7","3","7","1","3","3","7","7","3","6","783420776295698434","王","195","Male","[""好我"",""好他"",""坏他"",""坏我""]","[""强我"",""强他"",""弱他"",""弱我""]","","","","","","","","nonmatch","","","","","","","","","","key","f","16.67365740740745","768","428","j","false","match","img/ellipse.png","弱他","弱他","prac_ALT2_ability","practice_ability","","","","","","","","",""
