"rt","stimulus","response","trial_type","trial_index","time_elapsed","internal_node_id","swb_1","swb_2","swb_3","swb_4","swb_5","LOT_1","LOT_2","LOT_3","LOT_4","LOT_5","LOT_6","IPC_1","IPC_2","IPC_3","IPC_4","IPC_5","IPC_6","IPC_7","IPC_8","MorIden_1","MorIden_2","MorIden_3","MorIden_4","MorIden_5","MorIden_6","MorIden_7","MorIden_8","MorIden_9","MorIden_10","moralSeImag_1","moralSeImag_2","moralSeImag_3","moralSeImag_4","moralSeImag_5","moralSeImag_6","moralSeImag_7","moralSeImag_8","moralSeImag_9","sde_1","sde_2","sde_3","sde_4","sde_5","sde_6","sde_7","sde_8","sde_9","sde_10","trap2","sde_11","sde_12","sde_13","sde_14","sde_15","sde_16","sde_17","sde_18","sde_19","sde_20","IM_1","IM_2","IM_3","IM_4","IM_5","IM_6","IM_7","IM_8","IM_9","IM_10","IM_11","IM_12","IM_13","IM_14","IM_15","IM_16","IM_17","IM_18","IM_19","IM_20","subj_idx","friend_name","ParticipantID","Sex","Word","Word2","value","success","timeout","failed_images","failed_audio","failed_video","user_agent","responses","item_order","radio_event_ids","radio_event_times","key_event_times","mouse_event_times","straightlining","zigzagging","honeypot","view_history","response_type","key_press","avg_frame_time","center_x","center_y","correct_response","correct","identity","Image","word","condition","task_id","screen_id","time_stamp","person","valence","domain","math","status","duration","question_order","trap2_item"
"10165","
   <p><div style='color:white; font-size: 25px'>您好，欢迎参加本次实验。</div></p>
   <p><div style='color:white; font-size: 25px'>为充分保障您的权利，请确保您已经知晓并同意《参与实验同意书》以及《数据公开知情同意书》。</div></p>
   <p><div style='color:white; font-size: 25px'>如果您未见过上述内容，请咨询实验员。</div></p>
   <p style='color:white; font-size: 25px'>如果您选择继续实验，则表示您已经清楚两份知情同意书的内容并同意。</p>
   <p><div style = ""color: pink;font-size:30px;"">请确保您记得day0的实验编号，您将在本次实验输入该编号，若您忘记，请咨询实验员后作答。</div></p>
   <p><div style = ""color:lightblue;font-size:25px;"">请您尽可能认真地作答，我们将依据您在各问卷和按键任务中的作答质量发放报酬。</div></p>
   <p> <div style = ""color: green""><按空格键至下页></div> </p>
   "," ","html-keyboard-response","0","10169","0.0-0.0","5","3","4","3","1","4","4","4","4","4","5","-1","-1","-1","0","-1","0","0","0","4","4","4","4","4","4","3","3","4","3","3","4","4","4","2","2","3","4","4","5","3","3","3","5","3","3","5","4","3","1","3","3","5","5","3","4","5","5","3","5","3","3","3","3","3","5","3","4","4","5","6","5","6","3","4","5","3","5","3","3","799062502875996161","刘","372","Female","[""好她"",""好我"",""坏我"",""坏她""]","[""强她"",""强我"",""弱我"",""弱她""]","","","","","","","","","","","","","","","","","","","","","","","","","","","","","","","","","","","","","","",""
"","","","call-function","1","10171","0.0-1.0-0.0","5","3","4","3","1","4","4","4","4","4","5","-1","-1","-1","0","-1","0","0","0","4","4","4","4","4","4","3","3","4","3","3","4","4","4","2","2","3","4","4","5","3","3","3","5","3","3","5","4","3","1","3","3","5","5","3","4","5","5","3","5","3","3","3","3","3","5","3","4","4","5","6","5","6","3","4","5","3","5","3","3","799062502875996161","刘","372","Female","[""好她"",""好我"",""坏我"",""坏她""]","[""强她"",""强我"",""弱我"",""弱她""]","","","","","","","","","","","","","","","","","","","","","","","","","","","","","","","","","","","","","","",""
"23873","","[{""name"":""Sex"",""value"":""1""},{""name"":""friend_name"",""value"":""刘""},{""name"":""ParticipantID"",""value"":""372""}]","survey-html-form","2","34037","0.0-1.0-1.0","5","3","4","3","1","4","4","4","4","4","5","-1","-1","-1","0","-1","0","0","0","4","4","4","4","4","4","3","3","4","3","3","4","4","4","2","2","3","4","4","5","3","3","3","5","3","3","5","4","3","1","3","3","5","5","3","4","5","5","3","5","3","3","3","3","3","5","3","4","4","5","6","5","6","3","4","5","3","5","3","3","799062502875996161","刘","372","Female","[""好她"",""好我"",""坏我"",""坏她""]","[""强她"",""强我"",""弱我"",""弱她""]","","","","","","","","","","","","","","","","","","","","","","","","","","","","","","","","","","","","","","",""
"","","","preload","3","34500","0.0-2.0","5","3","4","3","1","4","4","4","4","4","5","-1","-1","-1","0","-1","0","0","0","4","4","4","4","4","4","3","3","4","3","3","4","4","4","2","2","3","4","4","5","3","3","3","5","3","3","5","4","3","1","3","3","5","5","3","4","5","5","3","5","3","3","3","3","3","5","3","4","4","5","6","5","6","3","4","5","3","5","3","3","799062502875996161","刘","372","Female","[""好她"",""好我"",""坏我"",""坏她""]","[""强她"",""强我"",""弱我"",""弱她""]","","true","false","[]","[]","[]","","","","","","","","","","","","","","","","","","","","","","","","","","","","","","","","",""
"","","","fullscreen","4","46389","0.0-3.0","5","3","4","3","1","4","4","4","4","4","5","-1","-1","-1","0","-1","0","0","0","4","4","4","4","4","4","3","3","4","3","3","4","4","4","2","2","3","4","4","5","3","3","3","5","3","3","5","4","3","1","3","3","5","5","3","4","5","5","3","5","3","3","3","3","3","5","3","4","4","5","6","5","6","3","4","5","3","5","3","3","799062502875996161","刘","372","Female","[""好她"",""好我"",""坏我"",""坏她""]","[""强她"",""强我"",""弱我"",""弱她""]","","true","","","","","{}","","","","","","","","","","","","","","","","","","","","","","","","","","","","","","","",""
"33507.80000001192","","{""Q01"":""5"",""Q02"":""3"",""Q03"":""4"",""Q04"":""3"",""Q05"":""1""}","survey-template","5","79902","0.0-4.0","5","3","4","3","1","4","4","4","4","4","5","-1","-1","-1","0","-1","0","0","0","4","4","4","4","4","4","3","3","4","3","3","4","4","4","2","2","3","4","4","5","3","3","3","5","3","3","5","4","3","1","3","3","5","5","3","4","5","5","3","5","3","3","3","3","3","5","3","4","4","5","6","5","6","3","4","5","3","5","3","3","799062502875996161","刘","372","Female","[""好她"",""好我"",""坏我"",""坏她""]","[""强她"",""强我"",""弱我"",""弱她""]","","","","","","","","{""Q01"":""5"",""Q02"":""3"",""Q03"":""4"",""Q04"":""3"",""Q05"":""1""}","[0,1,2,3,4]","[""Q01"",""Q02"",""Q03"",""Q04"",""Q05"",""Q05"",""Q05"",""Q04"",""Q02"",""Q02""]","[7052.400000035763,12714.900000035763,13847.200000047684,16803.700000047684,19277.80000001192,22502.700000047684,22547.900000035763,25367.700000047684,29012.900000035763,29057.400000035763]","[]","[7052.400000035763,12714.900000035763,13847.200000047684,16803.700000047684,17972.700000047684,19277.80000001192,22502.700000047684,22547.900000035763,25367.700000047684,29012.900000035763,29057.400000035763,33506.10000002384]","0.4","0.5","0","","","","","","","","","","","","","","","","","","","","","","",""
"30097.400000035763","","{""Q01"":""4"",""Q02"":""4"",""Q03"":""4"",""Q04"":""4"",""Q05"":""4"",""Q06"":""5""}","survey-template","6","110012","0.0-5.0","5","3","4","3","1","4","4","4","4","4","5","-1","-1","-1","0","-1","0","0","0","4","4","4","4","4","4","3","3","4","3","3","4","4","4","2","2","3","4","4","5","3","3","3","5","3","3","5","4","3","1","3","3","5","5","3","4","5","5","3","5","3","3","3","3","3","5","3","4","4","5","6","5","6","3","4","5","3","5","3","3","799062502875996161","刘","372","Female","[""好她"",""好我"",""坏我"",""坏她""]","[""强她"",""强我"",""弱我"",""弱她""]","","","","","","","","{""Q01"":""4"",""Q02"":""4"",""Q03"":""4"",""Q04"":""4"",""Q05"":""4"",""Q06"":""5""}","[0,1,2,3,4,5]","[""Q01"",""Q02"",""Q03"",""Q04"",""Q06"",""Q05"",""Q06""]","[4807.300000011921,8458.600000023842,14961.200000047684,15973.700000047684,21456.5,23870.600000023842,28655.600000023842]","[]","[4807.300000011921,8458.600000023842,14961.200000047684,15973.700000047684,18246.700000047684,19657.100000023842,21456.5,23870.600000023842,28655.600000023842,30095.900000035763]","0.5","0","0","","","","","","","","","","","","","","","","","","","","","","",""
"26898","","{""Q01"":""-1"",""Q02"":""-1"",""Q03"":""-1"",""Q04"":""0"",""Q05"":""-1"",""Q06"":""0"",""Q07"":""0"",""Q08"":""0""}","survey-template","7","136916","0.0-6.0","5","3","4","3","1","4","4","4","4","4","5","-1","-1","-1","0","-1","0","0","0","4","4","4","4","4","4","3","3","4","3","3","4","4","4","2","2","3","4","4","5","3","3","3","5","3","3","5","4","3","1","3","3","5","5","3","4","5","5","3","5","3","3","3","3","3","5","3","4","4","5","6","5","6","3","4","5","3","5","3","3","799062502875996161","刘","372","Female","[""好她"",""好我"",""坏我"",""坏她""]","[""强她"",""强我"",""弱我"",""弱她""]","","","","","","","","{""Q01"":""-1"",""Q02"":""-1"",""Q03"":""-1"",""Q04"":""0"",""Q05"":""-1"",""Q06"":""0"",""Q07"":""0"",""Q08"":""0""}","[0,1,2,3,4,5,6,7]","[""Q01"",""Q02"",""Q02"",""Q03"",""Q04"",""Q05"",""Q06"",""Q07"",""Q08""]","[5941.199999988079,11813.300000011921,11933.300000011921,12787.5,14738.300000011921,18503.30000001192,19689.100000023842,24465.80000001192,25418.399999976158]","[]","[5941.199999988079,11813.300000011921,11933.300000011921,12787.5,14738.300000011921,18503.30000001192,19689.100000023842,24465.80000001192,25418.399999976158,26895.80000001192]","0.5","0.42857142857142855","0","","","","","","","","","","","","","","","","","","","","","","",""
"17334","","","instructions","8","154252","0.0-7.0","5","3","4","3","1","4","4","4","4","4","5","-1","-1","-1","0","-1","0","0","0","4","4","4","4","4","4","3","3","4","3","3","4","4","4","2","2","3","4","4","5","3","3","3","5","3","3","5","4","3","1","3","3","5","5","3","4","5","5","3","5","3","3","3","3","3","5","3","4","4","5","6","5","6","3","4","5","3","5","3","3","799062502875996161","刘","372","Female","[""好她"",""好我"",""坏我"",""坏她""]","[""强她"",""强我"",""弱我"",""弱她""]","","","","","","","","","","","","","","","","","[{""page_index"":0,""viewing_time"":17333}]","","","","","","","","","","","","","","","","","","","","","",""
"107690","","","instructions","9","261944","0.0-8.0-1.0-0.0","5","3","4","3","1","4","4","4","4","4","5","-1","-1","-1","0","-1","0","0","0","4","4","4","4","4","4","3","3","4","3","3","4","4","4","2","2","3","4","4","5","3","3","3","5","3","3","5","4","3","1","3","3","5","5","3","4","5","5","3","5","3","3","3","3","3","5","3","4","4","5","6","5","6","3","4","5","3","5","3","3","799062502875996161","刘","372","Female","[""好她"",""好我"",""坏我"",""坏她""]","[""强她"",""强我"",""弱我"",""弱她""]","","","","","","","","","","","","","","","","","[{""page_index"":0,""viewing_time"":22075},{""page_index"":1,""viewing_time"":76240},{""page_index"":2,""viewing_time"":7109},{""page_index"":3,""viewing_time"":2265}]","","","","","","","","","","","","","","","","","","","","","",""
"906","","j","psychophysics","10","263855","0.0-8.0-1.0-1.0-0.0-0.0","5","3","4","3","1","4","4","4","4","4","5","-1","-1","-1","0","-1","0","0","0","4","4","4","4","4","4","3","3","4","3","3","4","4","4","2","2","3","4","4","5","3","3","3","5","3","3","5","4","3","1","3","3","5","5","3","4","5","5","3","5","3","3","3","3","3","5","3","4","4","5","6","5","6","3","4","5","3","5","3","3","799062502875996161","刘","372","Female","[""好她"",""好我"",""坏我"",""坏她""]","[""强她"",""强我"",""弱我"",""弱她""]","","","","","","","","nonmatch","","","","","","","","","","key","j","16.666666666666668","561.2986804430077","370.38959662736187","j","true","nonmatch","img/triangle.png","强她","强我","prac_ALT2_ability","practice_ability","","","","","","","","",""
"null","<span style='color:GreenYellow; font-size: 70px;'>正确! </span>","null","html-keyboard-response","11","264357","0.0-8.0-1.0-1.0-0.0-1.0","5","3","4","3","1","4","4","4","4","4","5","-1","-1","-1","0","-1","0","0","0","4","4","4","4","4","4","3","3","4","3","3","4","4","4","2","2","3","4","4","5","3","3","3","5","3","3","5","4","3","1","3","3","5","5","3","4","5","5","3","5","3","3","3","3","3","5","3","4","4","5","6","5","6","3","4","5","3","5","3","3","799062502875996161","刘","372","Female","[""好她"",""好我"",""坏我"",""坏她""]","[""强她"",""强我"",""弱我"",""弱她""]","","","","","","","","","","","","","","","","","","","","","","","","","","","","","","feedback_test","","","","","","","","",""
"745","","j","psychophysics","12","266129","0.0-8.0-1.0-1.0-0.0-0.1","5","3","4","3","1","4","4","4","4","4","5","-1","-1","-1","0","-1","0","0","0","4","4","4","4","4","4","3","3","4","3","3","4","4","4","2","2","3","4","4","5","3","3","3","5","3","3","5","4","3","1","3","3","5","5","3","4","5","5","3","5","3","3","3","3","3","5","3","4","4","5","6","5","6","3","4","5","3","5","3","3","799062502875996161","刘","372","Female","[""好她"",""好我"",""坏我"",""坏她""]","[""强她"",""强我"",""弱我"",""弱她""]","","","","","","","","nonmatch","","","","","","","","","","key","j","16.666666666666668","561.2986804430077","370.38959662736187","j","true","nonmatch","img/square.png","强我","弱我","prac_ALT2_ability","practice_ability","","","","","","","","",""
"null","<span style='color:GreenYellow; font-size: 70px;'>正确! </span>","null","html-keyboard-response","13","266633","0.0-8.0-1.0-1.0-0.0-1.1","5","3","4","3","1","4","4","4","4","4","5","-1","-1","-1","0","-1","0","0","0","4","4","4","4","4","4","3","3","4","3","3","4","4","4","2","2","3","4","4","5","3","3","3","5","3","3","5","4","3","1","3","3","5","5","3","4","5","5","3","5","3","3","3","3","3","5","3","4","4","5","6","5","6","3","4","5","3","5","3","3","799062502875996161","刘","372","Female","[""好她"",""好我"",""坏我"",""坏她""]","[""强她"",""强我"",""弱我"",""弱她""]","","","","","","","","","","","","","","","","","","","","","","","","","","","","","","feedback_test","","","","","","","","",""
"866","","f","psychophysics","14","268500","0.0-8.0-1.0-1.0-0.0-0.2","5","3","4","3","1","4","4","4","4","4","5","-1","-1","-1","0","-1","0","0","0","4","4","4","4","4","4","3","3","4","3","3","4","4","4","2","2","3","4","4","5","3","3","3","5","3","3","5","4","3","1","3","3","5","5","3","4","5","5","3","5","3","3","3","3","3","5","3","4","4","5","6","5","6","3","4","5","3","5","3","3","799062502875996161","刘","372","Female","[""好她"",""好我"",""坏我"",""坏她""]","[""强她"",""强我"",""弱我"",""弱她""]","","","","","","","","match","","","","","","","","","","key","f","16.668181818181818","561.2986804430077","370.38959662736187","j","false","nonmatch","img/hexagon.png","强她","弱她","prac_ALT2_ability","practice_ability","","","","","","","","",""
"null","<span style='color:red; font-size: 70px;'>错误! </span>","null","html-keyboard-response","15","269008","0.0-8.0-1.0-1.0-0.0-1.2","5","3","4","3","1","4","4","4","4","4","5","-1","-1","-1","0","-1","0","0","0","4","4","4","4","4","4","3","3","4","3","3","4","4","4","2","2","3","4","4","5","3","3","3","5","3","3","5","4","3","1","3","3","5","5","3","4","5","5","3","5","3","3","3","3","3","5","3","4","4","5","6","5","6","3","4","5","3","5","3","3","799062502875996161","刘","372","Female","[""好她"",""好我"",""坏我"",""坏她""]","[""强她"",""强我"",""弱我"",""弱她""]","","","","","","","","","","","","","","","","","","","","","","","","","","","","","","feedback_test","","","","","","","","",""
"800","","j","psychophysics","16","270812","0.0-8.0-1.0-1.0-0.0-0.3","5","3","4","3","1","4","4","4","4","4","5","-1","-1","-1","0","-1","0","0","0","4","4","4","4","4","4","3","3","4","3","3","4","4","4","2","2","3","4","4","5","3","3","3","5","3","3","5","4","3","1","3","3","5","5","3","4","5","5","3","5","3","3","3","3","3","5","3","4","4","5","6","5","6","3","4","5","3","5","3","3","799062502875996161","刘","372","Female","[""好她"",""好我"",""坏我"",""坏她""]","[""强她"",""强我"",""弱我"",""弱她""]","","","","","","","","nonmatch","","","","","","","","","","key","j","16.664485981308736","561.2986804430077","370.38959662736187","j","true","nonmatch","img/ellipse.png","弱我","强她","prac_ALT2_ability","practice_ability","","","","","","","","",""
"null","<span style='color:GreenYellow; font-size: 70px;'>正确! </span>","null","html-keyboard-response","17","271328","0.0-8.0-1.0-1.0-0.0-1.3","5","3","4","3","1","4","4","4","4","4","5","-1","-1","-1","0","-1","0","0","0","4","4","4","4","4","4","3","3","4","3","3","4","4","4","2","2","3","4","4","5","3","3","3","5","3","3","5","4","3","1","3","3","5","5","3","4","5","5","3","5","3","3","3","3","3","5","3","4","4","5","6","5","6","3","4","5","3","5","3","3","799062502875996161","刘","372","Female","[""好她"",""好我"",""坏我"",""坏她""]","[""强她"",""强我"",""弱我"",""弱她""]","","","","","","","","","","","","","","","","","","","","","","","","","","","","","","feedback_test","","","","","","","","",""
"864","","f","psychophysics","18","273208","0.0-8.0-1.0-1.0-0.0-0.4","5","3","4","3","1","4","4","4","4","4","5","-1","-1","-1","0","-1","0","0","0","4","4","4","4","4","4","3","3","4","3","3","4","4","4","2","2","3","4","4","5","3","3","3","5","3","3","5","4","3","1","3","3","5","5","3","4","5","5","3","5","3","3","3","3","3","5","3","4","4","5","6","5","6","3","4","5","3","5","3","3","799062502875996161","刘","372","Female","[""好她"",""好我"",""坏我"",""坏她""]","[""强她"",""强我"",""弱我"",""弱她""]","","","","","","","","match","","","","","","","","","","key","f","16.66696428571439","561.2986804430077","370.38959662736187","f","true","match","img/hexagon.png","弱她","弱她","prac_ALT2_ability","practice_ability","","","","","","","","",""
"null","<span style='color:GreenYellow; font-size: 70px;'>正确! </span>","null","html-keyboard-response","19","273713","0.0-8.0-1.0-1.0-0.0-1.4","5","3","4","3","1","4","4","4","4","4","5","-1","-1","-1","0","-1","0","0","0","4","4","4","4","4","4","3","3","4","3","3","4","4","4","2","2","3","4","4","5","3","3","3","5","3","3","5","4","3","1","3","3","5","5","3","4","5","5","3","5","3","3","3","3","3","5","3","4","4","5","6","5","6","3","4","5","3","5","3","3","799062502875996161","刘","372","Female","[""好她"",""好我"",""坏我"",""坏她""]","[""强她"",""强我"",""弱我"",""弱她""]","","","","","","","","","","","","","","","","","","","","","","","","","","","","","","feedback_test","","","","","","","","",""
"739","","j","psychophysics","20","275455","0.0-8.0-1.0-1.0-0.0-0.5","5","3","4","3","1","4","4","4","4","4","5","-1","-1","-1","0","-1","0","0","0","4","4","4","4","4","4","3","3","4","3","3","4","4","4","2","2","3","4","4","5","3","3","3","5","3","3","5","4","3","1","3","3","5","5","3","4","5","5","3","5","3","3","3","3","3","5","3","4","4","5","6","5","6","3","4","5","3","5","3","3","799062502875996161","刘","372","Female","[""好她"",""好我"",""坏我"",""坏她""]","[""强她"",""强我"",""弱我"",""弱她""]","","","","","","","","nonmatch","","","","","","","","","","key","j","16.669230769231106","561.2986804430077","370.38959662736187","f","false","match","img/ellipse.png","强她","强她","prac_ALT2_ability","practice_ability","","","","","","","","",""
"null","<span style='color:red; font-size: 70px;'>错误! </span>","null","html-keyboard-response","21","275961","0.0-8.0-1.0-1.0-0.0-1.5","5","3","4","3","1","4","4","4","4","4","5","-1","-1","-1","0","-1","0","0","0","4","4","4","4","4","4","3","3","4","3","3","4","4","4","2","2","3","4","4","5","3","3","3","5","3","3","5","4","3","1","3","3","5","5","3","4","5","5","3","5","3","3","3","3","3","5","3","4","4","5","6","5","6","3","4","5","3","5","3","3","799062502875996161","刘","372","Female","[""好她"",""好我"",""坏我"",""坏她""]","[""强她"",""强我"",""弱我"",""弱她""]","","","","","","","","","","","","","","","","","","","","","","","","","","","","","","feedback_test","","","","","","","","",""
"932","","j","psychophysics","22","277897","0.0-8.0-1.0-1.0-0.0-0.6","5","3","4","3","1","4","4","4","4","4","5","-1","-1","-1","0","-1","0","0","0","4","4","4","4","4","4","3","3","4","3","3","4","4","4","2","2","3","4","4","5","3","3","3","5","3","3","5","4","3","1","3","3","5","5","3","4","5","5","3","5","3","3","3","3","3","5","3","4","4","5","6","5","6","3","4","5","3","5","3","3","799062502875996161","刘","372","Female","[""好她"",""好我"",""坏我"",""坏她""]","[""强她"",""强我"",""弱我"",""弱她""]","","","","","","","","nonmatch","","","","","","","","","","key","j","16.66695652173923","561.2986804430077","370.38959662736187","f","false","match","img/square.png","弱我","弱我","prac_ALT2_ability","practice_ability","","","","","","","","",""
"null","<span style='color:red; font-size: 70px;'>错误! </span>","null","html-keyboard-response","23","278408","0.0-8.0-1.0-1.0-0.0-1.6","5","3","4","3","1","4","4","4","4","4","5","-1","-1","-1","0","-1","0","0","0","4","4","4","4","4","4","3","3","4","3","3","4","4","4","2","2","3","4","4","5","3","3","3","5","3","3","5","4","3","1","3","3","5","5","3","4","5","5","3","5","3","3","3","3","3","5","3","4","4","5","6","5","6","3","4","5","3","5","3","3","799062502875996161","刘","372","Female","[""好她"",""好我"",""坏我"",""坏她""]","[""强她"",""强我"",""弱我"",""弱她""]","","","","","","","","","","","","","","","","","","","","","","","","","","","","","","feedback_test","","","","","","","","",""
"1075","","j","psychophysics","24","280508","0.0-8.0-1.0-1.0-0.0-0.7","5","3","4","3","1","4","4","4","4","4","5","-1","-1","-1","0","-1","0","0","0","4","4","4","4","4","4","3","3","4","3","3","4","4","4","2","2","3","4","4","5","3","3","3","5","3","3","5","4","3","1","3","3","5","5","3","4","5","5","3","5","3","3","3","3","3","5","3","4","4","5","6","5","6","3","4","5","3","5","3","3","799062502875996161","刘","372","Female","[""好她"",""好我"",""坏我"",""坏她""]","[""强她"",""强我"",""弱我"",""弱她""]","","","","","","","","nonmatch","","","","","","","","","","key","j","16.66719999999972","561.2986804430077","370.38959662736187","j","true","nonmatch","img/ellipse.png","弱她","强她","prac_ALT2_ability","practice_ability","","","","","","","","",""
"null","<span style='color:GreenYellow; font-size: 70px;'>正确! </span>","null","html-keyboard-response","25","281017","0.0-8.0-1.0-1.0-0.0-1.7","5","3","4","3","1","4","4","4","4","4","5","-1","-1","-1","0","-1","0","0","0","4","4","4","4","4","4","3","3","4","3","3","4","4","4","2","2","3","4","4","5","3","3","3","5","3","3","5","4","3","1","3","3","5","5","3","4","5","5","3","5","3","3","3","3","3","5","3","4","4","5","6","5","6","3","4","5","3","5","3","3","799062502875996161","刘","372","Female","[""好她"",""好我"",""坏我"",""坏她""]","[""强她"",""强我"",""弱我"",""弱她""]","","","","","","","","","","","","","","","","","","","","","","","","","","","","","","feedback_test","","","","","","","","",""
"971","","f","psychophysics","26","282990","0.0-8.0-1.0-1.0-0.0-0.8","5","3","4","3","1","4","4","4","4","4","5","-1","-1","-1","0","-1","0","0","0","4","4","4","4","4","4","3","3","4","3","3","4","4","4","2","2","3","4","4","5","3","3","3","5","3","3","5","4","3","1","3","3","5","5","3","4","5","5","3","5","3","3","3","3","3","5","3","4","4","5","6","5","6","3","4","5","3","5","3","3","799062502875996161","刘","372","Female","[""好她"",""好我"",""坏我"",""坏她""]","[""强她"",""强我"",""弱我"",""弱她""]","","","","","","","","match","","","","","","","","","","key","f","16.667521367521665","561.2986804430077","370.38959662736187","f","true","match","img/square.png","弱我","弱我","prac_ALT2_ability","practice_ability","","","","","","","","",""
"null","<span style='color:GreenYellow; font-size: 70px;'>正确! </span>","null","html-keyboard-response","27","283493","0.0-8.0-1.0-1.0-0.0-1.8","5","3","4","3","1","4","4","4","4","4","5","-1","-1","-1","0","-1","0","0","0","4","4","4","4","4","4","3","3","4","3","3","4","4","4","2","2","3","4","4","5","3","3","3","5","3","3","5","4","3","1","3","3","5","5","3","4","5","5","3","5","3","3","3","3","3","5","3","4","4","5","6","5","6","3","4","5","3","5","3","3","799062502875996161","刘","372","Female","[""好她"",""好我"",""坏我"",""坏她""]","[""强她"",""强我"",""弱我"",""弱她""]","","","","","","","","","","","","","","","","","","","","","","","","","","","","","","feedback_test","","","","","","","","",""
"1106","","f","psychophysics","28","285606","0.0-8.0-1.0-1.0-0.0-0.9","5","3","4","3","1","4","4","4","4","4","5","-1","-1","-1","0","-1","0","0","0","4","4","4","4","4","4","3","3","4","3","3","4","4","4","2","2","3","4","4","5","3","3","3","5","3","3","5","4","3","1","3","3","5","5","3","4","5","5","3","5","3","3","3","3","3","5","3","4","4","5","6","5","6","3","4","5","3","5","3","3","799062502875996161","刘","372","Female","[""好她"",""好我"",""坏我"",""坏她""]","[""强她"",""强我"",""弱我"",""弱她""]","","","","","","","","match","","","","","","","","","","key","f","16.6658730158732","561.2986804430077","370.38959662736187","j","false","nonmatch","img/ellipse.png","强我","强她","prac_ALT2_ability","practice_ability","","","","","","","","",""
"null","<span style='color:red; font-size: 70px;'>错误! </span>","null","html-keyboard-response","29","286113","0.0-8.0-1.0-1.0-0.0-1.9","5","3","4","3","1","4","4","4","4","4","5","-1","-1","-1","0","-1","0","0","0","4","4","4","4","4","4","3","3","4","3","3","4","4","4","2","2","3","4","4","5","3","3","3","5","3","3","5","4","3","1","3","3","5","5","3","4","5","5","3","5","3","3","3","3","3","5","3","4","4","5","6","5","6","3","4","5","3","5","3","3","799062502875996161","刘","372","Female","[""好她"",""好我"",""坏我"",""坏她""]","[""强她"",""强我"",""弱我"",""弱她""]","","","","","","","","","","","","","","","","","","","","","","","","","","","","","","feedback_test","","","","","","","","",""
"null","","null","psychophysics","30","288317","0.0-8.0-1.0-1.0-0.0-0.10","5","3","4","3","1","4","4","4","4","4","5","-1","-1","-1","0","-1","0","0","0","4","4","4","4","4","4","3","3","4","3","3","4","4","4","2","2","3","4","4","5","3","3","3","5","3","3","5","4","3","1","3","3","5","5","3","4","5","5","3","5","3","3","3","3","3","5","3","4","4","5","6","5","6","3","4","5","3","5","3","3","799062502875996161","刘","372","Female","[""好她"",""好我"",""坏我"",""坏她""]","[""强她"",""强我"",""弱我"",""弱她""]","","","","","","","","null","","","","","","","","","","key","null","16.665909090909267","561.2986804430077","370.38959662736187","j","false","nonmatch","img/square.png","强她","弱我","prac_ALT2_ability","practice_ability","","","","","","","","",""
"null","<span class='add_' style='color:yellow; font-size: 70px;'> 太慢! </span>","null","html-keyboard-response","31","288826","0.0-8.0-1.0-1.0-0.0-1.10","5","3","4","3","1","4","4","4","4","4","5","-1","-1","-1","0","-1","0","0","0","4","4","4","4","4","4","3","3","4","3","3","4","4","4","2","2","3","4","4","5","3","3","3","5","3","3","5","4","3","1","3","3","5","5","3","4","5","5","3","5","3","3","3","3","3","5","3","4","4","5","6","5","6","3","4","5","3","5","3","3","799062502875996161","刘","372","Female","[""好她"",""好我"",""坏我"",""坏她""]","[""强她"",""强我"",""弱我"",""弱她""]","","","","","","","","","","","","","","","","","","","","","","","","","","","","","","feedback_test","","","","","","","","",""
"832","","f","psychophysics","32","290665","0.0-8.0-1.0-1.0-0.0-0.11","5","3","4","3","1","4","4","4","4","4","5","-1","-1","-1","0","-1","0","0","0","4","4","4","4","4","4","3","3","4","3","3","4","4","4","2","2","3","4","4","5","3","3","3","5","3","3","5","4","3","1","3","3","5","5","3","4","5","5","3","5","3","3","3","3","3","5","3","4","4","5","6","5","6","3","4","5","3","5","3","3","799062502875996161","刘","372","Female","[""好她"",""好我"",""坏我"",""坏她""]","[""强她"",""强我"",""弱我"",""弱她""]","","","","","","","","match","","","","","","","","","","key","f","16.666055045871346","561.2986804430077","370.38959662736187","f","true","match","img/hexagon.png","弱她","弱她","prac_ALT2_ability","practice_ability","","","","","","","","",""
"null","<span style='color:GreenYellow; font-size: 70px;'>正确! </span>","null","html-keyboard-response","33","291173","0.0-8.0-1.0-1.0-0.0-1.11","5","3","4","3","1","4","4","4","4","4","5","-1","-1","-1","0","-1","0","0","0","4","4","4","4","4","4","3","3","4","3","3","4","4","4","2","2","3","4","4","5","3","3","3","5","3","3","5","4","3","1","3","3","5","5","3","4","5","5","3","5","3","3","3","3","3","5","3","4","4","5","6","5","6","3","4","5","3","5","3","3","799062502875996161","刘","372","Female","[""好她"",""好我"",""坏我"",""坏她""]","[""强她"",""强我"",""弱我"",""弱她""]","","","","","","","","","","","","","","","","","","","","","","","","","","","","","","feedback_test","","","","","","","","",""
"1084","","f","psychophysics","34","293265","0.0-8.0-1.0-1.0-0.0-0.12","5","3","4","3","1","4","4","4","4","4","5","-1","-1","-1","0","-1","0","0","0","4","4","4","4","4","4","3","3","4","3","3","4","4","4","2","2","3","4","4","5","3","3","3","5","3","3","5","4","3","1","3","3","5","5","3","4","5","5","3","5","3","3","3","3","3","5","3","4","4","5","6","5","6","3","4","5","3","5","3","3","799062502875996161","刘","372","Female","[""好她"",""好我"",""坏我"",""坏她""]","[""强她"",""强我"",""弱我"",""弱她""]","","","","","","","","match","","","","","","","","","","key","f","16.66693548387106","561.2986804430077","370.38959662736187","j","false","nonmatch","img/hexagon.png","强我","弱她","prac_ALT2_ability","practice_ability","","","","","","","","",""
"null","<span style='color:red; font-size: 70px;'>错误! </span>","null","html-keyboard-response","35","293768","0.0-8.0-1.0-1.0-0.0-1.12","5","3","4","3","1","4","4","4","4","4","5","-1","-1","-1","0","-1","0","0","0","4","4","4","4","4","4","3","3","4","3","3","4","4","4","2","2","3","4","4","5","3","3","3","5","3","3","5","4","3","1","3","3","5","5","3","4","5","5","3","5","3","3","3","3","3","5","3","4","4","5","6","5","6","3","4","5","3","5","3","3","799062502875996161","刘","372","Female","[""好她"",""好我"",""坏我"",""坏她""]","[""强她"",""强我"",""弱我"",""弱她""]","","","","","","","","","","","","","","","","","","","","","","","","","","","","","","feedback_test","","","","","","","","",""
"null","","null","psychophysics","36","295985","0.0-8.0-1.0-1.0-0.0-0.13","5","3","4","3","1","4","4","4","4","4","5","-1","-1","-1","0","-1","0","0","0","4","4","4","4","4","4","3","3","4","3","3","4","4","4","2","2","3","4","4","5","3","3","3","5","3","3","5","4","3","1","3","3","5","5","3","4","5","5","3","5","3","3","3","3","3","5","3","4","4","5","6","5","6","3","4","5","3","5","3","3","799062502875996161","刘","372","Female","[""好她"",""好我"",""坏我"",""坏她""]","[""强她"",""强我"",""弱我"",""弱她""]","","","","","","","","null","","","","","","","","","","key","null","16.666666666666668","561.2986804430077","370.38959662736187","j","false","nonmatch","img/triangle.png","弱我","强我","prac_ALT2_ability","practice_ability","","","","","","","","",""
"null","<span class='add_' style='color:yellow; font-size: 70px;'> 太慢! </span>","null","html-keyboard-response","37","296493","0.0-8.0-1.0-1.0-0.0-1.13","5","3","4","3","1","4","4","4","4","4","5","-1","-1","-1","0","-1","0","0","0","4","4","4","4","4","4","3","3","4","3","3","4","4","4","2","2","3","4","4","5","3","3","3","5","3","3","5","4","3","1","3","3","5","5","3","4","5","5","3","5","3","3","3","3","3","5","3","4","4","5","6","5","6","3","4","5","3","5","3","3","799062502875996161","刘","372","Female","[""好她"",""好我"",""坏我"",""坏她""]","[""强她"",""强我"",""弱我"",""弱她""]","","","","","","","","","","","","","","","","","","","","","","","","","","","","","","feedback_test","","","","","","","","",""
"810","","f","psychophysics","38","298308","0.0-8.0-1.0-1.0-0.0-0.14","5","3","4","3","1","4","4","4","4","4","5","-1","-1","-1","0","-1","0","0","0","4","4","4","4","4","4","3","3","4","3","3","4","4","4","2","2","3","4","4","5","3","3","3","5","3","3","5","4","3","1","3","3","5","5","3","4","5","5","3","5","3","3","3","3","3","5","3","4","4","5","6","5","6","3","4","5","3","5","3","3","799062502875996161","刘","372","Female","[""好她"",""好我"",""坏我"",""坏她""]","[""强她"",""强我"",""弱我"",""弱她""]","","","","","","","","match","","","","","","","","","","key","f","16.666666666666668","561.2986804430077","370.38959662736187","f","true","match","img/triangle.png","强我","强我","prac_ALT2_ability","practice_ability","","","","","","","","",""
"null","<span style='color:GreenYellow; font-size: 70px;'>正确! </span>","null","html-keyboard-response","39","298812","0.0-8.0-1.0-1.0-0.0-1.14","5","3","4","3","1","4","4","4","4","4","5","-1","-1","-1","0","-1","0","0","0","4","4","4","4","4","4","3","3","4","3","3","4","4","4","2","2","3","4","4","5","3","3","3","5","3","3","5","4","3","1","3","3","5","5","3","4","5","5","3","5","3","3","3","3","3","5","3","4","4","5","6","5","6","3","4","5","3","5","3","3","799062502875996161","刘","372","Female","[""好她"",""好我"",""坏我"",""坏她""]","[""强她"",""强我"",""弱我"",""弱她""]","","","","","","","","","","","","","","","","","","","","","","","","","","","","","","feedback_test","","","","","","","","",""
"1003","","j","psychophysics","40","300819","0.0-8.0-1.0-1.0-0.0-0.15","5","3","4","3","1","4","4","4","4","4","5","-1","-1","-1","0","-1","0","0","0","4","4","4","4","4","4","3","3","4","3","3","4","4","4","2","2","3","4","4","5","3","3","3","5","3","3","5","4","3","1","3","3","5","5","3","4","5","5","3","5","3","3","3","3","3","5","3","4","4","5","6","5","6","3","4","5","3","5","3","3","799062502875996161","刘","372","Female","[""好她"",""好我"",""坏我"",""坏她""]","[""强她"",""强我"",""弱我"",""弱她""]","","","","","","","","nonmatch","","","","","","","","","","key","j","16.629411764706077","561.2986804430077","370.38959662736187","j","true","nonmatch","img/triangle.png","弱她","强我","prac_ALT2_ability","practice_ability","","","","","","","","",""
"null","<span style='color:GreenYellow; font-size: 70px;'>正确! </span>","null","html-keyboard-response","41","301331","0.0-8.0-1.0-1.0-0.0-1.15","5","3","4","3","1","4","4","4","4","4","5","-1","-1","-1","0","-1","0","0","0","4","4","4","4","4","4","3","3","4","3","3","4","4","4","2","2","3","4","4","5","3","3","3","5","3","3","5","4","3","1","3","3","5","5","3","4","5","5","3","5","3","3","3","3","3","5","3","4","4","5","6","5","6","3","4","5","3","5","3","3","799062502875996161","刘","372","Female","[""好她"",""好我"",""坏我"",""坏她""]","[""强她"",""强我"",""弱我"",""弱她""]","","","","","","","","","","","","","","","","","","","","","","","","","","","","","","feedback_test","","","","","","","","",""
"800","","f","psychophysics","42","303148","0.0-8.0-1.0-1.0-0.0-0.16","5","3","4","3","1","4","4","4","4","4","5","-1","-1","-1","0","-1","0","0","0","4","4","4","4","4","4","3","3","4","3","3","4","4","4","2","2","3","4","4","5","3","3","3","5","3","3","5","4","3","1","3","3","5","5","3","4","5","5","3","5","3","3","3","3","3","5","3","4","4","5","6","5","6","3","4","5","3","5","3","3","799062502875996161","刘","372","Female","[""好她"",""好我"",""坏我"",""坏她""]","[""强她"",""强我"",""弱我"",""弱她""]","","","","","","","","match","","","","","","","","","","key","f","16.59906542056053","561.2986804430077","370.38959662736187","f","true","match","img/hexagon.png","弱她","弱她","prac_ALT2_ability","practice_ability","","","","","","","","",""
"null","<span style='color:GreenYellow; font-size: 70px;'>正确! </span>","null","html-keyboard-response","43","303652","0.0-8.0-1.0-1.0-0.0-1.16","5","3","4","3","1","4","4","4","4","4","5","-1","-1","-1","0","-1","0","0","0","4","4","4","4","4","4","3","3","4","3","3","4","4","4","2","2","3","4","4","5","3","3","3","5","3","3","5","4","3","1","3","3","5","5","3","4","5","5","3","5","3","3","3","3","3","5","3","4","4","5","6","5","6","3","4","5","3","5","3","3","799062502875996161","刘","372","Female","[""好她"",""好我"",""坏我"",""坏她""]","[""强她"",""强我"",""弱我"",""弱她""]","","","","","","","","","","","","","","","","","","","","","","","","","","","","","","feedback_test","","","","","","","","",""
"1083","","j","psychophysics","44","305742","0.0-8.0-1.0-1.0-0.0-0.17","5","3","4","3","1","4","4","4","4","4","5","-1","-1","-1","0","-1","0","0","0","4","4","4","4","4","4","3","3","4","3","3","4","4","4","2","2","3","4","4","5","3","3","3","5","3","3","5","4","3","1","3","3","5","5","3","4","5","5","3","5","3","3","3","3","3","5","3","4","4","5","6","5","6","3","4","5","3","5","3","3","799062502875996161","刘","372","Female","[""好她"",""好我"",""坏我"",""坏她""]","[""强她"",""强我"",""弱我"",""弱她""]","","","","","","","","nonmatch","","","","","","","","","","key","j","16.66693548387106","561.2986804430077","370.38959662736187","f","false","match","img/ellipse.png","强她","强她","prac_ALT2_ability","practice_ability","","","","","","","","",""
"null","<span style='color:red; font-size: 70px;'>错误! </span>","null","html-keyboard-response","45","306243","0.0-8.0-1.0-1.0-0.0-1.17","5","3","4","3","1","4","4","4","4","4","5","-1","-1","-1","0","-1","0","0","0","4","4","4","4","4","4","3","3","4","3","3","4","4","4","2","2","3","4","4","5","3","3","3","5","3","3","5","4","3","1","3","3","5","5","3","4","5","5","3","5","3","3","3","3","3","5","3","4","4","5","6","5","6","3","4","5","3","5","3","3","799062502875996161","刘","372","Female","[""好她"",""好我"",""坏我"",""坏她""]","[""强她"",""强我"",""弱我"",""弱她""]","","","","","","","","","","","","","","","","","","","","","","","","","","","","","","feedback_test","","","","","","","","",""
"734","","f","psychophysics","46","307983","0.0-8.0-1.0-1.0-0.0-0.18","5","3","4","3","1","4","4","4","4","4","5","-1","-1","-1","0","-1","0","0","0","4","4","4","4","4","4","3","3","4","3","3","4","4","4","2","2","3","4","4","5","3","3","3","5","3","3","5","4","3","1","3","3","5","5","3","4","5","5","3","5","3","3","3","3","3","5","3","4","4","5","6","5","6","3","4","5","3","5","3","3","799062502875996161","刘","372","Female","[""好她"",""好我"",""坏我"",""坏她""]","[""强她"",""强我"",""弱我"",""弱她""]","","","","","","","","match","","","","","","","","","","key","f","16.667961165048432","561.2986804430077","370.38959662736187","f","true","match","img/square.png","弱我","弱我","prac_ALT2_ability","practice_ability","","","","","","","","",""
"null","<span style='color:GreenYellow; font-size: 70px;'>正确! </span>","null","html-keyboard-response","47","308484","0.0-8.0-1.0-1.0-0.0-1.18","5","3","4","3","1","4","4","4","4","4","5","-1","-1","-1","0","-1","0","0","0","4","4","4","4","4","4","3","3","4","3","3","4","4","4","2","2","3","4","4","5","3","3","3","5","3","3","5","4","3","1","3","3","5","5","3","4","5","5","3","5","3","3","3","3","3","5","3","4","4","5","6","5","6","3","4","5","3","5","3","3","799062502875996161","刘","372","Female","[""好她"",""好我"",""坏我"",""坏她""]","[""强她"",""强我"",""弱我"",""弱她""]","","","","","","","","","","","","","","","","","","","","","","","","","","","","","","feedback_test","","","","","","","","",""
"919","","j","psychophysics","48","310411","0.0-8.0-1.0-1.0-0.0-0.19","5","3","4","3","1","4","4","4","4","4","5","-1","-1","-1","0","-1","0","0","0","4","4","4","4","4","4","3","3","4","3","3","4","4","4","2","2","3","4","4","5","3","3","3","5","3","3","5","4","3","1","3","3","5","5","3","4","5","5","3","5","3","3","3","3","3","5","3","4","4","5","6","5","6","3","4","5","3","5","3","3","799062502875996161","刘","372","Female","[""好她"",""好我"",""坏我"",""坏她""]","[""强她"",""强我"",""弱我"",""弱她""]","","","","","","","","nonmatch","","","","","","","","","","key","j","16.66695652173923","561.2986804430077","370.38959662736187","j","true","nonmatch","img/hexagon.png","弱我","弱她","prac_ALT2_ability","practice_ability","","","","","","","","",""
"null","<span style='color:GreenYellow; font-size: 70px;'>正确! </span>","null","html-keyboard-response","49","310920","0.0-8.0-1.0-1.0-0.0-1.19","5","3","4","3","1","4","4","4","4","4","5","-1","-1","-1","0","-1","0","0","0","4","4","4","4","4","4","3","3","4","3","3","4","4","4","2","2","3","4","4","5","3","3","3","5","3","3","5","4","3","1","3","3","5","5","3","4","5","5","3","5","3","3","3","3","3","5","3","4","4","5","6","5","6","3","4","5","3","5","3","3","799062502875996161","刘","372","Female","[""好她"",""好我"",""坏我"",""坏她""]","[""强她"",""强我"",""弱我"",""弱她""]","","","","","","","","","","","","","","","","","","","","","","","","","","","","","","feedback_test","","","","","","","","",""
"null","","null","psychophysics","50","313131","0.0-8.0-1.0-1.0-0.0-0.20","5","3","4","3","1","4","4","4","4","4","5","-1","-1","-1","0","-1","0","0","0","4","4","4","4","4","4","3","3","4","3","3","4","4","4","2","2","3","4","4","5","3","3","3","5","3","3","5","4","3","1","3","3","5","5","3","4","5","5","3","5","3","3","3","3","3","5","3","4","4","5","6","5","6","3","4","5","3","5","3","3","799062502875996161","刘","372","Female","[""好她"",""好我"",""坏我"",""坏她""]","[""强她"",""强我"",""弱我"",""弱她""]","","","","","","","","null","","","","","","","","","","key","null","16.665648854961923","561.2986804430077","370.38959662736187","j","false","nonmatch","img/square.png","弱她","弱我","prac_ALT2_ability","practice_ability","","","","","","","","",""
"null","<span class='add_' style='color:yellow; font-size: 70px;'> 太慢! </span>","null","html-keyboard-response","51","313640","0.0-8.0-1.0-1.0-0.0-1.20","5","3","4","3","1","4","4","4","4","4","5","-1","-1","-1","0","-1","0","0","0","4","4","4","4","4","4","3","3","4","3","3","4","4","4","2","2","3","4","4","5","3","3","3","5","3","3","5","4","3","1","3","3","5","5","3","4","5","5","3","5","3","3","3","3","3","5","3","4","4","5","6","5","6","3","4","5","3","5","3","3","799062502875996161","刘","372","Female","[""好她"",""好我"",""坏我"",""坏她""]","[""强她"",""强我"",""弱我"",""弱她""]","","","","","","","","","","","","","","","","","","","","","","","","","","","","","","feedback_test","","","","","","","","",""
"911","","f","psychophysics","52","315559","0.0-8.0-1.0-1.0-0.0-0.21","5","3","4","3","1","4","4","4","4","4","5","-1","-1","-1","0","-1","0","0","0","4","4","4","4","4","4","3","3","4","3","3","4","4","4","2","2","3","4","4","5","3","3","3","5","3","3","5","4","3","1","3","3","5","5","3","4","5","5","3","5","3","3","3","3","3","5","3","4","4","5","6","5","6","3","4","5","3","5","3","3","799062502875996161","刘","372","Female","[""好她"",""好我"",""坏我"",""坏她""]","[""强她"",""强我"",""弱我"",""弱她""]","","","","","","","","match","","","","","","","","","","key","f","16.667543859649427","561.2986804430077","370.38959662736187","f","true","match","img/triangle.png","强我","强我","prac_ALT2_ability","practice_ability","","","","","","","","",""
"null","<span style='color:GreenYellow; font-size: 70px;'>正确! </span>","null","html-keyboard-response","53","316060","0.0-8.0-1.0-1.0-0.0-1.21","5","3","4","3","1","4","4","4","4","4","5","-1","-1","-1","0","-1","0","0","0","4","4","4","4","4","4","3","3","4","3","3","4","4","4","2","2","3","4","4","5","3","3","3","5","3","3","5","4","3","1","3","3","5","5","3","4","5","5","3","5","3","3","3","3","3","5","3","4","4","5","6","5","6","3","4","5","3","5","3","3","799062502875996161","刘","372","Female","[""好她"",""好我"",""坏我"",""坏她""]","[""强她"",""强我"",""弱我"",""弱她""]","","","","","","","","","","","","","","","","","","","","","","","","","","","","","","feedback_test","","","","","","","","",""
"null","","null","psychophysics","54","318276","0.0-8.0-1.0-1.0-0.0-0.22","5","3","4","3","1","4","4","4","4","4","5","-1","-1","-1","0","-1","0","0","0","4","4","4","4","4","4","3","3","4","3","3","4","4","4","2","2","3","4","4","5","3","3","3","5","3","3","5","4","3","1","3","3","5","5","3","4","5","5","3","5","3","3","3","3","3","5","3","4","4","5","6","5","6","3","4","5","3","5","3","3","799062502875996161","刘","372","Female","[""好她"",""好我"",""坏我"",""坏她""]","[""强她"",""强我"",""弱我"",""弱她""]","","","","","","","","null","","","","","","","","","","key","null","16.665909090909267","561.2986804430077","370.38959662736187","f","false","match","img/triangle.png","强我","强我","prac_ALT2_ability","practice_ability","","","","","","","","",""
"null","<span class='add_' style='color:yellow; font-size: 70px;'> 太慢! </span>","null","html-keyboard-response","55","318787","0.0-8.0-1.0-1.0-0.0-1.22","5","3","4","3","1","4","4","4","4","4","5","-1","-1","-1","0","-1","0","0","0","4","4","4","4","4","4","3","3","4","3","3","4","4","4","2","2","3","4","4","5","3","3","3","5","3","3","5","4","3","1","3","3","5","5","3","4","5","5","3","5","3","3","3","3","3","5","3","4","4","5","6","5","6","3","4","5","3","5","3","3","799062502875996161","刘","372","Female","[""好她"",""好我"",""坏我"",""坏她""]","[""强她"",""强我"",""弱我"",""弱她""]","","","","","","","","","","","","","","","","","","","","","","","","","","","","","","feedback_test","","","","","","","","",""
"999","","f","psychophysics","56","320810","0.0-8.0-1.0-1.0-0.0-0.23","5","3","4","3","1","4","4","4","4","4","5","-1","-1","-1","0","-1","0","0","0","4","4","4","4","4","4","3","3","4","3","3","4","4","4","2","2","3","4","4","5","3","3","3","5","3","3","5","4","3","1","3","3","5","5","3","4","5","5","3","5","3","3","3","3","3","5","3","4","4","5","6","5","6","3","4","5","3","5","3","3","799062502875996161","刘","372","Female","[""好她"",""好我"",""坏我"",""坏她""]","[""强她"",""强我"",""弱我"",""弱她""]","","","","","","","","match","","","","","","","","","","key","f","16.666666666666668","561.2986804430077","370.38959662736187","f","true","match","img/ellipse.png","强她","强她","prac_ALT2_ability","practice_ability","","","","","","","","",""
"null","<span style='color:GreenYellow; font-size: 70px;'>正确! </span>","null","html-keyboard-response","57","321316","0.0-8.0-1.0-1.0-0.0-1.23","5","3","4","3","1","4","4","4","4","4","5","-1","-1","-1","0","-1","0","0","0","4","4","4","4","4","4","3","3","4","3","3","4","4","4","2","2","3","4","4","5","3","3","3","5","3","3","5","4","3","1","3","3","5","5","3","4","5","5","3","5","3","3","3","3","3","5","3","4","4","5","6","5","6","3","4","5","3","5","3","3","799062502875996161","刘","372","Female","[""好她"",""好我"",""坏我"",""坏她""]","[""强她"",""强我"",""弱我"",""弱她""]","","","","","","","","","","","","","","","","","","","","","","","","","","","","","","feedback_test","","","","","","","","",""
"953","","j","psychophysics","58","323272","0.0-8.0-1.0-1.0-0.0-0.24","5","3","4","3","1","4","4","4","4","4","5","-1","-1","-1","0","-1","0","0","0","4","4","4","4","4","4","3","3","4","3","3","4","4","4","2","2","3","4","4","5","3","3","3","5","3","3","5","4","3","1","3","3","5","5","3","4","5","5","3","5","3","3","3","3","3","5","3","4","4","5","6","5","6","3","4","5","3","5","3","3","799062502875996161","刘","372","Female","[""好她"",""好我"",""坏我"",""坏她""]","[""强她"",""强我"",""弱我"",""弱她""]","","","","","","","","nonmatch","","","","","","","","","","key","j","16.669827586206495","561.2986804430077","370.38959662736187","j","true","nonmatch","img/square.png","弱她","弱我","prac_ALT2_ability","practice_ability","","","","","","","","",""
"null","<span style='color:GreenYellow; font-size: 70px;'>正确! </span>","null","html-keyboard-response","59","323777","0.0-8.0-1.0-1.0-0.0-1.24","5","3","4","3","1","4","4","4","4","4","5","-1","-1","-1","0","-1","0","0","0","4","4","4","4","4","4","3","3","4","3","3","4","4","4","2","2","3","4","4","5","3","3","3","5","3","3","5","4","3","1","3","3","5","5","3","4","5","5","3","5","3","3","3","3","3","5","3","4","4","5","6","5","6","3","4","5","3","5","3","3","799062502875996161","刘","372","Female","[""好她"",""好我"",""坏我"",""坏她""]","[""强她"",""强我"",""弱我"",""弱她""]","","","","","","","","","","","","","","","","","","","","","","","","","","","","","","feedback_test","","","","","","","","",""
"812","","j","psychophysics","60","325589","0.0-8.0-1.0-1.0-0.0-0.25","5","3","4","3","1","4","4","4","4","4","5","-1","-1","-1","0","-1","0","0","0","4","4","4","4","4","4","3","3","4","3","3","4","4","4","2","2","3","4","4","5","3","3","3","5","3","3","5","4","3","1","3","3","5","5","3","4","5","5","3","5","3","3","3","3","3","5","3","4","4","5","6","5","6","3","4","5","3","5","3","3","799062502875996161","刘","372","Female","[""好她"",""好我"",""坏我"",""坏她""]","[""强她"",""强我"",""弱我"",""弱她""]","","","","","","","","nonmatch","","","","","","","","","","key","j","16.666666666666668","561.2986804430077","370.38959662736187","j","true","nonmatch","img/hexagon.png","强她","弱她","prac_ALT2_ability","practice_ability","","","","","","","","",""
"null","<span style='color:GreenYellow; font-size: 70px;'>正确! </span>","null","html-keyboard-response","61","326105","0.0-8.0-1.0-1.0-0.0-1.25","5","3","4","3","1","4","4","4","4","4","5","-1","-1","-1","0","-1","0","0","0","4","4","4","4","4","4","3","3","4","3","3","4","4","4","2","2","3","4","4","5","3","3","3","5","3","3","5","4","3","1","3","3","5","5","3","4","5","5","3","5","3","3","3","3","3","5","3","4","4","5","6","5","6","3","4","5","3","5","3","3","799062502875996161","刘","372","Female","[""好她"",""好我"",""坏我"",""坏她""]","[""强她"",""强我"",""弱我"",""弱她""]","","","","","","","","","","","","","","","","","","","","","","","","","","","","","","feedback_test","","","","","","","","",""
"null","","null","psychophysics","62","328324","0.0-8.0-1.0-1.0-0.0-0.26","5","3","4","3","1","4","4","4","4","4","5","-1","-1","-1","0","-1","0","0","0","4","4","4","4","4","4","3","3","4","3","3","4","4","4","2","2","3","4","4","5","3","3","3","5","3","3","5","4","3","1","3","3","5","5","3","4","5","5","3","5","3","3","3","3","3","5","3","4","4","5","6","5","6","3","4","5","3","5","3","3","799062502875996161","刘","372","Female","[""好她"",""好我"",""坏我"",""坏她""]","[""强她"",""强我"",""弱我"",""弱她""]","","","","","","","","null","","","","","","","","","","key","null","16.666666666666668","561.2986804430077","370.38959662736187","j","false","nonmatch","img/square.png","强她","弱我","prac_ALT2_ability","practice_ability","","","","","","","","",""
"null","<span class='add_' style='color:yellow; font-size: 70px;'> 太慢! </span>","null","html-keyboard-response","63","328829","0.0-8.0-1.0-1.0-0.0-1.26","5","3","4","3","1","4","4","4","4","4","5","-1","-1","-1","0","-1","0","0","0","4","4","4","4","4","4","3","3","4","3","3","4","4","4","2","2","3","4","4","5","3","3","3","5","3","3","5","4","3","1","3","3","5","5","3","4","5","5","3","5","3","3","3","3","3","5","3","4","4","5","6","5","6","3","4","5","3","5","3","3","799062502875996161","刘","372","Female","[""好她"",""好我"",""坏我"",""坏她""]","[""强她"",""强我"",""弱我"",""弱她""]","","","","","","","","","","","","","","","","","","","","","","","","","","","","","","feedback_test","","","","","","","","",""
"812","","f","psychophysics","64","330650","0.0-8.0-1.0-1.0-0.0-0.27","5","3","4","3","1","4","4","4","4","4","5","-1","-1","-1","0","-1","0","0","0","4","4","4","4","4","4","3","3","4","3","3","4","4","4","2","2","3","4","4","5","3","3","3","5","3","3","5","4","3","1","3","3","5","5","3","4","5","5","3","5","3","3","3","3","3","5","3","4","4","5","6","5","6","3","4","5","3","5","3","3","799062502875996161","刘","372","Female","[""好她"",""好我"",""坏我"",""坏她""]","[""强她"",""强我"",""弱我"",""弱她""]","","","","","","","","match","","","","","","","","","","key","f","16.667592592592378","561.2986804430077","370.38959662736187","f","true","match","img/ellipse.png","强她","强她","prac_ALT2_ability","practice_ability","","","","","","","","",""
"null","<span style='color:GreenYellow; font-size: 70px;'>正确! </span>","null","html-keyboard-response","65","331152","0.0-8.0-1.0-1.0-0.0-1.27","5","3","4","3","1","4","4","4","4","4","5","-1","-1","-1","0","-1","0","0","0","4","4","4","4","4","4","3","3","4","3","3","4","4","4","2","2","3","4","4","5","3","3","3","5","3","3","5","4","3","1","3","3","5","5","3","4","5","5","3","5","3","3","3","3","3","5","3","4","4","5","6","5","6","3","4","5","3","5","3","3","799062502875996161","刘","372","Female","[""好她"",""好我"",""坏我"",""坏她""]","[""强她"",""强我"",""弱我"",""弱她""]","","","","","","","","","","","","","","","","","","","","","","","","","","","","","","feedback_test","","","","","","","","",""
"621","","j","psychophysics","66","332782","0.0-8.0-1.0-1.0-0.0-0.28","5","3","4","3","1","4","4","4","4","4","5","-1","-1","-1","0","-1","0","0","0","4","4","4","4","4","4","3","3","4","3","3","4","4","4","2","2","3","4","4","5","3","3","3","5","3","3","5","4","3","1","3","3","5","5","3","4","5","5","3","5","3","3","3","3","3","5","3","4","4","5","6","5","6","3","4","5","3","5","3","3","799062502875996161","刘","372","Female","[""好她"",""好我"",""坏我"",""坏她""]","[""强她"",""强我"",""弱我"",""弱她""]","","","","","","","","nonmatch","","","","","","","","","","key","j","16.66701030927847","561.2986804430077","370.38959662736187","j","true","nonmatch","img/ellipse.png","弱她","强她","prac_ALT2_ability","practice_ability","","","","","","","","",""
"null","<span style='color:GreenYellow; font-size: 70px;'>正确! </span>","null","html-keyboard-response","67","333291","0.0-8.0-1.0-1.0-0.0-1.28","5","3","4","3","1","4","4","4","4","4","5","-1","-1","-1","0","-1","0","0","0","4","4","4","4","4","4","3","3","4","3","3","4","4","4","2","2","3","4","4","5","3","3","3","5","3","3","5","4","3","1","3","3","5","5","3","4","5","5","3","5","3","3","3","3","3","5","3","4","4","5","6","5","6","3","4","5","3","5","3","3","799062502875996161","刘","372","Female","[""好她"",""好我"",""坏我"",""坏她""]","[""强她"",""强我"",""弱我"",""弱她""]","","","","","","","","","","","","","","","","","","","","","","","","","","","","","","feedback_test","","","","","","","","",""
"854","","j","psychophysics","68","335179","0.0-8.0-1.0-1.0-0.0-0.29","5","3","4","3","1","4","4","4","4","4","5","-1","-1","-1","0","-1","0","0","0","4","4","4","4","4","4","3","3","4","3","3","4","4","4","2","2","3","4","4","5","3","3","3","5","3","3","5","4","3","1","3","3","5","5","3","4","5","5","3","5","3","3","3","3","3","5","3","4","4","5","6","5","6","3","4","5","3","5","3","3","799062502875996161","刘","372","Female","[""好她"",""好我"",""坏我"",""坏她""]","[""强她"",""强我"",""弱我"",""弱她""]","","","","","","","","nonmatch","","","","","","","","","","key","j","16.618018018017807","561.2986804430077","370.38959662736187","f","false","match","img/triangle.png","强我","强我","prac_ALT2_ability","practice_ability","","","","","","","","",""
"null","<span style='color:red; font-size: 70px;'>错误! </span>","null","html-keyboard-response","69","335688","0.0-8.0-1.0-1.0-0.0-1.29","5","3","4","3","1","4","4","4","4","4","5","-1","-1","-1","0","-1","0","0","0","4","4","4","4","4","4","3","3","4","3","3","4","4","4","2","2","3","4","4","5","3","3","3","5","3","3","5","4","3","1","3","3","5","5","3","4","5","5","3","5","3","3","3","3","3","5","3","4","4","5","6","5","6","3","4","5","3","5","3","3","799062502875996161","刘","372","Female","[""好她"",""好我"",""坏我"",""坏她""]","[""强她"",""强我"",""弱我"",""弱她""]","","","","","","","","","","","","","","","","","","","","","","","","","","","","","","feedback_test","","","","","","","","",""
"878","","f","psychophysics","70","337572","0.0-8.0-1.0-1.0-0.0-0.30","5","3","4","3","1","4","4","4","4","4","5","-1","-1","-1","0","-1","0","0","0","4","4","4","4","4","4","3","3","4","3","3","4","4","4","2","2","3","4","4","5","3","3","3","5","3","3","5","4","3","1","3","3","5","5","3","4","5","5","3","5","3","3","3","3","3","5","3","4","4","5","6","5","6","3","4","5","3","5","3","3","799062502875996161","刘","372","Female","[""好她"",""好我"",""坏我"",""坏她""]","[""强她"",""强我"",""弱我"",""弱她""]","","","","","","","","match","","","","","","","","","","key","f","16.66696428571387","561.2986804430077","370.38959662736187","f","true","match","img/ellipse.png","强她","强她","prac_ALT2_ability","practice_ability","","","","","","","","",""
"null","<span style='color:GreenYellow; font-size: 70px;'>正确! </span>","null","html-keyboard-response","71","338086","0.0-8.0-1.0-1.0-0.0-1.30","5","3","4","3","1","4","4","4","4","4","5","-1","-1","-1","0","-1","0","0","0","4","4","4","4","4","4","3","3","4","3","3","4","4","4","2","2","3","4","4","5","3","3","3","5","3","3","5","4","3","1","3","3","5","5","3","4","5","5","3","5","3","3","3","3","3","5","3","4","4","5","6","5","6","3","4","5","3","5","3","3","799062502875996161","刘","372","Female","[""好她"",""好我"",""坏我"",""坏她""]","[""强她"",""强我"",""弱我"",""弱她""]","","","","","","","","","","","","","","","","","","","","","","","","","","","","","","feedback_test","","","","","","","","",""
"809","","f","psychophysics","72","339902","0.0-8.0-1.0-1.0-0.0-0.31","5","3","4","3","1","4","4","4","4","4","5","-1","-1","-1","0","-1","0","0","0","4","4","4","4","4","4","3","3","4","3","3","4","4","4","2","2","3","4","4","5","3","3","3","5","3","3","5","4","3","1","3","3","5","5","3","4","5","5","3","5","3","3","3","3","3","5","3","4","4","5","6","5","6","3","4","5","3","5","3","3","799062502875996161","刘","372","Female","[""好她"",""好我"",""坏我"",""坏她""]","[""强她"",""强我"",""弱我"",""弱她""]","","","","","","","","match","","","","","","","","","","key","f","16.666666666666668","561.2986804430077","370.38959662736187","f","true","match","img/square.png","弱我","弱我","prac_ALT2_ability","practice_ability","","","","","","","","",""
"null","<span style='color:GreenYellow; font-size: 70px;'>正确! </span>","null","html-keyboard-response","73","340411","0.0-8.0-1.0-1.0-0.0-1.31","5","3","4","3","1","4","4","4","4","4","5","-1","-1","-1","0","-1","0","0","0","4","4","4","4","4","4","3","3","4","3","3","4","4","4","2","2","3","4","4","5","3","3","3","5","3","3","5","4","3","1","3","3","5","5","3","4","5","5","3","5","3","3","3","3","3","5","3","4","4","5","6","5","6","3","4","5","3","5","3","3","799062502875996161","刘","372","Female","[""好她"",""好我"",""坏我"",""坏她""]","[""强她"",""强我"",""弱我"",""弱她""]","","","","","","","","","","","","","","","","","","","","","","","","","","","","","","feedback_test","","","","","","","","",""
"872","","f","psychophysics","74","342303","0.0-8.0-1.0-1.0-0.0-0.32","5","3","4","3","1","4","4","4","4","4","5","-1","-1","-1","0","-1","0","0","0","4","4","4","4","4","4","3","3","4","3","3","4","4","4","2","2","3","4","4","5","3","3","3","5","3","3","5","4","3","1","3","3","5","5","3","4","5","5","3","5","3","3","3","3","3","5","3","4","4","5","6","5","6","3","4","5","3","5","3","3","799062502875996161","刘","372","Female","[""好她"",""好我"",""坏我"",""坏她""]","[""强她"",""强我"",""弱我"",""弱她""]","","","","","","","","match","","","","","","","","","","key","f","16.66696428571439","561.2986804430077","370.38959662736187","f","true","match","img/square.png","弱我","弱我","prac_ALT2_ability","practice_ability","","","","","","","","",""
"null","<span style='color:GreenYellow; font-size: 70px;'>正确! </span>","null","html-keyboard-response","75","342811","0.0-8.0-1.0-1.0-0.0-1.32","5","3","4","3","1","4","4","4","4","4","5","-1","-1","-1","0","-1","0","0","0","4","4","4","4","4","4","3","3","4","3","3","4","4","4","2","2","3","4","4","5","3","3","3","5","3","3","5","4","3","1","3","3","5","5","3","4","5","5","3","5","3","3","3","3","3","5","3","4","4","5","6","5","6","3","4","5","3","5","3","3","799062502875996161","刘","372","Female","[""好她"",""好我"",""坏我"",""坏她""]","[""强她"",""强我"",""弱我"",""弱她""]","","","","","","","","","","","","","","","","","","","","","","","","","","","","","","feedback_test","","","","","","","","",""
"617","","f","psychophysics","76","344434","0.0-8.0-1.0-1.0-0.0-0.33","5","3","4","3","1","4","4","4","4","4","5","-1","-1","-1","0","-1","0","0","0","4","4","4","4","4","4","3","3","4","3","3","4","4","4","2","2","3","4","4","5","3","3","3","5","3","3","5","4","3","1","3","3","5","5","3","4","5","5","3","5","3","3","3","3","3","5","3","4","4","5","6","5","6","3","4","5","3","5","3","3","799062502875996161","刘","372","Female","[""好她"",""好我"",""坏我"",""坏她""]","[""强她"",""强我"",""弱我"",""弱她""]","","","","","","","","match","","","","","","","","","","key","f","16.665625000000244","561.2986804430077","370.38959662736187","f","true","match","img/hexagon.png","弱她","弱她","prac_ALT2_ability","practice_ability","","","","","","","","",""
"null","<span style='color:GreenYellow; font-size: 70px;'>正确! </span>","null","html-keyboard-response","77","344942","0.0-8.0-1.0-1.0-0.0-1.33","5","3","4","3","1","4","4","4","4","4","5","-1","-1","-1","0","-1","0","0","0","4","4","4","4","4","4","3","3","4","3","3","4","4","4","2","2","3","4","4","5","3","3","3","5","3","3","5","4","3","1","3","3","5","5","3","4","5","5","3","5","3","3","3","3","3","5","3","4","4","5","6","5","6","3","4","5","3","5","3","3","799062502875996161","刘","372","Female","[""好她"",""好我"",""坏我"",""坏她""]","[""强她"",""强我"",""弱我"",""弱她""]","","","","","","","","","","","","","","","","","","","","","","","","","","","","","","feedback_test","","","","","","","","",""
"700","","j","psychophysics","78","346643","0.0-8.0-1.0-1.0-0.0-0.34","5","3","4","3","1","4","4","4","4","4","5","-1","-1","-1","0","-1","0","0","0","4","4","4","4","4","4","3","3","4","3","3","4","4","4","2","2","3","4","4","5","3","3","3","5","3","3","5","4","3","1","3","3","5","5","3","4","5","5","3","5","3","3","3","3","3","5","3","4","4","5","6","5","6","3","4","5","3","5","3","3","799062502875996161","刘","372","Female","[""好她"",""好我"",""坏我"",""坏她""]","[""强她"",""强我"",""弱我"",""弱她""]","","","","","","","","nonmatch","","","","","","","","","","key","j","16.602000000000118","561.2986804430077","370.38959662736187","j","true","nonmatch","img/triangle.png","强她","强我","prac_ALT2_ability","practice_ability","","","","","","","","",""
"null","<span style='color:GreenYellow; font-size: 70px;'>正确! </span>","null","html-keyboard-response","79","347148","0.0-8.0-1.0-1.0-0.0-1.34","5","3","4","3","1","4","4","4","4","4","5","-1","-1","-1","0","-1","0","0","0","4","4","4","4","4","4","3","3","4","3","3","4","4","4","2","2","3","4","4","5","3","3","3","5","3","3","5","4","3","1","3","3","5","5","3","4","5","5","3","5","3","3","3","3","3","5","3","4","4","5","6","5","6","3","4","5","3","5","3","3","799062502875996161","刘","372","Female","[""好她"",""好我"",""坏我"",""坏她""]","[""强她"",""强我"",""弱我"",""弱她""]","","","","","","","","","","","","","","","","","","","","","","","","","","","","","","feedback_test","","","","","","","","",""
"657","","f","psychophysics","80","348815","0.0-8.0-1.0-1.0-0.0-0.35","5","3","4","3","1","4","4","4","4","4","5","-1","-1","-1","0","-1","0","0","0","4","4","4","4","4","4","3","3","4","3","3","4","4","4","2","2","3","4","4","5","3","3","3","5","3","3","5","4","3","1","3","3","5","5","3","4","5","5","3","5","3","3","3","3","3","5","3","4","4","5","6","5","6","3","4","5","3","5","3","3","799062502875996161","刘","372","Female","[""好她"",""好我"",""坏我"",""坏她""]","[""强她"",""强我"",""弱我"",""弱她""]","","","","","","","","match","","","","","","","","","","key","f","16.667676767677122","561.2986804430077","370.38959662736187","f","true","match","img/hexagon.png","弱她","弱她","prac_ALT2_ability","practice_ability","","","","","","","","",""
"null","<span style='color:GreenYellow; font-size: 70px;'>正确! </span>","null","html-keyboard-response","81","349323","0.0-8.0-1.0-1.0-0.0-1.35","5","3","4","3","1","4","4","4","4","4","5","-1","-1","-1","0","-1","0","0","0","4","4","4","4","4","4","3","3","4","3","3","4","4","4","2","2","3","4","4","5","3","3","3","5","3","3","5","4","3","1","3","3","5","5","3","4","5","5","3","5","3","3","3","3","3","5","3","4","4","5","6","5","6","3","4","5","3","5","3","3","799062502875996161","刘","372","Female","[""好她"",""好我"",""坏我"",""坏她""]","[""强她"",""强我"",""弱我"",""弱她""]","","","","","","","","","","","","","","","","","","","","","","","","","","","","","","feedback_test","","","","","","","","",""
"816","","j","psychophysics","82","351140","0.0-8.0-1.0-1.0-0.0-0.36","5","3","4","3","1","4","4","4","4","4","5","-1","-1","-1","0","-1","0","0","0","4","4","4","4","4","4","3","3","4","3","3","4","4","4","2","2","3","4","4","5","3","3","3","5","3","3","5","4","3","1","3","3","5","5","3","4","5","5","3","5","3","3","3","3","3","5","3","4","4","5","6","5","6","3","4","5","3","5","3","3","799062502875996161","刘","372","Female","[""好她"",""好我"",""坏我"",""坏她""]","[""强她"",""强我"",""弱我"",""弱她""]","","","","","","","","nonmatch","","","","","","","","","","key","j","16.667592592592378","561.2986804430077","370.38959662736187","j","true","nonmatch","img/triangle.png","弱我","强我","prac_ALT2_ability","practice_ability","","","","","","","","",""
"null","<span style='color:GreenYellow; font-size: 70px;'>正确! </span>","null","html-keyboard-response","83","351647","0.0-8.0-1.0-1.0-0.0-1.36","5","3","4","3","1","4","4","4","4","4","5","-1","-1","-1","0","-1","0","0","0","4","4","4","4","4","4","3","3","4","3","3","4","4","4","2","2","3","4","4","5","3","3","3","5","3","3","5","4","3","1","3","3","5","5","3","4","5","5","3","5","3","3","3","3","3","5","3","4","4","5","6","5","6","3","4","5","3","5","3","3","799062502875996161","刘","372","Female","[""好她"",""好我"",""坏我"",""坏她""]","[""强她"",""强我"",""弱我"",""弱她""]","","","","","","","","","","","","","","","","","","","","","","","","","","","","","","feedback_test","","","","","","","","",""
"536","","f","psychophysics","84","353191","0.0-8.0-1.0-1.0-0.0-0.37","5","3","4","3","1","4","4","4","4","4","5","-1","-1","-1","0","-1","0","0","0","4","4","4","4","4","4","3","3","4","3","3","4","4","4","2","2","3","4","4","5","3","3","3","5","3","3","5","4","3","1","3","3","5","5","3","4","5","5","3","5","3","3","3","3","3","5","3","4","4","5","6","5","6","3","4","5","3","5","3","3","799062502875996161","刘","372","Female","[""好她"",""好我"",""坏我"",""坏她""]","[""强她"",""强我"",""弱我"",""弱她""]","","","","","","","","match","","","","","","","","","","key","f","16.66813186813174","561.2986804430077","370.38959662736187","f","true","match","img/triangle.png","强我","强我","prac_ALT2_ability","practice_ability","","","","","","","","",""
"null","<span style='color:GreenYellow; font-size: 70px;'>正确! </span>","null","html-keyboard-response","85","353695","0.0-8.0-1.0-1.0-0.0-1.37","5","3","4","3","1","4","4","4","4","4","5","-1","-1","-1","0","-1","0","0","0","4","4","4","4","4","4","3","3","4","3","3","4","4","4","2","2","3","4","4","5","3","3","3","5","3","3","5","4","3","1","3","3","5","5","3","4","5","5","3","5","3","3","3","3","3","5","3","4","4","5","6","5","6","3","4","5","3","5","3","3","799062502875996161","刘","372","Female","[""好她"",""好我"",""坏我"",""坏她""]","[""强她"",""强我"",""弱我"",""弱她""]","","","","","","","","","","","","","","","","","","","","","","","","","","","","","","feedback_test","","","","","","","","",""
"954","","j","psychophysics","86","355681","0.0-8.0-1.0-1.0-0.0-0.38","5","3","4","3","1","4","4","4","4","4","5","-1","-1","-1","0","-1","0","0","0","4","4","4","4","4","4","3","3","4","3","3","4","4","4","2","2","3","4","4","5","3","3","3","5","3","3","5","4","3","1","3","3","5","5","3","4","5","5","3","5","3","3","3","3","3","5","3","4","4","5","6","5","6","3","4","5","3","5","3","3","799062502875996161","刘","372","Female","[""好她"",""好我"",""坏我"",""坏她""]","[""强她"",""强我"",""弱我"",""弱她""]","","","","","","","","nonmatch","","","","","","","","","","key","j","16.666101694915056","561.2986804430077","370.38959662736187","j","true","nonmatch","img/ellipse.png","强我","强她","prac_ALT2_ability","practice_ability","","","","","","","","",""
"null","<span style='color:GreenYellow; font-size: 70px;'>正确! </span>","null","html-keyboard-response","87","356186","0.0-8.0-1.0-1.0-0.0-1.38","5","3","4","3","1","4","4","4","4","4","5","-1","-1","-1","0","-1","0","0","0","4","4","4","4","4","4","3","3","4","3","3","4","4","4","2","2","3","4","4","5","3","3","3","5","3","3","5","4","3","1","3","3","5","5","3","4","5","5","3","5","3","3","3","3","3","5","3","4","4","5","6","5","6","3","4","5","3","5","3","3","799062502875996161","刘","372","Female","[""好她"",""好我"",""坏我"",""坏她""]","[""强她"",""强我"",""弱我"",""弱她""]","","","","","","","","","","","","","","","","","","","","","","","","","","","","","","feedback_test","","","","","","","","",""
"856","","j","psychophysics","88","358048","0.0-8.0-1.0-1.0-0.0-0.39","5","3","4","3","1","4","4","4","4","4","5","-1","-1","-1","0","-1","0","0","0","4","4","4","4","4","4","3","3","4","3","3","4","4","4","2","2","3","4","4","5","3","3","3","5","3","3","5","4","3","1","3","3","5","5","3","4","5","5","3","5","3","3","3","3","3","5","3","4","4","5","6","5","6","3","4","5","3","5","3","3","799062502875996161","刘","372","Female","[""好她"",""好我"",""坏我"",""坏她""]","[""强她"",""强我"",""弱我"",""弱她""]","","","","","","","","nonmatch","","","","","","","","","","key","j","16.666666666666668","561.2986804430077","370.38959662736187","f","false","match","img/square.png","弱我","弱我","prac_ALT2_ability","practice_ability","","","","","","","","",""
"null","<span style='color:red; font-size: 70px;'>错误! </span>","null","html-keyboard-response","89","358555","0.0-8.0-1.0-1.0-0.0-1.39","5","3","4","3","1","4","4","4","4","4","5","-1","-1","-1","0","-1","0","0","0","4","4","4","4","4","4","3","3","4","3","3","4","4","4","2","2","3","4","4","5","3","3","3","5","3","3","5","4","3","1","3","3","5","5","3","4","5","5","3","5","3","3","3","3","3","5","3","4","4","5","6","5","6","3","4","5","3","5","3","3","799062502875996161","刘","372","Female","[""好她"",""好我"",""坏我"",""坏她""]","[""强她"",""强我"",""弱我"",""弱她""]","","","","","","","","","","","","","","","","","","","","","","","","","","","","","","feedback_test","","","","","","","","",""
"703","","f","psychophysics","90","360262","0.0-8.0-1.0-1.0-0.0-0.40","5","3","4","3","1","4","4","4","4","4","5","-1","-1","-1","0","-1","0","0","0","4","4","4","4","4","4","3","3","4","3","3","4","4","4","2","2","3","4","4","5","3","3","3","5","3","3","5","4","3","1","3","3","5","5","3","4","5","5","3","5","3","3","3","3","3","5","3","4","4","5","6","5","6","3","4","5","3","5","3","3","799062502875996161","刘","372","Female","[""好她"",""好我"",""坏我"",""坏她""]","[""强她"",""强我"",""弱我"",""弱她""]","","","","","","","","match","","","","","","","","","","key","f","16.666336633663253","561.2986804430077","370.38959662736187","f","true","match","img/ellipse.png","强她","强她","prac_ALT2_ability","practice_ability","","","","","","","","",""
"null","<span style='color:GreenYellow; font-size: 70px;'>正确! </span>","null","html-keyboard-response","91","360786","0.0-8.0-1.0-1.0-0.0-1.40","5","3","4","3","1","4","4","4","4","4","5","-1","-1","-1","0","-1","0","0","0","4","4","4","4","4","4","3","3","4","3","3","4","4","4","2","2","3","4","4","5","3","3","3","5","3","3","5","4","3","1","3","3","5","5","3","4","5","5","3","5","3","3","3","3","3","5","3","4","4","5","6","5","6","3","4","5","3","5","3","3","799062502875996161","刘","372","Female","[""好她"",""好我"",""坏我"",""坏她""]","[""强她"",""强我"",""弱我"",""弱她""]","","","","","","","","","","","","","","","","","","","","","","","","","","","","","","feedback_test","","","","","","","","",""
"782","","j","psychophysics","92","362582","0.0-8.0-1.0-1.0-0.0-0.41","5","3","4","3","1","4","4","4","4","4","5","-1","-1","-1","0","-1","0","0","0","4","4","4","4","4","4","3","3","4","3","3","4","4","4","2","2","3","4","4","5","3","3","3","5","3","3","5","4","3","1","3","3","5","5","3","4","5","5","3","5","3","3","3","3","3","5","3","4","4","5","6","5","6","3","4","5","3","5","3","3","799062502875996161","刘","372","Female","[""好她"",""好我"",""坏我"",""坏她""]","[""强她"",""强我"",""弱我"",""弱她""]","","","","","","","","nonmatch","","","","","","","","","","key","j","16.666355140186806","561.2986804430077","370.38959662736187","j","true","nonmatch","img/hexagon.png","弱我","弱她","prac_ALT2_ability","practice_ability","","","","","","","","",""
"null","<span style='color:GreenYellow; font-size: 70px;'>正确! </span>","null","html-keyboard-response","93","363092","0.0-8.0-1.0-1.0-0.0-1.41","5","3","4","3","1","4","4","4","4","4","5","-1","-1","-1","0","-1","0","0","0","4","4","4","4","4","4","3","3","4","3","3","4","4","4","2","2","3","4","4","5","3","3","3","5","3","3","5","4","3","1","3","3","5","5","3","4","5","5","3","5","3","3","3","3","3","5","3","4","4","5","6","5","6","3","4","5","3","5","3","3","799062502875996161","刘","372","Female","[""好她"",""好我"",""坏我"",""坏她""]","[""强她"",""强我"",""弱我"",""弱她""]","","","","","","","","","","","","","","","","","","","","","","","","","","","","","","feedback_test","","","","","","","","",""
"593","","f","psychophysics","94","364687","0.0-8.0-1.0-1.0-0.0-0.42","5","3","4","3","1","4","4","4","4","4","5","-1","-1","-1","0","-1","0","0","0","4","4","4","4","4","4","3","3","4","3","3","4","4","4","2","2","3","4","4","5","3","3","3","5","3","3","5","4","3","1","3","3","5","5","3","4","5","5","3","5","3","3","3","3","3","5","3","4","4","5","6","5","6","3","4","5","3","5","3","3","799062502875996161","刘","372","Female","[""好她"",""好我"",""坏我"",""坏她""]","[""强她"",""强我"",""弱我"",""弱她""]","","","","","","","","match","","","","","","","","","","key","f","16.665957446808882","561.2986804430077","370.38959662736187","f","true","match","img/triangle.png","强我","强我","prac_ALT2_ability","practice_ability","","","","","","","","",""
"null","<span style='color:GreenYellow; font-size: 70px;'>正确! </span>","null","html-keyboard-response","95","365193","0.0-8.0-1.0-1.0-0.0-1.42","5","3","4","3","1","4","4","4","4","4","5","-1","-1","-1","0","-1","0","0","0","4","4","4","4","4","4","3","3","4","3","3","4","4","4","2","2","3","4","4","5","3","3","3","5","3","3","5","4","3","1","3","3","5","5","3","4","5","5","3","5","3","3","3","3","3","5","3","4","4","5","6","5","6","3","4","5","3","5","3","3","799062502875996161","刘","372","Female","[""好她"",""好我"",""坏我"",""坏她""]","[""强她"",""强我"",""弱我"",""弱她""]","","","","","","","","","","","","","","","","","","","","","","","","","","","","","","feedback_test","","","","","","","","",""
"644","","f","psychophysics","96","366839","0.0-8.0-1.0-1.0-0.0-0.43","5","3","4","3","1","4","4","4","4","4","5","-1","-1","-1","0","-1","0","0","0","4","4","4","4","4","4","3","3","4","3","3","4","4","4","2","2","3","4","4","5","3","3","3","5","3","3","5","4","3","1","3","3","5","5","3","4","5","5","3","5","3","3","3","3","3","5","3","4","4","5","6","5","6","3","4","5","3","5","3","3","799062502875996161","刘","372","Female","[""好她"",""好我"",""坏我"",""坏她""]","[""强她"",""强我"",""弱我"",""弱她""]","","","","","","","","match","","","","","","","","","","key","f","16.66597938144306","561.2986804430077","370.38959662736187","f","true","match","img/hexagon.png","弱她","弱她","prac_ALT2_ability","practice_ability","","","","","","","","",""
"null","<span style='color:GreenYellow; font-size: 70px;'>正确! </span>","null","html-keyboard-response","97","367343","0.0-8.0-1.0-1.0-0.0-1.43","5","3","4","3","1","4","4","4","4","4","5","-1","-1","-1","0","-1","0","0","0","4","4","4","4","4","4","3","3","4","3","3","4","4","4","2","2","3","4","4","5","3","3","3","5","3","3","5","4","3","1","3","3","5","5","3","4","5","5","3","5","3","3","3","3","3","5","3","4","4","5","6","5","6","3","4","5","3","5","3","3","799062502875996161","刘","372","Female","[""好她"",""好我"",""坏我"",""坏她""]","[""强她"",""强我"",""弱我"",""弱她""]","","","","","","","","","","","","","","","","","","","","","","","","","","","","","","feedback_test","","","","","","","","",""
"769","","j","psychophysics","98","369114","0.0-8.0-1.0-1.0-0.0-0.44","5","3","4","3","1","4","4","4","4","4","5","-1","-1","-1","0","-1","0","0","0","4","4","4","4","4","4","3","3","4","3","3","4","4","4","2","2","3","4","4","5","3","3","3","5","3","3","5","4","3","1","3","3","5","5","3","4","5","5","3","5","3","3","3","3","3","5","3","4","4","5","6","5","6","3","4","5","3","5","3","3","799062502875996161","刘","372","Female","[""好她"",""好我"",""坏我"",""坏她""]","[""强她"",""强我"",""弱我"",""弱她""]","","","","","","","","nonmatch","","","","","","","","","","key","j","16.664761904762347","561.2986804430077","370.38959662736187","j","true","nonmatch","img/triangle.png","弱她","强我","prac_ALT2_ability","practice_ability","","","","","","","","",""
"null","<span style='color:GreenYellow; font-size: 70px;'>正确! </span>","null","html-keyboard-response","99","369621","0.0-8.0-1.0-1.0-0.0-1.44","5","3","4","3","1","4","4","4","4","4","5","-1","-1","-1","0","-1","0","0","0","4","4","4","4","4","4","3","3","4","3","3","4","4","4","2","2","3","4","4","5","3","3","3","5","3","3","5","4","3","1","3","3","5","5","3","4","5","5","3","5","3","3","3","3","3","5","3","4","4","5","6","5","6","3","4","5","3","5","3","3","799062502875996161","刘","372","Female","[""好她"",""好我"",""坏我"",""坏她""]","[""强她"",""强我"",""弱我"",""弱她""]","","","","","","","","","","","","","","","","","","","","","","","","","","","","","","feedback_test","","","","","","","","",""
"620","","j","psychophysics","100","371247","0.0-8.0-1.0-1.0-0.0-0.45","5","3","4","3","1","4","4","4","4","4","5","-1","-1","-1","0","-1","0","0","0","4","4","4","4","4","4","3","3","4","3","3","4","4","4","2","2","3","4","4","5","3","3","3","5","3","3","5","4","3","1","3","3","5","5","3","4","5","5","3","5","3","3","3","3","3","5","3","4","4","5","6","5","6","3","4","5","3","5","3","3","799062502875996161","刘","372","Female","[""好她"",""好我"",""坏我"",""坏她""]","[""强她"",""强我"",""弱我"",""弱她""]","","","","","","","","nonmatch","","","","","","","","","","key","j","16.66597938144366","561.2986804430077","370.38959662736187","j","true","nonmatch","img/square.png","强我","弱我","prac_ALT2_ability","practice_ability","","","","","","","","",""
"null","<span style='color:GreenYellow; font-size: 70px;'>正确! </span>","null","html-keyboard-response","101","371751","0.0-8.0-1.0-1.0-0.0-1.45","5","3","4","3","1","4","4","4","4","4","5","-1","-1","-1","0","-1","0","0","0","4","4","4","4","4","4","3","3","4","3","3","4","4","4","2","2","3","4","4","5","3","3","3","5","3","3","5","4","3","1","3","3","5","5","3","4","5","5","3","5","3","3","3","3","3","5","3","4","4","5","6","5","6","3","4","5","3","5","3","3","799062502875996161","刘","372","Female","[""好她"",""好我"",""坏我"",""坏她""]","[""强她"",""强我"",""弱我"",""弱她""]","","","","","","","","","","","","","","","","","","","","","","","","","","","","","","feedback_test","","","","","","","","",""
"590","","j","psychophysics","102","373350","0.0-8.0-1.0-1.0-0.0-0.46","5","3","4","3","1","4","4","4","4","4","5","-1","-1","-1","0","-1","0","0","0","4","4","4","4","4","4","3","3","4","3","3","4","4","4","2","2","3","4","4","5","3","3","3","5","3","3","5","4","3","1","3","3","5","5","3","4","5","5","3","5","3","3","3","3","3","5","3","4","4","5","6","5","6","3","4","5","3","5","3","3","799062502875996161","刘","372","Female","[""好她"",""好我"",""坏我"",""坏她""]","[""强她"",""强我"",""弱我"",""弱她""]","","","","","","","","nonmatch","","","","","","","","","","key","j","16.66631578947356","561.2986804430077","370.38959662736187","j","true","nonmatch","img/hexagon.png","强我","弱她","prac_ALT2_ability","practice_ability","","","","","","","","",""
"null","<span style='color:GreenYellow; font-size: 70px;'>正确! </span>","null","html-keyboard-response","103","373861","0.0-8.0-1.0-1.0-0.0-1.46","5","3","4","3","1","4","4","4","4","4","5","-1","-1","-1","0","-1","0","0","0","4","4","4","4","4","4","3","3","4","3","3","4","4","4","2","2","3","4","4","5","3","3","3","5","3","3","5","4","3","1","3","3","5","5","3","4","5","5","3","5","3","3","3","3","3","5","3","4","4","5","6","5","6","3","4","5","3","5","3","3","799062502875996161","刘","372","Female","[""好她"",""好我"",""坏我"",""坏她""]","[""强她"",""强我"",""弱我"",""弱她""]","","","","","","","","","","","","","","","","","","","","","","","","","","","","","","feedback_test","","","","","","","","",""
"609","","j","psychophysics","104","375496","0.0-8.0-1.0-1.0-0.0-0.47","5","3","4","3","1","4","4","4","4","4","5","-1","-1","-1","0","-1","0","0","0","4","4","4","4","4","4","3","3","4","3","3","4","4","4","2","2","3","4","4","5","3","3","3","5","3","3","5","4","3","1","3","3","5","5","3","4","5","5","3","5","3","3","3","3","3","5","3","4","4","5","6","5","6","3","4","5","3","5","3","3","799062502875996161","刘","372","Female","[""好她"",""好我"",""坏我"",""坏她""]","[""强她"",""强我"",""弱我"",""弱她""]","","","","","","","","nonmatch","","","","","","","","","","key","j","16.66597938144306","561.2986804430077","370.38959662736187","j","true","nonmatch","img/ellipse.png","弱我","强她","prac_ALT2_ability","practice_ability","","","","","","","","",""
"null","<span style='color:GreenYellow; font-size: 70px;'>正确! </span>","null","html-keyboard-response","105","375997","0.0-8.0-1.0-1.0-0.0-1.47","5","3","4","3","1","4","4","4","4","4","5","-1","-1","-1","0","-1","0","0","0","4","4","4","4","4","4","3","3","4","3","3","4","4","4","2","2","3","4","4","5","3","3","3","5","3","3","5","4","3","1","3","3","5","5","3","4","5","5","3","5","3","3","3","3","3","5","3","4","4","5","6","5","6","3","4","5","3","5","3","3","799062502875996161","刘","372","Female","[""好她"",""好我"",""坏我"",""坏她""]","[""强她"",""强我"",""弱我"",""弱她""]","","","","","","","","","","","","","","","","","","","","","","","","","","","","","","feedback_test","","","","","","","","",""
"9254","<style>.context{color:white; font-size: 35px; line-height:40px}</style>                          <div><p class='context'>您正确回答了73% 的试次。</p><p class='context'>您的平均反应时为792毫秒。</p><p class='context'>恭喜您完成练习。按空格键进入正式实验。</p><p class='footer' style='color:white;font-size: 35px; line-height:40px;'>请在进入正式实验实验之前将您的<span style='color: lightgreen;'>食指</span>放在电脑键盘的相应键位上进行按键。</p>"," ","html-keyboard-response","106","385259","0.0-8.0-1.0-2.0","5","3","4","3","1","4","4","4","4","4","5","-1","-1","-1","0","-1","0","0","0","4","4","4","4","4","4","3","3","4","3","3","4","4","4","2","2","3","4","4","5","3","3","3","5","3","3","5","4","3","1","3","3","5","5","3","4","5","5","3","5","3","3","3","3","3","5","3","4","4","5","6","5","6","3","4","5","3","5","3","3","799062502875996161","刘","372","Female","[""好她"",""好我"",""坏我"",""坏她""]","[""强她"",""强我"",""弱我"",""弱她""]","","","","","","","","","","","","","","","","","","","","","","","","","","","","","","","","","","","","","","",""
"1617","
  <p style='color: white; font-size: 22px'>请您将手指放在按键上，准备进入正式的匹配任务。</p>
  <p> <div style = ""color: green""><按空格键进入下一阶段的匹配任务></div></p>
  "," ","html-keyboard-response","107","386880","0.0-8.0-1.0-3.0","5","3","4","3","1","4","4","4","4","4","5","-1","-1","-1","0","-1","0","0","0","4","4","4","4","4","4","3","3","4","3","3","4","4","4","2","2","3","4","4","5","3","3","3","5","3","3","5","4","3","1","3","3","5","5","3","4","5","5","3","5","3","3","3","3","3","5","3","4","4","5","6","5","6","3","4","5","3","5","3","3","799062502875996161","刘","372","Female","[""好她"",""好我"",""坏我"",""坏她""]","[""强她"",""强我"",""弱我"",""弱她""]","","","","","","","","","","","","","","","","","","","","","","","","","","","","","","","","","","","","","","",""
"862","","j","psychophysics","108","388744","0.0-8.0-1.0-4.0-0.0-0.0","5","3","4","3","1","4","4","4","4","4","5","-1","-1","-1","0","-1","0","0","0","4","4","4","4","4","4","3","3","4","3","3","4","4","4","2","2","3","4","4","5","3","3","3","5","3","3","5","4","3","1","3","3","5","5","3","4","5","5","3","5","3","3","3","3","3","5","3","4","4","5","6","5","6","3","4","5","3","5","3","3","799062502875996161","刘","372","Female","[""好她"",""好我"",""坏我"",""坏她""]","[""强她"",""强我"",""弱我"",""弱她""]","","","","","","","","nonmatch","","","","","","","","","","key","j","16.66545454545465","561.2986804430077","370.38959662736187","j","true","nonmatch","img/hexagon.png","强她","弱她","ALT2","ability","","","","","","","","",""
"null","<span style='color:GreenYellow; font-size: 70px;'>正确! </span>","null","html-keyboard-response","109","389247","0.0-8.0-1.0-4.0-0.0-1.0","5","3","4","3","1","4","4","4","4","4","5","-1","-1","-1","0","-1","0","0","0","4","4","4","4","4","4","3","3","4","3","3","4","4","4","2","2","3","4","4","5","3","3","3","5","3","3","5","4","3","1","3","3","5","5","3","4","5","5","3","5","3","3","3","3","3","5","3","4","4","5","6","5","6","3","4","5","3","5","3","3","799062502875996161","刘","372","Female","[""好她"",""好我"",""坏我"",""坏她""]","[""强她"",""强我"",""弱我"",""弱她""]","","","","","","","","","","","","","","","","","","","","","","","","","","","","","","feedback_test","","","","","","","","",""
"610","","f","psychophysics","110","390858","0.0-8.0-1.0-4.0-0.0-0.1","5","3","4","3","1","4","4","4","4","4","5","-1","-1","-1","0","-1","0","0","0","4","4","4","4","4","4","3","3","4","3","3","4","4","4","2","2","3","4","4","5","3","3","3","5","3","3","5","4","3","1","3","3","5","5","3","4","5","5","3","5","3","3","3","3","3","5","3","4","4","5","6","5","6","3","4","5","3","5","3","3","799062502875996161","刘","372","Female","[""好她"",""好我"",""坏我"",""坏她""]","[""强她"",""强我"",""弱我"",""弱她""]","","","","","","","","match","","","","","","","","","","key","f","16.667368421052878","561.2986804430077","370.38959662736187","f","true","match","img/triangle.png","强我","强我","ALT2","ability","","","","","","","","",""
"null","<span style='color:GreenYellow; font-size: 70px;'>正确! </span>","null","html-keyboard-response","111","391360","0.0-8.0-1.0-4.0-0.0-1.1","5","3","4","3","1","4","4","4","4","4","5","-1","-1","-1","0","-1","0","0","0","4","4","4","4","4","4","3","3","4","3","3","4","4","4","2","2","3","4","4","5","3","3","3","5","3","3","5","4","3","1","3","3","5","5","3","4","5","5","3","5","3","3","3","3","3","5","3","4","4","5","6","5","6","3","4","5","3","5","3","3","799062502875996161","刘","372","Female","[""好她"",""好我"",""坏我"",""坏她""]","[""强她"",""强我"",""弱我"",""弱她""]","","","","","","","","","","","","","","","","","","","","","","","","","","","","","","feedback_test","","","","","","","","",""
"664","","j","psychophysics","112","393026","0.0-8.0-1.0-4.0-0.0-0.2","5","3","4","3","1","4","4","4","4","4","5","-1","-1","-1","0","-1","0","0","0","4","4","4","4","4","4","3","3","4","3","3","4","4","4","2","2","3","4","4","5","3","3","3","5","3","3","5","4","3","1","3","3","5","5","3","4","5","5","3","5","3","3","3","3","3","5","3","4","4","5","6","5","6","3","4","5","3","5","3","3","799062502875996161","刘","372","Female","[""好她"",""好我"",""坏我"",""坏她""]","[""强她"",""强我"",""弱我"",""弱她""]","","","","","","","","nonmatch","","","","","","","","","","key","j","16.666666666666668","561.2986804430077","370.38959662736187","j","true","nonmatch","img/square.png","强她","弱我","ALT2","ability","","","","","","","","",""
"null","<span style='color:GreenYellow; font-size: 70px;'>正确! </span>","null","html-keyboard-response","113","393527","0.0-8.0-1.0-4.0-0.0-1.2","5","3","4","3","1","4","4","4","4","4","5","-1","-1","-1","0","-1","0","0","0","4","4","4","4","4","4","3","3","4","3","3","4","4","4","2","2","3","4","4","5","3","3","3","5","3","3","5","4","3","1","3","3","5","5","3","4","5","5","3","5","3","3","3","3","3","5","3","4","4","5","6","5","6","3","4","5","3","5","3","3","799062502875996161","刘","372","Female","[""好她"",""好我"",""坏我"",""坏她""]","[""强她"",""强我"",""弱我"",""弱她""]","","","","","","","","","","","","","","","","","","","","","","","","","","","","","","feedback_test","","","","","","","","",""
"925","","j","psychophysics","114","395455","0.0-8.0-1.0-4.0-0.0-0.3","5","3","4","3","1","4","4","4","4","4","5","-1","-1","-1","0","-1","0","0","0","4","4","4","4","4","4","3","3","4","3","3","4","4","4","2","2","3","4","4","5","3","3","3","5","3","3","5","4","3","1","3","3","5","5","3","4","5","5","3","5","3","3","3","3","3","5","3","4","4","5","6","5","6","3","4","5","3","5","3","3","799062502875996161","刘","372","Female","[""好她"",""好我"",""坏我"",""坏她""]","[""强她"",""强我"",""弱我"",""弱她""]","","","","","","","","nonmatch","","","","","","","","","","key","j","16.66521739130435","561.2986804430077","370.38959662736187","j","true","nonmatch","img/triangle.png","弱我","强我","ALT2","ability","","","","","","","","",""
"null","<span style='color:GreenYellow; font-size: 70px;'>正确! </span>","null","html-keyboard-response","115","395978","0.0-8.0-1.0-4.0-0.0-1.3","5","3","4","3","1","4","4","4","4","4","5","-1","-1","-1","0","-1","0","0","0","4","4","4","4","4","4","3","3","4","3","3","4","4","4","2","2","3","4","4","5","3","3","3","5","3","3","5","4","3","1","3","3","5","5","3","4","5","5","3","5","3","3","3","3","3","5","3","4","4","5","6","5","6","3","4","5","3","5","3","3","799062502875996161","刘","372","Female","[""好她"",""好我"",""坏我"",""坏她""]","[""强她"",""强我"",""弱我"",""弱她""]","","","","","","","","","","","","","","","","","","","","","","","","","","","","","","feedback_test","","","","","","","","",""
"598","","j","psychophysics","116","397595","0.0-8.0-1.0-4.0-0.0-0.4","5","3","4","3","1","4","4","4","4","4","5","-1","-1","-1","0","-1","0","0","0","4","4","4","4","4","4","3","3","4","3","3","4","4","4","2","2","3","4","4","5","3","3","3","5","3","3","5","4","3","1","3","3","5","5","3","4","5","5","3","5","3","3","3","3","3","5","3","4","4","5","6","5","6","3","4","5","3","5","3","3","799062502875996161","刘","372","Female","[""好她"",""好我"",""坏我"",""坏她""]","[""强她"",""强我"",""弱我"",""弱她""]","","","","","","","","nonmatch","","","","","","","","","","key","j","16.66631578947356","561.2986804430077","370.38959662736187","j","true","nonmatch","img/hexagon.png","弱我","弱她","ALT2","ability","","","","","","","","",""
"null","<span style='color:GreenYellow; font-size: 70px;'>正确! </span>","null","html-keyboard-response","117","398097","0.0-8.0-1.0-4.0-0.0-1.4","5","3","4","3","1","4","4","4","4","4","5","-1","-1","-1","0","-1","0","0","0","4","4","4","4","4","4","3","3","4","3","3","4","4","4","2","2","3","4","4","5","3","3","3","5","3","3","5","4","3","1","3","3","5","5","3","4","5","5","3","5","3","3","3","3","3","5","3","4","4","5","6","5","6","3","4","5","3","5","3","3","799062502875996161","刘","372","Female","[""好她"",""好我"",""坏我"",""坏她""]","[""强她"",""强我"",""弱我"",""弱她""]","","","","","","","","","","","","","","","","","","","","","","","","","","","","","","feedback_test","","","","","","","","",""
"592","","j","psychophysics","118","399690","0.0-8.0-1.0-4.0-0.0-0.5","5","3","4","3","1","4","4","4","4","4","5","-1","-1","-1","0","-1","0","0","0","4","4","4","4","4","4","3","3","4","3","3","4","4","4","2","2","3","4","4","5","3","3","3","5","3","3","5","4","3","1","3","3","5","5","3","4","5","5","3","5","3","3","3","3","3","5","3","4","4","5","6","5","6","3","4","5","3","5","3","3","799062502875996161","刘","372","Female","[""好她"",""好我"",""坏我"",""坏她""]","[""强她"",""强我"",""弱我"",""弱她""]","","","","","","","","nonmatch","","","","","","","","","","key","j","16.665957446808264","561.2986804430077","370.38959662736187","j","true","nonmatch","img/hexagon.png","强我","弱她","ALT2","ability","","","","","","","","",""
"null","<span style='color:GreenYellow; font-size: 70px;'>正确! </span>","null","html-keyboard-response","119","400198","0.0-8.0-1.0-4.0-0.0-1.5","5","3","4","3","1","4","4","4","4","4","5","-1","-1","-1","0","-1","0","0","0","4","4","4","4","4","4","3","3","4","3","3","4","4","4","2","2","3","4","4","5","3","3","3","5","3","3","5","4","3","1","3","3","5","5","3","4","5","5","3","5","3","3","3","3","3","5","3","4","4","5","6","5","6","3","4","5","3","5","3","3","799062502875996161","刘","372","Female","[""好她"",""好我"",""坏我"",""坏她""]","[""强她"",""强我"",""弱我"",""弱她""]","","","","","","","","","","","","","","","","","","","","","","","","","","","","","","feedback_test","","","","","","","","",""
"1017","","j","psychophysics","120","402221","0.0-8.0-1.0-4.0-0.0-0.6","5","3","4","3","1","4","4","4","4","4","5","-1","-1","-1","0","-1","0","0","0","4","4","4","4","4","4","3","3","4","3","3","4","4","4","2","2","3","4","4","5","3","3","3","5","3","3","5","4","3","1","3","3","5","5","3","4","5","5","3","5","3","3","3","3","3","5","3","4","4","5","6","5","6","3","4","5","3","5","3","3","799062502875996161","刘","372","Female","[""好她"",""好我"",""坏我"",""坏她""]","[""强她"",""强我"",""弱我"",""弱她""]","","","","","","","","nonmatch","","","","","","","","","","key","j","16.666666666666668","561.2986804430077","370.38959662736187","f","false","match","img/hexagon.png","弱她","弱她","ALT2","ability","","","","","","","","",""
"null","<span style='color:red; font-size: 70px;'>错误! </span>","null","html-keyboard-response","121","402728","0.0-8.0-1.0-4.0-0.0-1.6","5","3","4","3","1","4","4","4","4","4","5","-1","-1","-1","0","-1","0","0","0","4","4","4","4","4","4","3","3","4","3","3","4","4","4","2","2","3","4","4","5","3","3","3","5","3","3","5","4","3","1","3","3","5","5","3","4","5","5","3","5","3","3","3","3","3","5","3","4","4","5","6","5","6","3","4","5","3","5","3","3","799062502875996161","刘","372","Female","[""好她"",""好我"",""坏我"",""坏她""]","[""强她"",""强我"",""弱我"",""弱她""]","","","","","","","","","","","","","","","","","","","","","","","","","","","","","","feedback_test","","","","","","","","",""
"1003","","f","psychophysics","122","404750","0.0-8.0-1.0-4.0-0.0-0.7","5","3","4","3","1","4","4","4","4","4","5","-1","-1","-1","0","-1","0","0","0","4","4","4","4","4","4","3","3","4","3","3","4","4","4","2","2","3","4","4","5","3","3","3","5","3","3","5","4","3","1","3","3","5","5","3","4","5","5","3","5","3","3","3","3","3","5","3","4","4","5","6","5","6","3","4","5","3","5","3","3","799062502875996161","刘","372","Female","[""好她"",""好我"",""坏我"",""坏她""]","[""强她"",""强我"",""弱我"",""弱她""]","","","","","","","","match","","","","","","","","","","key","f","16.665833333333044","561.2986804430077","370.38959662736187","f","true","match","img/square.png","弱我","弱我","ALT2","ability","","","","","","","","",""
"null","<span style='color:GreenYellow; font-size: 70px;'>正确! </span>","null","html-keyboard-response","123","405252","0.0-8.0-1.0-4.0-0.0-1.7","5","3","4","3","1","4","4","4","4","4","5","-1","-1","-1","0","-1","0","0","0","4","4","4","4","4","4","3","3","4","3","3","4","4","4","2","2","3","4","4","5","3","3","3","5","3","3","5","4","3","1","3","3","5","5","3","4","5","5","3","5","3","3","3","3","3","5","3","4","4","5","6","5","6","3","4","5","3","5","3","3","799062502875996161","刘","372","Female","[""好她"",""好我"",""坏我"",""坏她""]","[""强她"",""强我"",""弱我"",""弱她""]","","","","","","","","","","","","","","","","","","","","","","","","","","","","","","feedback_test","","","","","","","","",""
"643","","j","psychophysics","124","406903","0.0-8.0-1.0-4.0-0.0-0.8","5","3","4","3","1","4","4","4","4","4","5","-1","-1","-1","0","-1","0","0","0","4","4","4","4","4","4","3","3","4","3","3","4","4","4","2","2","3","4","4","5","3","3","3","5","3","3","5","4","3","1","3","3","5","5","3","4","5","5","3","5","3","3","3","3","3","5","3","4","4","5","6","5","6","3","4","5","3","5","3","3","799062502875996161","刘","372","Female","[""好她"",""好我"",""坏我"",""坏她""]","[""强她"",""强我"",""弱我"",""弱她""]","","","","","","","","nonmatch","","","","","","","","","","key","j","16.667346938775154","561.2986804430077","370.38959662736187","f","false","match","img/square.png","弱我","弱我","ALT2","ability","","","","","","","","",""
"null","<span style='color:red; font-size: 70px;'>错误! </span>","null","html-keyboard-response","125","407406","0.0-8.0-1.0-4.0-0.0-1.8","5","3","4","3","1","4","4","4","4","4","5","-1","-1","-1","0","-1","0","0","0","4","4","4","4","4","4","3","3","4","3","3","4","4","4","2","2","3","4","4","5","3","3","3","5","3","3","5","4","3","1","3","3","5","5","3","4","5","5","3","5","3","3","3","3","3","5","3","4","4","5","6","5","6","3","4","5","3","5","3","3","799062502875996161","刘","372","Female","[""好她"",""好我"",""坏我"",""坏她""]","[""强她"",""强我"",""弱我"",""弱她""]","","","","","","","","","","","","","","","","","","","","","","","","","","","","","","feedback_test","","","","","","","","",""
"805","","f","psychophysics","126","409214","0.0-8.0-1.0-4.0-0.0-0.9","5","3","4","3","1","4","4","4","4","4","5","-1","-1","-1","0","-1","0","0","0","4","4","4","4","4","4","3","3","4","3","3","4","4","4","2","2","3","4","4","5","3","3","3","5","3","3","5","4","3","1","3","3","5","5","3","4","5","5","3","5","3","3","3","3","3","5","3","4","4","5","6","5","6","3","4","5","3","5","3","3","799062502875996161","刘","372","Female","[""好她"",""好我"",""坏我"",""坏她""]","[""强她"",""强我"",""弱我"",""弱她""]","","","","","","","","match","","","","","","","","","","key","f","16.667289719626385","561.2986804430077","370.38959662736187","f","true","match","img/square.png","弱我","弱我","ALT2","ability","","","","","","","","",""
"null","<span style='color:GreenYellow; font-size: 70px;'>正确! </span>","null","html-keyboard-response","127","409718","0.0-8.0-1.0-4.0-0.0-1.9","5","3","4","3","1","4","4","4","4","4","5","-1","-1","-1","0","-1","0","0","0","4","4","4","4","4","4","3","3","4","3","3","4","4","4","2","2","3","4","4","5","3","3","3","5","3","3","5","4","3","1","3","3","5","5","3","4","5","5","3","5","3","3","3","3","3","5","3","4","4","5","6","5","6","3","4","5","3","5","3","3","799062502875996161","刘","372","Female","[""好她"",""好我"",""坏我"",""坏她""]","[""强她"",""强我"",""弱我"",""弱她""]","","","","","","","","","","","","","","","","","","","","","","","","","","","","","","feedback_test","","","","","","","","",""
"774","","j","psychophysics","128","411511","0.0-8.0-1.0-4.0-0.0-0.10","5","3","4","3","1","4","4","4","4","4","5","-1","-1","-1","0","-1","0","0","0","4","4","4","4","4","4","3","3","4","3","3","4","4","4","2","2","3","4","4","5","3","3","3","5","3","3","5","4","3","1","3","3","5","5","3","4","5","5","3","5","3","3","3","3","3","5","3","4","4","5","6","5","6","3","4","5","3","5","3","3","799062502875996161","刘","372","Female","[""好她"",""好我"",""坏我"",""坏她""]","[""强她"",""强我"",""弱我"",""弱她""]","","","","","","","","nonmatch","","","","","","","","","","key","j","16.66792452830178","561.2986804430077","370.38959662736187","j","true","nonmatch","img/ellipse.png","弱她","强她","ALT2","ability","","","","","","","","",""
"null","<span style='color:GreenYellow; font-size: 70px;'>正确! </span>","null","html-keyboard-response","129","412017","0.0-8.0-1.0-4.0-0.0-1.10","5","3","4","3","1","4","4","4","4","4","5","-1","-1","-1","0","-1","0","0","0","4","4","4","4","4","4","3","3","4","3","3","4","4","4","2","2","3","4","4","5","3","3","3","5","3","3","5","4","3","1","3","3","5","5","3","4","5","5","3","5","3","3","3","3","3","5","3","4","4","5","6","5","6","3","4","5","3","5","3","3","799062502875996161","刘","372","Female","[""好她"",""好我"",""坏我"",""坏她""]","[""强她"",""强我"",""弱我"",""弱她""]","","","","","","","","","","","","","","","","","","","","","","","","","","","","","","feedback_test","","","","","","","","",""
"641","","f","psychophysics","130","413668","0.0-8.0-1.0-4.0-0.0-0.11","5","3","4","3","1","4","4","4","4","4","5","-1","-1","-1","0","-1","0","0","0","4","4","4","4","4","4","3","3","4","3","3","4","4","4","2","2","3","4","4","5","3","3","3","5","3","3","5","4","3","1","3","3","5","5","3","4","5","5","3","5","3","3","3","3","3","5","3","4","4","5","6","5","6","3","4","5","3","5","3","3","799062502875996161","刘","372","Female","[""好她"",""好我"",""坏我"",""坏她""]","[""强她"",""强我"",""弱我"",""弱她""]","","","","","","","","match","","","","","","","","","","key","f","16.667346938775154","561.2986804430077","370.38959662736187","f","true","match","img/triangle.png","强我","强我","ALT2","ability","","","","","","","","",""
"null","<span style='color:GreenYellow; font-size: 70px;'>正确! </span>","null","html-keyboard-response","131","414175","0.0-8.0-1.0-4.0-0.0-1.11","5","3","4","3","1","4","4","4","4","4","5","-1","-1","-1","0","-1","0","0","0","4","4","4","4","4","4","3","3","4","3","3","4","4","4","2","2","3","4","4","5","3","3","3","5","3","3","5","4","3","1","3","3","5","5","3","4","5","5","3","5","3","3","3","3","3","5","3","4","4","5","6","5","6","3","4","5","3","5","3","3","799062502875996161","刘","372","Female","[""好她"",""好我"",""坏我"",""坏她""]","[""强她"",""强我"",""弱我"",""弱她""]","","","","","","","","","","","","","","","","","","","","","","","","","","","","","","feedback_test","","","","","","","","",""
"587","","j","psychophysics","132","415763","0.0-8.0-1.0-4.0-0.0-0.12","5","3","4","3","1","4","4","4","4","4","5","-1","-1","-1","0","-1","0","0","0","4","4","4","4","4","4","3","3","4","3","3","4","4","4","2","2","3","4","4","5","3","3","3","5","3","3","5","4","3","1","3","3","5","5","3","4","5","5","3","5","3","3","3","3","3","5","3","4","4","5","6","5","6","3","4","5","3","5","3","3","799062502875996161","刘","372","Female","[""好她"",""好我"",""坏我"",""坏她""]","[""强她"",""强我"",""弱我"",""弱她""]","","","","","","","","nonmatch","","","","","","","","","","key","j","16.667021276595868","561.2986804430077","370.38959662736187","j","true","nonmatch","img/ellipse.png","弱我","强她","ALT2","ability","","","","","","","","",""
"null","<span style='color:GreenYellow; font-size: 70px;'>正确! </span>","null","html-keyboard-response","133","416265","0.0-8.0-1.0-4.0-0.0-1.12","5","3","4","3","1","4","4","4","4","4","5","-1","-1","-1","0","-1","0","0","0","4","4","4","4","4","4","3","3","4","3","3","4","4","4","2","2","3","4","4","5","3","3","3","5","3","3","5","4","3","1","3","3","5","5","3","4","5","5","3","5","3","3","3","3","3","5","3","4","4","5","6","5","6","3","4","5","3","5","3","3","799062502875996161","刘","372","Female","[""好她"",""好我"",""坏我"",""坏她""]","[""强她"",""强我"",""弱我"",""弱她""]","","","","","","","","","","","","","","","","","","","","","","","","","","","","","","feedback_test","","","","","","","","",""
"602","","j","psychophysics","134","417877","0.0-8.0-1.0-4.0-0.0-0.13","5","3","4","3","1","4","4","4","4","4","5","-1","-1","-1","0","-1","0","0","0","4","4","4","4","4","4","3","3","4","3","3","4","4","4","2","2","3","4","4","5","3","3","3","5","3","3","5","4","3","1","3","3","5","5","3","4","5","5","3","5","3","3","3","3","3","5","3","4","4","5","6","5","6","3","4","5","3","5","3","3","799062502875996161","刘","372","Female","[""好她"",""好我"",""坏我"",""坏她""]","[""强她"",""强我"",""弱我"",""弱她""]","","","","","","","","nonmatch","","","","","","","","","","key","j","16.66631578947356","561.2986804430077","370.38959662736187","j","true","nonmatch","img/triangle.png","强她","强我","ALT2","ability","","","","","","","","",""
