"rt","stimulus","response","trial_type","trial_index","time_elapsed","internal_node_id","swb_1","swb_2","swb_3","swb_4","swb_5","LOT_1","LOT_2","LOT_3","LOT_4","LOT_5","LOT_6","IPC_1","IPC_2","IPC_3","IPC_4","IPC_5","IPC_6","IPC_7","IPC_8","MorIden_1","MorIden_2","MorIden_3","MorIden_4","MorIden_5","MorIden_6","MorIden_7","MorIden_8","MorIden_9","MorIden_10","moralSeImag_1","moralSeImag_2","moralSeImag_3","moralSeImag_4","moralSeImag_5","moralSeImag_6","moralSeImag_7","moralSeImag_8","moralSeImag_9","sde_1","sde_2","sde_3","sde_4","sde_5","sde_6","sde_7","sde_8","sde_9","sde_10","trap2","sde_11","sde_12","sde_13","sde_14","sde_15","sde_16","sde_17","sde_18","sde_19","sde_20","IM_1","IM_2","IM_3","IM_4","IM_5","IM_6","IM_7","IM_8","IM_9","IM_10","IM_11","IM_12","IM_13","IM_14","IM_15","IM_16","IM_17","IM_18","IM_19","IM_20","subj_idx","friend_name","ParticipantID","Sex","Word","Word2","value","success","timeout","failed_images","failed_audio","failed_video","user_agent","responses","item_order","radio_event_ids","radio_event_times","key_event_times","mouse_event_times","straightlining","zigzagging","honeypot","task_id","screen_id","time_stamp","response_type","key_press","avg_frame_time","center_x","center_y","person","word","valence","domain","math","correct_response","correct","status","view_history","identity","duration","Image","condition","question_order","trap2_item"
"10475","
   <p><div style='color:white; font-size: 25px'>您好，欢迎参加本次实验。</div></p>
   <p><div style='color:white; font-size: 25px'>为充分保障您的权利，请确保您已经知晓并同意《参与实验同意书》以及《数据公开知情同意书》。</div></p>
   <p><div style='color:white; font-size: 25px'>如果您未见过上述内容，请咨询实验员。</div></p>
   <p style='color:white; font-size: 25px'>如果您选择继续实验，则表示您已经清楚两份知情同意书的内容并同意。</p>
   <p><div style = ""color: pink;font-size:30px;"">请确保您记得day0的实验编号，您将在本次实验输入该编号，若您忘记，请咨询实验员后作答。</div></p>
   <p><div style = ""color:lightblue;font-size:25px;"">请您尽可能认真地作答，我们将依据您在各问卷和按键任务中的作答质量发放报酬。</div></p>
   <p> <div style = ""color: green""><按空格键至下页></div> </p>
   "," ","html-keyboard-response","0","10477","0.0-0.0","5","4","5","3","1","5","2","5","5","5","5","0","0","1","1","-1","1","2","1","5","4","5","5","5","4","4","4","4","4","5","6","8","7","4","5","6","8","7","5","5","3","7","5","3","5","2","6","6","1","3","3","6","3","6","5","5","3","6","3","3","6","5","3","5","7","6","5","5","5","5","7","7","6","3","7","5","6","3","7","652595581352411136","王","446","Male","[""好他"",""坏我"",""好我"",""坏他""]","[""强他"",""弱我"",""强我"",""弱他""]","","","","","","","","","","","","","","","","","","","","","","","","","","","","","","","","","","","","","","",""
"","","","call-function","1","10478","0.0-1.0-0.0","5","4","5","3","1","5","2","5","5","5","5","0","0","1","1","-1","1","2","1","5","4","5","5","5","4","4","4","4","4","5","6","8","7","4","5","6","8","7","5","5","3","7","5","3","5","2","6","6","1","3","3","6","3","6","5","5","3","6","3","3","6","5","3","5","7","6","5","5","5","5","7","7","6","3","7","5","6","3","7","652595581352411136","王","446","Male","[""好他"",""坏我"",""好我"",""坏他""]","[""强他"",""弱我"",""强我"",""弱他""]","","","","","","","","","","","","","","","","","","","","","","","","","","","","","","","","","","","","","","",""
"50022","","[{""name"":""Sex"",""value"":""0""},{""name"":""friend_name"",""value"":""王""},{""name"":""ParticipantID"",""value"":""446""}]","survey-html-form","2","60501","0.0-1.0-1.0","5","4","5","3","1","5","2","5","5","5","5","0","0","1","1","-1","1","2","1","5","4","5","5","5","4","4","4","4","4","5","6","8","7","4","5","6","8","7","5","5","3","7","5","3","5","2","6","6","1","3","3","6","3","6","5","5","3","6","3","3","6","5","3","5","7","6","5","5","5","5","7","7","6","3","7","5","6","3","7","652595581352411136","王","446","Male","[""好他"",""坏我"",""好我"",""坏他""]","[""强他"",""弱我"",""强我"",""弱他""]","","","","","","","","","","","","","","","","","","","","","","","","","","","","","","","","","","","","","","",""
"","","","preload","3","60852","0.0-2.0","5","4","5","3","1","5","2","5","5","5","5","0","0","1","1","-1","1","2","1","5","4","5","5","5","4","4","4","4","4","5","6","8","7","4","5","6","8","7","5","5","3","7","5","3","5","2","6","6","1","3","3","6","3","6","5","5","3","6","3","3","6","5","3","5","7","6","5","5","5","5","7","7","6","3","7","5","6","3","7","652595581352411136","王","446","Male","[""好他"",""坏我"",""好我"",""坏他""]","[""强他"",""弱我"",""强我"",""弱他""]","","true","false","[]","[]","[]","","","","","","","","","","","","","","","","","","","","","","","","","","","","","","","","",""
"","","","fullscreen","4","81251","0.0-3.0","5","4","5","3","1","5","2","5","5","5","5","0","0","1","1","-1","1","2","1","5","4","5","5","5","4","4","4","4","4","5","6","8","7","4","5","6","8","7","5","5","3","7","5","3","5","2","6","6","1","3","3","6","3","6","5","5","3","6","3","3","6","5","3","5","7","6","5","5","5","5","7","7","6","3","7","5","6","3","7","652595581352411136","王","446","Male","[""好他"",""坏我"",""好我"",""坏他""]","[""强他"",""弱我"",""强我"",""弱他""]","","true","","","","","{}","","","","","","","","","","","","","","","","","","","","","","","","","","","","","","","",""
"18180.300000000047","","{""Q01"":""5"",""Q02"":""4"",""Q03"":""5"",""Q04"":""3"",""Q05"":""1""}","survey-template","5","99433","0.0-4.0","5","4","5","3","1","5","2","5","5","5","5","0","0","1","1","-1","1","2","1","5","4","5","5","5","4","4","4","4","4","5","6","8","7","4","5","6","8","7","5","5","3","7","5","3","5","2","6","6","1","3","3","6","3","6","5","5","3","6","3","3","6","5","3","5","7","6","5","5","5","5","7","7","6","3","7","5","6","3","7","652595581352411136","王","446","Male","[""好他"",""坏我"",""好我"",""坏他""]","[""强他"",""弱我"",""强我"",""弱他""]","","","","","","","","{""Q01"":""5"",""Q02"":""4"",""Q03"":""5"",""Q04"":""3"",""Q05"":""1""}","[0,1,2,3,4]","[""Q01"",""Q02"",""Q03"",""Q04"",""Q05""]","[5175.800000000047,8795.699999999953,10860.199999999953,13651.59999999986,16827.800000000047]","[]","[5175.800000000047,8795.699999999953,10860.199999999953,13651.59999999986,16827.800000000047,18179.699999999953]","0.4","0.5","0","","","","","","","","","","","","","","","","","","","","","","",""
"29773.5","","{""Q01"":""5"",""Q02"":""2"",""Q03"":""5"",""Q04"":""5"",""Q05"":""5"",""Q06"":""5""}","survey-template","6","129209","0.0-5.0","5","4","5","3","1","5","2","5","5","5","5","0","0","1","1","-1","1","2","1","5","4","5","5","5","4","4","4","4","4","5","6","8","7","4","5","6","8","7","5","5","3","7","5","3","5","2","6","6","1","3","3","6","3","6","5","5","3","6","3","3","6","5","3","5","7","6","5","5","5","5","7","7","6","3","7","5","6","3","7","652595581352411136","王","446","Male","[""好他"",""坏我"",""好我"",""坏他""]","[""强他"",""弱我"",""强我"",""弱他""]","","","","","","","","{""Q01"":""5"",""Q02"":""2"",""Q03"":""5"",""Q04"":""5"",""Q05"":""5"",""Q06"":""5""}","[0,1,2,3,4,5]","[""Q01"",""Q02"",""Q02"",""Q03"",""Q04"",""Q05"",""Q06""]","[3565.100000000093,9005.100000000093,12005,14948.90000000014,19597,23460.90000000014,27068.90000000014]","[]","[3565.100000000093,8333,9005.100000000093,12005,13869,14948.90000000014,19597,23460.90000000014,25830.40000000014,26380.800000000047,27068.90000000014,29773]","0.5","0.8","0","","","","","","","","","","","","","","","","","","","","","","",""
"57586.09999999986","","{""Q01"":""0"",""Q02"":""0"",""Q03"":""1"",""Q04"":""1"",""Q05"":""-1"",""Q06"":""1"",""Q07"":""2"",""Q08"":""1""}","survey-template","7","186797","0.0-6.0","5","4","5","3","1","5","2","5","5","5","5","0","0","1","1","-1","1","2","1","5","4","5","5","5","4","4","4","4","4","5","6","8","7","4","5","6","8","7","5","5","3","7","5","3","5","2","6","6","1","3","3","6","3","6","5","5","3","6","3","3","6","5","3","5","7","6","5","5","5","5","7","7","6","3","7","5","6","3","7","652595581352411136","王","446","Male","[""好他"",""坏我"",""好我"",""坏他""]","[""强他"",""弱我"",""强我"",""弱他""]","","","","","","","","{""Q01"":""0"",""Q02"":""0"",""Q03"":""1"",""Q04"":""1"",""Q05"":""-1"",""Q06"":""1"",""Q07"":""2"",""Q08"":""1""}","[0,1,2,3,4,5,6,7]","[""Q01"",""Q01"",""Q02"",""Q02"",""Q03"",""Q04"",""Q03"",""Q03"",""Q05"",""Q06"",""Q07"",""Q08""]","[3205.899999999907,7189.699999999953,11933.59999999986,14702.899999999907,19565.5,23845.5,32613.59999999986,38089.59999999986,43021.5,46321.69999999995,51625.5,53641.5]","[]","[3205.899999999907,7189.699999999953,11933.59999999986,14702.899999999907,19565.5,23845.5,32613.59999999986,38089.59999999986,42089.5,43021.5,45737.39999999991,46321.69999999995,51129.5,51625.5,53641.5,57585.299999999814]","0.5","0.42857142857142855","0","","","","","","","","","","","","","","","","","","","","","","",""
"16950","
    <p><div style='color:white;font-size:35px; line-height:20px;'>词汇评估任务</div></p><br>
    <p><div style='color:white;font-size:25px; line-height:20px;'>请再次回忆该亲密的朋友，你们至少2年前就认识了，并且最近2年经常见面。</div></p>
    <p><div style='color:white;font-size:25px; line-height:20px;'>在本实验中，您将会看到一些形容词。</div></p>
    <p><div style='color:yellow;font-size:25px; line-height:20px;'>您的任务是判断这些形容词是否符合对您自己或您的朋友的描述。</div></p><p style='font-size:35px'>符合按<span style=""color:lightgreen""> f 键</span>，不符合按<span style=""color:red""> j 键</span></p>","0","html-button-response","8","203748","0.0-7.0-0.0","5","4","5","3","1","5","2","5","5","5","5","0","0","1","1","-1","1","2","1","5","4","5","5","5","4","4","4","4","4","5","6","8","7","4","5","6","8","7","5","5","3","7","5","3","5","2","6","6","1","3","3","6","3","6","5","5","3","6","3","3","6","5","3","5","7","6","5","5","5","5","7","7","6","3","7","5","6","3","7","652595581352411136","王","446","Male","[""好他"",""坏我"",""好我"",""坏他""]","[""强他"",""弱我"",""强我"",""弱他""]","","","","","","","","","","","","","","","","","SRET_EW","EW_instructions","Thu Jan 18 2024 23:14:28 GMT+0800 (中国标准时间)","","","","","","","","","","","","","","","","","","","",""
"1827","","f","psychophysics","9","206586","0.0-7.0-1.0-0.0","5","4","5","3","1","5","2","5","5","5","5","0","0","1","1","-1","1","2","1","5","4","5","5","5","4","4","4","4","4","5","6","8","7","4","5","6","8","7","5","5","3","7","5","3","5","2","6","6","1","3","3","6","3","6","5","5","3","6","3","3","6","5","3","5","7","6","5","5","5","5","7","7","6","3","7","5","6","3","7","652595581352411136","王","446","Male","[""好他"",""坏我"",""好我"",""坏他""]","[""强他"",""弱我"",""强我"",""弱他""]","","","","","","","","yes","","","","","","","","","SRET_EW","EW_practice","","key","f","8.35693215339233","640","396","自己","严谨","Positive","ability","","","","","","","","","","",""
"1602","","j","psychophysics","10","209190","0.0-7.0-1.0-0.1","5","4","5","3","1","5","2","5","5","5","5","0","0","1","1","-1","1","2","1","5","4","5","5","5","4","4","4","4","4","5","6","8","7","4","5","6","8","7","5","5","3","7","5","3","5","2","6","6","1","3","3","6","3","6","5","5","3","6","3","3","6","5","3","5","7","6","5","5","5","5","7","7","6","3","7","5","6","3","7","652595581352411136","王","446","Male","[""好他"",""坏我"",""好我"",""坏他""]","[""强他"",""弱我"",""强我"",""弱他""]","","","","","","","","no","","","","","","","","","SRET_EW","EW_practice","","key","j","8.334294871794928","640","396","朋友","徇私","Negative","morality","","","","","","","","","","",""
"1117","","j","psychophysics","11","211313","0.0-7.0-1.0-0.2","5","4","5","3","1","5","2","5","5","5","5","0","0","1","1","-1","1","2","1","5","4","5","5","5","4","4","4","4","4","5","6","8","7","4","5","6","8","7","5","5","3","7","5","3","5","2","6","6","1","3","3","6","3","6","5","5","3","6","3","3","6","5","3","5","7","6","5","5","5","5","7","7","6","3","7","5","6","3","7","652595581352411136","王","446","Male","[""好他"",""坏我"",""好我"",""坏他""]","[""强他"",""弱我"",""强我"",""弱他""]","","","","","","","","no","","","","","","","","","SRET_EW","EW_practice","","key","j","8.332806324110718","640","396","自己","刻板","Negative","ability","","","","","","","","","","",""
"1235","","f","psychophysics","12","213551","0.0-7.0-1.0-0.3","5","4","5","3","1","5","2","5","5","5","5","0","0","1","1","-1","1","2","1","5","4","5","5","5","4","4","4","4","4","5","6","8","7","4","5","6","8","7","5","5","3","7","5","3","5","2","6","6","1","3","3","6","3","6","5","5","3","6","3","3","6","5","3","5","7","6","5","5","5","5","7","7","6","3","7","5","6","3","7","652595581352411136","王","446","Male","[""好他"",""坏我"",""好我"",""坏他""]","[""强他"",""弱我"",""强我"",""弱他""]","","","","","","","","yes","","","","","","","","","SRET_EW","EW_practice","","key","f","8.365168539325843","640","396","朋友","忠实","Positive","morality","","","","","","","","","","",""
"10229","
    <p><div style='color:white;font-size:35px; line-height:20px;'>请您再次阅读实验要求</div></p><br>
    <p><div style='color:white;font-size:25px; line-height:20px;'>请回忆某一个亲密的朋友，你们至少2年前就认识了，并且最近2年经常见面。</div></p>
    <p><div style='color:white;font-size:25px; line-height:20px;'>在本实验中，您将会看到一些形容词。</div></p>
    <p><div style='color:yellow;font-size:25px; line-height:20px;'>您的任务是判断这些形容词是否符合对您自己或您的朋友的描述。</div></p>
    <p><div class='footer' style='font-size:25px; line-height:20px;'>如果对本实验还有不清楚之处，请立即向实验员咨询。</p><p style='font-size:25px; line-height:20px;'>如果您明白了规则：</p><p style='font-size:22px; line-height:20px;'>请按 继续 进入正式实验</p>
    </div>
    <p style='font-size:35px'>符合按<span style=""color:lightgreen""> f 键</span>，不符合按<span style=""color:red""> j 键</span></p>","0","html-button-response","13","223780","0.0-7.0-2.0","5","4","5","3","1","5","2","5","5","5","5","0","0","1","1","-1","1","2","1","5","4","5","5","5","4","4","4","4","4","5","6","8","7","4","5","6","8","7","5","5","3","7","5","3","5","2","6","6","1","3","3","6","3","6","5","5","3","6","3","3","6","5","3","5","7","6","5","5","5","5","7","7","6","3","7","5","6","3","7","652595581352411136","王","446","Male","[""好他"",""坏我"",""好我"",""坏他""]","[""强他"",""弱我"",""强我"",""弱他""]","","","","","","","","","","","","","","","","","SRET_EW","prac_instructions","Thu Jan 18 2024 23:14:28 GMT+0800 (中国标准时间)","","","","","","","","","","","","","","","","","","","",""
"965","","f","psychophysics","14","225753","0.0-7.0-3.0-0.0","5","4","5","3","1","5","2","5","5","5","5","0","0","1","1","-1","1","2","1","5","4","5","5","5","4","4","4","4","4","5","6","8","7","4","5","6","8","7","5","5","3","7","5","3","5","2","6","6","1","3","3","6","3","6","5","5","3","6","3","3","6","5","3","5","7","6","5","5","5","5","7","7","6","3","7","5","6","3","7","652595581352411136","王","446","Male","[""好他"",""坏我"",""好我"",""坏他""]","[""强他"",""弱我"",""强我"",""弱他""]","","","","","","","","yes","","","","","","","","","SRET","EW_formal","","key","f","8.332765957446858","640","396","自己","坚贞","Positive","morality","","","","","","","","","","",""
"1064","","j","psychophysics","15","227836","0.0-7.0-3.0-0.1","5","4","5","3","1","5","2","5","5","5","5","0","0","1","1","-1","1","2","1","5","4","5","5","5","4","4","4","4","4","5","6","8","7","4","5","6","8","7","5","5","3","7","5","3","5","2","6","6","1","3","3","6","3","6","5","5","3","6","3","3","6","5","3","5","7","6","5","5","5","5","7","7","6","3","7","5","6","3","7","652595581352411136","王","446","Male","[""好他"",""坏我"",""好我"",""坏他""]","[""强他"",""弱我"",""强我"",""弱他""]","","","","","","","","no","","","","","","","","","SRET","EW_formal","","key","j","8.334939759036239","640","396","朋友","迷糊","Negative","ability","","","","","","","","","","",""
"1145","","f","psychophysics","16","229982","0.0-7.0-3.0-0.2","5","4","5","3","1","5","2","5","5","5","5","0","0","1","1","-1","1","2","1","5","4","5","5","5","4","4","4","4","4","5","6","8","7","4","5","6","8","7","5","5","3","7","5","3","5","2","6","6","1","3","3","6","3","6","5","5","3","6","3","3","6","5","3","5","7","6","5","5","5","5","7","7","6","3","7","5","6","3","7","652595581352411136","王","446","Male","[""好他"",""坏我"",""好我"",""坏他""]","[""强他"",""弱我"",""强我"",""弱他""]","","","","","","","","yes","","","","","","","","","SRET","EW_formal","","key","f","8.333852140077775","640","396","朋友","务实","Positive","ability","","","","","","","","","","",""
"962","","j","psychophysics","17","231954","0.0-7.0-3.0-0.3","5","4","5","3","1","5","2","5","5","5","5","0","0","1","1","-1","1","2","1","5","4","5","5","5","4","4","4","4","4","5","6","8","7","4","5","6","8","7","5","5","3","7","5","3","5","2","6","6","1","3","3","6","3","6","5","5","3","6","3","3","6","5","3","5","7","6","5","5","5","5","7","7","6","3","7","5","6","3","7","652595581352411136","王","446","Male","[""好他"",""坏我"",""好我"",""坏他""]","[""强他"",""弱我"",""强我"",""弱他""]","","","","","","","","no","","","","","","","","","SRET","EW_formal","","key","j","8.334893617021203","640","396","自己","说谎","Negative","morality","","","","","","","","","","",""
"1482","","f","psychophysics","18","234462","0.0-7.0-3.0-0.4","5","4","5","3","1","5","2","5","5","5","5","0","0","1","1","-1","1","2","1","5","4","5","5","5","4","4","4","4","4","5","6","8","7","4","5","6","8","7","5","5","3","7","5","3","5","2","6","6","1","3","3","6","3","6","5","5","3","6","3","3","6","5","3","5","7","6","5","5","5","5","7","7","6","3","7","5","6","3","7","652595581352411136","王","446","Male","[""好他"",""坏我"",""好我"",""坏他""]","[""强他"",""弱我"",""强我"",""弱他""]","","","","","","","","yes","","","","","","","","","SRET","EW_formal","","key","f","8.333666666666685","640","396","朋友","全才","Positive","ability","","","","","","","","","","",""
"891","","f","psychophysics","19","236354","0.0-7.0-3.0-0.5","5","4","5","3","1","5","2","5","5","5","5","0","0","1","1","-1","1","2","1","5","4","5","5","5","4","4","4","4","4","5","6","8","7","4","5","6","8","7","5","5","3","7","5","3","5","2","6","6","1","3","3","6","3","6","5","5","3","6","3","3","6","5","3","5","7","6","5","5","5","5","7","7","6","3","7","5","6","3","7","652595581352411136","王","446","Male","[""好他"",""坏我"",""好我"",""坏他""]","[""强他"",""弱我"",""强我"",""弱他""]","","","","","","","","yes","","","","","","","","","SRET","EW_formal","","key","f","8.33451327433631","640","396","朋友","诚信","Positive","morality","","","","","","","","","","",""
"889","","f","psychophysics","20","238244","0.0-7.0-3.0-0.6","5","4","5","3","1","5","2","5","5","5","5","0","0","1","1","-1","1","2","1","5","4","5","5","5","4","4","4","4","4","5","6","8","7","4","5","6","8","7","5","5","3","7","5","3","5","2","6","6","1","3","3","6","3","6","5","5","3","6","3","3","6","5","3","5","7","6","5","5","5","5","7","7","6","3","7","5","6","3","7","652595581352411136","王","446","Male","[""好他"",""坏我"",""好我"",""坏他""]","[""强他"",""弱我"",""强我"",""弱他""]","","","","","","","","yes","","","","","","","","","SRET","EW_formal","","key","f","8.334955752212313","640","396","自己","刚正","Positive","morality","","","","","","","","","","",""
"1045","","f","psychophysics","21","240291","0.0-7.0-3.0-0.7","5","4","5","3","1","5","2","5","5","5","5","0","0","1","1","-1","1","2","1","5","4","5","5","5","4","4","4","4","4","5","6","8","7","4","5","6","8","7","5","5","3","7","5","3","5","2","6","6","1","3","3","6","3","6","5","5","3","6","3","3","6","5","3","5","7","6","5","5","5","5","7","7","6","3","7","5","6","3","7","652595581352411136","王","446","Male","[""好他"",""坏我"",""好我"",""坏他""]","[""强他"",""弱我"",""强我"",""弱他""]","","","","","","","","yes","","","","","","","","","SRET","EW_formal","","key","f","8.333877551020361","640","396","朋友","智慧","Positive","ability","","","","","","","","","","",""
"1052","","f","psychophysics","22","242348","0.0-7.0-3.0-0.8","5","4","5","3","1","5","2","5","5","5","5","0","0","1","1","-1","1","2","1","5","4","5","5","5","4","4","4","4","4","5","6","8","7","4","5","6","8","7","5","5","3","7","5","3","5","2","6","6","1","3","3","6","3","6","5","5","3","6","3","3","6","5","3","5","7","6","5","5","5","5","7","7","6","3","7","5","6","3","7","652595581352411136","王","446","Male","[""好他"",""坏我"",""好我"",""坏他""]","[""强他"",""弱我"",""强我"",""弱他""]","","","","","","","","yes","","","","","","","","","SRET","EW_formal","","key","f","8.334146341463462","640","396","朋友","宽容","Positive","morality","","","","","","","","","","",""
"926","","f","psychophysics","23","244281","0.0-7.0-3.0-0.9","5","4","5","3","1","5","2","5","5","5","5","0","0","1","1","-1","1","2","1","5","4","5","5","5","4","4","4","4","4","5","6","8","7","4","5","6","8","7","5","5","3","7","5","3","5","2","6","6","1","3","3","6","3","6","5","5","3","6","3","3","6","5","3","5","7","6","5","5","5","5","7","7","6","3","7","5","6","3","7","652595581352411136","王","446","Male","[""好他"",""坏我"",""好我"",""坏他""]","[""强他"",""弱我"",""强我"",""弱他""]","","","","","","","","yes","","","","","","","","","SRET","EW_formal","","key","f","8.334632034631984","640","396","朋友","肯干","Positive","ability","","","","","","","","","","",""
"778","","j","psychophysics","24","246065","0.0-7.0-3.0-0.10","5","4","5","3","1","5","2","5","5","5","5","0","0","1","1","-1","1","2","1","5","4","5","5","5","4","4","4","4","4","5","6","8","7","4","5","6","8","7","5","5","3","7","5","3","5","2","6","6","1","3","3","6","3","6","5","5","3","6","3","3","6","5","3","5","7","6","5","5","5","5","7","7","6","3","7","5","6","3","7","652595581352411136","王","446","Male","[""好他"",""坏我"",""好我"",""坏他""]","[""强他"",""弱我"",""强我"",""弱他""]","","","","","","","","no","","","","","","","","","SRET","EW_formal","","key","j","8.334272300469538","640","396","自己","奸诈","Negative","morality","","","","","","","","","","",""
"821","","f","psychophysics","25","247892","0.0-7.0-3.0-0.11","5","4","5","3","1","5","2","5","5","5","5","0","0","1","1","-1","1","2","1","5","4","5","5","5","4","4","4","4","4","5","6","8","7","4","5","6","8","7","5","5","3","7","5","3","5","2","6","6","1","3","3","6","3","6","5","5","3","6","3","3","6","5","3","5","7","6","5","5","5","5","7","7","6","3","7","5","6","3","7","652595581352411136","王","446","Male","[""好他"",""坏我"",""好我"",""坏他""]","[""强他"",""弱我"",""强我"",""弱他""]","","","","","","","","yes","","","","","","","","","SRET","EW_formal","","key","f","8.334403669724743","640","396","自己","爱国","Positive","morality","","","","","","","","","","",""
"1255","","j","psychophysics","26","250151","0.0-7.0-3.0-0.12","5","4","5","3","1","5","2","5","5","5","5","0","0","1","1","-1","1","2","1","5","4","5","5","5","4","4","4","4","4","5","6","8","7","4","5","6","8","7","5","5","3","7","5","3","5","2","6","6","1","3","3","6","3","6","5","5","3","6","3","3","6","5","3","5","7","6","5","5","5","5","7","7","6","3","7","5","6","3","7","652595581352411136","王","446","Male","[""好他"",""坏我"",""好我"",""坏他""]","[""强他"",""弱我"",""强我"",""弱他""]","","","","","","","","no","","","","","","","","","SRET","EW_formal","","key","j","8.33444444444451","640","396","自己","无为","Negative","ability","","","","","","","","","","",""
"815","","j","psychophysics","27","251972","0.0-7.0-3.0-0.13","5","4","5","3","1","5","2","5","5","5","5","0","0","1","1","-1","1","2","1","5","4","5","5","5","4","4","4","4","4","5","6","8","7","4","5","6","8","7","5","5","3","7","5","3","5","2","6","6","1","3","3","6","3","6","5","5","3","6","3","3","6","5","3","5","7","6","5","5","5","5","7","7","6","3","7","5","6","3","7","652595581352411136","王","446","Male","[""好他"",""坏我"",""好我"",""坏他""]","[""强他"",""弱我"",""强我"",""弱他""]","","","","","","","","no","","","","","","","","","SRET","EW_formal","","key","j","8.333944954128388","640","396","自己","伪善","Negative","morality","","","","","","","","","","",""
"888","","f","psychophysics","28","253868","0.0-7.0-3.0-0.14","5","4","5","3","1","5","2","5","5","5","5","0","0","1","1","-1","1","2","1","5","4","5","5","5","4","4","4","4","4","5","6","8","7","4","5","6","8","7","5","5","3","7","5","3","5","2","6","6","1","3","3","6","3","6","5","5","3","6","3","3","6","5","3","5","7","6","5","5","5","5","7","7","6","3","7","5","6","3","7","652595581352411136","王","446","Male","[""好他"",""坏我"",""好我"",""坏他""]","[""强他"",""弱我"",""强我"",""弱他""]","","","","","","","","yes","","","","","","","","","SRET","EW_formal","","key","f","8.333628318584173","640","396","朋友","娴熟","Positive","ability","","","","","","","","","","",""
"932","","f","psychophysics","29","255804","0.0-7.0-3.0-0.15","5","4","5","3","1","5","2","5","5","5","5","0","0","1","1","-1","1","2","1","5","4","5","5","5","4","4","4","4","4","5","6","8","7","4","5","6","8","7","5","5","3","7","5","3","5","2","6","6","1","3","3","6","3","6","5","5","3","6","3","3","6","5","3","5","7","6","5","5","5","5","7","7","6","3","7","5","6","3","7","652595581352411136","王","446","Male","[""好他"",""坏我"",""好我"",""坏他""]","[""强他"",""弱我"",""强我"",""弱他""]","","","","","","","","yes","","","","","","","","","SRET","EW_formal","","key","f","8.334199134199185","640","396","自己","善心","Positive","morality","","","","","","","","","","",""
"1051","","f","psychophysics","30","257856","0.0-7.0-3.0-0.16","5","4","5","3","1","5","2","5","5","5","5","0","0","1","1","-1","1","2","1","5","4","5","5","5","4","4","4","4","4","5","6","8","7","4","5","6","8","7","5","5","3","7","5","3","5","2","6","6","1","3","3","6","3","6","5","5","3","6","3","3","6","5","3","5","7","6","5","5","5","5","7","7","6","3","7","5","6","3","7","652595581352411136","王","446","Male","[""好他"",""坏我"",""好我"",""坏他""]","[""强他"",""弱我"",""强我"",""弱他""]","","","","","","","","yes","","","","","","","","","SRET","EW_formal","","key","f","8.334552845528409","640","396","朋友","刻苦","Positive","ability","","","","","","","","","","",""
"663","","f","psychophysics","31","259525","0.0-7.0-3.0-0.17","5","4","5","3","1","5","2","5","5","5","5","0","0","1","1","-1","1","2","1","5","4","5","5","5","4","4","4","4","4","5","6","8","7","4","5","6","8","7","5","5","3","7","5","3","5","2","6","6","1","3","3","6","3","6","5","5","3","6","3","3","6","5","3","5","7","6","5","5","5","5","7","7","6","3","7","5","6","3","7","652595581352411136","王","446","Male","[""好他"",""坏我"",""好我"",""坏他""]","[""强他"",""弱我"",""强我"",""弱他""]","","","","","","","","yes","","","","","","","","","SRET","EW_formal","","key","f","8.333668341708513","640","396","朋友","守法","Positive","morality","","","","","","","","","","",""
"549","","f","psychophysics","32","261079","0.0-7.0-3.0-0.18","5","4","5","3","1","5","2","5","5","5","5","0","0","1","1","-1","1","2","1","5","4","5","5","5","4","4","4","4","4","5","6","8","7","4","5","6","8","7","5","5","3","7","5","3","5","2","6","6","1","3","3","6","3","6","5","5","3","6","3","3","6","5","3","5","7","6","5","5","5","5","7","7","6","3","7","5","6","3","7","652595581352411136","王","446","Male","[""好他"",""坏我"",""好我"",""坏他""]","[""强他"",""弱我"",""强我"",""弱他""]","","","","","","","","yes","","","","","","","","","SRET","EW_formal","","key","f","8.332972972972847","640","396","朋友","好心","Positive","morality","","","","","","","","","","",""
"821","","j","psychophysics","33","262900","0.0-7.0-3.0-0.19","5","4","5","3","1","5","2","5","5","5","5","0","0","1","1","-1","1","2","1","5","4","5","5","5","4","4","4","4","4","5","6","8","7","4","5","6","8","7","5","5","3","7","5","3","5","2","6","6","1","3","3","6","3","6","5","5","3","6","3","3","6","5","3","5","7","6","5","5","5","5","7","7","6","3","7","5","6","3","7","652595581352411136","王","446","Male","[""好他"",""坏我"",""好我"",""坏他""]","[""强他"",""弱我"",""强我"",""弱他""]","","","","","","","","no","","","","","","","","","SRET","EW_formal","","key","j","8.333944954128388","640","396","自己","愚钝","Negative","ability","","","","","","","","","","",""
"1440","","f","psychophysics","34","265345","0.0-7.0-3.0-0.20","5","4","5","3","1","5","2","5","5","5","5","0","0","1","1","-1","1","2","1","5","4","5","5","5","4","4","4","4","4","5","6","8","7","4","5","6","8","7","5","5","3","7","5","3","5","2","6","6","1","3","3","6","3","6","5","5","3","6","3","3","6","5","3","5","7","6","5","5","5","5","7","7","6","3","7","5","6","3","7","652595581352411136","王","446","Male","[""好他"",""坏我"",""好我"",""坏他""]","[""强他"",""弱我"",""强我"",""弱他""]","","","","","","","","yes","","","","","","","","","SRET","EW_formal","","key","f","8.335273972602819","640","396","朋友","利己","Negative","morality","","","","","","","","","","",""
"1353","","j","psychophysics","35","267699","0.0-7.0-3.0-0.21","5","4","5","3","1","5","2","5","5","5","5","0","0","1","1","-1","1","2","1","5","4","5","5","5","4","4","4","4","4","5","6","8","7","4","5","6","8","7","5","5","3","7","5","3","5","2","6","6","1","3","3","6","3","6","5","5","3","6","3","3","6","5","3","5","7","6","5","5","5","5","7","7","6","3","7","5","6","3","7","652595581352411136","王","446","Male","[""好他"",""坏我"",""好我"",""坏他""]","[""强他"",""弱我"",""强我"",""弱他""]","","","","","","","","no","","","","","","","","","SRET","EW_formal","","key","j","8.333687943262536","640","396","自己","恶劣","Negative","morality","","","","","","","","","","",""
"1486","","f","psychophysics","36","270194","0.0-7.0-3.0-0.22","5","4","5","3","1","5","2","5","5","5","5","0","0","1","1","-1","1","2","1","5","4","5","5","5","4","4","4","4","4","5","6","8","7","4","5","6","8","7","5","5","3","7","5","3","5","2","6","6","1","3","3","6","3","6","5","5","3","6","3","3","6","5","3","5","7","6","5","5","5","5","7","7","6","3","7","5","6","3","7","652595581352411136","王","446","Male","[""好他"",""坏我"",""好我"",""坏他""]","[""强他"",""弱我"",""强我"",""弱他""]","","","","","","","","yes","","","","","","","","","SRET","EW_formal","","key","f","8.3345637583893","640","396","自己","慈悲","Positive","morality","","","","","","","","","","",""
"895","","f","psychophysics","37","272090","0.0-7.0-3.0-0.23","5","4","5","3","1","5","2","5","5","5","5","0","0","1","1","-1","1","2","1","5","4","5","5","5","4","4","4","4","4","5","6","8","7","4","5","6","8","7","5","5","3","7","5","3","5","2","6","6","1","3","3","6","3","6","5","5","3","6","3","3","6","5","3","5","7","6","5","5","5","5","7","7","6","3","7","5","6","3","7","652595581352411136","王","446","Male","[""好他"",""坏我"",""好我"",""坏他""]","[""强他"",""弱我"",""强我"",""弱他""]","","","","","","","","yes","","","","","","","","","SRET","EW_formal","","key","f","8.334361233480022","640","396","自己","忠诚","Positive","morality","","","","","","","","","","",""
"1676","","f","psychophysics","38","274772","0.0-7.0-3.0-0.24","5","4","5","3","1","5","2","5","5","5","5","0","0","1","1","-1","1","2","1","5","4","5","5","5","4","4","4","4","4","5","6","8","7","4","5","6","8","7","5","5","3","7","5","3","5","2","6","6","1","3","3","6","3","6","5","5","3","6","3","3","6","5","3","5","7","6","5","5","5","5","7","7","6","3","7","5","6","3","7","652595581352411136","王","446","Male","[""好他"",""坏我"",""好我"",""坏他""]","[""强他"",""弱我"",""强我"",""弱他""]","","","","","","","","yes","","","","","","","","","SRET","EW_formal","","key","f","8.33395638629287","640","396","自己","博学","Positive","ability","","","","","","","","","","",""
"955","","j","psychophysics","39","276743","0.0-7.0-3.0-0.25","5","4","5","3","1","5","2","5","5","5","5","0","0","1","1","-1","1","2","1","5","4","5","5","5","4","4","4","4","4","5","6","8","7","4","5","6","8","7","5","5","3","7","5","3","5","2","6","6","1","3","3","6","3","6","5","5","3","6","3","3","6","5","3","5","7","6","5","5","5","5","7","7","6","3","7","5","6","3","7","652595581352411136","王","446","Male","[""好他"",""坏我"",""好我"",""坏他""]","[""强他"",""弱我"",""强我"",""弱他""]","","","","","","","","no","","","","","","","","","SRET","EW_formal","","key","j","8.33404255319149","640","396","朋友","卑鄙","Negative","morality","","","","","","","","","","",""
"693","","f","psychophysics","40","278439","0.0-7.0-3.0-0.26","5","4","5","3","1","5","2","5","5","5","5","0","0","1","1","-1","1","2","1","5","4","5","5","5","4","4","4","4","4","5","6","8","7","4","5","6","8","7","5","5","3","7","5","3","5","2","6","6","1","3","3","6","3","6","5","5","3","6","3","3","6","5","3","5","7","6","5","5","5","5","7","7","6","3","7","5","6","3","7","652595581352411136","王","446","Male","[""好他"",""坏我"",""好我"",""坏他""]","[""强他"",""弱我"",""强我"",""弱他""]","","","","","","","","yes","","","","","","","","","SRET","EW_formal","","key","f","8.33349753694587","640","396","朋友","仁爱","Positive","morality","","","","","","","","","","",""
"1049","","j","psychophysics","41","280495","0.0-7.0-3.0-0.27","5","4","5","3","1","5","2","5","5","5","5","0","0","1","1","-1","1","2","1","5","4","5","5","5","4","4","4","4","4","5","6","8","7","4","5","6","8","7","5","5","3","7","5","3","5","2","6","6","1","3","3","6","3","6","5","5","3","6","3","3","6","5","3","5","7","6","5","5","5","5","7","7","6","3","7","5","6","3","7","652595581352411136","王","446","Male","[""好他"",""坏我"",""好我"",""坏他""]","[""强他"",""弱我"",""强我"",""弱他""]","","","","","","","","no","","","","","","","","","SRET","EW_formal","","key","j","8.33346938775515","640","396","朋友","无知","Negative","ability","","","","","","","","","","",""
"554","","f","psychophysics","42","282051","0.0-7.0-3.0-0.28","5","4","5","3","1","5","2","5","5","5","5","0","0","1","1","-1","1","2","1","5","4","5","5","5","4","4","4","4","4","5","6","8","7","4","5","6","8","7","5","5","3","7","5","3","5","2","6","6","1","3","3","6","3","6","5","5","3","6","3","3","6","5","3","5","7","6","5","5","5","5","7","7","6","3","7","5","6","3","7","652595581352411136","王","446","Male","[""好他"",""坏我"",""好我"",""坏他""]","[""强他"",""弱我"",""强我"",""弱他""]","","","","","","","","yes","","","","","","","","","SRET","EW_formal","","key","f","8.335483870967554","640","396","朋友","忠良","Positive","morality","","","","","","","","","","",""
"545","","j","psychophysics","43","283600","0.0-7.0-3.0-0.29","5","4","5","3","1","5","2","5","5","5","5","0","0","1","1","-1","1","2","1","5","4","5","5","5","4","4","4","4","4","5","6","8","7","4","5","6","8","7","5","5","3","7","5","3","5","2","6","6","1","3","3","6","3","6","5","5","3","6","3","3","6","5","3","5","7","6","5","5","5","5","7","7","6","3","7","5","6","3","7","652595581352411136","王","446","Male","[""好他"",""坏我"",""好我"",""坏他""]","[""强他"",""弱我"",""强我"",""弱他""]","","","","","","","","no","","","","","","","","","SRET","EW_formal","","key","j","8.334594594594721","640","396","自己","淡泊","Positive","morality","","","","","","","","","","",""
"1335","","f","psychophysics","44","285939","0.0-7.0-3.0-0.30","5","4","5","3","1","5","2","5","5","5","5","0","0","1","1","-1","1","2","1","5","4","5","5","5","4","4","4","4","4","5","6","8","7","4","5","6","8","7","5","5","3","7","5","3","5","2","6","6","1","3","3","6","3","6","5","5","3","6","3","3","6","5","3","5","7","6","5","5","5","5","7","7","6","3","7","5","6","3","7","652595581352411136","王","446","Male","[""好他"",""坏我"",""好我"",""坏他""]","[""强他"",""弱我"",""强我"",""弱他""]","","","","","","","","yes","","","","","","","","","SRET","EW_formal","","key","f","8.3346428571429","640","396","自己","懂行","Positive","ability","","","","","","","","","","",""
"769","","f","psychophysics","45","287715","0.0-7.0-3.0-0.31","5","4","5","3","1","5","2","5","5","5","5","0","0","1","1","-1","1","2","1","5","4","5","5","5","4","4","4","4","4","5","6","8","7","4","5","6","8","7","5","5","3","7","5","3","5","2","6","6","1","3","3","6","3","6","5","5","3","6","3","3","6","5","3","5","7","6","5","5","5","5","7","7","6","3","7","5","6","3","7","652595581352411136","王","446","Male","[""好他"",""坏我"",""好我"",""坏他""]","[""强他"",""弱我"",""强我"",""弱他""]","","","","","","","","yes","","","","","","","","","SRET","EW_formal","","key","f","8.334905660377359","640","396","自己","扎实","Positive","ability","","","","","","","","","","",""
"572","","f","psychophysics","46","289294","0.0-7.0-3.0-0.32","5","4","5","3","1","5","2","5","5","5","5","0","0","1","1","-1","1","2","1","5","4","5","5","5","4","4","4","4","4","5","6","8","7","4","5","6","8","7","5","5","3","7","5","3","5","2","6","6","1","3","3","6","3","6","5","5","3","6","3","3","6","5","3","5","7","6","5","5","5","5","7","7","6","3","7","5","6","3","7","652595581352411136","王","446","Male","[""好他"",""坏我"",""好我"",""坏他""]","[""强他"",""弱我"",""强我"",""弱他""]","","","","","","","","yes","","","","","","","","","SRET","EW_formal","","key","f","8.335106382978724","640","396","朋友","敏捷","Positive","ability","","","","","","","","","","",""
"815","","j","psychophysics","47","291111","0.0-7.0-3.0-0.33","5","4","5","3","1","5","2","5","5","5","5","0","0","1","1","-1","1","2","1","5","4","5","5","5","4","4","4","4","4","5","6","8","7","4","5","6","8","7","5","5","3","7","5","3","5","2","6","6","1","3","3","6","3","6","5","5","3","6","3","3","6","5","3","5","7","6","5","5","5","5","7","7","6","3","7","5","6","3","7","652595581352411136","王","446","Male","[""好他"",""坏我"",""好我"",""坏他""]","[""强他"",""弱我"",""强我"",""弱他""]","","","","","","","","no","","","","","","","","","SRET","EW_formal","","key","j","8.37407407407402","640","396","自己","不仁","Negative","morality","","","","","","","","","","",""
"961","","f","psychophysics","48","293073","0.0-7.0-3.0-0.34","5","4","5","3","1","5","2","5","5","5","5","0","0","1","1","-1","1","2","1","5","4","5","5","5","4","4","4","4","4","5","6","8","7","4","5","6","8","7","5","5","3","7","5","3","5","2","6","6","1","3","3","6","3","6","5","5","3","6","3","3","6","5","3","5","7","6","5","5","5","5","7","7","6","3","7","5","6","3","7","652595581352411136","王","446","Male","[""好他"",""坏我"",""好我"",""坏他""]","[""强他"",""弱我"",""强我"",""弱他""]","","","","","","","","yes","","","","","","","","","SRET","EW_formal","","key","f","8.37008547008562","640","396","朋友","有力","Positive","ability","","","","","","","","","","",""
"881","","f","psychophysics","49","294960","0.0-7.0-3.0-0.35","5","4","5","3","1","5","2","5","5","5","5","0","0","1","1","-1","1","2","1","5","4","5","5","5","4","4","4","4","4","5","6","8","7","4","5","6","8","7","5","5","3","7","5","3","5","2","6","6","1","3","3","6","3","6","5","5","3","6","3","3","6","5","3","5","7","6","5","5","5","5","7","7","6","3","7","5","6","3","7","652595581352411136","王","446","Male","[""好他"",""坏我"",""好我"",""坏他""]","[""强他"",""弱我"",""强我"",""弱他""]","","","","","","","","yes","","","","","","","","","SRET","EW_formal","","key","f","8.334666666666616","640","396","自己","依靠","Negative","ability","","","","","","","","","","",""
"849","","f","psychophysics","50","296812","0.0-7.0-3.0-0.36","5","4","5","3","1","5","2","5","5","5","5","0","0","1","1","-1","1","2","1","5","4","5","5","5","4","4","4","4","4","5","6","8","7","4","5","6","8","7","5","5","3","7","5","3","5","2","6","6","1","3","3","6","3","6","5","5","3","6","3","3","6","5","3","5","7","6","5","5","5","5","7","7","6","3","7","5","6","3","7","652595581352411136","王","446","Male","[""好他"",""坏我"",""好我"",""坏他""]","[""强他"",""弱我"",""强我"",""弱他""]","","","","","","","","yes","","","","","","","","","SRET","EW_formal","","key","f","8.335294117647218","640","396","朋友","果决","Positive","ability","","","","","","","","","","",""
"1439","","f","psychophysics","51","299252","0.0-7.0-3.0-0.37","5","4","5","3","1","5","2","5","5","5","5","0","0","1","1","-1","1","2","1","5","4","5","5","5","4","4","4","4","4","5","6","8","7","4","5","6","8","7","5","5","3","7","5","3","5","2","6","6","1","3","3","6","3","6","5","5","3","6","3","3","6","5","3","5","7","6","5","5","5","5","7","7","6","3","7","5","6","3","7","652595581352411136","王","446","Male","[""好他"",""坏我"",""好我"",""坏他""]","[""强他"",""弱我"",""强我"",""弱他""]","","","","","","","","yes","","","","","","","","","SRET","EW_formal","","key","f","8.363230240549868","640","396","朋友","逞强","Negative","ability","","","","","","","","","","",""
"989","","j","psychophysics","52","301244","0.0-7.0-3.0-0.38","5","4","5","3","1","5","2","5","5","5","5","0","0","1","1","-1","1","2","1","5","4","5","5","5","4","4","4","4","4","5","6","8","7","4","5","6","8","7","5","5","3","7","5","3","5","2","6","6","1","3","3","6","3","6","5","5","3","6","3","3","6","5","3","5","7","6","5","5","5","5","7","7","6","3","7","5","6","3","7","652595581352411136","王","446","Male","[""好他"",""坏我"",""好我"",""坏他""]","[""强他"",""弱我"",""强我"",""弱他""]","","","","","","","","no","","","","","","","","","SRET","EW_formal","","key","j","8.370042194092877","640","396","自己","奸险","Negative","morality","","","","","","","","","","",""
"724","","f","psychophysics","53","302970","0.0-7.0-3.0-0.39","5","4","5","3","1","5","2","5","5","5","5","0","0","1","1","-1","1","2","1","5","4","5","5","5","4","4","4","4","4","5","6","8","7","4","5","6","8","7","5","5","3","7","5","3","5","2","6","6","1","3","3","6","3","6","5","5","3","6","3","3","6","5","3","5","7","6","5","5","5","5","7","7","6","3","7","5","6","3","7","652595581352411136","王","446","Male","[""好他"",""坏我"",""好我"",""坏他""]","[""强他"",""弱我"",""强我"",""弱他""]","","","","","","","","yes","","","","","","","","","SRET","EW_formal","","key","f","8.374634146341407","640","396","自己","稳健","Positive","ability","","","","","","","","","","",""
"1460","","j","psychophysics","54","305431","0.0-7.0-3.0-0.40","5","4","5","3","1","5","2","5","5","5","5","0","0","1","1","-1","1","2","1","5","4","5","5","5","4","4","4","4","4","5","6","8","7","4","5","6","8","7","5","5","3","7","5","3","5","2","6","6","1","3","3","6","3","6","5","5","3","6","3","3","6","5","3","5","7","6","5","5","5","5","7","7","6","3","7","5","6","3","7","652595581352411136","王","446","Male","[""好他"",""坏我"",""好我"",""坏他""]","[""强他"",""弱我"",""强我"",""弱他""]","","","","","","","","no","","","","","","","","","SRET","EW_formal","","key","j","8.362244897959183","640","396","自己","外行","Negative","ability","","","","","","","","","","",""
"1032","","f","psychophysics","55","307470","0.0-7.0-3.0-0.41","5","4","5","3","1","5","2","5","5","5","5","0","0","1","1","-1","1","2","1","5","4","5","5","5","4","4","4","4","4","5","6","8","7","4","5","6","8","7","5","5","3","7","5","3","5","2","6","6","1","3","3","6","3","6","5","5","3","6","3","3","6","5","3","5","7","6","5","5","5","5","7","7","6","3","7","5","6","3","7","652595581352411136","王","446","Male","[""好他"",""坏我"",""好我"",""坏他""]","[""强他"",""弱我"",""强我"",""弱他""]","","","","","","","","yes","","","","","","","","","SRET","EW_formal","","key","f","8.367768595041323","640","396","朋友","正气","Positive","morality","","","","","","","","","","",""
"1032","","j","psychophysics","56","309503","0.0-7.0-3.0-0.42","5","4","5","3","1","5","2","5","5","5","5","0","0","1","1","-1","1","2","1","5","4","5","5","5","4","4","4","4","4","5","6","8","7","4","5","6","8","7","5","5","3","7","5","3","5","2","6","6","1","3","3","6","3","6","5","5","3","6","3","3","6","5","3","5","7","6","5","5","5","5","7","7","6","3","7","5","6","3","7","652595581352411136","王","446","Male","[""好他"",""坏我"",""好我"",""坏他""]","[""强他"",""弱我"",""强我"",""弱他""]","","","","","","","","no","","","","","","","","","SRET","EW_formal","","key","j","8.369421487603402","640","396","朋友","势利","Negative","morality","","","","","","","","","","",""
"1485","","j","psychophysics","57","312014","0.0-7.0-3.0-0.43","5","4","5","3","1","5","2","5","5","5","5","0","0","1","1","-1","1","2","1","5","4","5","5","5","4","4","4","4","4","5","6","8","7","4","5","6","8","7","5","5","3","7","5","3","5","2","6","6","1","3","3","6","3","6","5","5","3","6","3","3","6","5","3","5","7","6","5","5","5","5","7","7","6","3","7","5","6","3","7","652595581352411136","王","446","Male","[""好他"",""坏我"",""好我"",""坏他""]","[""强他"",""弱我"",""强我"",""弱他""]","","","","","","","","no","","","","","","","","","SRET","EW_formal","","key","j","8.361666666666666","640","396","自己","业余","Negative","ability","","","","","","","","","","",""
"1149","","f","psychophysics","58","314173","0.0-7.0-3.0-0.44","5","4","5","3","1","5","2","5","5","5","5","0","0","1","1","-1","1","2","1","5","4","5","5","5","4","4","4","4","4","5","6","8","7","4","5","6","8","7","5","5","3","7","5","3","5","2","6","6","1","3","3","6","3","6","5","5","3","6","3","3","6","5","3","5","7","6","5","5","5","5","7","7","6","3","7","5","6","3","7","652595581352411136","王","446","Male","[""好他"",""坏我"",""好我"",""坏他""]","[""强他"",""弱我"",""强我"",""弱他""]","","","","","","","","yes","","","","","","","","","SRET","EW_formal","","key","f","8.33255813953484","640","396","朋友","顶事","Positive","ability","","","","","","","","","","",""
"743","","j","psychophysics","59","315923","0.0-7.0-3.0-0.45","5","4","5","3","1","5","2","5","5","5","5","0","0","1","1","-1","1","2","1","5","4","5","5","5","4","4","4","4","4","5","6","8","7","4","5","6","8","7","5","5","3","7","5","3","5","2","6","6","1","3","3","6","3","6","5","5","3","6","3","3","6","5","3","5","7","6","5","5","5","5","7","7","6","3","7","5","6","3","7","652595581352411136","王","446","Male","[""好他"",""坏我"",""好我"",""坏他""]","[""强他"",""弱我"",""强我"",""弱他""]","","","","","","","","no","","","","","","","","","SRET","EW_formal","","key","j","8.333492822966562","640","396","朋友","龌龊","Negative","morality","","","","","","","","","","",""
"1142","","j","psychophysics","60","318073","0.0-7.0-3.0-0.46","5","4","5","3","1","5","2","5","5","5","5","0","0","1","1","-1","1","2","1","5","4","5","5","5","4","4","4","4","4","5","6","8","7","4","5","6","8","7","5","5","3","7","5","3","5","2","6","6","1","3","3","6","3","6","5","5","3","6","3","3","6","5","3","5","7","6","5","5","5","5","7","7","6","3","7","5","6","3","7","652595581352411136","王","446","Male","[""好他"",""坏我"",""好我"",""坏他""]","[""强他"",""弱我"",""强我"",""弱他""]","","","","","","","","no","","","","","","","","","SRET","EW_formal","","key","j","8.331906614785947","640","396","自己","庸碌","Negative","ability","","","","","","","","","","",""
"1022","","j","psychophysics","61","320101","0.0-7.0-3.0-0.47","5","4","5","3","1","5","2","5","5","5","5","0","0","1","1","-1","1","2","1","5","4","5","5","5","4","4","4","4","4","5","6","8","7","4","5","6","8","7","5","5","3","7","5","3","5","2","6","6","1","3","3","6","3","6","5","5","3","6","3","3","6","5","3","5","7","6","5","5","5","5","7","7","6","3","7","5","6","3","7","652595581352411136","王","446","Male","[""好他"",""坏我"",""好我"",""坏他""]","[""强他"",""弱我"",""强我"",""弱他""]","","","","","","","","no","","","","","","","","","SRET","EW_formal","","key","j","8.368464730290409","640","396","朋友","迂拙","Negative","ability","","","","","","","","","","",""
"884","","j","psychophysics","62","321989","0.0-7.0-3.0-0.48","5","4","5","3","1","5","2","5","5","5","5","0","0","1","1","-1","1","2","1","5","4","5","5","5","4","4","4","4","4","5","6","8","7","4","5","6","8","7","5","5","3","7","5","3","5","2","6","6","1","3","3","6","3","6","5","5","3","6","3","3","6","5","3","5","7","6","5","5","5","5","7","7","6","3","7","5","6","3","7","652595581352411136","王","446","Male","[""好他"",""坏我"",""好我"",""坏他""]","[""强他"",""弱我"",""强我"",""弱他""]","","","","","","","","no","","","","","","","","","SRET","EW_formal","","key","j","8.36888888888889","640","396","朋友","失信","Negative","morality","","","","","","","","","","",""
"990","","j","psychophysics","63","323985","0.0-7.0-3.0-0.49","5","4","5","3","1","5","2","5","5","5","5","0","0","1","1","-1","1","2","1","5","4","5","5","5","4","4","4","4","4","5","6","8","7","4","5","6","8","7","5","5","3","7","5","3","5","2","6","6","1","3","3","6","3","6","5","5","3","6","3","3","6","5","3","5","7","6","5","5","5","5","7","7","6","3","7","5","6","3","7","652595581352411136","王","446","Male","[""好他"",""坏我"",""好我"",""坏他""]","[""强他"",""弱我"",""强我"",""弱他""]","","","","","","","","no","","","","","","","","","SRET","EW_formal","","key","j","8.368354430379698","640","396","朋友","粗心","Negative","ability","","","","","","","","","","",""
"1469","","j","psychophysics","64","326456","0.0-7.0-3.0-0.50","5","4","5","3","1","5","2","5","5","5","5","0","0","1","1","-1","1","2","1","5","4","5","5","5","4","4","4","4","4","5","6","8","7","4","5","6","8","7","5","5","3","7","5","3","5","2","6","6","1","3","3","6","3","6","5","5","3","6","3","3","6","5","3","5","7","6","5","5","5","5","7","7","6","3","7","5","6","3","7","652595581352411136","王","446","Male","[""好他"",""坏我"",""好我"",""坏他""]","[""强他"",""弱我"",""强我"",""弱他""]","","","","","","","","no","","","","","","","","","SRET","EW_formal","","key","j","8.36271186440678","640","396","朋友","独立","Positive","ability","","","","","","","","","","",""
"998","","f","psychophysics","65","328460","0.0-7.0-3.0-0.51","5","4","5","3","1","5","2","5","5","5","5","0","0","1","1","-1","1","2","1","5","4","5","5","5","4","4","4","4","4","5","6","8","7","4","5","6","8","7","5","5","3","7","5","3","5","2","6","6","1","3","3","6","3","6","5","5","3","6","3","3","6","5","3","5","7","6","5","5","5","5","7","7","6","3","7","5","6","3","7","652595581352411136","王","446","Male","[""好他"",""坏我"",""好我"",""坏他""]","[""强他"",""弱我"",""强我"",""弱他""]","","","","","","","","yes","","","","","","","","","SRET","EW_formal","","key","f","8.334728033472803","640","396","自己","慷慨","Positive","morality","","","","","","","","","","",""
"1157","","j","psychophysics","66","330644","0.0-7.0-3.0-0.52","5","4","5","3","1","5","2","5","5","5","5","0","0","1","1","-1","1","2","1","5","4","5","5","5","4","4","4","4","4","5","6","8","7","4","5","6","8","7","5","5","3","7","5","3","5","2","6","6","1","3","3","6","3","6","5","5","3","6","3","3","6","5","3","5","7","6","5","5","5","5","7","7","6","3","7","5","6","3","7","652595581352411136","王","446","Male","[""好他"",""坏我"",""好我"",""坏他""]","[""强他"",""弱我"",""强我"",""弱他""]","","","","","","","","no","","","","","","","","","SRET","EW_formal","","key","j","8.366153846153667","640","396","朋友","草率","Negative","ability","","","","","","","","","","",""
"1062","","j","psychophysics","67","332707","0.0-7.0-3.0-0.53","5","4","5","3","1","5","2","5","5","5","5","0","0","1","1","-1","1","2","1","5","4","5","5","5","4","4","4","4","4","5","6","8","7","4","5","6","8","7","5","5","3","7","5","3","5","2","6","6","1","3","3","6","3","6","5","5","3","6","3","3","6","5","3","5","7","6","5","5","5","5","7","7","6","3","7","5","6","3","7","652595581352411136","王","446","Male","[""好他"",""坏我"",""好我"",""坏他""]","[""强他"",""弱我"",""强我"",""弱他""]","","","","","","","","no","","","","","","","","","SRET","EW_formal","","key","j","8.33522267206473","640","396","朋友","差生","Negative","ability","","","","","","","","","","",""
"1014","","f","psychophysics","68","334726","0.0-7.0-3.0-0.54","5","4","5","3","1","5","2","5","5","5","5","0","0","1","1","-1","1","2","1","5","4","5","5","5","4","4","4","4","4","5","6","8","7","4","5","6","8","7","5","5","3","7","5","3","5","2","6","6","1","3","3","6","3","6","5","5","3","6","3","3","6","5","3","5","7","6","5","5","5","5","7","7","6","3","7","5","6","3","7","652595581352411136","王","446","Male","[""好他"",""坏我"",""好我"",""坏他""]","[""强他"",""弱我"",""强我"",""弱他""]","","","","","","","","yes","","","","","","","","","SRET","EW_formal","","key","f","8.334854771784281","640","396","自己","奉献","Positive","morality","","","","","","","","","","",""
"510","","f","psychophysics","69","336272","0.0-7.0-3.0-0.55","5","4","5","3","1","5","2","5","5","5","5","0","0","1","1","-1","1","2","1","5","4","5","5","5","4","4","4","4","4","5","6","8","7","4","5","6","8","7","5","5","3","7","5","3","5","2","6","6","1","3","3","6","3","6","5","5","3","6","3","3","6","5","3","5","7","6","5","5","5","5","7","7","6","3","7","5","6","3","7","652595581352411136","王","446","Male","[""好他"",""坏我"",""好我"",""坏他""]","[""强他"",""弱我"",""强我"",""弱他""]","","","","","","","","yes","","","","","","","","","SRET","EW_formal","","key","f","8.335675675675864","640","396","自己","骁勇","Positive","ability","","","","","","","","","","",""
"1066","","j","psychophysics","70","338344","0.0-7.0-3.0-0.56","5","4","5","3","1","5","2","5","5","5","5","0","0","1","1","-1","1","2","1","5","4","5","5","5","4","4","4","4","4","5","6","8","7","4","5","6","8","7","5","5","3","7","5","3","5","2","6","6","1","3","3","6","3","6","5","5","3","6","3","3","6","5","3","5","7","6","5","5","5","5","7","7","6","3","7","5","6","3","7","652595581352411136","王","446","Male","[""好他"",""坏我"",""好我"",""坏他""]","[""强他"",""弱我"",""强我"",""弱他""]","","","","","","","","no","","","","","","","","","SRET","EW_formal","","key","j","8.334412955465492","640","396","朋友","屈才","Negative","ability","","","","","","","","","","",""
"1183","","j","psychophysics","71","340530","0.0-7.0-3.0-0.57","5","4","5","3","1","5","2","5","5","5","5","0","0","1","1","-1","1","2","1","5","4","5","5","5","4","4","4","4","4","5","6","8","7","4","5","6","8","7","5","5","3","7","5","3","5","2","6","6","1","3","3","6","3","6","5","5","3","6","3","3","6","5","3","5","7","6","5","5","5","5","7","7","6","3","7","5","6","3","7","652595581352411136","王","446","Male","[""好他"",""坏我"",""好我"",""坏他""]","[""强他"",""弱我"",""强我"",""弱他""]","","","","","","","","no","","","","","","","","","SRET","EW_formal","","key","j","8.365517241379399","640","396","朋友","才尽","Negative","ability","","","","","","","","","","",""
"876","","j","psychophysics","72","342422","0.0-7.0-3.0-0.58","5","4","5","3","1","5","2","5","5","5","5","0","0","1","1","-1","1","2","1","5","4","5","5","5","4","4","4","4","4","5","6","8","7","4","5","6","8","7","5","5","3","7","5","3","5","2","6","6","1","3","3","6","3","6","5","5","3","6","3","3","6","5","3","5","7","6","5","5","5","5","7","7","6","3","7","5","6","3","7","652595581352411136","王","446","Male","[""好他"",""坏我"",""好我"",""坏他""]","[""强他"",""弱我"",""强我"",""弱他""]","","","","","","","","no","","","","","","","","","SRET","EW_formal","","key","j","8.33451327433618","640","396","自己","笨蛋","Negative","ability","","","","","","","","","","",""
"719","","j","psychophysics","73","344148","0.0-7.0-3.0-0.59","5","4","5","3","1","5","2","5","5","5","5","0","0","1","1","-1","1","2","1","5","4","5","5","5","4","4","4","4","4","5","6","8","7","4","5","6","8","7","5","5","3","7","5","3","5","2","6","6","1","3","3","6","3","6","5","5","3","6","3","3","6","5","3","5","7","6","5","5","5","5","7","7","6","3","7","5","6","3","7","652595581352411136","王","446","Male","[""好他"",""坏我"",""好我"",""坏他""]","[""强他"",""弱我"",""强我"",""弱他""]","","","","","","","","no","","","","","","","","","SRET","EW_formal","","key","j","8.334466019417588","640","396","自己","腐败","Negative","morality","","","","","","","","","","",""
"781","","j","psychophysics","74","345934","0.0-7.0-3.0-0.60","5","4","5","3","1","5","2","5","5","5","5","0","0","1","1","-1","1","2","1","5","4","5","5","5","4","4","4","4","4","5","6","8","7","4","5","6","8","7","5","5","3","7","5","3","5","2","6","6","1","3","3","6","3","6","5","5","3","6","3","3","6","5","3","5","7","6","5","5","5","5","7","7","6","3","7","5","6","3","7","652595581352411136","王","446","Male","[""好他"",""坏我"",""好我"",""坏他""]","[""强他"",""弱我"",""强我"",""弱他""]","","","","","","","","no","","","","","","","","","SRET","EW_formal","","key","j","8.373584905660433","640","396","朋友","狡诈","Negative","morality","","","","","","","","","","",""
"574","","f","psychophysics","75","347510","0.0-7.0-3.0-0.61","5","4","5","3","1","5","2","5","5","5","5","0","0","1","1","-1","1","2","1","5","4","5","5","5","4","4","4","4","4","5","6","8","7","4","5","6","8","7","5","5","3","7","5","3","5","2","6","6","1","3","3","6","3","6","5","5","3","6","3","3","6","5","3","5","7","6","5","5","5","5","7","7","6","3","7","5","6","3","7","652595581352411136","王","446","Male","[""好他"",""坏我"",""好我"",""坏他""]","[""强他"",""弱我"",""强我"",""弱他""]","","","","","","","","yes","","","","","","","","","SRET","EW_formal","","key","f","8.378609625668698","640","396","自己","聪明","Positive","ability","","","","","","","","","","",""
"711","","j","psychophysics","76","349222","0.0-7.0-3.0-0.62","5","4","5","3","1","5","2","5","5","5","5","0","0","1","1","-1","1","2","1","5","4","5","5","5","4","4","4","4","4","5","6","8","7","4","5","6","8","7","5","5","3","7","5","3","5","2","6","6","1","3","3","6","3","6","5","5","3","6","3","3","6","5","3","5","7","6","5","5","5","5","7","7","6","3","7","5","6","3","7","652595581352411136","王","446","Male","[""好他"",""坏我"",""好我"",""坏他""]","[""强他"",""弱我"",""强我"",""弱他""]","","","","","","","","no","","","","","","","","","SRET","EW_formal","","key","j","8.374019607843366","640","396","朋友","不良","Negative","morality","","","","","","","","","","",""
"1304","","f","psychophysics","77","351530","0.0-7.0-3.0-0.63","5","4","5","3","1","5","2","5","5","5","5","0","0","1","1","-1","1","2","1","5","4","5","5","5","4","4","4","4","4","5","6","8","7","4","5","6","8","7","5","5","3","7","5","3","5","2","6","6","1","3","3","6","3","6","5","5","3","6","3","3","6","5","3","5","7","6","5","5","5","5","7","7","6","3","7","5","6","3","7","652595581352411136","王","446","Male","[""好他"",""坏我"",""好我"",""坏他""]","[""强他"",""弱我"",""强我"",""弱他""]","","","","","","","","yes","","","","","","","","","SRET","EW_formal","","key","f","8.332246376811636","640","396","自己","高效","Positive","ability","","","","","","","","","","",""
"790","","j","psychophysics","78","353325","0.0-7.0-3.0-0.64","5","4","5","3","1","5","2","5","5","5","5","0","0","1","1","-1","1","2","1","5","4","5","5","5","4","4","4","4","4","5","6","8","7","4","5","6","8","7","5","5","3","7","5","3","5","2","6","6","1","3","3","6","3","6","5","5","3","6","3","3","6","5","3","5","7","6","5","5","5","5","7","7","6","3","7","5","6","3","7","652595581352411136","王","446","Male","[""好他"",""坏我"",""好我"",""坏他""]","[""强他"",""弱我"",""强我"",""弱他""]","","","","","","","","no","","","","","","","","","SRET","EW_formal","","key","j","8.371361502347582","640","396","自己","低劣","Negative","morality","","","","","","","","","","",""
"769","","f","psychophysics","79","355096","0.0-7.0-3.0-0.65","5","4","5","3","1","5","2","5","5","5","5","0","0","1","1","-1","1","2","1","5","4","5","5","5","4","4","4","4","4","5","6","8","7","4","5","6","8","7","5","5","3","7","5","3","5","2","6","6","1","3","3","6","3","6","5","5","3","6","3","3","6","5","3","5","7","6","5","5","5","5","7","7","6","3","7","5","6","3","7","652595581352411136","王","446","Male","[""好他"",""坏我"",""好我"",""坏他""]","[""强他"",""弱我"",""强我"",""弱他""]","","","","","","","","yes","","","","","","","","","SRET","EW_formal","","key","f","8.371563981042764","640","396","自己","精干","Positive","ability","","","","","","","","","","",""
"806","","j","psychophysics","80","356909","0.0-7.0-3.0-0.66","5","4","5","3","1","5","2","5","5","5","5","0","0","1","1","-1","1","2","1","5","4","5","5","5","4","4","4","4","4","5","6","8","7","4","5","6","8","7","5","5","3","7","5","3","5","2","6","6","1","3","3","6","3","6","5","5","3","6","3","3","6","5","3","5","7","6","5","5","5","5","7","7","6","3","7","5","6","3","7","652595581352411136","王","446","Male","[""好他"",""坏我"",""好我"",""坏他""]","[""强他"",""弱我"",""强我"",""弱他""]","","","","","","","","no","","","","","","","","","SRET","EW_formal","","key","j","8.37348837209297","640","396","自己","迟钝","Negative","ability","","","","","","","","","","",""
"1017","","j","psychophysics","81","358928","0.0-7.0-3.0-0.67","5","4","5","3","1","5","2","5","5","5","5","0","0","1","1","-1","1","2","1","5","4","5","5","5","4","4","4","4","4","5","6","8","7","4","5","6","8","7","5","5","3","7","5","3","5","2","6","6","1","3","3","6","3","6","5","5","3","6","3","3","6","5","3","5","7","6","5","5","5","5","7","7","6","3","7","5","6","3","7","652595581352411136","王","446","Male","[""好他"",""坏我"",""好我"",""坏他""]","[""强他"",""弱我"",""强我"",""弱他""]","","","","","","","","no","","","","","","","","","SRET","EW_formal","","key","j","8.367500000000048","640","396","朋友","虚伪","Negative","morality","","","","","","","","","","",""
"740","","j","psychophysics","82","360671","0.0-7.0-3.0-0.68","5","4","5","3","1","5","2","5","5","5","5","0","0","1","1","-1","1","2","1","5","4","5","5","5","4","4","4","4","4","5","6","8","7","4","5","6","8","7","5","5","3","7","5","3","5","2","6","6","1","3","3","6","3","6","5","5","3","6","3","3","6","5","3","5","7","6","5","5","5","5","7","7","6","3","7","5","6","3","7","652595581352411136","王","446","Male","[""好他"",""坏我"",""好我"",""坏他""]","[""强他"",""弱我"",""强我"",""弱他""]","","","","","","","","no","","","","","","","","","SRET","EW_formal","","key","j","8.37307692307681","640","396","自己","马虎","Negative","ability","","","","","","","","","","",""
"736","","f","psychophysics","83","362411","0.0-7.0-3.0-0.69","5","4","5","3","1","5","2","5","5","5","5","0","0","1","1","-1","1","2","1","5","4","5","5","5","4","4","4","4","4","5","6","8","7","4","5","6","8","7","5","5","3","7","5","3","5","2","6","6","1","3","3","6","3","6","5","5","3","6","3","3","6","5","3","5","7","6","5","5","5","5","7","7","6","3","7","5","6","3","7","652595581352411136","王","446","Male","[""好他"",""坏我"",""好我"",""坏他""]","[""强他"",""弱我"",""强我"",""弱他""]","","","","","","","","yes","","","","","","","","","SRET","EW_formal","","key","f","8.333333333333334","640","396","自己","敬业","Positive","morality","","","","","","","","","","",""
"816","","j","psychophysics","84","364230","0.0-7.0-3.0-0.70","5","4","5","3","1","5","2","5","5","5","5","0","0","1","1","-1","1","2","1","5","4","5","5","5","4","4","4","4","4","5","6","8","7","4","5","6","8","7","5","5","3","7","5","3","5","2","6","6","1","3","3","6","3","6","5","5","3","6","3","3","6","5","3","5","7","6","5","5","5","5","7","7","6","3","7","5","6","3","7","652595581352411136","王","446","Male","[""好他"",""坏我"",""好我"",""坏他""]","[""强他"",""弱我"",""强我"",""弱他""]","","","","","","","","no","","","","","","","","","SRET","EW_formal","","key","j","8.44976744186052","640","396","自己","阴毒","Negative","morality","","","","","","","","","","",""
"553","","f","psychophysics","85","365789","0.0-7.0-3.0-0.71","5","4","5","3","1","5","2","5","5","5","5","0","0","1","1","-1","1","2","1","5","4","5","5","5","4","4","4","4","4","5","6","8","7","4","5","6","8","7","5","5","3","7","5","3","5","2","6","6","1","3","3","6","3","6","5","5","3","6","3","3","6","5","3","5","7","6","5","5","5","5","7","7","6","3","7","5","6","3","7","652595581352411136","王","446","Male","[""好他"",""坏我"",""好我"",""坏他""]","[""强他"",""弱我"",""强我"",""弱他""]","","","","","","","","yes","","","","","","","","","SRET","EW_formal","","key","f","8.333870967742124","640","396","朋友","忠勇","Positive","morality","","","","","","","","","","",""
"807","","j","psychophysics","86","367601","0.0-7.0-3.0-0.72","5","4","5","3","1","5","2","5","5","5","5","0","0","1","1","-1","1","2","1","5","4","5","5","5","4","4","4","4","4","5","6","8","7","4","5","6","8","7","5","5","3","7","5","3","5","2","6","6","1","3","3","6","3","6","5","5","3","6","3","3","6","5","3","5","7","6","5","5","5","5","7","7","6","3","7","5","6","3","7","652595581352411136","王","446","Male","[""好他"",""坏我"",""好我"",""坏他""]","[""强他"",""弱我"",""强我"",""弱他""]","","","","","","","","no","","","","","","","","","SRET","EW_formal","","key","j","8.373023255814008","640","396","朋友","怠惰","Negative","ability","","","","","","","","","","",""
"696","","j","psychophysics","87","369299","0.0-7.0-3.0-0.73","5","4","5","3","1","5","2","5","5","5","5","0","0","1","1","-1","1","2","1","5","4","5","5","5","4","4","4","4","4","5","6","8","7","4","5","6","8","7","5","5","3","7","5","3","5","2","6","6","1","3","3","6","3","6","5","5","3","6","3","3","6","5","3","5","7","6","5","5","5","5","7","7","6","3","7","5","6","3","7","652595581352411136","王","446","Male","[""好他"",""坏我"",""好我"",""坏他""]","[""强他"",""弱我"",""强我"",""弱他""]","","","","","","","","no","","","","","","","","","SRET","EW_formal","","key","j","8.372772277227954","640","396","自己","不端","Negative","morality","","","","","","","","","","",""
"1091","","j","psychophysics","88","371393","0.0-7.0-3.0-0.74","5","4","5","3","1","5","2","5","5","5","5","0","0","1","1","-1","1","2","1","5","4","5","5","5","4","4","4","4","4","5","6","8","7","4","5","6","8","7","5","5","3","7","5","3","5","2","6","6","1","3","3","6","3","6","5","5","3","6","3","3","6","5","3","5","7","6","5","5","5","5","7","7","6","3","7","5","6","3","7","652595581352411136","王","446","Male","[""好他"",""坏我"",""好我"",""坏他""]","[""强他"",""弱我"",""强我"",""弱他""]","","","","","","","","no","","","","","","","","","SRET","EW_formal","","key","j","8.365461847389557","640","396","自己","学霸","Positive","ability","","","","","","","","","","",""
"1123","","j","psychophysics","89","373519","0.0-7.0-3.0-0.75","5","4","5","3","1","5","2","5","5","5","5","0","0","1","1","-1","1","2","1","5","4","5","5","5","4","4","4","4","4","5","6","8","7","4","5","6","8","7","5","5","3","7","5","3","5","2","6","6","1","3","3","6","3","6","5","5","3","6","3","3","6","5","3","5","7","6","5","5","5","5","7","7","6","3","7","5","6","3","7","652595581352411136","王","446","Male","[""好他"",""坏我"",""好我"",""坏他""]","[""强他"",""弱我"",""强我"",""弱他""]","","","","","","","","no","","","","","","","","","SRET","EW_formal","","key","j","8.366403162055382","640","396","朋友","新手","Negative","ability","","","","","","","","","","",""
"628","","f","psychophysics","90","375174","0.0-7.0-3.0-0.76","5","4","5","3","1","5","2","5","5","5","5","0","0","1","1","-1","1","2","1","5","4","5","5","5","4","4","4","4","4","5","6","8","7","4","5","6","8","7","5","5","3","7","5","3","5","2","6","6","1","3","3","6","3","6","5","5","3","6","3","3","6","5","3","5","7","6","5","5","5","5","7","7","6","3","7","5","6","3","7","652595581352411136","王","446","Male","[""好他"",""坏我"",""好我"",""坏他""]","[""强他"",""弱我"",""强我"",""弱他""]","","","","","","","","yes","","","","","","","","","SRET","EW_formal","","key","f","8.377664974619407","640","396","朋友","忠义","Positive","morality","","","","","","","","","","",""
"710","","f","psychophysics","91","376888","0.0-7.0-3.0-0.77","5","4","5","3","1","5","2","5","5","5","5","0","0","1","1","-1","1","2","1","5","4","5","5","5","4","4","4","4","4","5","6","8","7","4","5","6","8","7","5","5","3","7","5","3","5","2","6","6","1","3","3","6","3","6","5","5","3","6","3","3","6","5","3","5","7","6","5","5","5","5","7","7","6","3","7","5","6","3","7","652595581352411136","王","446","Male","[""好他"",""坏我"",""好我"",""坏他""]","[""强他"",""弱我"",""强我"",""弱他""]","","","","","","","","yes","","","","","","","","","SRET","EW_formal","","key","f","8.336097560975723","640","396","自己","谦逊","Positive","morality","","","","","","","","","","",""
"543","","f","psychophysics","92","378438","0.0-7.0-3.0-0.78","5","4","5","3","1","5","2","5","5","5","5","0","0","1","1","-1","1","2","1","5","4","5","5","5","4","4","4","4","4","5","6","8","7","4","5","6","8","7","5","5","3","7","5","3","5","2","6","6","1","3","3","6","3","6","5","5","3","6","3","3","6","5","3","5","7","6","5","5","5","5","7","7","6","3","7","5","6","3","7","652595581352411136","王","446","Male","[""好他"",""坏我"",""好我"",""坏他""]","[""强他"",""弱我"",""强我"",""弱他""]","","","","","","","","yes","","","","","","","","","SRET","EW_formal","","key","f","8.334594594594721","640","396","自己","浅薄","Negative","ability","","","","","","","","","","",""
"997","","f","psychophysics","93","380442","0.0-7.0-3.0-0.79","5","4","5","3","1","5","2","5","5","5","5","0","0","1","1","-1","1","2","1","5","4","5","5","5","4","4","4","4","4","5","6","8","7","4","5","6","8","7","5","5","3","7","5","3","5","2","6","6","1","3","3","6","3","6","5","5","3","6","3","3","6","5","3","5","7","6","5","5","5","5","7","7","6","3","7","5","6","3","7","652595581352411136","王","446","Male","[""好他"",""坏我"",""好我"",""坏他""]","[""强他"",""弱我"",""强我"",""弱他""]","","","","","","","","yes","","","","","","","","","SRET","EW_formal","","key","f","8.334309623430816","640","396","自己","能干","Positive","ability","","","","","","","","","","",""
"1287","","f","psychophysics","94","382732","0.0-7.0-3.0-0.80","5","4","5","3","1","5","2","5","5","5","5","0","0","1","1","-1","1","2","1","5","4","5","5","5","4","4","4","4","4","5","6","8","7","4","5","6","8","7","5","5","3","7","5","3","5","2","6","6","1","3","3","6","3","6","5","5","3","6","3","3","6","5","3","5","7","6","5","5","5","5","7","7","6","3","7","5","6","3","7","652595581352411136","王","446","Male","[""好他"",""坏我"",""好我"",""坏他""]","[""强他"",""弱我"",""强我"",""弱他""]","","","","","","","","yes","","","","","","","","","SRET","EW_formal","","key","f","8.365567765567723","640","396","朋友","守时","Positive","morality","","","","","","","","","","",""
"617","","j","psychophysics","95","384354","0.0-7.0-3.0-0.81","5","4","5","3","1","5","2","5","5","5","5","0","0","1","1","-1","1","2","1","5","4","5","5","5","4","4","4","4","4","5","6","8","7","4","5","6","8","7","5","5","3","7","5","3","5","2","6","6","1","3","3","6","3","6","5","5","3","6","3","3","6","5","3","5","7","6","5","5","5","5","7","7","6","3","7","5","6","3","7","652595581352411136","王","446","Male","[""好他"",""坏我"",""好我"",""坏他""]","[""强他"",""弱我"",""强我"",""弱他""]","","","","","","","","no","","","","","","","","","SRET","EW_formal","","key","j","8.333505154638935","640","396","自己","不孝","Negative","morality","","","","","","","","","","",""
"809","","j","psychophysics","96","386171","0.0-7.0-3.0-0.82","5","4","5","3","1","5","2","5","5","5","5","0","0","1","1","-1","1","2","1","5","4","5","5","5","4","4","4","4","4","5","6","8","7","4","5","6","8","7","5","5","3","7","5","3","5","2","6","6","1","3","3","6","3","6","5","5","3","6","3","3","6","5","3","5","7","6","5","5","5","5","7","7","6","3","7","5","6","3","7","652595581352411136","王","446","Male","[""好他"",""坏我"",""好我"",""坏他""]","[""强他"",""弱我"",""强我"",""弱他""]","","","","","","","","no","","","","","","","","","SRET","EW_formal","","key","j","8.334722222222169","640","396","朋友","蛇蝎","Negative","morality","","","","","","","","","","",""
"629","","j","psychophysics","97","387801","0.0-7.0-3.0-0.83","5","4","5","3","1","5","2","5","5","5","5","0","0","1","1","-1","1","2","1","5","4","5","5","5","4","4","4","4","4","5","6","8","7","4","5","6","8","7","5","5","3","7","5","3","5","2","6","6","1","3","3","6","3","6","5","5","3","6","3","3","6","5","3","5","7","6","5","5","5","5","7","7","6","3","7","5","6","3","7","652595581352411136","王","446","Male","[""好他"",""坏我"",""好我"",""坏他""]","[""强他"",""弱我"",""强我"",""弱他""]","","","","","","","","no","","","","","","","","","SRET","EW_formal","","key","j","8.334358974359034","640","396","朋友","缺德","Negative","morality","","","","","","","","","","",""
"705","","f","psychophysics","98","389508","0.0-7.0-3.0-0.84","5","4","5","3","1","5","2","5","5","5","5","0","0","1","1","-1","1","2","1","5","4","5","5","5","4","4","4","4","4","5","6","8","7","4","5","6","8","7","5","5","3","7","5","3","5","2","6","6","1","3","3","6","3","6","5","5","3","6","3","3","6","5","3","5","7","6","5","5","5","5","7","7","6","3","7","5","6","3","7","652595581352411136","王","446","Male","[""好他"",""坏我"",""好我"",""坏他""]","[""强他"",""弱我"",""强我"",""弱他""]","","","","","","","","yes","","","","","","","","","SRET","EW_formal","","key","f","8.33578431372549","640","396","朋友","素养","Positive","morality","","","","","","","","","","",""
"885","","f","psychophysics","99","391396","0.0-7.0-3.0-0.85","5","4","5","3","1","5","2","5","5","5","5","0","0","1","1","-1","1","2","1","5","4","5","5","5","4","4","4","4","4","5","6","8","7","4","5","6","8","7","5","5","3","7","5","3","5","2","6","6","1","3","3","6","3","6","5","5","3","6","3","3","6","5","3","5","7","6","5","5","5","5","7","7","6","3","7","5","6","3","7","652595581352411136","王","446","Male","[""好他"",""坏我"",""好我"",""坏他""]","[""强他"",""弱我"",""强我"",""弱他""]","","","","","","","","yes","","","","","","","","","SRET","EW_formal","","key","f","8.334070796460177","640","396","自己","主见","Positive","ability","","","","","","","","","","",""
"1153","","f","psychophysics","100","393556","0.0-7.0-3.0-0.86","5","4","5","3","1","5","2","5","5","5","5","0","0","1","1","-1","1","2","1","5","4","5","5","5","4","4","4","4","4","5","6","8","7","4","5","6","8","7","5","5","3","7","5","3","5","2","6","6","1","3","3","6","3","6","5","5","3","6","3","3","6","5","3","5","7","6","5","5","5","5","7","7","6","3","7","5","6","3","7","652595581352411136","王","446","Male","[""好他"",""坏我"",""好我"",""坏他""]","[""强他"",""弱我"",""强我"",""弱他""]","","","","","","","","yes","","","","","","","","","SRET","EW_formal","","key","f","8.334496124031189","640","396","自己","缓慢","Negative","ability","","","","","","","","","","",""
"640","","j","psychophysics","101","395202","0.0-7.0-3.0-0.87","5","4","5","3","1","5","2","5","5","5","5","0","0","1","1","-1","1","2","1","5","4","5","5","5","4","4","4","4","4","5","6","8","7","4","5","6","8","7","5","5","3","7","5","3","5","2","6","6","1","3","3","6","3","6","5","5","3","6","3","3","6","5","3","5","7","6","5","5","5","5","7","7","6","3","7","5","6","3","7","652595581352411136","王","446","Male","[""好他"",""坏我"",""好我"",""坏他""]","[""强他"",""弱我"",""强我"",""弱他""]","","","","","","","","no","","","","","","","","","SRET","EW_formal","","key","j","8.334183673469388","640","396","朋友","低俗","Negative","morality","","","","","","","","","","",""
"13647","
    <p><div style='color:white;font-size:35px; line-height:20px;'>计算任务</div></p><br>
    <p><div style='color:red;font-size:25px; line-height:20px;'>接下来，您将看到一些四则运算题，<b>请从键盘选择 0-9 进行反应。</b></div></p>
    <p><div style='color:red;font-size:25px; line-height:20px;'>请尽可能快地进行计算，计算的速度和正确率将影响报酬的发放。</div></p>
    <p><div class='footer' style='color:white;font-size:25px; line-height:20px;'>如果对本实验还有不清楚之处，请立即向实验员咨询。</p><p style='color:white;font-size:25px; line-height:20px;'>如果您明白了规则：</p><p style='color:white;font-size:22px; line-height:20px;'>请按 继续 进入练习</p>
    </div>
    ","0","html-button-response","102","408850","0.0-7.0-4.0","5","4","5","3","1","5","2","5","5","5","5","0","0","1","1","-1","1","2","1","5","4","5","5","5","4","4","4","4","4","5","6","8","7","4","5","6","8","7","5","5","3","7","5","3","5","2","6","6","1","3","3","6","3","6","5","5","3","6","3","3","6","5","3","5","7","6","5","5","5","5","7","7","6","3","7","5","6","3","7","652595581352411136","王","446","Male","[""好他"",""坏我"",""好我"",""坏他""]","[""强他"",""弱我"",""强我"",""弱他""]","","","","","","","","","","","","","","","","","SRET_math","math_instructions","Thu Jan 18 2024 23:14:28 GMT+0800 (中国标准时间)","","","","","","","","","","","","","","","","","","","",""
"2323","","0","psychophysics","103","411199","0.0-7.0-5.0-0.0","5","4","5","3","1","5","2","5","5","5","5","0","0","1","1","-1","1","2","1","5","4","5","5","5","4","4","4","4","4","5","6","8","7","4","5","6","8","7","5","5","3","7","5","3","5","2","6","6","1","3","3","6","3","6","5","5","3","6","3","3","6","5","3","5","7","6","5","5","5","5","7","7","6","3","7","5","6","3","7","652595581352411136","王","446","Male","[""好他"",""坏我"",""好我"",""坏他""]","[""强他"",""弱我"",""强我"",""弱他""]","","","","","","","","0","","","","","","","","","SRET","SRET_math_calculate","","key","0","8.330357142857142","640","396","","","","","5*0= ?","0","1","","","","","","","",""
"2788","","5","psychophysics","104","413987","0.0-7.0-5.0-0.1","5","4","5","3","1","5","2","5","5","5","5","0","0","1","1","-1","1","2","1","5","4","5","5","5","4","4","4","4","4","5","6","8","7","4","5","6","8","7","5","5","3","7","5","3","5","2","6","6","1","3","3","6","3","6","5","5","3","6","3","3","6","5","3","5","7","6","5","5","5","5","7","7","6","3","7","5","6","3","7","652595581352411136","王","446","Male","[""好他"",""坏我"",""好我"",""坏他""]","[""强他"",""弱我"",""强我"",""弱他""]","","","","","","","","5","","","","","","","","","SRET","SRET_math_calculate","","key","5","8.357657657657589","640","396","","","","","5/1= ?","5","1","","","","","","","",""
"2227","","6","psychophysics","105","416216","0.0-7.0-5.0-0.2","5","4","5","3","1","5","2","5","5","5","5","0","0","1","1","-1","1","2","1","5","4","5","5","5","4","4","4","4","4","5","6","8","7","4","5","6","8","7","5","5","3","7","5","3","5","2","6","6","1","3","3","6","3","6","5","5","3","6","3","3","6","5","3","5","7","6","5","5","5","5","7","7","6","3","7","5","6","3","7","652595581352411136","王","446","Male","[""好他"",""坏我"",""好我"",""坏他""]","[""强他"",""弱我"",""强我"",""弱他""]","","","","","","","","6","","","","","","","","","SRET","SRET_math_calculate","","key","6","8.333458646616585","640","396","","","","","8-2= ?","6","1","","","","","","","",""
"2025","","8","psychophysics","106","418249","0.0-7.0-5.0-0.3","5","4","5","3","1","5","2","5","5","5","5","0","0","1","1","-1","1","2","1","5","4","5","5","5","4","4","4","4","4","5","6","8","7","4","5","6","8","7","5","5","3","7","5","3","5","2","6","6","1","3","3","6","3","6","5","5","3","6","3","3","6","5","3","5","7","6","5","5","5","5","7","7","6","3","7","5","6","3","7","652595581352411136","王","446","Male","[""好他"",""坏我"",""好我"",""坏他""]","[""强他"",""弱我"",""强我"",""弱他""]","","","","","","","","8","","","","","","","","","SRET","SRET_math_calculate","","key","8","8.333744855967222","640","396","","","","","6+2= ?","8","1","","","","","","","",""
"1967","","9","psychophysics","107","420217","0.0-7.0-5.0-0.4","5","4","5","3","1","5","2","5","5","5","5","0","0","1","1","-1","1","2","1","5","4","5","5","5","4","4","4","4","4","5","6","8","7","4","5","6","8","7","5","5","3","7","5","3","5","2","6","6","1","3","3","6","3","6","5","5","3","6","3","3","6","5","3","5","7","6","5","5","5","5","7","7","6","3","7","5","6","3","7","652595581352411136","王","446","Male","[""好他"",""坏我"",""好我"",""坏他""]","[""强他"",""弱我"",""强我"",""弱他""]","","","","","","","","9","","","","","","","","","SRET","SRET_math_calculate","","key","9","8.334468085106284","640","396","","","","","2+7= ?","9","1","","","","","","","",""
"1937","","2","psychophysics","108","422154","0.0-7.0-5.0-0.5","5","4","5","3","1","5","2","5","5","5","5","0","0","1","1","-1","1","2","1","5","4","5","5","5","4","4","4","4","4","5","6","8","7","4","5","6","8","7","5","5","3","7","5","3","5","2","6","6","1","3","3","6","3","6","5","5","3","6","3","3","6","5","3","5","7","6","5","5","5","5","7","7","6","3","7","5","6","3","7","652595581352411136","王","446","Male","[""好他"",""坏我"",""好我"",""坏他""]","[""强他"",""弱我"",""强我"",""弱他""]","","","","","","","","2","","","","","","","","","SRET","SRET_math_calculate","","key","2","8.33448275862084","640","396","","","","","1+1= ?","2","1","","","","","","","",""
"1967","","9","psychophysics","109","424122","0.0-7.0-5.0-0.6","5","4","5","3","1","5","2","5","5","5","5","0","0","1","1","-1","1","2","1","5","4","5","5","5","4","4","4","4","4","5","6","8","7","4","5","6","8","7","5","5","3","7","5","3","5","2","6","6","1","3","3","6","3","6","5","5","3","6","3","3","6","5","3","5","7","6","5","5","5","5","7","7","6","3","7","5","6","3","7","652595581352411136","王","446","Male","[""好他"",""坏我"",""好我"",""坏他""]","[""强他"",""弱我"",""强我"",""弱他""]","","","","","","","","9","","","","","","","","","SRET","SRET_math_calculate","","key","9","8.33404255319149","640","396","","","","","1+8= ?","9","1","","","","","","","",""
"1811","","8","psychophysics","110","425938","0.0-7.0-5.0-0.7","5","4","5","3","1","5","2","5","5","5","5","0","0","1","1","-1","1","2","1","5","4","5","5","5","4","4","4","4","4","5","6","8","7","4","5","6","8","7","5","5","3","7","5","3","5","2","6","6","1","3","3","6","3","6","5","5","3","6","3","3","6","5","3","5","7","6","5","5","5","5","7","7","6","3","7","5","6","3","7","652595581352411136","王","446","Male","[""好他"",""坏我"",""好我"",""坏他""]","[""强他"",""弱我"",""强我"",""弱他""]","","","","","","","","8","","","","","","","","","SRET","SRET_math_calculate","","key","8","8.334101382488479","640","396","","","","","4+4= ?","8","1","","","","","","","",""
"2542","","3","psychophysics","111","428481","0.0-7.0-5.0-0.8","5","4","5","3","1","5","2","5","5","5","5","0","0","1","1","-1","1","2","1","5","4","5","5","5","4","4","4","4","4","5","6","8","7","4","5","6","8","7","5","5","3","7","5","3","5","2","6","6","1","3","3","6","3","6","5","5","3","6","3","3","6","5","3","5","7","6","5","5","5","5","7","7","6","3","7","5","6","3","7","652595581352411136","王","446","Male","[""好他"",""坏我"",""好我"",""坏他""]","[""强他"",""弱我"",""强我"",""弱他""]","","","","","","","","3","","","","","","","","","SRET","SRET_math_calculate","","key","3","8.333552631579025","640","396","","","","","21/7=  ?","3","1","","","","","","","",""
"2003","","5","psychophysics","112","430485","0.0-7.0-5.0-0.9","5","4","5","3","1","5","2","5","5","5","5","0","0","1","1","-1","1","2","1","5","4","5","5","5","4","4","4","4","4","5","6","8","7","4","5","6","8","7","5","5","3","7","5","3","5","2","6","6","1","3","3","6","3","6","5","5","3","6","3","3","6","5","3","5","7","6","5","5","5","5","7","7","6","3","7","5","6","3","7","652595581352411136","王","446","Male","[""好他"",""坏我"",""好我"",""坏他""]","[""强他"",""弱我"",""强我"",""弱他""]","","","","","","","","5","","","","","","","","","SRET","SRET_math_calculate","","key","5","8.36890756302516","640","396","","","","","4+1= ?","5","1","","","","","","","",""
"1962","","8","psychophysics","113","432447","0.0-7.0-5.0-0.10","5","4","5","3","1","5","2","5","5","5","5","0","0","1","1","-1","1","2","1","5","4","5","5","5","4","4","4","4","4","5","6","8","7","4","5","6","8","7","5","5","3","7","5","3","5","2","6","6","1","3","3","6","3","6","5","5","3","6","3","3","6","5","3","5","7","6","5","5","5","5","7","7","6","3","7","5","6","3","7","652595581352411136","王","446","Male","[""好他"",""坏我"",""好我"",""坏他""]","[""强他"",""弱我"",""强我"",""弱他""]","","","","","","","","8","","","","","","","","","SRET","SRET_math_calculate","","key","8","8.37051282051287","640","396","","","","","1*8= ?","8","1","","","","","","","",""
"2386","","6","psychophysics","114","434835","0.0-7.0-5.0-0.11","5","4","5","3","1","5","2","5","5","5","5","0","0","1","1","-1","1","2","1","5","4","5","5","5","4","4","4","4","4","5","6","8","7","4","5","6","8","7","5","5","3","7","5","3","5","2","6","6","1","3","3","6","3","6","5","5","3","6","3","3","6","5","3","5","7","6","5","5","5","5","7","7","6","3","7","5","6","3","7","652595581352411136","王","446","Male","[""好他"",""坏我"",""好我"",""坏他""]","[""强他"",""弱我"",""强我"",""弱他""]","","","","","","","","6","","","","","","","","","SRET","SRET_math_calculate","","key","6","8.3616197183099","640","396","","","","","3*2= ?","6","1","","","","","","","",""
"1961","","4","psychophysics","115","436797","0.0-7.0-5.0-0.12","5","4","5","3","1","5","2","5","5","5","5","0","0","1","1","-1","1","2","1","5","4","5","5","5","4","4","4","4","4","5","6","8","7","4","5","6","8","7","5","5","3","7","5","3","5","2","6","6","1","3","3","6","3","6","5","5","3","6","3","3","6","5","3","5","7","6","5","5","5","5","7","7","6","3","7","5","6","3","7","652595581352411136","王","446","Male","[""好他"",""坏我"",""好我"",""坏他""]","[""强他"",""弱我"",""强我"",""弱他""]","","","","","","","","4","","","","","","","","","SRET","SRET_math_calculate","","key","4","8.36965811965812","640","396","","","","","4*1= ?","4","1","","","","","","","",""
"2620","","7","psychophysics","116","439418","0.0-7.0-5.0-0.13","5","4","5","3","1","5","2","5","5","5","5","0","0","1","1","-1","1","2","1","5","4","5","5","5","4","4","4","4","4","5","6","8","7","4","5","6","8","7","5","5","3","7","5","3","5","2","6","6","1","3","3","6","3","6","5","5","3","6","3","3","6","5","3","5","7","6","5","5","5","5","7","7","6","3","7","5","6","3","7","652595581352411136","王","446","Male","[""好他"",""坏我"",""好我"",""坏他""]","[""强他"",""弱我"",""强我"",""弱他""]","","","","","","","","7","","","","","","","","","SRET","SRET_math_calculate","","key","7","8.333226837060666","640","396","","","","","49/7 = ?","7","1","","","","","","","",""
"4869","","9","psychophysics","117","444310","0.0-7.0-5.0-0.14","5","4","5","3","1","5","2","5","5","5","5","0","0","1","1","-1","1","2","1","5","4","5","5","5","4","4","4","4","4","5","6","8","7","4","5","6","8","7","5","5","3","7","5","3","5","2","6","6","1","3","3","6","3","6","5","5","3","6","3","3","6","5","3","5","7","6","5","5","5","5","7","7","6","3","7","5","6","3","7","652595581352411136","王","446","Male","[""好他"",""坏我"",""好我"",""坏他""]","[""强他"",""弱我"",""强我"",""弱他""]","","","","","","","","9","","","","","","","","","SRET","SRET_math_calculate","","key","9","8.348034188034148","640","396","","","","","43-34= ?","9","1","","","","","","","",""
"2168","","3","psychophysics","118","446479","0.0-7.0-5.0-0.15","5","4","5","3","1","5","2","5","5","5","5","0","0","1","1","-1","1","2","1","5","4","5","5","5","4","4","4","4","4","5","6","8","7","4","5","6","8","7","5","5","3","7","5","3","5","2","6","6","1","3","3","6","3","6","5","5","3","6","3","3","6","5","3","5","7","6","5","5","5","5","7","7","6","3","7","5","6","3","7","652595581352411136","王","446","Male","[""好他"",""坏我"",""好我"",""坏他""]","[""强他"",""弱我"",""强我"",""弱他""]","","","","","","","","3","","","","","","","","","SRET","SRET_math_calculate","","key","3","8.366666666666577","640","396","","","","","8-5= ?","3","1","","","","","","","",""
"2524","","5","psychophysics","119","449025","0.0-7.0-5.0-0.16","5","4","5","3","1","5","2","5","5","5","5","0","0","1","1","-1","1","2","1","5","4","5","5","5","4","4","4","4","4","5","6","8","7","4","5","6","8","7","5","5","3","7","5","3","5","2","6","6","1","3","3","6","3","6","5","5","3","6","3","3","6","5","3","5","7","6","5","5","5","5","7","7","6","3","7","5","6","3","7","652595581352411136","王","446","Male","[""好他"",""坏我"",""好我"",""坏他""]","[""强他"",""弱我"",""强我"",""弱他""]","","","","","","","","5","","","","","","","","","SRET","SRET_math_calculate","","key","5","8.360526315789397","640","396","","","","","17-12= ? ","5","1","","","","","","","",""
"2349","","9","psychophysics","120","451374","0.0-7.0-5.0-0.17","5","4","5","3","1","5","2","5","5","5","5","0","0","1","1","-1","1","2","1","5","4","5","5","5","4","4","4","4","4","5","6","8","7","4","5","6","8","7","5","5","3","7","5","3","5","2","6","6","1","3","3","6","3","6","5","5","3","6","3","3","6","5","3","5","7","6","5","5","5","5","7","7","6","3","7","5","6","3","7","652595581352411136","王","446","Male","[""好他"",""坏我"",""好我"",""坏他""]","[""强他"",""弱我"",""强我"",""弱他""]","","","","","","","","9","","","","","","","","","SRET","SRET_math_calculate","","key","9","8.364285714285714","640","396","","","","","18/2= ?","9","1","","","","","","","",""
"2248","","2","psychophysics","121","453624","0.0-7.0-5.0-0.18","5","4","5","3","1","5","2","5","5","5","5","0","0","1","1","-1","1","2","1","5","4","5","5","5","4","4","4","4","4","5","6","8","7","4","5","6","8","7","5","5","3","7","5","3","5","2","6","6","1","3","3","6","3","6","5","5","3","6","3","3","6","5","3","5","7","6","5","5","5","5","7","7","6","3","7","5","6","3","7","652595581352411136","王","446","Male","[""好他"",""坏我"",""好我"",""坏他""]","[""强他"",""弱我"",""强我"",""弱他""]","","","","","","","","2","","","","","","","","","SRET","SRET_math_calculate","","key","2","8.334944237918345","640","396","","","","","29-27= ?","2","1","","","","","","","",""
"2623","","5","psychophysics","122","456247","0.0-7.0-5.0-0.19","5","4","5","3","1","5","2","5","5","5","5","0","0","1","1","-1","1","2","1","5","4","5","5","5","4","4","4","4","4","5","6","8","7","4","5","6","8","7","5","5","3","7","5","3","5","2","6","6","1","3","3","6","3","6","5","5","3","6","3","3","6","5","3","5","7","6","5","5","5","5","7","7","6","3","7","5","6","3","7","652595581352411136","王","446","Male","[""好他"",""坏我"",""好我"",""坏他""]","[""强他"",""弱我"",""强我"",""弱他""]","","","","","","","","5","","","","","","","","","SRET","SRET_math_calculate","","key","5","8.333439490445711","640","396","","","","","12-7= ?","5","1","","","","","","","",""
"2076","","6","psychophysics","123","458325","0.0-7.0-5.0-0.20","5","4","5","3","1","5","2","5","5","5","5","0","0","1","1","-1","1","2","1","5","4","5","5","5","4","4","4","4","4","5","6","8","7","4","5","6","8","7","5","5","3","7","5","3","5","2","6","6","1","3","3","6","3","6","5","5","3","6","3","3","6","5","3","5","7","6","5","5","5","5","7","7","6","3","7","5","6","3","7","652595581352411136","王","446","Male","[""好他"",""坏我"",""好我"",""坏他""]","[""强他"",""弱我"",""强我"",""弱他""]","","","","","","","","6","","","","","","","","","SRET","SRET_math_calculate","","key","6","8.33387096774189","640","396","","","","","4+2= ?","6","1","","","","","","","",""
"1877","","1","psychophysics","124","460202","0.0-7.0-5.0-0.21","5","4","5","3","1","5","2","5","5","5","5","0","0","1","1","-1","1","2","1","5","4","5","5","5","4","4","4","4","4","5","6","8","7","4","5","6","8","7","5","5","3","7","5","3","5","2","6","6","1","3","3","6","3","6","5","5","3","6","3","3","6","5","3","5","7","6","5","5","5","5","7","7","6","3","7","5","6","3","7","652595581352411136","王","446","Male","[""好他"",""坏我"",""好我"",""坏他""]","[""强他"",""弱我"",""强我"",""弱他""]","","","","","","","","1","","","","","","","","","SRET","SRET_math_calculate","","key","1","8.335267857142753","640","396","","","","","10-9= ?","1","1","","","","","","","",""
"1986","","3","psychophysics","125","462189","0.0-7.0-5.0-0.22","5","4","5","3","1","5","2","5","5","5","5","0","0","1","1","-1","1","2","1","5","4","5","5","5","4","4","4","4","4","5","6","8","7","4","5","6","8","7","5","5","3","7","5","3","5","2","6","6","1","3","3","6","3","6","5","5","3","6","3","3","6","5","3","5","7","6","5","5","5","5","7","7","6","3","7","5","6","3","7","652595581352411136","王","446","Male","[""好他"",""坏我"",""好我"",""坏他""]","[""强他"",""弱我"",""强我"",""弱他""]","","","","","","","","3","","","","","","","","","SRET","SRET_math_calculate","","key","3","8.369198312236287","640","396","","","","","1+2= ?","3","1","","","","","","","",""
"1827","","8","psychophysics","126","464021","0.0-7.0-5.0-0.23","5","4","5","3","1","5","2","5","5","5","5","0","0","1","1","-1","1","2","1","5","4","5","5","5","4","4","4","4","4","5","6","8","7","4","5","6","8","7","5","5","3","7","5","3","5","2","6","6","1","3","3","6","3","6","5","5","3","6","3","3","6","5","3","5","7","6","5","5","5","5","7","7","6","3","7","5","6","3","7","652595581352411136","王","446","Male","[""好他"",""坏我"",""好我"",""坏他""]","[""强他"",""弱我"",""强我"",""弱他""]","","","","","","","","8","","","","","","","","","SRET","SRET_math_calculate","","key","8","8.333789954337794","640","396","","","","","9-1= ?","8","1","","","","","","","",""
"2163","","3","psychophysics","127","466185","0.0-7.0-5.0-0.24","5","4","5","3","1","5","2","5","5","5","5","0","0","1","1","-1","1","2","1","5","4","5","5","5","4","4","4","4","4","5","6","8","7","4","5","6","8","7","5","5","3","7","5","3","5","2","6","6","1","3","3","6","3","6","5","5","3","6","3","3","6","5","3","5","7","6","5","5","5","5","7","7","6","3","7","5","6","3","7","652595581352411136","王","446","Male","[""好他"",""坏我"",""好我"",""坏他""]","[""强他"",""弱我"",""强我"",""弱他""]","","","","","","","","3","","","","","","","","","SRET","SRET_math_calculate","","key","3","8.33255813953484","640","396","","","","","12/4= ?","3","1","","","","","","","",""
"2347","","8","psychophysics","128","468540","0.0-7.0-5.0-0.25","5","4","5","3","1","5","2","5","5","5","5","0","0","1","1","-1","1","2","1","5","4","5","5","5","4","4","4","4","4","5","6","8","7","4","5","6","8","7","5","5","3","7","5","3","5","2","6","6","1","3","3","6","3","6","5","5","3","6","3","3","6","5","3","5","7","6","5","5","5","5","7","7","6","3","7","5","6","3","7","652595581352411136","王","446","Male","[""好他"",""坏我"",""好我"",""坏他""]","[""强他"",""弱我"",""强我"",""弱他""]","","","","","","","","8","","","","","","","","","SRET","SRET_math_calculate","","key","8","8.333687943262328","640","396","","","","","7+1= ?","8","1","","","","","","","",""
"1979","","5","psychophysics","129","470527","0.0-7.0-5.0-0.26","5","4","5","3","1","5","2","5","5","5","5","0","0","1","1","-1","1","2","1","5","4","5","5","5","4","4","4","4","4","5","6","8","7","4","5","6","8","7","5","5","3","7","5","3","5","2","6","6","1","3","3","6","3","6","5","5","3","6","3","3","6","5","3","5","7","6","5","5","5","5","7","7","6","3","7","5","6","3","7","652595581352411136","王","446","Male","[""好他"",""坏我"",""好我"",""坏他""]","[""强他"",""弱我"",""强我"",""弱他""]","","","","","","","","5","","","","","","","","","SRET","SRET_math_calculate","","key","5","8.333755274261751","640","396","","","","","3+2= ?","5","1","","","","","","","",""
"1987","","7","psychophysics","130","472523","0.0-7.0-5.0-0.27","5","4","5","3","1","5","2","5","5","5","5","0","0","1","1","-1","1","2","1","5","4","5","5","5","4","4","4","4","4","5","6","8","7","4","5","6","8","7","5","5","3","7","5","3","5","2","6","6","1","3","3","6","3","6","5","5","3","6","3","3","6","5","3","5","7","6","5","5","5","5","7","7","6","3","7","5","6","3","7","652595581352411136","王","446","Male","[""好他"",""坏我"",""好我"",""坏他""]","[""强他"",""弱我"",""强我"",""弱他""]","","","","","","","","7","","","","","","","","","SRET","SRET_math_calculate","","key","7","8.370042194092877","640","396","","","","","6+1= ?","7","1","","","","","","","",""
"1840","","3","psychophysics","131","474407","0.0-7.0-5.0-0.28","5","4","5","3","1","5","2","5","5","5","5","0","0","1","1","-1","1","2","1","5","4","5","5","5","4","4","4","4","4","5","6","8","7","4","5","6","8","7","5","5","3","7","5","3","5","2","6","6","1","3","3","6","3","6","5","5","3","6","3","3","6","5","3","5","7","6","5","5","5","5","7","7","6","3","7","5","6","3","7","652595581352411136","王","446","Male","[""好他"",""坏我"",""好我"",""坏他""]","[""强他"",""弱我"",""强我"",""弱他""]","","","","","","","","3","","","","","","","","","SRET","SRET_math_calculate","","key","3","8.638532110091797","640","396","","","","","2+1= ?","3","1","","","","","","","",""
"2089","","3","psychophysics","132","476497","0.0-7.0-5.0-0.29","5","4","5","3","1","5","2","5","5","5","5","0","0","1","1","-1","1","2","1","5","4","5","5","5","4","4","4","4","4","5","6","8","7","4","5","6","8","7","5","5","3","7","5","3","5","2","6","6","1","3","3","6","3","6","5","5","3","6","3","3","6","5","3","5","7","6","5","5","5","5","7","7","6","3","7","5","6","3","7","652595581352411136","王","446","Male","[""好他"",""坏我"",""好我"",""坏他""]","[""强他"",""弱我"",""强我"",""弱他""]","","","","","","","","3","","","","","","","","","SRET","SRET_math_calculate","","key","3","8.368273092369524","640","396","","","","","3*1= ?","3","1","","","","","","","",""
"2263","","5","psychophysics","133","478761","0.0-7.0-5.0-0.30","5","4","5","3","1","5","2","5","5","5","5","0","0","1","1","-1","1","2","1","5","4","5","5","5","4","4","4","4","4","5","6","8","7","4","5","6","8","7","5","5","3","7","5","3","5","2","6","6","1","3","3","6","3","6","5","5","3","6","3","3","6","5","3","5","7","6","5","5","5","5","7","7","6","3","7","5","6","3","7","652595581352411136","王","446","Male","[""好他"",""坏我"",""好我"",""坏他""]","[""强他"",""弱我"",""强我"",""弱他""]","","","","","","","","5","","","","","","","","","SRET","SRET_math_calculate","","key","5","8.33222222222205","640","396","","","","","10-5= ?","5","1","","","","","","","",""
"1990","","5","psychophysics","134","480774","0.0-7.0-5.0-0.31","5","4","5","3","1","5","2","5","5","5","5","0","0","1","1","-1","1","2","1","5","4","5","5","5","4","4","4","4","4","5","6","8","7","4","5","6","8","7","5","5","3","7","5","3","5","2","6","6","1","3","3","6","3","6","5","5","3","6","3","3","6","5","3","5","7","6","5","5","5","5","7","7","6","3","7","5","6","3","7","652595581352411136","王","446","Male","[""好他"",""坏我"",""好我"",""坏他""]","[""强他"",""弱我"",""强我"",""弱他""]","","","","","","","","5","","","","","","","","","SRET","SRET_math_calculate","","key","5","8.367083333333236","640","396","","","","","8-3= ? ","5","1","","","","","","","",""
"2420","","0","psychophysics","135","483195","0.0-7.0-5.0-0.32","5","4","5","3","1","5","2","5","5","5","5","0","0","1","1","-1","1","2","1","5","4","5","5","5","4","4","4","4","4","5","6","8","7","4","5","6","8","7","5","5","3","7","5","3","5","2","6","6","1","3","3","6","3","6","5","5","3","6","3","3","6","5","3","5","7","6","5","5","5","5","7","7","6","3","7","5","6","3","7","652595581352411136","王","446","Male","[""好他"",""坏我"",""好我"",""坏他""]","[""强他"",""弱我"",""强我"",""弱他""]","","","","","","","","0","","","","","","","","","SRET","SRET_math_calculate","","key","0","8.36250000000008","640","396","","","","","32-32= ?","0","1","","","","","","","",""
"1836","","8","psychophysics","136","485053","0.0-7.0-5.0-0.33","5","4","5","3","1","5","2","5","5","5","5","0","0","1","1","-1","1","2","1","5","4","5","5","5","4","4","4","4","4","5","6","8","7","4","5","6","8","7","5","5","3","7","5","3","5","2","6","6","1","3","3","6","3","6","5","5","3","6","3","3","6","5","3","5","7","6","5","5","5","5","7","7","6","3","7","5","6","3","7","652595581352411136","王","446","Male","[""好他"",""坏我"",""好我"",""坏他""]","[""强他"",""弱我"",""强我"",""弱他""]","","","","","","","","8","","","","","","","","","SRET","SRET_math_calculate","","key","8","8.371945701357255","640","396","","","","","1+7= ?","8","1","","","","","","","",""
"2116","","9","psychophysics","137","487191","0.0-7.0-5.0-0.34","5","4","5","3","1","5","2","5","5","5","5","0","0","1","1","-1","1","2","1","5","4","5","5","5","4","4","4","4","4","5","6","8","7","4","5","6","8","7","5","5","3","7","5","3","5","2","6","6","1","3","3","6","3","6","5","5","3","6","3","3","6","5","3","5","7","6","5","5","5","5","7","7","6","3","7","5","6","3","7","652595581352411136","王","446","Male","[""好他"",""坏我"",""好我"",""坏他""]","[""强他"",""弱我"",""强我"",""弱他""]","","","","","","","","9","","","","","","","","","SRET","SRET_math_calculate","","key","9","8.366666666666667","640","396","","","","","7+2= ?","9","1","","","","","","","",""
"2249","","6","psychophysics","138","489441","0.0-7.0-5.0-0.35","5","4","5","3","1","5","2","5","5","5","5","0","0","1","1","-1","1","2","1","5","4","5","5","5","4","4","4","4","4","5","6","8","7","4","5","6","8","7","5","5","3","7","5","3","5","2","6","6","1","3","3","6","3","6","5","5","3","6","3","3","6","5","3","5","7","6","5","5","5","5","7","7","6","3","7","5","6","3","7","652595581352411136","王","446","Male","[""好他"",""坏我"",""好我"",""坏他""]","[""强他"",""弱我"",""强我"",""弱他""]","","","","","","","","6","","","","","","","","","SRET","SRET_math_calculate","","key","6","8.334200743494295","640","396","","","","","2+4= ?","6","1","","","","","","","",""
"2413","","2","psychophysics","139","491862","0.0-7.0-5.0-0.36","5","4","5","3","1","5","2","5","5","5","5","0","0","1","1","-1","1","2","1","5","4","5","5","5","4","4","4","4","4","5","6","8","7","4","5","6","8","7","5","5","3","7","5","3","5","2","6","6","1","3","3","6","3","6","5","5","3","6","3","3","6","5","3","5","7","6","5","5","5","5","7","7","6","3","7","5","6","3","7","652595581352411136","王","446","Male","[""好他"",""坏我"",""好我"",""坏他""]","[""强他"",""弱我"",""强我"",""弱他""]","","","","","","","","2","","","","","","","","","SRET","SRET_math_calculate","","key","2","8.334602076124607","640","396","","","","","8-6= ?","2","1","","","","","","","",""
"2719","","3","psychophysics","140","494588","0.0-7.0-5.0-0.37","5","4","5","3","1","5","2","5","5","5","5","0","0","1","1","-1","1","2","1","5","4","5","5","5","4","4","4","4","4","5","6","8","7","4","5","6","8","7","5","5","3","7","5","3","5","2","6","6","1","3","3","6","3","6","5","5","3","6","3","3","6","5","3","5","7","6","5","5","5","5","7","7","6","3","7","5","6","3","7","652595581352411136","王","446","Male","[""好他"",""坏我"",""好我"",""坏他""]","[""强他"",""弱我"",""强我"",""弱他""]","","","","","","","","3","","","","","","","","","SRET","SRET_math_calculate","","key","3","8.334556574923619","640","396","","","","","6/2= ?","3","1","","","","","","","",""
"2370","","4","psychophysics","141","496963","0.0-7.0-5.0-0.38","5","4","5","3","1","5","2","5","5","5","5","0","0","1","1","-1","1","2","1","5","4","5","5","5","4","4","4","4","4","5","6","8","7","4","5","6","8","7","5","5","3","7","5","3","5","2","6","6","1","3","3","6","3","6","5","5","3","6","3","3","6","5","3","5","7","6","5","5","5","5","7","7","6","3","7","5","6","3","7","652595581352411136","王","446","Male","[""好他"",""坏我"",""好我"",""坏他""]","[""强他"",""弱我"",""强我"",""弱他""]","","","","","","","","4","","","","","","","","","SRET","SRET_math_calculate","","key","4","8.3348591549297","640","396","","","","","8-4= ?","4","1","","","","","","","",""
"1977","","9","psychophysics","142","498942","0.0-7.0-5.0-0.39","5","4","5","3","1","5","2","5","5","5","5","0","0","1","1","-1","1","2","1","5","4","5","5","5","4","4","4","4","4","5","6","8","7","4","5","6","8","7","5","5","3","7","5","3","5","2","6","6","1","3","3","6","3","6","5","5","3","6","3","3","6","5","3","5","7","6","5","5","5","5","7","7","6","3","7","5","6","3","7","652595581352411136","王","446","Male","[""好他"",""坏我"",""好我"",""坏他""]","[""强他"",""弱我"",""强我"",""弱他""]","","","","","","","","9","","","","","","","","","SRET","SRET_math_calculate","","key","9","8.334322033898404","640","396","","","","","1*9= ?","9","1","","","","","","","",""
