"rt","stimulus","response","trial_type","trial_index","time_elapsed","internal_node_id","swb_1","swb_2","swb_3","swb_4","swb_5","LOT_1","LOT_2","LOT_3","LOT_4","LOT_5","LOT_6","IPC_1","IPC_2","IPC_3","IPC_4","IPC_5","IPC_6","IPC_7","IPC_8","MorIden_1","MorIden_2","MorIden_3","MorIden_4","MorIden_5","MorIden_6","MorIden_7","MorIden_8","MorIden_9","MorIden_10","moralSeImag_1","moralSeImag_2","moralSeImag_3","moralSeImag_4","moralSeImag_5","moralSeImag_6","moralSeImag_7","moralSeImag_8","moralSeImag_9","sde_1","sde_2","sde_3","sde_4","sde_5","sde_6","sde_7","sde_8","sde_9","sde_10","trap2","sde_11","sde_12","sde_13","sde_14","sde_15","sde_16","sde_17","sde_18","sde_19","sde_20","IM_1","IM_2","IM_3","IM_4","IM_5","IM_6","IM_7","IM_8","IM_9","IM_10","IM_11","IM_12","IM_13","IM_14","IM_15","IM_16","IM_17","IM_18","IM_19","IM_20","subj_idx","friend_name","ParticipantID","Sex","Word","Word2","value","success","timeout","failed_images","failed_audio","failed_video","user_agent","responses","item_order","radio_event_ids","radio_event_times","key_event_times","mouse_event_times","straightlining","zigzagging","honeypot","view_history","response_type","key_press","avg_frame_time","center_x","center_y","correct_response","correct","identity","Image","word","condition","task_id","screen_id","time_stamp","person","valence","domain","math","status","duration","question_order","trap2_item"
"4947","
   <p><div style='color:white; font-size: 25px'>您好，欢迎参加本次实验。</div></p>
   <p><div style='color:white; font-size: 25px'>为充分保障您的权利，请确保您已经知晓并同意《参与实验同意书》以及《数据公开知情同意书》。</div></p>
   <p><div style='color:white; font-size: 25px'>如果您未见过上述内容，请咨询实验员。</div></p>
   <p style='color:white; font-size: 25px'>如果您选择继续实验，则表示您已经清楚两份知情同意书的内容并同意。</p>
   <p><div style = ""color: pink;font-size:30px;"">请确保您记得day0的实验编号，您将在本次实验输入该编号，若您忘记，请咨询实验员后作答。</div></p>
   <p><div style = ""color:lightblue;font-size:25px;"">请您尽可能认真地作答，我们将依据您在各问卷和按键任务中的作答质量发放报酬。</div></p>
   <p> <div style = ""color: green""><按空格键至下页></div> </p>
   "," ","html-keyboard-response","0","4953","0.0-0.0","5","4","5","6","3","4","3","4","3","3","5","1","1","0","1","0","2","1","2","4","3","5","4","4","3","4","3","4","5","8","7","9","7","9","9","7","9","8","6","3","5","5","4","4","5","2","5","4","1","4","4","6","3","6","2","5","4","6","1","3","3","6","3","3","4","2","6","5","2","6","5","5","4","3","4","5","5","4","3","763057696781111297","黄","141","Male","[""坏他"",""坏我"",""好他"",""好我""]","[""弱他"",""弱我"",""强他"",""强我""]","","","","","","","","","","","","","","","","","","","","","","","","","","","","","","","","","","","","","","",""
"","","","call-function","1","4956","0.0-1.0-0.0","5","4","5","6","3","4","3","4","3","3","5","1","1","0","1","0","2","1","2","4","3","5","4","4","3","4","3","4","5","8","7","9","7","9","9","7","9","8","6","3","5","5","4","4","5","2","5","4","1","4","4","6","3","6","2","5","4","6","1","3","3","6","3","3","4","2","6","5","2","6","5","5","4","3","4","5","5","4","3","763057696781111297","黄","141","Male","[""坏他"",""坏我"",""好他"",""好我""]","[""弱他"",""弱我"",""强他"",""强我""]","","","","","","","","","","","","","","","","","","","","","","","","","","","","","","","","","","","","","","",""
"17369","","[{""name"":""Sex"",""value"":""0""},{""name"":""friend_name"",""value"":""黄""},{""name"":""ParticipantID"",""value"":""141""}]","survey-html-form","2","22326","0.0-1.0-1.0","5","4","5","6","3","4","3","4","3","3","5","1","1","0","1","0","2","1","2","4","3","5","4","4","3","4","3","4","5","8","7","9","7","9","9","7","9","8","6","3","5","5","4","4","5","2","5","4","1","4","4","6","3","6","2","5","4","6","1","3","3","6","3","3","4","2","6","5","2","6","5","5","4","3","4","5","5","4","3","763057696781111297","黄","141","Male","[""坏他"",""坏我"",""好他"",""好我""]","[""弱他"",""弱我"",""强他"",""强我""]","","","","","","","","","","","","","","","","","","","","","","","","","","","","","","","","","","","","","","",""
"","","","preload","3","22552","0.0-2.0","5","4","5","6","3","4","3","4","3","3","5","1","1","0","1","0","2","1","2","4","3","5","4","4","3","4","3","4","5","8","7","9","7","9","9","7","9","8","6","3","5","5","4","4","5","2","5","4","1","4","4","6","3","6","2","5","4","6","1","3","3","6","3","3","4","2","6","5","2","6","5","5","4","3","4","5","5","4","3","763057696781111297","黄","141","Male","[""坏他"",""坏我"",""好他"",""好我""]","[""弱他"",""弱我"",""强他"",""强我""]","","true","false","[]","[]","[]","","","","","","","","","","","","","","","","","","","","","","","","","","","","","","","","",""
"","","","fullscreen","4","257811","0.0-3.0","5","4","5","6","3","4","3","4","3","3","5","1","1","0","1","0","2","1","2","4","3","5","4","4","3","4","3","4","5","8","7","9","7","9","9","7","9","8","6","3","5","5","4","4","5","2","5","4","1","4","4","6","3","6","2","5","4","6","1","3","3","6","3","3","4","2","6","5","2","6","5","5","4","3","4","5","5","4","3","763057696781111297","黄","141","Male","[""坏他"",""坏我"",""好他"",""好我""]","[""弱他"",""弱我"",""强他"",""强我""]","","true","","","","","{}","","","","","","","","","","","","","","","","","","","","","","","","","","","","","","","",""
"7878.400000002235","","{""Q01"":""5"",""Q02"":""4"",""Q03"":""5"",""Q04"":""6"",""Q05"":""3""}","survey-template","5","265697","0.0-4.0","5","4","5","6","3","4","3","4","3","3","5","1","1","0","1","0","2","1","2","4","3","5","4","4","3","4","3","4","5","8","7","9","7","9","9","7","9","8","6","3","5","5","4","4","5","2","5","4","1","4","4","6","3","6","2","5","4","6","1","3","3","6","3","3","4","2","6","5","2","6","5","5","4","3","4","5","5","4","3","763057696781111297","黄","141","Male","[""坏他"",""坏我"",""好他"",""好我""]","[""弱他"",""弱我"",""强他"",""强我""]","","","","","","","","{""Q01"":""5"",""Q02"":""4"",""Q03"":""5"",""Q04"":""6"",""Q05"":""3""}","[0,1,2,3,4]","[""Q01"",""Q02"",""Q03"",""Q04"",""Q05"",""Q05""]","[1866.1000000014901,3459.400000002235,4538.10000000149,5274.10000000149,6266.5,6730]","[]","[1538.199999999255,1866.1000000014901,2618.199999999255,3009.900000002235,3459.400000002235,4162.199999999255,4538.10000000149,5274.10000000149,6266.5,6730,7578.300000000745,7875.699999999255]","0.4","0.75","0","","","","","","","","","","","","","","","","","","","","","","",""
"14741","","{""Q01"":""4"",""Q02"":""3"",""Q03"":""4"",""Q04"":""3"",""Q05"":""3"",""Q06"":""5""}","survey-template","6","280444","0.0-5.0","5","4","5","6","3","4","3","4","3","3","5","1","1","0","1","0","2","1","2","4","3","5","4","4","3","4","3","4","5","8","7","9","7","9","9","7","9","8","6","3","5","5","4","4","5","2","5","4","1","4","4","6","3","6","2","5","4","6","1","3","3","6","3","3","4","2","6","5","2","6","5","5","4","3","4","5","5","4","3","763057696781111297","黄","141","Male","[""坏他"",""坏我"",""好他"",""好我""]","[""弱他"",""弱我"",""强他"",""强我""]","","","","","","","","{""Q01"":""4"",""Q02"":""3"",""Q03"":""4"",""Q04"":""3"",""Q05"":""3"",""Q06"":""5""}","[0,1,2,3,4,5]","[""Q01"",""Q03"",""Q02"",""Q05"",""Q04"",""Q06"",""Q06"",""Q06""]","[2948.599999997765,4532.5,5596,7555.39999999851,9068.5,10628.199999999255,13307.300000000745,14188.89999999851]","[]","[1235.8999999985099,1627.699999999255,1915.3999999985099,2948.599999997765,3516.199999999255,3803.800000000745,4276.699999999255,4532.5,4924.5,5348.599999997765,5596,6467.5,7043.300000000745,7316.300000000745,7555.39999999851,9068.5,10628.199999999255,13307.300000000745,13908.699999999255,14188.89999999851,14460.300000000745,14739.699999999255]","0.5","0.6","0","","","","","","","","","","","","","","","","","","","","","","",""
"18571.800000000745","","{""Q01"":""1"",""Q02"":""1"",""Q03"":""0"",""Q04"":""1"",""Q05"":""0"",""Q06"":""2"",""Q07"":""1"",""Q08"":""2""}","survey-template","7","299022","0.0-6.0","5","4","5","6","3","4","3","4","3","3","5","1","1","0","1","0","2","1","2","4","3","5","4","4","3","4","3","4","5","8","7","9","7","9","9","7","9","8","6","3","5","5","4","4","5","2","5","4","1","4","4","6","3","6","2","5","4","6","1","3","3","6","3","3","4","2","6","5","2","6","5","5","4","3","4","5","5","4","3","763057696781111297","黄","141","Male","[""坏他"",""坏我"",""好他"",""好我""]","[""弱他"",""弱我"",""强他"",""强我""]","","","","","","","","{""Q01"":""1"",""Q02"":""1"",""Q03"":""0"",""Q04"":""1"",""Q05"":""0"",""Q06"":""2"",""Q07"":""1"",""Q08"":""2""}","[0,1,2,3,4,5,6,7]","[""Q01"",""Q02"",""Q03"",""Q05"",""Q04"",""Q06"",""Q07"",""Q08"",""Q06""]","[5560.800000000745,9314.70000000298,10195,12513.10000000149,13640.800000000745,14360.70000000298,15120.5,16801.900000002235,17640.800000000745]","[]","[5560.800000000745,6042.10000000149,6480.70000000298,8369.5,8699.5,9314.70000000298,10195,11096.800000000745,11610.5,12194.400000002235,12513.10000000149,13340,13640.800000000745,14360.70000000298,15120.5,16161.900000002235,16801.900000002235,17640.800000000745,18569.400000002235]","0.5","0.7142857142857143","0","","","","","","","","","","","","","","","","","","","","","","",""
"12545","","","instructions","8","311571","0.0-7.0","5","4","5","6","3","4","3","4","3","3","5","1","1","0","1","0","2","1","2","4","3","5","4","4","3","4","3","4","5","8","7","9","7","9","9","7","9","8","6","3","5","5","4","4","5","2","5","4","1","4","4","6","3","6","2","5","4","6","1","3","3","6","3","3","4","2","6","5","2","6","5","5","4","3","4","5","5","4","3","763057696781111297","黄","141","Male","[""坏他"",""坏我"",""好他"",""好我""]","[""弱他"",""弱我"",""强他"",""强我""]","","","","","","","","","","","","","","","","","[{""page_index"":0,""viewing_time"":12544}]","","","","","","","","","","","","","","","","","","","","","",""
"157829","","","instructions","9","469402","0.0-8.0-1.0-0.0","5","4","5","6","3","4","3","4","3","3","5","1","1","0","1","0","2","1","2","4","3","5","4","4","3","4","3","4","5","8","7","9","7","9","9","7","9","8","6","3","5","5","4","4","5","2","5","4","1","4","4","6","3","6","2","5","4","6","1","3","3","6","3","3","4","2","6","5","2","6","5","5","4","3","4","5","5","4","3","763057696781111297","黄","141","Male","[""坏他"",""坏我"",""好他"",""好我""]","[""弱他"",""弱我"",""强他"",""强我""]","","","","","","","","","","","","","","","","","[{""page_index"":0,""viewing_time"":7636},{""page_index"":1,""viewing_time"":70632},{""page_index"":0,""viewing_time"":10732},{""page_index"":1,""viewing_time"":66796},{""page_index"":2,""viewing_time"":904},{""page_index"":3,""viewing_time"":1129}]","","","","","","","","","","","","","","","","","","","","","",""
"679","","j","psychophysics","10","471087","0.0-8.0-1.0-1.0-0.0-0.0","5","4","5","6","3","4","3","4","3","3","5","1","1","0","1","0","2","1","2","4","3","5","4","4","3","4","3","4","5","8","7","9","7","9","9","7","9","8","6","3","5","5","4","4","5","2","5","4","1","4","4","6","3","6","2","5","4","6","1","3","3","6","3","3","4","2","6","5","2","6","5","5","4","3","4","5","5","4","3","763057696781111297","黄","141","Male","[""坏他"",""坏我"",""好他"",""好我""]","[""弱他"",""弱我"",""强他"",""强我""]","","","","","","","","match","","","","","","","","","","key","j","16.562660000000033","768","428","j","true","match","img/circle.png","强我","强我","prac_ALT2_ability","practice_ability","","","","","","","","",""
"null","<span style='color:GreenYellow; font-size: 70px;'>正确! </span>","null","html-keyboard-response","11","471589","0.0-8.0-1.0-1.0-0.0-1.0","5","4","5","6","3","4","3","4","3","3","5","1","1","0","1","0","2","1","2","4","3","5","4","4","3","4","3","4","5","8","7","9","7","9","9","7","9","8","6","3","5","5","4","4","5","2","5","4","1","4","4","6","3","6","2","5","4","6","1","3","3","6","3","3","4","2","6","5","2","6","5","5","4","3","4","5","5","4","3","763057696781111297","黄","141","Male","[""坏他"",""坏我"",""好他"",""好我""]","[""弱他"",""弱我"",""强他"",""强我""]","","","","","","","","","","","","","","","","","","","","","","","","","","","","","","feedback_test","","","","","","","","",""
"946","","f","psychophysics","12","473537","0.0-8.0-1.0-1.0-0.0-0.1","5","4","5","6","3","4","3","4","3","3","5","1","1","0","1","0","2","1","2","4","3","5","4","4","3","4","3","4","5","8","7","9","7","9","9","7","9","8","6","3","5","5","4","4","5","2","5","4","1","4","4","6","3","6","2","5","4","6","1","3","3","6","3","3","4","2","6","5","2","6","5","5","4","3","4","5","5","4","3","763057696781111297","黄","141","Male","[""坏他"",""坏我"",""好他"",""好我""]","[""弱他"",""弱我"",""强他"",""强我""]","","","","","","","","nonmatch","","","","","","","","","","key","f","16.56169230769225","768","428","f","true","nonmatch","img/pentagon.png","强他","弱他","prac_ALT2_ability","practice_ability","","","","","","","","",""
"null","<span style='color:GreenYellow; font-size: 70px;'>正确! </span>","null","html-keyboard-response","13","474039","0.0-8.0-1.0-1.0-0.0-1.1","5","4","5","6","3","4","3","4","3","3","5","1","1","0","1","0","2","1","2","4","3","5","4","4","3","4","3","4","5","8","7","9","7","9","9","7","9","8","6","3","5","5","4","4","5","2","5","4","1","4","4","6","3","6","2","5","4","6","1","3","3","6","3","3","4","2","6","5","2","6","5","5","4","3","4","5","5","4","3","763057696781111297","黄","141","Male","[""坏他"",""坏我"",""好他"",""好我""]","[""弱他"",""弱我"",""强他"",""强我""]","","","","","","","","","","","","","","","","","","","","","","","","","","","","","","feedback_test","","","","","","","","",""
"null","","null","psychophysics","14","476262","0.0-8.0-1.0-1.0-0.0-0.2","5","4","5","6","3","4","3","4","3","3","5","1","1","0","1","0","2","1","2","4","3","5","4","4","3","4","3","4","5","8","7","9","7","9","9","7","9","8","6","3","5","5","4","4","5","2","5","4","1","4","4","6","3","6","2","5","4","6","1","3","3","6","3","3","4","2","6","5","2","6","5","5","4","3","4","5","5","4","3","763057696781111297","黄","141","Male","[""坏他"",""坏我"",""好他"",""好我""]","[""弱他"",""弱我"",""强他"",""强我""]","","","","","","","","null","","","","","","","","","","key","null","16.561803030302997","768","428","f","false","nonmatch","img/trapezoid.png","弱他","强他","prac_ALT2_ability","practice_ability","","","","","","","","",""
"null","<span class='add_' style='color:yellow; font-size: 70px;'> 太慢! </span>","null","html-keyboard-response","15","476765","0.0-8.0-1.0-1.0-0.0-1.2","5","4","5","6","3","4","3","4","3","3","5","1","1","0","1","0","2","1","2","4","3","5","4","4","3","4","3","4","5","8","7","9","7","9","9","7","9","8","6","3","5","5","4","4","5","2","5","4","1","4","4","6","3","6","2","5","4","6","1","3","3","6","3","3","4","2","6","5","2","6","5","5","4","3","4","5","5","4","3","763057696781111297","黄","141","Male","[""坏他"",""坏我"",""好他"",""好我""]","[""弱他"",""弱我"",""强他"",""强我""]","","","","","","","","","","","","","","","","","","","","","","","","","","","","","","feedback_test","","","","","","","","",""
"883","","f","psychophysics","16","478650","0.0-8.0-1.0-1.0-0.0-0.3","5","4","5","6","3","4","3","4","3","3","5","1","1","0","1","0","2","1","2","4","3","5","4","4","3","4","3","4","5","8","7","9","7","9","9","7","9","8","6","3","5","5","4","4","5","2","5","4","1","4","4","6","3","6","2","5","4","6","1","3","3","6","3","3","4","2","6","5","2","6","5","5","4","3","4","5","5","4","3","763057696781111297","黄","141","Male","[""坏他"",""坏我"",""好他"",""好我""]","[""弱他"",""弱我"",""强他"",""强我""]","","","","","","","","nonmatch","","","","","","","","","","key","f","16.562469026548747","768","428","j","false","match","img/pentagon.png","弱他","弱他","prac_ALT2_ability","practice_ability","","","","","","","","",""
"null","<span style='color:red; font-size: 70px;'>错误! </span>","null","html-keyboard-response","17","479151","0.0-8.0-1.0-1.0-0.0-1.3","5","4","5","6","3","4","3","4","3","3","5","1","1","0","1","0","2","1","2","4","3","5","4","4","3","4","3","4","5","8","7","9","7","9","9","7","9","8","6","3","5","5","4","4","5","2","5","4","1","4","4","6","3","6","2","5","4","6","1","3","3","6","3","3","4","2","6","5","2","6","5","5","4","3","4","5","5","4","3","763057696781111297","黄","141","Male","[""坏他"",""坏我"",""好他"",""好我""]","[""弱他"",""弱我"",""强他"",""强我""]","","","","","","","","","","","","","","","","","","","","","","","","","","","","","","feedback_test","","","","","","","","",""
"833","","f","psychophysics","18","480987","0.0-8.0-1.0-1.0-0.0-0.4","5","4","5","6","3","4","3","4","3","3","5","1","1","0","1","0","2","1","2","4","3","5","4","4","3","4","3","4","5","8","7","9","7","9","9","7","9","8","6","3","5","5","4","4","5","2","5","4","1","4","4","6","3","6","2","5","4","6","1","3","3","6","3","3","4","2","6","5","2","6","5","5","4","3","4","5","5","4","3","763057696781111297","黄","141","Male","[""坏他"",""坏我"",""好他"",""好我""]","[""弱他"",""弱我"",""强他"",""强我""]","","","","","","","","nonmatch","","","","","","","","","","key","f","16.562272727272514","768","428","j","false","match","img/triangle.png","弱我","弱我","prac_ALT2_ability","practice_ability","","","","","","","","",""
"null","<span style='color:red; font-size: 70px;'>错误! </span>","null","html-keyboard-response","19","481488","0.0-8.0-1.0-1.0-0.0-1.4","5","4","5","6","3","4","3","4","3","3","5","1","1","0","1","0","2","1","2","4","3","5","4","4","3","4","3","4","5","8","7","9","7","9","9","7","9","8","6","3","5","5","4","4","5","2","5","4","1","4","4","6","3","6","2","5","4","6","1","3","3","6","3","3","4","2","6","5","2","6","5","5","4","3","4","5","5","4","3","763057696781111297","黄","141","Male","[""坏他"",""坏我"",""好他"",""好我""]","[""弱他"",""弱我"",""强他"",""强我""]","","","","","","","","","","","","","","","","","","","","","","","","","","","","","","feedback_test","","","","","","","","",""
"1140","","f","psychophysics","20","483631","0.0-8.0-1.0-1.0-0.0-0.5","5","4","5","6","3","4","3","4","3","3","5","1","1","0","1","0","2","1","2","4","3","5","4","4","3","4","3","4","5","8","7","9","7","9","9","7","9","8","6","3","5","5","4","4","5","2","5","4","1","4","4","6","3","6","2","5","4","6","1","3","3","6","3","3","4","2","6","5","2","6","5","5","4","3","4","5","5","4","3","763057696781111297","黄","141","Male","[""坏他"",""坏我"",""好他"",""好我""]","[""弱他"",""弱我"",""强他"",""强我""]","","","","","","","","nonmatch","","","","","","","","","","key","f","16.56255468749987","768","428","f","true","nonmatch","img/triangle.png","弱他","弱我","prac_ALT2_ability","practice_ability","","","","","","","","",""
"null","<span style='color:GreenYellow; font-size: 70px;'>正确! </span>","null","html-keyboard-response","21","484135","0.0-8.0-1.0-1.0-0.0-1.5","5","4","5","6","3","4","3","4","3","3","5","1","1","0","1","0","2","1","2","4","3","5","4","4","3","4","3","4","5","8","7","9","7","9","9","7","9","8","6","3","5","5","4","4","5","2","5","4","1","4","4","6","3","6","2","5","4","6","1","3","3","6","3","3","4","2","6","5","2","6","5","5","4","3","4","5","5","4","3","763057696781111297","黄","141","Male","[""坏他"",""坏我"",""好他"",""好我""]","[""弱他"",""弱我"",""强他"",""强我""]","","","","","","","","","","","","","","","","","","","","","","","","","","","","","","feedback_test","","","","","","","","",""
"1065","","j","psychophysics","22","486201","0.0-8.0-1.0-1.0-0.0-0.6","5","4","5","6","3","4","3","4","3","3","5","1","1","0","1","0","2","1","2","4","3","5","4","4","3","4","3","4","5","8","7","9","7","9","9","7","9","8","6","3","5","5","4","4","5","2","5","4","1","4","4","6","3","6","2","5","4","6","1","3","3","6","3","3","4","2","6","5","2","6","5","5","4","3","4","5","5","4","3","763057696781111297","黄","141","Male","[""坏他"",""坏我"",""好他"",""好我""]","[""弱他"",""弱我"",""强他"",""强我""]","","","","","","","","match","","","","","","","","","","key","j","16.56259677419345","768","428","j","true","match","img/pentagon.png","弱他","弱他","prac_ALT2_ability","practice_ability","","","","","","","","",""
"null","<span style='color:GreenYellow; font-size: 70px;'>正确! </span>","null","html-keyboard-response","23","486703","0.0-8.0-1.0-1.0-0.0-1.6","5","4","5","6","3","4","3","4","3","3","5","1","1","0","1","0","2","1","2","4","3","5","4","4","3","4","3","4","5","8","7","9","7","9","9","7","9","8","6","3","5","5","4","4","5","2","5","4","1","4","4","6","3","6","2","5","4","6","1","3","3","6","3","3","4","2","6","5","2","6","5","5","4","3","4","5","5","4","3","763057696781111297","黄","141","Male","[""坏他"",""坏我"",""好他"",""好我""]","[""弱他"",""弱我"",""强他"",""强我""]","","","","","","","","","","","","","","","","","","","","","","","","","","","","","","feedback_test","","","","","","","","",""
"1022","","f","psychophysics","24","488728","0.0-8.0-1.0-1.0-0.0-0.7","5","4","5","6","3","4","3","4","3","3","5","1","1","0","1","0","2","1","2","4","3","5","4","4","3","4","3","4","5","8","7","9","7","9","9","7","9","8","6","3","5","5","4","4","5","2","5","4","1","4","4","6","3","6","2","5","4","6","1","3","3","6","3","3","4","2","6","5","2","6","5","5","4","3","4","5","5","4","3","763057696781111297","黄","141","Male","[""坏他"",""坏我"",""好他"",""好我""]","[""弱他"",""弱我"",""强他"",""强我""]","","","","","","","","nonmatch","","","","","","","","","","key","f","16.562471074380234","768","428","f","true","nonmatch","img/pentagon.png","弱我","弱他","prac_ALT2_ability","practice_ability","","","","","","","","",""
"null","<span style='color:GreenYellow; font-size: 70px;'>正确! </span>","null","html-keyboard-response","25","489229","0.0-8.0-1.0-1.0-0.0-1.7","5","4","5","6","3","4","3","4","3","3","5","1","1","0","1","0","2","1","2","4","3","5","4","4","3","4","3","4","5","8","7","9","7","9","9","7","9","8","6","3","5","5","4","4","5","2","5","4","1","4","4","6","3","6","2","5","4","6","1","3","3","6","3","3","4","2","6","5","2","6","5","5","4","3","4","5","5","4","3","763057696781111297","黄","141","Male","[""坏他"",""坏我"",""好他"",""好我""]","[""弱他"",""弱我"",""强他"",""强我""]","","","","","","","","","","","","","","","","","","","","","","","","","","","","","","feedback_test","","","","","","","","",""
"788","","f","psychophysics","26","491020","0.0-8.0-1.0-1.0-0.0-0.8","5","4","5","6","3","4","3","4","3","3","5","1","1","0","1","0","2","1","2","4","3","5","4","4","3","4","3","4","5","8","7","9","7","9","9","7","9","8","6","3","5","5","4","4","5","2","5","4","1","4","4","6","3","6","2","5","4","6","1","3","3","6","3","3","4","2","6","5","2","6","5","5","4","3","4","5","5","4","3","763057696781111297","黄","141","Male","[""坏他"",""坏我"",""好他"",""好我""]","[""弱他"",""弱我"",""强他"",""强我""]","","","","","","","","nonmatch","","","","","","","","","","key","f","16.56262616822431","768","428","f","true","nonmatch","img/trapezoid.png","弱我","强他","prac_ALT2_ability","practice_ability","","","","","","","","",""
"null","<span style='color:GreenYellow; font-size: 70px;'>正确! </span>","null","html-keyboard-response","27","491522","0.0-8.0-1.0-1.0-0.0-1.8","5","4","5","6","3","4","3","4","3","3","5","1","1","0","1","0","2","1","2","4","3","5","4","4","3","4","3","4","5","8","7","9","7","9","9","7","9","8","6","3","5","5","4","4","5","2","5","4","1","4","4","6","3","6","2","5","4","6","1","3","3","6","3","3","4","2","6","5","2","6","5","5","4","3","4","5","5","4","3","763057696781111297","黄","141","Male","[""坏他"",""坏我"",""好他"",""好我""]","[""弱他"",""弱我"",""强他"",""强我""]","","","","","","","","","","","","","","","","","","","","","","","","","","","","","","feedback_test","","","","","","","","",""
"662","","f","psychophysics","28","493186","0.0-8.0-1.0-1.0-0.0-0.9","5","4","5","6","3","4","3","4","3","3","5","1","1","0","1","0","2","1","2","4","3","5","4","4","3","4","3","4","5","8","7","9","7","9","9","7","9","8","6","3","5","5","4","4","5","2","5","4","1","4","4","6","3","6","2","5","4","6","1","3","3","6","3","3","4","2","6","5","2","6","5","5","4","3","4","5","5","4","3","763057696781111297","黄","141","Male","[""坏他"",""坏我"",""好他"",""好我""]","[""弱他"",""弱我"",""强他"",""强我""]","","","","","","","","nonmatch","","","","","","","","","","key","f","16.562828282828","768","428","j","false","match","img/pentagon.png","弱他","弱他","prac_ALT2_ability","practice_ability","","","","","","","","",""
"null","<span style='color:red; font-size: 70px;'>错误! </span>","null","html-keyboard-response","29","493688","0.0-8.0-1.0-1.0-0.0-1.9","5","4","5","6","3","4","3","4","3","3","5","1","1","0","1","0","2","1","2","4","3","5","4","4","3","4","3","4","5","8","7","9","7","9","9","7","9","8","6","3","5","5","4","4","5","2","5","4","1","4","4","6","3","6","2","5","4","6","1","3","3","6","3","3","4","2","6","5","2","6","5","5","4","3","4","5","5","4","3","763057696781111297","黄","141","Male","[""坏他"",""坏我"",""好他"",""好我""]","[""弱他"",""弱我"",""强他"",""强我""]","","","","","","","","","","","","","","","","","","","","","","","","","","","","","","feedback_test","","","","","","","","",""
"828","","f","psychophysics","30","495518","0.0-8.0-1.0-1.0-0.0-0.10","5","4","5","6","3","4","3","4","3","3","5","1","1","0","1","0","2","1","2","4","3","5","4","4","3","4","3","4","5","8","7","9","7","9","9","7","9","8","6","3","5","5","4","4","5","2","5","4","1","4","4","6","3","6","2","5","4","6","1","3","3","6","3","3","4","2","6","5","2","6","5","5","4","3","4","5","5","4","3","763057696781111297","黄","141","Male","[""坏他"",""坏我"",""好他"",""好我""]","[""弱他"",""弱我"",""强他"",""强我""]","","","","","","","","nonmatch","","","","","","","","","","key","f","16.561467889908364","768","428","f","true","nonmatch","img/circle.png","弱我","强我","prac_ALT2_ability","practice_ability","","","","","","","","",""
"null","<span style='color:GreenYellow; font-size: 70px;'>正确! </span>","null","html-keyboard-response","31","496020","0.0-8.0-1.0-1.0-0.0-1.10","5","4","5","6","3","4","3","4","3","3","5","1","1","0","1","0","2","1","2","4","3","5","4","4","3","4","3","4","5","8","7","9","7","9","9","7","9","8","6","3","5","5","4","4","5","2","5","4","1","4","4","6","3","6","2","5","4","6","1","3","3","6","3","3","4","2","6","5","2","6","5","5","4","3","4","5","5","4","3","763057696781111297","黄","141","Male","[""坏他"",""坏我"",""好他"",""好我""]","[""弱他"",""弱我"",""强他"",""强我""]","","","","","","","","","","","","","","","","","","","","","","","","","","","","","","feedback_test","","","","","","","","",""
"894","","j","psychophysics","32","497916","0.0-8.0-1.0-1.0-0.0-0.11","5","4","5","6","3","4","3","4","3","3","5","1","1","0","1","0","2","1","2","4","3","5","4","4","3","4","3","4","5","8","7","9","7","9","9","7","9","8","6","3","5","5","4","4","5","2","5","4","1","4","4","6","3","6","2","5","4","6","1","3","3","6","3","3","4","2","6","5","2","6","5","5","4","3","4","5","5","4","3","763057696781111297","黄","141","Male","[""坏他"",""坏我"",""好他"",""好我""]","[""弱他"",""弱我"",""强他"",""强我""]","","","","","","","","match","","","","","","","","","","key","j","16.562477876106176","768","428","j","true","match","img/trapezoid.png","强他","强他","prac_ALT2_ability","practice_ability","","","","","","","","",""
"null","<span style='color:GreenYellow; font-size: 70px;'>正确! </span>","null","html-keyboard-response","33","498417","0.0-8.0-1.0-1.0-0.0-1.11","5","4","5","6","3","4","3","4","3","3","5","1","1","0","1","0","2","1","2","4","3","5","4","4","3","4","3","4","5","8","7","9","7","9","9","7","9","8","6","3","5","5","4","4","5","2","5","4","1","4","4","6","3","6","2","5","4","6","1","3","3","6","3","3","4","2","6","5","2","6","5","5","4","3","4","5","5","4","3","763057696781111297","黄","141","Male","[""坏他"",""坏我"",""好他"",""好我""]","[""弱他"",""弱我"",""强他"",""强我""]","","","","","","","","","","","","","","","","","","","","","","","","","","","","","","feedback_test","","","","","","","","",""
"630","","j","psychophysics","34","500048","0.0-8.0-1.0-1.0-0.0-0.12","5","4","5","6","3","4","3","4","3","3","5","1","1","0","1","0","2","1","2","4","3","5","4","4","3","4","3","4","5","8","7","9","7","9","9","7","9","8","6","3","5","5","4","4","5","2","5","4","1","4","4","6","3","6","2","5","4","6","1","3","3","6","3","3","4","2","6","5","2","6","5","5","4","3","4","5","5","4","3","763057696781111297","黄","141","Male","[""坏他"",""坏我"",""好他"",""好我""]","[""弱他"",""弱我"",""强他"",""强我""]","","","","","","","","match","","","","","","","","","","key","j","16.5625","768","428","j","true","match","img/circle.png","强我","强我","prac_ALT2_ability","practice_ability","","","","","","","","",""
"null","<span style='color:GreenYellow; font-size: 70px;'>正确! </span>","null","html-keyboard-response","35","500550","0.0-8.0-1.0-1.0-0.0-1.12","5","4","5","6","3","4","3","4","3","3","5","1","1","0","1","0","2","1","2","4","3","5","4","4","3","4","3","4","5","8","7","9","7","9","9","7","9","8","6","3","5","5","4","4","5","2","5","4","1","4","4","6","3","6","2","5","4","6","1","3","3","6","3","3","4","2","6","5","2","6","5","5","4","3","4","5","5","4","3","763057696781111297","黄","141","Male","[""坏他"",""坏我"",""好他"",""好我""]","[""弱他"",""弱我"",""强他"",""强我""]","","","","","","","","","","","","","","","","","","","","","","","","","","","","","","feedback_test","","","","","","","","",""
"678","","f","psychophysics","36","502230","0.0-8.0-1.0-1.0-0.0-0.13","5","4","5","6","3","4","3","4","3","3","5","1","1","0","1","0","2","1","2","4","3","5","4","4","3","4","3","4","5","8","7","9","7","9","9","7","9","8","6","3","5","5","4","4","5","2","5","4","1","4","4","6","3","6","2","5","4","6","1","3","3","6","3","3","4","2","6","5","2","6","5","5","4","3","4","5","5","4","3","763057696781111297","黄","141","Male","[""坏他"",""坏我"",""好他"",""好我""]","[""弱他"",""弱我"",""强他"",""强我""]","","","","","","","","nonmatch","","","","","","","","","","key","f","16.561870000000344","768","428","f","true","nonmatch","img/circle.png","弱他","强我","prac_ALT2_ability","practice_ability","","","","","","","","",""
"null","<span style='color:GreenYellow; font-size: 70px;'>正确! </span>","null","html-keyboard-response","37","502734","0.0-8.0-1.0-1.0-0.0-1.13","5","4","5","6","3","4","3","4","3","3","5","1","1","0","1","0","2","1","2","4","3","5","4","4","3","4","3","4","5","8","7","9","7","9","9","7","9","8","6","3","5","5","4","4","5","2","5","4","1","4","4","6","3","6","2","5","4","6","1","3","3","6","3","3","4","2","6","5","2","6","5","5","4","3","4","5","5","4","3","763057696781111297","黄","141","Male","[""坏他"",""坏我"",""好他"",""好我""]","[""弱他"",""弱我"",""强他"",""强我""]","","","","","","","","","","","","","","","","","","","","","","","","","","","","","","feedback_test","","","","","","","","",""
"671","","f","psychophysics","38","504406","0.0-8.0-1.0-1.0-0.0-0.14","5","4","5","6","3","4","3","4","3","3","5","1","1","0","1","0","2","1","2","4","3","5","4","4","3","4","3","4","5","8","7","9","7","9","9","7","9","8","6","3","5","5","4","4","5","2","5","4","1","4","4","6","3","6","2","5","4","6","1","3","3","6","3","3","4","2","6","5","2","6","5","5","4","3","4","5","5","4","3","763057696781111297","黄","141","Male","[""坏他"",""坏我"",""好他"",""好我""]","[""弱他"",""弱我"",""强他"",""强我""]","","","","","","","","nonmatch","","","","","","","","","","key","f","16.562820000000066","768","428","j","false","match","img/triangle.png","弱我","弱我","prac_ALT2_ability","practice_ability","","","","","","","","",""
"null","<span style='color:red; font-size: 70px;'>错误! </span>","null","html-keyboard-response","39","504907","0.0-8.0-1.0-1.0-0.0-1.14","5","4","5","6","3","4","3","4","3","3","5","1","1","0","1","0","2","1","2","4","3","5","4","4","3","4","3","4","5","8","7","9","7","9","9","7","9","8","6","3","5","5","4","4","5","2","5","4","1","4","4","6","3","6","2","5","4","6","1","3","3","6","3","3","4","2","6","5","2","6","5","5","4","3","4","5","5","4","3","763057696781111297","黄","141","Male","[""坏他"",""坏我"",""好他"",""好我""]","[""弱他"",""弱我"",""强他"",""强我""]","","","","","","","","","","","","","","","","","","","","","","","","","","","","","","feedback_test","","","","","","","","",""
"602","","j","psychophysics","40","506512","0.0-8.0-1.0-1.0-0.0-0.15","5","4","5","6","3","4","3","4","3","3","5","1","1","0","1","0","2","1","2","4","3","5","4","4","3","4","3","4","5","8","7","9","7","9","9","7","9","8","6","3","5","5","4","4","5","2","5","4","1","4","4","6","3","6","2","5","4","6","1","3","3","6","3","3","4","2","6","5","2","6","5","5","4","3","4","5","5","4","3","763057696781111297","黄","141","Male","[""坏他"",""坏我"",""好他"",""好我""]","[""弱他"",""弱我"",""强他"",""强我""]","","","","","","","","match","","","","","","","","","","key","j","16.562739583333798","768","428","f","false","nonmatch","img/triangle.png","强他","弱我","prac_ALT2_ability","practice_ability","","","","","","","","",""
"null","<span style='color:red; font-size: 70px;'>错误! </span>","null","html-keyboard-response","41","507014","0.0-8.0-1.0-1.0-0.0-1.15","5","4","5","6","3","4","3","4","3","3","5","1","1","0","1","0","2","1","2","4","3","5","4","4","3","4","3","4","5","8","7","9","7","9","9","7","9","8","6","3","5","5","4","4","5","2","5","4","1","4","4","6","3","6","2","5","4","6","1","3","3","6","3","3","4","2","6","5","2","6","5","5","4","3","4","5","5","4","3","763057696781111297","黄","141","Male","[""坏他"",""坏我"",""好他"",""好我""]","[""弱他"",""弱我"",""强他"",""强我""]","","","","","","","","","","","","","","","","","","","","","","","","","","","","","","feedback_test","","","","","","","","",""
"672","","f","psychophysics","42","508688","0.0-8.0-1.0-1.0-0.0-0.16","5","4","5","6","3","4","3","4","3","3","5","1","1","0","1","0","2","1","2","4","3","5","4","4","3","4","3","4","5","8","7","9","7","9","9","7","9","8","6","3","5","5","4","4","5","2","5","4","1","4","4","6","3","6","2","5","4","6","1","3","3","6","3","3","4","2","6","5","2","6","5","5","4","3","4","5","5","4","3","763057696781111297","黄","141","Male","[""坏他"",""坏我"",""好他"",""好我""]","[""弱他"",""弱我"",""强他"",""强我""]","","","","","","","","nonmatch","","","","","","","","","","key","f","16.561840000000085","768","428","f","true","nonmatch","img/trapezoid.png","强我","强他","prac_ALT2_ability","practice_ability","","","","","","","","",""
"null","<span style='color:GreenYellow; font-size: 70px;'>正确! </span>","null","html-keyboard-response","43","509190","0.0-8.0-1.0-1.0-0.0-1.16","5","4","5","6","3","4","3","4","3","3","5","1","1","0","1","0","2","1","2","4","3","5","4","4","3","4","3","4","5","8","7","9","7","9","9","7","9","8","6","3","5","5","4","4","5","2","5","4","1","4","4","6","3","6","2","5","4","6","1","3","3","6","3","3","4","2","6","5","2","6","5","5","4","3","4","5","5","4","3","763057696781111297","黄","141","Male","[""坏他"",""坏我"",""好他"",""好我""]","[""弱他"",""弱我"",""强他"",""强我""]","","","","","","","","","","","","","","","","","","","","","","","","","","","","","","feedback_test","","","","","","","","",""
"785","","f","psychophysics","44","510977","0.0-8.0-1.0-1.0-0.0-0.17","5","4","5","6","3","4","3","4","3","3","5","1","1","0","1","0","2","1","2","4","3","5","4","4","3","4","3","4","5","8","7","9","7","9","9","7","9","8","6","3","5","5","4","4","5","2","5","4","1","4","4","6","3","6","2","5","4","6","1","3","3","6","3","3","4","2","6","5","2","6","5","5","4","3","4","5","5","4","3","763057696781111297","黄","141","Male","[""坏他"",""坏我"",""好他"",""好我""]","[""弱他"",""弱我"",""强他"",""强我""]","","","","","","","","nonmatch","","","","","","","","","","key","f","16.562121495327077","768","428","j","false","match","img/trapezoid.png","强他","强他","prac_ALT2_ability","practice_ability","","","","","","","","",""
"null","<span style='color:red; font-size: 70px;'>错误! </span>","null","html-keyboard-response","45","511479","0.0-8.0-1.0-1.0-0.0-1.17","5","4","5","6","3","4","3","4","3","3","5","1","1","0","1","0","2","1","2","4","3","5","4","4","3","4","3","4","5","8","7","9","7","9","9","7","9","8","6","3","5","5","4","4","5","2","5","4","1","4","4","6","3","6","2","5","4","6","1","3","3","6","3","3","4","2","6","5","2","6","5","5","4","3","4","5","5","4","3","763057696781111297","黄","141","Male","[""坏他"",""坏我"",""好他"",""好我""]","[""弱他"",""弱我"",""强他"",""强我""]","","","","","","","","","","","","","","","","","","","","","","","","","","","","","","feedback_test","","","","","","","","",""
"617","","j","psychophysics","46","513097","0.0-8.0-1.0-1.0-0.0-0.18","5","4","5","6","3","4","3","4","3","3","5","1","1","0","1","0","2","1","2","4","3","5","4","4","3","4","3","4","5","8","7","9","7","9","9","7","9","8","6","3","5","5","4","4","5","2","5","4","1","4","4","6","3","6","2","5","4","6","1","3","3","6","3","3","4","2","6","5","2","6","5","5","4","3","4","5","5","4","3","763057696781111297","黄","141","Male","[""坏他"",""坏我"",""好他"",""好我""]","[""弱他"",""弱我"",""强他"",""强我""]","","","","","","","","match","","","","","","","","","","key","j","16.562690721649542","768","428","j","true","match","img/trapezoid.png","强他","强他","prac_ALT2_ability","practice_ability","","","","","","","","",""
"null","<span style='color:GreenYellow; font-size: 70px;'>正确! </span>","null","html-keyboard-response","47","513599","0.0-8.0-1.0-1.0-0.0-1.18","5","4","5","6","3","4","3","4","3","3","5","1","1","0","1","0","2","1","2","4","3","5","4","4","3","4","3","4","5","8","7","9","7","9","9","7","9","8","6","3","5","5","4","4","5","2","5","4","1","4","4","6","3","6","2","5","4","6","1","3","3","6","3","3","4","2","6","5","2","6","5","5","4","3","4","5","5","4","3","763057696781111297","黄","141","Male","[""坏他"",""坏我"",""好他"",""好我""]","[""弱他"",""弱我"",""强他"",""强我""]","","","","","","","","","","","","","","","","","","","","","","","","","","","","","","feedback_test","","","","","","","","",""
"1130","","f","psychophysics","48","515731","0.0-8.0-1.0-1.0-0.0-0.19","5","4","5","6","3","4","3","4","3","3","5","1","1","0","1","0","2","1","2","4","3","5","4","4","3","4","3","4","5","8","7","9","7","9","9","7","9","8","6","3","5","5","4","4","5","2","5","4","1","4","4","6","3","6","2","5","4","6","1","3","3","6","3","3","4","2","6","5","2","6","5","5","4","3","4","5","5","4","3","763057696781111297","黄","141","Male","[""坏他"",""坏我"",""好他"",""好我""]","[""弱他"",""弱我"",""强他"",""强我""]","","","","","","","","nonmatch","","","","","","","","","","key","f","16.562445312499676","768","428","f","true","nonmatch","img/circle.png","强他","强我","prac_ALT2_ability","practice_ability","","","","","","","","",""
"null","<span style='color:GreenYellow; font-size: 70px;'>正确! </span>","null","html-keyboard-response","49","516234","0.0-8.0-1.0-1.0-0.0-1.19","5","4","5","6","3","4","3","4","3","3","5","1","1","0","1","0","2","1","2","4","3","5","4","4","3","4","3","4","5","8","7","9","7","9","9","7","9","8","6","3","5","5","4","4","5","2","5","4","1","4","4","6","3","6","2","5","4","6","1","3","3","6","3","3","4","2","6","5","2","6","5","5","4","3","4","5","5","4","3","763057696781111297","黄","141","Male","[""坏他"",""坏我"",""好他"",""好我""]","[""弱他"",""弱我"",""强他"",""强我""]","","","","","","","","","","","","","","","","","","","","","","","","","","","","","","feedback_test","","","","","","","","",""
"751","","j","psychophysics","50","517988","0.0-8.0-1.0-1.0-0.0-0.20","5","4","5","6","3","4","3","4","3","3","5","1","1","0","1","0","2","1","2","4","3","5","4","4","3","4","3","4","5","8","7","9","7","9","9","7","9","8","6","3","5","5","4","4","5","2","5","4","1","4","4","6","3","6","2","5","4","6","1","3","3","6","3","3","4","2","6","5","2","6","5","5","4","3","4","5","5","4","3","763057696781111297","黄","141","Male","[""坏他"",""坏我"",""好他"",""好我""]","[""弱他"",""弱我"",""强他"",""强我""]","","","","","","","","match","","","","","","","","","","key","j","16.562638095238","768","428","j","true","match","img/circle.png","强我","强我","prac_ALT2_ability","practice_ability","","","","","","","","",""
"null","<span style='color:GreenYellow; font-size: 70px;'>正确! </span>","null","html-keyboard-response","51","518490","0.0-8.0-1.0-1.0-0.0-1.20","5","4","5","6","3","4","3","4","3","3","5","1","1","0","1","0","2","1","2","4","3","5","4","4","3","4","3","4","5","8","7","9","7","9","9","7","9","8","6","3","5","5","4","4","5","2","5","4","1","4","4","6","3","6","2","5","4","6","1","3","3","6","3","3","4","2","6","5","2","6","5","5","4","3","4","5","5","4","3","763057696781111297","黄","141","Male","[""坏他"",""坏我"",""好他"",""好我""]","[""弱他"",""弱我"",""强他"",""强我""]","","","","","","","","","","","","","","","","","","","","","","","","","","","","","","feedback_test","","","","","","","","",""
"763","","f","psychophysics","52","520255","0.0-8.0-1.0-1.0-0.0-0.21","5","4","5","6","3","4","3","4","3","3","5","1","1","0","1","0","2","1","2","4","3","5","4","4","3","4","3","4","5","8","7","9","7","9","9","7","9","8","6","3","5","5","4","4","5","2","5","4","1","4","4","6","3","6","2","5","4","6","1","3","3","6","3","3","4","2","6","5","2","6","5","5","4","3","4","5","5","4","3","763057696781111297","黄","141","Male","[""坏他"",""坏我"",""好他"",""好我""]","[""弱他"",""弱我"",""强他"",""强我""]","","","","","","","","nonmatch","","","","","","","","","","key","f","16.562773584905475","768","428","j","false","match","img/triangle.png","弱我","弱我","prac_ALT2_ability","practice_ability","","","","","","","","",""
"null","<span style='color:red; font-size: 70px;'>错误! </span>","null","html-keyboard-response","53","520756","0.0-8.0-1.0-1.0-0.0-1.21","5","4","5","6","3","4","3","4","3","3","5","1","1","0","1","0","2","1","2","4","3","5","4","4","3","4","3","4","5","8","7","9","7","9","9","7","9","8","6","3","5","5","4","4","5","2","5","4","1","4","4","6","3","6","2","5","4","6","1","3","3","6","3","3","4","2","6","5","2","6","5","5","4","3","4","5","5","4","3","763057696781111297","黄","141","Male","[""坏他"",""坏我"",""好他"",""好我""]","[""弱他"",""弱我"",""强他"",""强我""]","","","","","","","","","","","","","","","","","","","","","","","","","","","","","","feedback_test","","","","","","","","",""
"788","","f","psychophysics","54","522547","0.0-8.0-1.0-1.0-0.0-0.22","5","4","5","6","3","4","3","4","3","3","5","1","1","0","1","0","2","1","2","4","3","5","4","4","3","4","3","4","5","8","7","9","7","9","9","7","9","8","6","3","5","5","4","4","5","2","5","4","1","4","4","6","3","6","2","5","4","6","1","3","3","6","3","3","4","2","6","5","2","6","5","5","4","3","4","5","5","4","3","763057696781111297","黄","141","Male","[""坏他"",""坏我"",""好他"",""好我""]","[""弱他"",""弱我"",""强他"",""强我""]","","","","","","","","nonmatch","","","","","","","","","","key","f","16.5626355140186","768","428","f","true","nonmatch","img/pentagon.png","强我","弱他","prac_ALT2_ability","practice_ability","","","","","","","","",""
"null","<span style='color:GreenYellow; font-size: 70px;'>正确! </span>","null","html-keyboard-response","55","523048","0.0-8.0-1.0-1.0-0.0-1.22","5","4","5","6","3","4","3","4","3","3","5","1","1","0","1","0","2","1","2","4","3","5","4","4","3","4","3","4","5","8","7","9","7","9","9","7","9","8","6","3","5","5","4","4","5","2","5","4","1","4","4","6","3","6","2","5","4","6","1","3","3","6","3","3","4","2","6","5","2","6","5","5","4","3","4","5","5","4","3","763057696781111297","黄","141","Male","[""坏他"",""坏我"",""好他"",""好我""]","[""弱他"",""弱我"",""强他"",""强我""]","","","","","","","","","","","","","","","","","","","","","","","","","","","","","","feedback_test","","","","","","","","",""
"829","","f","psychophysics","56","524879","0.0-8.0-1.0-1.0-0.0-0.23","5","4","5","6","3","4","3","4","3","3","5","1","1","0","1","0","2","1","2","4","3","5","4","4","3","4","3","4","5","8","7","9","7","9","9","7","9","8","6","3","5","5","4","4","5","2","5","4","1","4","4","6","3","6","2","5","4","6","1","3","3","6","3","3","4","2","6","5","2","6","5","5","4","3","4","5","5","4","3","763057696781111297","黄","141","Male","[""坏他"",""坏我"",""好他"",""好我""]","[""弱他"",""弱我"",""强他"",""强我""]","","","","","","","","nonmatch","","","","","","","","","","key","f","16.562477064219628","768","428","f","true","nonmatch","img/triangle.png","强我","弱我","prac_ALT2_ability","practice_ability","","","","","","","","",""
"null","<span style='color:GreenYellow; font-size: 70px;'>正确! </span>","null","html-keyboard-response","57","525381","0.0-8.0-1.0-1.0-0.0-1.23","5","4","5","6","3","4","3","4","3","3","5","1","1","0","1","0","2","1","2","4","3","5","4","4","3","4","3","4","5","8","7","9","7","9","9","7","9","8","6","3","5","5","4","4","5","2","5","4","1","4","4","6","3","6","2","5","4","6","1","3","3","6","3","3","4","2","6","5","2","6","5","5","4","3","4","5","5","4","3","763057696781111297","黄","141","Male","[""坏他"",""坏我"",""好他"",""好我""]","[""弱他"",""弱我"",""强他"",""强我""]","","","","","","","","","","","","","","","","","","","","","","","","","","","","","","feedback_test","","","","","","","","",""
"824","","f","psychophysics","58","527209","0.0-8.0-1.0-1.0-0.0-0.24","5","4","5","6","3","4","3","4","3","3","5","1","1","0","1","0","2","1","2","4","3","5","4","4","3","4","3","4","5","8","7","9","7","9","9","7","9","8","6","3","5","5","4","4","5","2","5","4","1","4","4","6","3","6","2","5","4","6","1","3","3","6","3","3","4","2","6","5","2","6","5","5","4","3","4","5","5","4","3","763057696781111297","黄","141","Male","[""坏他"",""坏我"",""好他"",""好我""]","[""弱他"",""弱我"",""强他"",""强我""]","","","","","","","","nonmatch","","","","","","","","","","key","f","16.562327272727536","768","428","f","true","nonmatch","img/pentagon.png","强他","弱他","prac_ALT2_ability","practice_ability","","","","","","","","",""
"null","<span style='color:GreenYellow; font-size: 70px;'>正确! </span>","null","html-keyboard-response","59","527711","0.0-8.0-1.0-1.0-0.0-1.24","5","4","5","6","3","4","3","4","3","3","5","1","1","0","1","0","2","1","2","4","3","5","4","4","3","4","3","4","5","8","7","9","7","9","9","7","9","8","6","3","5","5","4","4","5","2","5","4","1","4","4","6","3","6","2","5","4","6","1","3","3","6","3","3","4","2","6","5","2","6","5","5","4","3","4","5","5","4","3","763057696781111297","黄","141","Male","[""坏他"",""坏我"",""好他"",""好我""]","[""弱他"",""弱我"",""强他"",""强我""]","","","","","","","","","","","","","","","","","","","","","","","","","","","","","","feedback_test","","","","","","","","",""
"1022","","j","psychophysics","60","529735","0.0-8.0-1.0-1.0-0.0-0.25","5","4","5","6","3","4","3","4","3","3","5","1","1","0","1","0","2","1","2","4","3","5","4","4","3","4","3","4","5","8","7","9","7","9","9","7","9","8","6","3","5","5","4","4","5","2","5","4","1","4","4","6","3","6","2","5","4","6","1","3","3","6","3","3","4","2","6","5","2","6","5","5","4","3","4","5","5","4","3","763057696781111297","黄","141","Male","[""坏他"",""坏我"",""好他"",""好我""]","[""弱他"",""弱我"",""强他"",""强我""]","","","","","","","","match","","","","","","","","","","key","j","16.562462809917033","768","428","f","false","nonmatch","img/trapezoid.png","弱我","强他","prac_ALT2_ability","practice_ability","","","","","","","","",""
"null","<span style='color:red; font-size: 70px;'>错误! </span>","null","html-keyboard-response","61","530238","0.0-8.0-1.0-1.0-0.0-1.25","5","4","5","6","3","4","3","4","3","3","5","1","1","0","1","0","2","1","2","4","3","5","4","4","3","4","3","4","5","8","7","9","7","9","9","7","9","8","6","3","5","5","4","4","5","2","5","4","1","4","4","6","3","6","2","5","4","6","1","3","3","6","3","3","4","2","6","5","2","6","5","5","4","3","4","5","5","4","3","763057696781111297","黄","141","Male","[""坏他"",""坏我"",""好他"",""好我""]","[""弱他"",""弱我"",""强他"",""强我""]","","","","","","","","","","","","","","","","","","","","","","","","","","","","","","feedback_test","","","","","","","","",""
"882","","f","psychophysics","62","532123","0.0-8.0-1.0-1.0-0.0-0.26","5","4","5","6","3","4","3","4","3","3","5","1","1","0","1","0","2","1","2","4","3","5","4","4","3","4","3","4","5","8","7","9","7","9","9","7","9","8","6","3","5","5","4","4","5","2","5","4","1","4","4","6","3","6","2","5","4","6","1","3","3","6","3","3","4","2","6","5","2","6","5","5","4","3","4","5","5","4","3","763057696781111297","黄","141","Male","[""坏他"",""坏我"",""好他"",""好我""]","[""弱他"",""弱我"",""强他"",""强我""]","","","","","","","","nonmatch","","","","","","","","","","key","f","16.562482142857334","768","428","f","true","nonmatch","img/trapezoid.png","弱他","强他","prac_ALT2_ability","practice_ability","","","","","","","","",""
"null","<span style='color:GreenYellow; font-size: 70px;'>正确! </span>","null","html-keyboard-response","63","532624","0.0-8.0-1.0-1.0-0.0-1.26","5","4","5","6","3","4","3","4","3","3","5","1","1","0","1","0","2","1","2","4","3","5","4","4","3","4","3","4","5","8","7","9","7","9","9","7","9","8","6","3","5","5","4","4","5","2","5","4","1","4","4","6","3","6","2","5","4","6","1","3","3","6","3","3","4","2","6","5","2","6","5","5","4","3","4","5","5","4","3","763057696781111297","黄","141","Male","[""坏他"",""坏我"",""好他"",""好我""]","[""弱他"",""弱我"",""强他"",""强我""]","","","","","","","","","","","","","","","","","","","","","","","","","","","","","","feedback_test","","","","","","","","",""
"1097","","f","psychophysics","64","534723","0.0-8.0-1.0-1.0-0.0-0.27","5","4","5","6","3","4","3","4","3","3","5","1","1","0","1","0","2","1","2","4","3","5","4","4","3","4","3","4","5","8","7","9","7","9","9","7","9","8","6","3","5","5","4","4","5","2","5","4","1","4","4","6","3","6","2","5","4","6","1","3","3","6","3","3","4","2","6","5","2","6","5","5","4","3","4","5","5","4","3","763057696781111297","黄","141","Male","[""坏他"",""坏我"",""好他"",""好我""]","[""弱他"",""弱我"",""强他"",""强我""]","","","","","","","","nonmatch","","","","","","","","","","key","f","16.562391999999992","768","428","f","true","nonmatch","img/triangle.png","强我","弱我","prac_ALT2_ability","practice_ability","","","","","","","","",""
"null","<span style='color:GreenYellow; font-size: 70px;'>正确! </span>","null","html-keyboard-response","65","535225","0.0-8.0-1.0-1.0-0.0-1.27","5","4","5","6","3","4","3","4","3","3","5","1","1","0","1","0","2","1","2","4","3","5","4","4","3","4","3","4","5","8","7","9","7","9","9","7","9","8","6","3","5","5","4","4","5","2","5","4","1","4","4","6","3","6","2","5","4","6","1","3","3","6","3","3","4","2","6","5","2","6","5","5","4","3","4","5","5","4","3","763057696781111297","黄","141","Male","[""坏他"",""坏我"",""好他"",""好我""]","[""弱他"",""弱我"",""强他"",""强我""]","","","","","","","","","","","","","","","","","","","","","","","","","","","","","","feedback_test","","","","","","","","",""
"718","","j","psychophysics","66","536944","0.0-8.0-1.0-1.0-0.0-0.28","5","4","5","6","3","4","3","4","3","3","5","1","1","0","1","0","2","1","2","4","3","5","4","4","3","4","3","4","5","8","7","9","7","9","9","7","9","8","6","3","5","5","4","4","5","2","5","4","1","4","4","6","3","6","2","5","4","6","1","3","3","6","3","3","4","2","6","5","2","6","5","5","4","3","4","5","5","4","3","763057696781111297","黄","141","Male","[""坏他"",""坏我"",""好他"",""好我""]","[""弱他"",""弱我"",""强他"",""强我""]","","","","","","","","match","","","","","","","","","","key","j","16.561333333333845","768","428","j","true","match","img/circle.png","强我","强我","prac_ALT2_ability","practice_ability","","","","","","","","",""
"null","<span style='color:GreenYellow; font-size: 70px;'>正确! </span>","null","html-keyboard-response","67","537447","0.0-8.0-1.0-1.0-0.0-1.28","5","4","5","6","3","4","3","4","3","3","5","1","1","0","1","0","2","1","2","4","3","5","4","4","3","4","3","4","5","8","7","9","7","9","9","7","9","8","6","3","5","5","4","4","5","2","5","4","1","4","4","6","3","6","2","5","4","6","1","3","3","6","3","3","4","2","6","5","2","6","5","5","4","3","4","5","5","4","3","763057696781111297","黄","141","Male","[""坏他"",""坏我"",""好他"",""好我""]","[""弱他"",""弱我"",""强他"",""强我""]","","","","","","","","","","","","","","","","","","","","","","","","","","","","","","feedback_test","","","","","","","","",""
"700","","f","psychophysics","68","539149","0.0-8.0-1.0-1.0-0.0-0.29","5","4","5","6","3","4","3","4","3","3","5","1","1","0","1","0","2","1","2","4","3","5","4","4","3","4","3","4","5","8","7","9","7","9","9","7","9","8","6","3","5","5","4","4","5","2","5","4","1","4","4","6","3","6","2","5","4","6","1","3","3","6","3","3","4","2","6","5","2","6","5","5","4","3","4","5","5","4","3","763057696781111297","黄","141","Male","[""坏他"",""坏我"",""好他"",""好我""]","[""弱他"",""弱我"",""强他"",""强我""]","","","","","","","","nonmatch","","","","","","","","","","key","f","16.56098039215659","768","428","f","true","nonmatch","img/pentagon.png","弱我","弱他","prac_ALT2_ability","practice_ability","","","","","","","","",""
"null","<span style='color:GreenYellow; font-size: 70px;'>正确! </span>","null","html-keyboard-response","69","539652","0.0-8.0-1.0-1.0-0.0-1.29","5","4","5","6","3","4","3","4","3","3","5","1","1","0","1","0","2","1","2","4","3","5","4","4","3","4","3","4","5","8","7","9","7","9","9","7","9","8","6","3","5","5","4","4","5","2","5","4","1","4","4","6","3","6","2","5","4","6","1","3","3","6","3","3","4","2","6","5","2","6","5","5","4","3","4","5","5","4","3","763057696781111297","黄","141","Male","[""坏他"",""坏我"",""好他"",""好我""]","[""弱他"",""弱我"",""强他"",""强我""]","","","","","","","","","","","","","","","","","","","","","","","","","","","","","","feedback_test","","","","","","","","",""
"673","","f","psychophysics","70","541327","0.0-8.0-1.0-1.0-0.0-0.30","5","4","5","6","3","4","3","4","3","3","5","1","1","0","1","0","2","1","2","4","3","5","4","4","3","4","3","4","5","8","7","9","7","9","9","7","9","8","6","3","5","5","4","4","5","2","5","4","1","4","4","6","3","6","2","5","4","6","1","3","3","6","3","3","4","2","6","5","2","6","5","5","4","3","4","5","5","4","3","763057696781111297","黄","141","Male","[""坏他"",""坏我"",""好他"",""好我""]","[""弱他"",""弱我"",""强他"",""强我""]","","","","","","","","nonmatch","","","","","","","","","","key","f","16.562700000000188","768","428","f","true","nonmatch","img/pentagon.png","强我","弱他","prac_ALT2_ability","practice_ability","","","","","","","","",""
"null","<span style='color:GreenYellow; font-size: 70px;'>正确! </span>","null","html-keyboard-response","71","541828","0.0-8.0-1.0-1.0-0.0-1.30","5","4","5","6","3","4","3","4","3","3","5","1","1","0","1","0","2","1","2","4","3","5","4","4","3","4","3","4","5","8","7","9","7","9","9","7","9","8","6","3","5","5","4","4","5","2","5","4","1","4","4","6","3","6","2","5","4","6","1","3","3","6","3","3","4","2","6","5","2","6","5","5","4","3","4","5","5","4","3","763057696781111297","黄","141","Male","[""坏他"",""坏我"",""好他"",""好我""]","[""弱他"",""弱我"",""强他"",""强我""]","","","","","","","","","","","","","","","","","","","","","","","","","","","","","","feedback_test","","","","","","","","",""
"754","","f","psychophysics","72","543584","0.0-8.0-1.0-1.0-0.0-0.31","5","4","5","6","3","4","3","4","3","3","5","1","1","0","1","0","2","1","2","4","3","5","4","4","3","4","3","4","5","8","7","9","7","9","9","7","9","8","6","3","5","5","4","4","5","2","5","4","1","4","4","6","3","6","2","5","4","6","1","3","3","6","3","3","4","2","6","5","2","6","5","5","4","3","4","5","5","4","3","763057696781111297","黄","141","Male","[""坏他"",""坏我"",""好他"",""好我""]","[""弱他"",""弱我"",""强他"",""强我""]","","","","","","","","nonmatch","","","","","","","","","","key","f","16.551394230768963","768","428","j","false","match","img/trapezoid.png","强他","强他","prac_ALT2_ability","practice_ability","","","","","","","","",""
"null","<span style='color:red; font-size: 70px;'>错误! </span>","null","html-keyboard-response","73","544087","0.0-8.0-1.0-1.0-0.0-1.31","5","4","5","6","3","4","3","4","3","3","5","1","1","0","1","0","2","1","2","4","3","5","4","4","3","4","3","4","5","8","7","9","7","9","9","7","9","8","6","3","5","5","4","4","5","2","5","4","1","4","4","6","3","6","2","5","4","6","1","3","3","6","3","3","4","2","6","5","2","6","5","5","4","3","4","5","5","4","3","763057696781111297","黄","141","Male","[""坏他"",""坏我"",""好他"",""好我""]","[""弱他"",""弱我"",""强他"",""强我""]","","","","","","","","","","","","","","","","","","","","","","","","","","","","","","feedback_test","","","","","","","","",""
"622","","j","psychophysics","74","545710","0.0-8.0-1.0-1.0-0.0-0.32","5","4","5","6","3","4","3","4","3","3","5","1","1","0","1","0","2","1","2","4","3","5","4","4","3","4","3","4","5","8","7","9","7","9","9","7","9","8","6","3","5","5","4","4","5","2","5","4","1","4","4","6","3","6","2","5","4","6","1","3","3","6","3","3","4","2","6","5","2","6","5","5","4","3","4","5","5","4","3","763057696781111297","黄","141","Male","[""坏他"",""坏我"",""好他"",""好我""]","[""弱他"",""弱我"",""强他"",""强我""]","","","","","","","","match","","","","","","","","","","key","j","16.562731958763703","768","428","j","true","match","img/triangle.png","弱我","弱我","prac_ALT2_ability","practice_ability","","","","","","","","",""
"null","<span style='color:GreenYellow; font-size: 70px;'>正确! </span>","null","html-keyboard-response","75","546211","0.0-8.0-1.0-1.0-0.0-1.32","5","4","5","6","3","4","3","4","3","3","5","1","1","0","1","0","2","1","2","4","3","5","4","4","3","4","3","4","5","8","7","9","7","9","9","7","9","8","6","3","5","5","4","4","5","2","5","4","1","4","4","6","3","6","2","5","4","6","1","3","3","6","3","3","4","2","6","5","2","6","5","5","4","3","4","5","5","4","3","763057696781111297","黄","141","Male","[""坏他"",""坏我"",""好他"",""好我""]","[""弱他"",""弱我"",""强他"",""强我""]","","","","","","","","","","","","","","","","","","","","","","","","","","","","","","feedback_test","","","","","","","","",""
"839","","j","psychophysics","76","548053","0.0-8.0-1.0-1.0-0.0-0.33","5","4","5","6","3","4","3","4","3","3","5","1","1","0","1","0","2","1","2","4","3","5","4","4","3","4","3","4","5","8","7","9","7","9","9","7","9","8","6","3","5","5","4","4","5","2","5","4","1","4","4","6","3","6","2","5","4","6","1","3","3","6","3","3","4","2","6","5","2","6","5","5","4","3","4","5","5","4","3","763057696781111297","黄","141","Male","[""坏他"",""坏我"",""好他"",""好我""]","[""弱他"",""弱我"",""强他"",""强我""]","","","","","","","","match","","","","","","","","","","key","j","16.56218181818258","768","428","j","true","match","img/pentagon.png","弱他","弱他","prac_ALT2_ability","practice_ability","","","","","","","","",""
"null","<span style='color:GreenYellow; font-size: 70px;'>正确! </span>","null","html-keyboard-response","77","548554","0.0-8.0-1.0-1.0-0.0-1.33","5","4","5","6","3","4","3","4","3","3","5","1","1","0","1","0","2","1","2","4","3","5","4","4","3","4","3","4","5","8","7","9","7","9","9","7","9","8","6","3","5","5","4","4","5","2","5","4","1","4","4","6","3","6","2","5","4","6","1","3","3","6","3","3","4","2","6","5","2","6","5","5","4","3","4","5","5","4","3","763057696781111297","黄","141","Male","[""坏他"",""坏我"",""好他"",""好我""]","[""弱他"",""弱我"",""强他"",""强我""]","","","","","","","","","","","","","","","","","","","","","","","","","","","","","","feedback_test","","","","","","","","",""
"739","","f","psychophysics","78","550295","0.0-8.0-1.0-1.0-0.0-0.34","5","4","5","6","3","4","3","4","3","3","5","1","1","0","1","0","2","1","2","4","3","5","4","4","3","4","3","4","5","8","7","9","7","9","9","7","9","8","6","3","5","5","4","4","5","2","5","4","1","4","4","6","3","6","2","5","4","6","1","3","3","6","3","3","4","2","6","5","2","6","5","5","4","3","4","5","5","4","3","763057696781111297","黄","141","Male","[""坏他"",""坏我"",""好他"",""好我""]","[""弱他"",""弱我"",""强他"",""强我""]","","","","","","","","nonmatch","","","","","","","","","","key","f","16.562644230769365","768","428","j","false","match","img/triangle.png","弱我","弱我","prac_ALT2_ability","practice_ability","","","","","","","","",""
"null","<span style='color:red; font-size: 70px;'>错误! </span>","null","html-keyboard-response","79","550798","0.0-8.0-1.0-1.0-0.0-1.34","5","4","5","6","3","4","3","4","3","3","5","1","1","0","1","0","2","1","2","4","3","5","4","4","3","4","3","4","5","8","7","9","7","9","9","7","9","8","6","3","5","5","4","4","5","2","5","4","1","4","4","6","3","6","2","5","4","6","1","3","3","6","3","3","4","2","6","5","2","6","5","5","4","3","4","5","5","4","3","763057696781111297","黄","141","Male","[""坏他"",""坏我"",""好他"",""好我""]","[""弱他"",""弱我"",""强他"",""强我""]","","","","","","","","","","","","","","","","","","","","","","","","","","","","","","feedback_test","","","","","","","","",""
"718","","f","psychophysics","80","552518","0.0-8.0-1.0-1.0-0.0-0.35","5","4","5","6","3","4","3","4","3","3","5","1","1","0","1","0","2","1","2","4","3","5","4","4","3","4","3","4","5","8","7","9","7","9","9","7","9","8","6","3","5","5","4","4","5","2","5","4","1","4","4","6","3","6","2","5","4","6","1","3","3","6","3","3","4","2","6","5","2","6","5","5","4","3","4","5","5","4","3","763057696781111297","黄","141","Male","[""坏他"",""坏我"",""好他"",""好我""]","[""弱他"",""弱我"",""强他"",""强我""]","","","","","","","","nonmatch","","","","","","","","","","key","f","16.562485436893077","768","428","f","true","nonmatch","img/circle.png","弱我","强我","prac_ALT2_ability","practice_ability","","","","","","","","",""
"null","<span style='color:GreenYellow; font-size: 70px;'>正确! </span>","null","html-keyboard-response","81","553020","0.0-8.0-1.0-1.0-0.0-1.35","5","4","5","6","3","4","3","4","3","3","5","1","1","0","1","0","2","1","2","4","3","5","4","4","3","4","3","4","5","8","7","9","7","9","9","7","9","8","6","3","5","5","4","4","5","2","5","4","1","4","4","6","3","6","2","5","4","6","1","3","3","6","3","3","4","2","6","5","2","6","5","5","4","3","4","5","5","4","3","763057696781111297","黄","141","Male","[""坏他"",""坏我"",""好他"",""好我""]","[""弱他"",""弱我"",""强他"",""强我""]","","","","","","","","","","","","","","","","","","","","","","","","","","","","","","feedback_test","","","","","","","","",""
"894","","f","psychophysics","82","554916","0.0-8.0-1.0-1.0-0.0-0.36","5","4","5","6","3","4","3","4","3","3","5","1","1","0","1","0","2","1","2","4","3","5","4","4","3","4","3","4","5","8","7","9","7","9","9","7","9","8","6","3","5","5","4","4","5","2","5","4","1","4","4","6","3","6","2","5","4","6","1","3","3","6","3","3","4","2","6","5","2","6","5","5","4","3","4","5","5","4","3","763057696781111297","黄","141","Male","[""坏他"",""坏我"",""好他"",""好我""]","[""弱他"",""弱我"",""强他"",""强我""]","","","","","","","","nonmatch","","","","","","","","","","key","f","16.5625","768","428","f","true","nonmatch","img/trapezoid.png","强我","强他","prac_ALT2_ability","practice_ability","","","","","","","","",""
"null","<span style='color:GreenYellow; font-size: 70px;'>正确! </span>","null","html-keyboard-response","83","555418","0.0-8.0-1.0-1.0-0.0-1.36","5","4","5","6","3","4","3","4","3","3","5","1","1","0","1","0","2","1","2","4","3","5","4","4","3","4","3","4","5","8","7","9","7","9","9","7","9","8","6","3","5","5","4","4","5","2","5","4","1","4","4","6","3","6","2","5","4","6","1","3","3","6","3","3","4","2","6","5","2","6","5","5","4","3","4","5","5","4","3","763057696781111297","黄","141","Male","[""坏他"",""坏我"",""好他"",""好我""]","[""弱他"",""弱我"",""强他"",""强我""]","","","","","","","","","","","","","","","","","","","","","","","","","","","","","","feedback_test","","","","","","","","",""
"782","","f","psychophysics","84","557202","0.0-8.0-1.0-1.0-0.0-0.37","5","4","5","6","3","4","3","4","3","3","5","1","1","0","1","0","2","1","2","4","3","5","4","4","3","4","3","4","5","8","7","9","7","9","9","7","9","8","6","3","5","5","4","4","5","2","5","4","1","4","4","6","3","6","2","5","4","6","1","3","3","6","3","3","4","2","6","5","2","6","5","5","4","3","4","5","5","4","3","763057696781111297","黄","141","Male","[""坏他"",""坏我"",""好他"",""好我""]","[""弱他"",""弱我"",""强他"",""强我""]","","","","","","","","nonmatch","","","","","","","","","","key","f","16.562560747663717","768","428","j","false","match","img/trapezoid.png","强他","强他","prac_ALT2_ability","practice_ability","","","","","","","","",""
"null","<span style='color:red; font-size: 70px;'>错误! </span>","null","html-keyboard-response","85","557703","0.0-8.0-1.0-1.0-0.0-1.37","5","4","5","6","3","4","3","4","3","3","5","1","1","0","1","0","2","1","2","4","3","5","4","4","3","4","3","4","5","8","7","9","7","9","9","7","9","8","6","3","5","5","4","4","5","2","5","4","1","4","4","6","3","6","2","5","4","6","1","3","3","6","3","3","4","2","6","5","2","6","5","5","4","3","4","5","5","4","3","763057696781111297","黄","141","Male","[""坏他"",""坏我"",""好他"",""好我""]","[""弱他"",""弱我"",""强他"",""强我""]","","","","","","","","","","","","","","","","","","","","","","","","","","","","","","feedback_test","","","","","","","","",""
"922","","f","psychophysics","86","559630","0.0-8.0-1.0-1.0-0.0-0.38","5","4","5","6","3","4","3","4","3","3","5","1","1","0","1","0","2","1","2","4","3","5","4","4","3","4","3","4","5","8","7","9","7","9","9","7","9","8","6","3","5","5","4","4","5","2","5","4","1","4","4","6","3","6","2","5","4","6","1","3","3","6","3","3","4","2","6","5","2","6","5","5","4","3","4","5","5","4","3","763057696781111297","黄","141","Male","[""坏他"",""坏我"",""好他"",""好我""]","[""弱他"",""弱我"",""强他"",""强我""]","","","","","","","","nonmatch","","","","","","","","","","key","f","16.562208695652004","768","428","j","false","match","img/circle.png","强我","强我","prac_ALT2_ability","practice_ability","","","","","","","","",""
"null","<span style='color:red; font-size: 70px;'>错误! </span>","null","html-keyboard-response","87","560131","0.0-8.0-1.0-1.0-0.0-1.38","5","4","5","6","3","4","3","4","3","3","5","1","1","0","1","0","2","1","2","4","3","5","4","4","3","4","3","4","5","8","7","9","7","9","9","7","9","8","6","3","5","5","4","4","5","2","5","4","1","4","4","6","3","6","2","5","4","6","1","3","3","6","3","3","4","2","6","5","2","6","5","5","4","3","4","5","5","4","3","763057696781111297","黄","141","Male","[""坏他"",""坏我"",""好他"",""好我""]","[""弱他"",""弱我"",""强他"",""强我""]","","","","","","","","","","","","","","","","","","","","","","","","","","","","","","feedback_test","","","","","","","","",""
"819","","j","psychophysics","88","561953","0.0-8.0-1.0-1.0-0.0-0.39","5","4","5","6","3","4","3","4","3","3","5","1","1","0","1","0","2","1","2","4","3","5","4","4","3","4","3","4","5","8","7","9","7","9","9","7","9","8","6","3","5","5","4","4","5","2","5","4","1","4","4","6","3","6","2","5","4","6","1","3","3","6","3","3","4","2","6","5","2","6","5","5","4","3","4","5","5","4","3","763057696781111297","黄","141","Male","[""坏他"",""坏我"",""好他"",""好我""]","[""弱他"",""弱我"",""强他"",""强我""]","","","","","","","","match","","","","","","","","","","key","j","16.56246296296336","768","428","j","true","match","img/pentagon.png","弱他","弱他","prac_ALT2_ability","practice_ability","","","","","","","","",""
"null","<span style='color:GreenYellow; font-size: 70px;'>正确! </span>","null","html-keyboard-response","89","562457","0.0-8.0-1.0-1.0-0.0-1.39","5","4","5","6","3","4","3","4","3","3","5","1","1","0","1","0","2","1","2","4","3","5","4","4","3","4","3","4","5","8","7","9","7","9","9","7","9","8","6","3","5","5","4","4","5","2","5","4","1","4","4","6","3","6","2","5","4","6","1","3","3","6","3","3","4","2","6","5","2","6","5","5","4","3","4","5","5","4","3","763057696781111297","黄","141","Male","[""坏他"",""坏我"",""好他"",""好我""]","[""弱他"",""弱我"",""强他"",""强我""]","","","","","","","","","","","","","","","","","","","","","","","","","","","","","","feedback_test","","","","","","","","",""
"722","","f","psychophysics","90","564180","0.0-8.0-1.0-1.0-0.0-0.40","5","4","5","6","3","4","3","4","3","3","5","1","1","0","1","0","2","1","2","4","3","5","4","4","3","4","3","4","5","8","7","9","7","9","9","7","9","8","6","3","5","5","4","4","5","2","5","4","1","4","4","6","3","6","2","5","4","6","1","3","3","6","3","3","4","2","6","5","2","6","5","5","4","3","4","5","5","4","3","763057696781111297","黄","141","Male","[""坏他"",""坏我"",""好他"",""好我""]","[""弱他"",""弱我"",""强他"",""强我""]","","","","","","","","nonmatch","","","","","","","","","","key","f","16.56207766990263","768","428","f","true","nonmatch","img/circle.png","弱他","强我","prac_ALT2_ability","practice_ability","","","","","","","","",""
"null","<span style='color:GreenYellow; font-size: 70px;'>正确! </span>","null","html-keyboard-response","91","564682","0.0-8.0-1.0-1.0-0.0-1.40","5","4","5","6","3","4","3","4","3","3","5","1","1","0","1","0","2","1","2","4","3","5","4","4","3","4","3","4","5","8","7","9","7","9","9","7","9","8","6","3","5","5","4","4","5","2","5","4","1","4","4","6","3","6","2","5","4","6","1","3","3","6","3","3","4","2","6","5","2","6","5","5","4","3","4","5","5","4","3","763057696781111297","黄","141","Male","[""坏他"",""坏我"",""好他"",""好我""]","[""弱他"",""弱我"",""强他"",""强我""]","","","","","","","","","","","","","","","","","","","","","","","","","","","","","","feedback_test","","","","","","","","",""
"1104","","f","psychophysics","92","566788","0.0-8.0-1.0-1.0-0.0-0.41","5","4","5","6","3","4","3","4","3","3","5","1","1","0","1","0","2","1","2","4","3","5","4","4","3","4","3","4","5","8","7","9","7","9","9","7","9","8","6","3","5","5","4","4","5","2","5","4","1","4","4","6","3","6","2","5","4","6","1","3","3","6","3","3","4","2","6","5","2","6","5","5","4","3","4","5","5","4","3","763057696781111297","黄","141","Male","[""坏他"",""坏我"",""好他"",""好我""]","[""弱他"",""弱我"",""强他"",""强我""]","","","","","","","","nonmatch","","","","","","","","","","key","f","16.562388888889156","768","428","j","false","match","img/triangle.png","弱我","弱我","prac_ALT2_ability","practice_ability","","","","","","","","",""
"null","<span style='color:red; font-size: 70px;'>错误! </span>","null","html-keyboard-response","93","567291","0.0-8.0-1.0-1.0-0.0-1.41","5","4","5","6","3","4","3","4","3","3","5","1","1","0","1","0","2","1","2","4","3","5","4","4","3","4","3","4","5","8","7","9","7","9","9","7","9","8","6","3","5","5","4","4","5","2","5","4","1","4","4","6","3","6","2","5","4","6","1","3","3","6","3","3","4","2","6","5","2","6","5","5","4","3","4","5","5","4","3","763057696781111297","黄","141","Male","[""坏他"",""坏我"",""好他"",""好我""]","[""弱他"",""弱我"",""强他"",""强我""]","","","","","","","","","","","","","","","","","","","","","","","","","","","","","","feedback_test","","","","","","","","",""
"818","","j","psychophysics","94","569110","0.0-8.0-1.0-1.0-0.0-0.42","5","4","5","6","3","4","3","4","3","3","5","1","1","0","1","0","2","1","2","4","3","5","4","4","3","4","3","4","5","8","7","9","7","9","9","7","9","8","6","3","5","5","4","4","5","2","5","4","1","4","4","6","3","6","2","5","4","6","1","3","3","6","3","3","4","2","6","5","2","6","5","5","4","3","4","5","5","4","3","763057696781111297","黄","141","Male","[""坏他"",""坏我"",""好他"",""好我""]","[""弱他"",""弱我"",""强他"",""强我""]","","","","","","","","match","","","","","","","","","","key","j","16.562293577981993","768","428","j","true","match","img/circle.png","强我","强我","prac_ALT2_ability","practice_ability","","","","","","","","",""
"null","<span style='color:GreenYellow; font-size: 70px;'>正确! </span>","null","html-keyboard-response","95","569611","0.0-8.0-1.0-1.0-0.0-1.42","5","4","5","6","3","4","3","4","3","3","5","1","1","0","1","0","2","1","2","4","3","5","4","4","3","4","3","4","5","8","7","9","7","9","9","7","9","8","6","3","5","5","4","4","5","2","5","4","1","4","4","6","3","6","2","5","4","6","1","3","3","6","3","3","4","2","6","5","2","6","5","5","4","3","4","5","5","4","3","763057696781111297","黄","141","Male","[""坏他"",""坏我"",""好他"",""好我""]","[""弱他"",""弱我"",""强他"",""强我""]","","","","","","","","","","","","","","","","","","","","","","","","","","","","","","feedback_test","","","","","","","","",""
"961","","f","psychophysics","96","571574","0.0-8.0-1.0-1.0-0.0-0.43","5","4","5","6","3","4","3","4","3","3","5","1","1","0","1","0","2","1","2","4","3","5","4","4","3","4","3","4","5","8","7","9","7","9","9","7","9","8","6","3","5","5","4","4","5","2","5","4","1","4","4","6","3","6","2","5","4","6","1","3","3","6","3","3","4","2","6","5","2","6","5","5","4","3","4","5","5","4","3","763057696781111297","黄","141","Male","[""坏他"",""坏我"",""好他"",""好我""]","[""弱他"",""弱我"",""强他"",""强我""]","","","","","","","","nonmatch","","","","","","","","","","key","f","16.562230769230418","768","428","j","false","match","img/pentagon.png","弱他","弱他","prac_ALT2_ability","practice_ability","","","","","","","","",""
"null","<span style='color:red; font-size: 70px;'>错误! </span>","null","html-keyboard-response","97","572078","0.0-8.0-1.0-1.0-0.0-1.43","5","4","5","6","3","4","3","4","3","3","5","1","1","0","1","0","2","1","2","4","3","5","4","4","3","4","3","4","5","8","7","9","7","9","9","7","9","8","6","3","5","5","4","4","5","2","5","4","1","4","4","6","3","6","2","5","4","6","1","3","3","6","3","3","4","2","6","5","2","6","5","5","4","3","4","5","5","4","3","763057696781111297","黄","141","Male","[""坏他"",""坏我"",""好他"",""好我""]","[""弱他"",""弱我"",""强他"",""强我""]","","","","","","","","","","","","","","","","","","","","","","","","","","","","","","feedback_test","","","","","","","","",""
"791","","f","psychophysics","98","573870","0.0-8.0-1.0-1.0-0.0-0.44","5","4","5","6","3","4","3","4","3","3","5","1","1","0","1","0","2","1","2","4","3","5","4","4","3","4","3","4","5","8","7","9","7","9","9","7","9","8","6","3","5","5","4","4","5","2","5","4","1","4","4","6","3","6","2","5","4","6","1","3","3","6","3","3","4","2","6","5","2","6","5","5","4","3","4","5","5","4","3","763057696781111297","黄","141","Male","[""坏他"",""坏我"",""好他"",""好我""]","[""弱他"",""弱我"",""强他"",""强我""]","","","","","","","","nonmatch","","","","","","","","","","key","f","16.56207476635507","768","428","f","true","nonmatch","img/triangle.png","强他","弱我","prac_ALT2_ability","practice_ability","","","","","","","","",""
"null","<span style='color:GreenYellow; font-size: 70px;'>正确! </span>","null","html-keyboard-response","99","574372","0.0-8.0-1.0-1.0-0.0-1.44","5","4","5","6","3","4","3","4","3","3","5","1","1","0","1","0","2","1","2","4","3","5","4","4","3","4","3","4","5","8","7","9","7","9","9","7","9","8","6","3","5","5","4","4","5","2","5","4","1","4","4","6","3","6","2","5","4","6","1","3","3","6","3","3","4","2","6","5","2","6","5","5","4","3","4","5","5","4","3","763057696781111297","黄","141","Male","[""坏他"",""坏我"",""好他"",""好我""]","[""弱他"",""弱我"",""强他"",""强我""]","","","","","","","","","","","","","","","","","","","","","","","","","","","","","","feedback_test","","","","","","","","",""
"964","","f","psychophysics","100","576339","0.0-8.0-1.0-1.0-0.0-0.45","5","4","5","6","3","4","3","4","3","3","5","1","1","0","1","0","2","1","2","4","3","5","4","4","3","4","3","4","5","8","7","9","7","9","9","7","9","8","6","3","5","5","4","4","5","2","5","4","1","4","4","6","3","6","2","5","4","6","1","3","3","6","3","3","4","2","6","5","2","6","5","5","4","3","4","5","5","4","3","763057696781111297","黄","141","Male","[""坏他"",""坏我"",""好他"",""好我""]","[""弱他"",""弱我"",""强他"",""强我""]","","","","","","","","nonmatch","","","","","","","","","","key","f","16.561589743589792","768","428","j","false","match","img/trapezoid.png","强他","强他","prac_ALT2_ability","practice_ability","","","","","","","","",""
"null","<span style='color:red; font-size: 70px;'>错误! </span>","null","html-keyboard-response","101","576840","0.0-8.0-1.0-1.0-0.0-1.45","5","4","5","6","3","4","3","4","3","3","5","1","1","0","1","0","2","1","2","4","3","5","4","4","3","4","3","4","5","8","7","9","7","9","9","7","9","8","6","3","5","5","4","4","5","2","5","4","1","4","4","6","3","6","2","5","4","6","1","3","3","6","3","3","4","2","6","5","2","6","5","5","4","3","4","5","5","4","3","763057696781111297","黄","141","Male","[""坏他"",""坏我"",""好他"",""好我""]","[""弱他"",""弱我"",""强他"",""强我""]","","","","","","","","","","","","","","","","","","","","","","","","","","","","","","feedback_test","","","","","","","","",""
"755","","f","psychophysics","102","578596","0.0-8.0-1.0-1.0-0.0-0.46","5","4","5","6","3","4","3","4","3","3","5","1","1","0","1","0","2","1","2","4","3","5","4","4","3","4","3","4","5","8","7","9","7","9","9","7","9","8","6","3","5","5","4","4","5","2","5","4","1","4","4","6","3","6","2","5","4","6","1","3","3","6","3","3","4","2","6","5","2","6","5","5","4","3","4","5","5","4","3","763057696781111297","黄","141","Male","[""坏他"",""坏我"",""好他"",""好我""]","[""弱他"",""弱我"",""强他"",""强我""]","","","","","","","","nonmatch","","","","","","","","","","key","f","16.504942307691984","768","428","f","true","nonmatch","img/triangle.png","弱他","弱我","prac_ALT2_ability","practice_ability","","","","","","","","",""
"null","<span style='color:GreenYellow; font-size: 70px;'>正确! </span>","null","html-keyboard-response","103","579100","0.0-8.0-1.0-1.0-0.0-1.46","5","4","5","6","3","4","3","4","3","3","5","1","1","0","1","0","2","1","2","4","3","5","4","4","3","4","3","4","5","8","7","9","7","9","9","7","9","8","6","3","5","5","4","4","5","2","5","4","1","4","4","6","3","6","2","5","4","6","1","3","3","6","3","3","4","2","6","5","2","6","5","5","4","3","4","5","5","4","3","763057696781111297","黄","141","Male","[""坏他"",""坏我"",""好他"",""好我""]","[""弱他"",""弱我"",""强他"",""强我""]","","","","","","","","","","","","","","","","","","","","","","","","","","","","","","feedback_test","","","","","","","","",""
"659","","j","psychophysics","104","580763","0.0-8.0-1.0-1.0-0.0-0.47","5","4","5","6","3","4","3","4","3","3","5","1","1","0","1","0","2","1","2","4","3","5","4","4","3","4","3","4","5","8","7","9","7","9","9","7","9","8","6","3","5","5","4","4","5","2","5","4","1","4","4","6","3","6","2","5","4","6","1","3","3","6","3","3","4","2","6","5","2","6","5","5","4","3","4","5","5","4","3","763057696781111297","黄","141","Male","[""坏他"",""坏我"",""好他"",""好我""]","[""弱他"",""弱我"",""强他"",""强我""]","","","","","","","","match","","","","","","","","","","key","j","16.56212121212027","768","428","f","false","nonmatch","img/circle.png","强他","强我","prac_ALT2_ability","practice_ability","","","","","","","","",""
"null","<span style='color:red; font-size: 70px;'>错误! </span>","null","html-keyboard-response","105","581265","0.0-8.0-1.0-1.0-0.0-1.47","5","4","5","6","3","4","3","4","3","3","5","1","1","0","1","0","2","1","2","4","3","5","4","4","3","4","3","4","5","8","7","9","7","9","9","7","9","8","6","3","5","5","4","4","5","2","5","4","1","4","4","6","3","6","2","5","4","6","1","3","3","6","3","3","4","2","6","5","2","6","5","5","4","3","4","5","5","4","3","763057696781111297","黄","141","Male","[""坏他"",""坏我"",""好他"",""好我""]","[""弱他"",""弱我"",""强他"",""强我""]","","","","","","","","","","","","","","","","","","","","","","","","","","","","","","feedback_test","","","","","","","","",""
"4738","<style>.context{color:white; font-size: 35px; line-height:40px}</style>                          <div><p class='context'>您正确回答了65% 的试次。</p><p class='context'>您的平均反应时为817毫秒。</p><p class='context'>恭喜您完成练习。按空格键进入正式实验。</p><p class='footer' style='color:white;font-size: 35px; line-height:40px;'>请在进入正式实验实验之前将您的<span style='color: lightgreen;'>食指</span>放在电脑键盘的相应键位上进行按键。</p>"," ","html-keyboard-response","106","586006","0.0-8.0-1.0-2.0","5","4","5","6","3","4","3","4","3","3","5","1","1","0","1","0","2","1","2","4","3","5","4","4","3","4","3","4","5","8","7","9","7","9","9","7","9","8","6","3","5","5","4","4","5","2","5","4","1","4","4","6","3","6","2","5","4","6","1","3","3","6","3","3","4","2","6","5","2","6","5","5","4","3","4","5","5","4","3","763057696781111297","黄","141","Male","[""坏他"",""坏我"",""好他"",""好我""]","[""弱他"",""弱我"",""强他"",""强我""]","","","","","","","","","","","","","","","","","","","","","","","","","","","","","","","","","","","","","","",""
"1367","
  <p style='color: white; font-size: 22px'>请您将手指放在按键上，准备进入正式的匹配任务。</p>
  <p> <div style = ""color: green""><按空格键进入下一阶段的匹配任务></div></p>
  "," ","html-keyboard-response","107","587378","0.0-8.0-1.0-3.0","5","4","5","6","3","4","3","4","3","3","5","1","1","0","1","0","2","1","2","4","3","5","4","4","3","4","3","4","5","8","7","9","7","9","9","7","9","8","6","3","5","5","4","4","5","2","5","4","1","4","4","6","3","6","2","5","4","6","1","3","3","6","3","3","4","2","6","5","2","6","5","5","4","3","4","5","5","4","3","763057696781111297","黄","141","Male","[""坏他"",""坏我"",""好他"",""好我""]","[""弱他"",""弱我"",""强他"",""强我""]","","","","","","","","","","","","","","","","","","","","","","","","","","","","","","","","","","","","","","",""
"774","","f","psychophysics","108","589154","0.0-8.0-1.0-4.0-0.0-0.0","5","4","5","6","3","4","3","4","3","3","5","1","1","0","1","0","2","1","2","4","3","5","4","4","3","4","3","4","5","8","7","9","7","9","9","7","9","8","6","3","5","5","4","4","5","2","5","4","1","4","4","6","3","6","2","5","4","6","1","3","3","6","3","3","4","2","6","5","2","6","5","5","4","3","4","5","5","4","3","763057696781111297","黄","141","Male","[""坏他"",""坏我"",""好他"",""好我""]","[""弱他"",""弱我"",""强他"",""强我""]","","","","","","","","nonmatch","","","","","","","","","","key","f","16.561943396226336","768","428","f","true","nonmatch","img/trapezoid.png","弱他","强他","ALT2","ability","","","","","","","","",""
"null","<span style='color:GreenYellow; font-size: 70px;'>正确! </span>","null","html-keyboard-response","109","589656","0.0-8.0-1.0-4.0-0.0-1.0","5","4","5","6","3","4","3","4","3","3","5","1","1","0","1","0","2","1","2","4","3","5","4","4","3","4","3","4","5","8","7","9","7","9","9","7","9","8","6","3","5","5","4","4","5","2","5","4","1","4","4","6","3","6","2","5","4","6","1","3","3","6","3","3","4","2","6","5","2","6","5","5","4","3","4","5","5","4","3","763057696781111297","黄","141","Male","[""坏他"",""坏我"",""好他"",""好我""]","[""弱他"",""弱我"",""强他"",""强我""]","","","","","","","","","","","","","","","","","","","","","","","","","","","","","","feedback_test","","","","","","","","",""
"715","","j","psychophysics","110","591375","0.0-8.0-1.0-4.0-0.0-0.1","5","4","5","6","3","4","3","4","3","3","5","1","1","0","1","0","2","1","2","4","3","5","4","4","3","4","3","4","5","8","7","9","7","9","9","7","9","8","6","3","5","5","4","4","5","2","5","4","1","4","4","6","3","6","2","5","4","6","1","3","3","6","3","3","4","2","6","5","2","6","5","5","4","3","4","5","5","4","3","763057696781111297","黄","141","Male","[""坏他"",""坏我"",""好他"",""好我""]","[""弱他"",""弱我"",""强他"",""强我""]","","","","","","","","match","","","","","","","","","","key","j","16.561737864077074","768","428","j","true","match","img/triangle.png","弱我","弱我","ALT2","ability","","","","","","","","",""
"null","<span style='color:GreenYellow; font-size: 70px;'>正确! </span>","null","html-keyboard-response","111","591890","0.0-8.0-1.0-4.0-0.0-1.1","5","4","5","6","3","4","3","4","3","3","5","1","1","0","1","0","2","1","2","4","3","5","4","4","3","4","3","4","5","8","7","9","7","9","9","7","9","8","6","3","5","5","4","4","5","2","5","4","1","4","4","6","3","6","2","5","4","6","1","3","3","6","3","3","4","2","6","5","2","6","5","5","4","3","4","5","5","4","3","763057696781111297","黄","141","Male","[""坏他"",""坏我"",""好他"",""好我""]","[""弱他"",""弱我"",""强他"",""强我""]","","","","","","","","","","","","","","","","","","","","","","","","","","","","","","feedback_test","","","","","","","","",""
"700","","f","psychophysics","112","593592","0.0-8.0-1.0-4.0-0.0-0.2","5","4","5","6","3","4","3","4","3","3","5","1","1","0","1","0","2","1","2","4","3","5","4","4","3","4","3","4","5","8","7","9","7","9","9","7","9","8","6","3","5","5","4","4","5","2","5","4","1","4","4","6","3","6","2","5","4","6","1","3","3","6","3","3","4","2","6","5","2","6","5","5","4","3","4","5","5","4","3","763057696781111297","黄","141","Male","[""坏他"",""坏我"",""好他"",""好我""]","[""弱他"",""弱我"",""强他"",""强我""]","","","","","","","","nonmatch","","","","","","","","","","key","f","16.56245098039211","768","428","f","true","nonmatch","img/pentagon.png","强他","弱他","ALT2","ability","","","","","","","","",""
"null","<span style='color:GreenYellow; font-size: 70px;'>正确! </span>","null","html-keyboard-response","113","594094","0.0-8.0-1.0-4.0-0.0-1.2","5","4","5","6","3","4","3","4","3","3","5","1","1","0","1","0","2","1","2","4","3","5","4","4","3","4","3","4","5","8","7","9","7","9","9","7","9","8","6","3","5","5","4","4","5","2","5","4","1","4","4","6","3","6","2","5","4","6","1","3","3","6","3","3","4","2","6","5","2","6","5","5","4","3","4","5","5","4","3","763057696781111297","黄","141","Male","[""坏他"",""坏我"",""好他"",""好我""]","[""弱他"",""弱我"",""强他"",""强我""]","","","","","","","","","","","","","","","","","","","","","","","","","","","","","","feedback_test","","","","","","","","",""
"977","","f","psychophysics","114","596072","0.0-8.0-1.0-4.0-0.0-0.3","5","4","5","6","3","4","3","4","3","3","5","1","1","0","1","0","2","1","2","4","3","5","4","4","3","4","3","4","5","8","7","9","7","9","9","7","9","8","6","3","5","5","4","4","5","2","5","4","1","4","4","6","3","6","2","5","4","6","1","3","3","6","3","3","4","2","6","5","2","6","5","5","4","3","4","5","5","4","3","763057696781111297","黄","141","Male","[""坏他"",""坏我"",""好他"",""好我""]","[""弱他"",""弱我"",""强他"",""强我""]","","","","","","","","nonmatch","","","","","","","","","","key","f","16.561689075630376","768","428","f","true","nonmatch","img/trapezoid.png","强我","强他","ALT2","ability","","","","","","","","",""
"null","<span style='color:GreenYellow; font-size: 70px;'>正确! </span>","null","html-keyboard-response","115","596573","0.0-8.0-1.0-4.0-0.0-1.3","5","4","5","6","3","4","3","4","3","3","5","1","1","0","1","0","2","1","2","4","3","5","4","4","3","4","3","4","5","8","7","9","7","9","9","7","9","8","6","3","5","5","4","4","5","2","5","4","1","4","4","6","3","6","2","5","4","6","1","3","3","6","3","3","4","2","6","5","2","6","5","5","4","3","4","5","5","4","3","763057696781111297","黄","141","Male","[""坏他"",""坏我"",""好他"",""好我""]","[""弱他"",""弱我"",""强他"",""强我""]","","","","","","","","","","","","","","","","","","","","","","","","","","","","","","feedback_test","","","","","","","","",""
"815","","j","psychophysics","116","598390","0.0-8.0-1.0-4.0-0.0-0.4","5","4","5","6","3","4","3","4","3","3","5","1","1","0","1","0","2","1","2","4","3","5","4","4","3","4","3","4","5","8","7","9","7","9","9","7","9","8","6","3","5","5","4","4","5","2","5","4","1","4","4","6","3","6","2","5","4","6","1","3","3","6","3","3","4","2","6","5","2","6","5","5","4","3","4","5","5","4","3","763057696781111297","黄","141","Male","[""坏他"",""坏我"",""好他"",""好我""]","[""弱他"",""弱我"",""强他"",""强我""]","","","","","","","","match","","","","","","","","","","key","j","16.715546296296115","768","428","j","true","match","img/pentagon.png","弱他","弱他","ALT2","ability","","","","","","","","",""
"null","<span style='color:GreenYellow; font-size: 70px;'>正确! </span>","null","html-keyboard-response","117","598892","0.0-8.0-1.0-4.0-0.0-1.4","5","4","5","6","3","4","3","4","3","3","5","1","1","0","1","0","2","1","2","4","3","5","4","4","3","4","3","4","5","8","7","9","7","9","9","7","9","8","6","3","5","5","4","4","5","2","5","4","1","4","4","6","3","6","2","5","4","6","1","3","3","6","3","3","4","2","6","5","2","6","5","5","4","3","4","5","5","4","3","763057696781111297","黄","141","Male","[""坏他"",""坏我"",""好他"",""好我""]","[""弱他"",""弱我"",""强他"",""强我""]","","","","","","","","","","","","","","","","","","","","","","","","","","","","","","feedback_test","","","","","","","","",""
"913","","f","psychophysics","118","600807","0.0-8.0-1.0-4.0-0.0-0.5","5","4","5","6","3","4","3","4","3","3","5","1","1","0","1","0","2","1","2","4","3","5","4","4","3","4","3","4","5","8","7","9","7","9","9","7","9","8","6","3","5","5","4","4","5","2","5","4","1","4","4","6","3","6","2","5","4","6","1","3","3","6","3","3","4","2","6","5","2","6","5","5","4","3","4","5","5","4","3","763057696781111297","黄","141","Male","[""坏他"",""坏我"",""好他"",""好我""]","[""弱他"",""弱我"",""强他"",""强我""]","","","","","","","","nonmatch","","","","","","","","","","key","f","16.56251754385946","768","428","f","true","nonmatch","img/triangle.png","弱他","弱我","ALT2","ability","","","","","","","","",""
"null","<span style='color:GreenYellow; font-size: 70px;'>正确! </span>","null","html-keyboard-response","119","601309","0.0-8.0-1.0-4.0-0.0-1.5","5","4","5","6","3","4","3","4","3","3","5","1","1","0","1","0","2","1","2","4","3","5","4","4","3","4","3","4","5","8","7","9","7","9","9","7","9","8","6","3","5","5","4","4","5","2","5","4","1","4","4","6","3","6","2","5","4","6","1","3","3","6","3","3","4","2","6","5","2","6","5","5","4","3","4","5","5","4","3","763057696781111297","黄","141","Male","[""坏他"",""坏我"",""好他"",""好我""]","[""弱他"",""弱我"",""强他"",""强我""]","","","","","","","","","","","","","","","","","","","","","","","","","","","","","","feedback_test","","","","","","","","",""
"989","","f","psychophysics","120","603299","0.0-8.0-1.0-4.0-0.0-0.6","5","4","5","6","3","4","3","4","3","3","5","1","1","0","1","0","2","1","2","4","3","5","4","4","3","4","3","4","5","8","7","9","7","9","9","7","9","8","6","3","5","5","4","4","5","2","5","4","1","4","4","6","3","6","2","5","4","6","1","3","3","6","3","3","4","2","6","5","2","6","5","5","4","3","4","5","5","4","3","763057696781111297","黄","141","Male","[""坏他"",""坏我"",""好他"",""好我""]","[""弱他"",""弱我"",""强他"",""强我""]","","","","","","","","nonmatch","","","","","","","","","","key","f","16.56225210083981","768","428","f","true","nonmatch","img/pentagon.png","强我","弱他","ALT2","ability","","","","","","","","",""
"null","<span style='color:GreenYellow; font-size: 70px;'>正确! </span>","null","html-keyboard-response","121","603801","0.0-8.0-1.0-4.0-0.0-1.6","5","4","5","6","3","4","3","4","3","3","5","1","1","0","1","0","2","1","2","4","3","5","4","4","3","4","3","4","5","8","7","9","7","9","9","7","9","8","6","3","5","5","4","4","5","2","5","4","1","4","4","6","3","6","2","5","4","6","1","3","3","6","3","3","4","2","6","5","2","6","5","5","4","3","4","5","5","4","3","763057696781111297","黄","141","Male","[""坏他"",""坏我"",""好他"",""好我""]","[""弱他"",""弱我"",""强他"",""强我""]","","","","","","","","","","","","","","","","","","","","","","","","","","","","","","feedback_test","","","","","","","","",""
"1136","","f","psychophysics","122","605939","0.0-8.0-1.0-4.0-0.0-0.7","5","4","5","6","3","4","3","4","3","3","5","1","1","0","1","0","2","1","2","4","3","5","4","4","3","4","3","4","5","8","7","9","7","9","9","7","9","8","6","3","5","5","4","4","5","2","5","4","1","4","4","6","3","6","2","5","4","6","1","3","3","6","3","3","4","2","6","5","2","6","5","5","4","3","4","5","5","4","3","763057696781111297","黄","141","Male","[""坏他"",""坏我"",""好他"",""好我""]","[""弱他"",""弱我"",""强他"",""强我""]","","","","","","","","nonmatch","","","","","","","","","","key","f","16.562031249999563","768","428","f","true","nonmatch","img/circle.png","强他","强我","ALT2","ability","","","","","","","","",""
"null","<span style='color:GreenYellow; font-size: 70px;'>正确! </span>","null","html-keyboard-response","123","606443","0.0-8.0-1.0-4.0-0.0-1.7","5","4","5","6","3","4","3","4","3","3","5","1","1","0","1","0","2","1","2","4","3","5","4","4","3","4","3","4","5","8","7","9","7","9","9","7","9","8","6","3","5","5","4","4","5","2","5","4","1","4","4","6","3","6","2","5","4","6","1","3","3","6","3","3","4","2","6","5","2","6","5","5","4","3","4","5","5","4","3","763057696781111297","黄","141","Male","[""坏他"",""坏我"",""好他"",""好我""]","[""弱他"",""弱我"",""强他"",""强我""]","","","","","","","","","","","","","","","","","","","","","","","","","","","","","","feedback_test","","","","","","","","",""
"645","","j","psychophysics","124","608090","0.0-8.0-1.0-4.0-0.0-0.8","5","4","5","6","3","4","3","4","3","3","5","1","1","0","1","0","2","1","2","4","3","5","4","4","3","4","3","4","5","8","7","9","7","9","9","7","9","8","6","3","5","5","4","4","5","2","5","4","1","4","4","6","3","6","2","5","4","6","1","3","3","6","3","3","4","2","6","5","2","6","5","5","4","3","4","5","5","4","3","763057696781111297","黄","141","Male","[""坏他"",""坏我"",""好他"",""好我""]","[""弱他"",""弱我"",""强他"",""强我""]","","","","","","","","match","","","","","","","","","","key","j","16.561816326530213","768","428","j","true","match","img/circle.png","强我","强我","ALT2","ability","","","","","","","","",""
"null","<span style='color:GreenYellow; font-size: 70px;'>正确! </span>","null","html-keyboard-response","125","608593","0.0-8.0-1.0-4.0-0.0-1.8","5","4","5","6","3","4","3","4","3","3","5","1","1","0","1","0","2","1","2","4","3","5","4","4","3","4","3","4","5","8","7","9","7","9","9","7","9","8","6","3","5","5","4","4","5","2","5","4","1","4","4","6","3","6","2","5","4","6","1","3","3","6","3","3","4","2","6","5","2","6","5","5","4","3","4","5","5","4","3","763057696781111297","黄","141","Male","[""坏他"",""坏我"",""好他"",""好我""]","[""弱他"",""弱我"",""强他"",""强我""]","","","","","","","","","","","","","","","","","","","","","","","","","","","","","","feedback_test","","","","","","","","",""
"1075","","f","psychophysics","126","610669","0.0-8.0-1.0-4.0-0.0-0.9","5","4","5","6","3","4","3","4","3","3","5","1","1","0","1","0","2","1","2","4","3","5","4","4","3","4","3","4","5","8","7","9","7","9","9","7","9","8","6","3","5","5","4","4","5","2","5","4","1","4","4","6","3","6","2","5","4","6","1","3","3","6","3","3","4","2","6","5","2","6","5","5","4","3","4","5","5","4","3","763057696781111297","黄","141","Male","[""坏他"",""坏我"",""好他"",""好我""]","[""弱他"",""弱我"",""强他"",""强我""]","","","","","","","","nonmatch","","","","","","","","","","key","f","16.561387096774848","768","428","j","false","match","img/trapezoid.png","强他","强他","ALT2","ability","","","","","","","","",""
"null","<span style='color:red; font-size: 70px;'>错误! </span>","null","html-keyboard-response","127","611170","0.0-8.0-1.0-4.0-0.0-1.9","5","4","5","6","3","4","3","4","3","3","5","1","1","0","1","0","2","1","2","4","3","5","4","4","3","4","3","4","5","8","7","9","7","9","9","7","9","8","6","3","5","5","4","4","5","2","5","4","1","4","4","6","3","6","2","5","4","6","1","3","3","6","3","3","4","2","6","5","2","6","5","5","4","3","4","5","5","4","3","763057696781111297","黄","141","Male","[""坏他"",""坏我"",""好他"",""好我""]","[""弱他"",""弱我"",""强他"",""强我""]","","","","","","","","","","","","","","","","","","","","","","","","","","","","","","feedback_test","","","","","","","","",""
"570","","f","psychophysics","128","612742","0.0-8.0-1.0-4.0-0.0-0.10","5","4","5","6","3","4","3","4","3","3","5","1","1","0","1","0","2","1","2","4","3","5","4","4","3","4","3","4","5","8","7","9","7","9","9","7","9","8","6","3","5","5","4","4","5","2","5","4","1","4","4","6","3","6","2","5","4","6","1","3","3","6","3","3","4","2","6","5","2","6","5","5","4","3","4","5","5","4","3","763057696781111297","黄","141","Male","[""坏他"",""坏我"",""好他"",""好我""]","[""弱他"",""弱我"",""强他"",""强我""]","","","","","","","","nonmatch","","","","","","","","","","key","f","16.562542553191033","768","428","f","true","nonmatch","img/pentagon.png","弱我","弱他","ALT2","ability","","","","","","","","",""
"null","<span style='color:GreenYellow; font-size: 70px;'>正确! </span>","null","html-keyboard-response","129","613243","0.0-8.0-1.0-4.0-0.0-1.10","5","4","5","6","3","4","3","4","3","3","5","1","1","0","1","0","2","1","2","4","3","5","4","4","3","4","3","4","5","8","7","9","7","9","9","7","9","8","6","3","5","5","4","4","5","2","5","4","1","4","4","6","3","6","2","5","4","6","1","3","3","6","3","3","4","2","6","5","2","6","5","5","4","3","4","5","5","4","3","763057696781111297","黄","141","Male","[""坏他"",""坏我"",""好他"",""好我""]","[""弱他"",""弱我"",""强他"",""强我""]","","","","","","","","","","","","","","","","","","","","","","","","","","","","","","feedback_test","","","","","","","","",""
"758","","f","psychophysics","130","615003","0.0-8.0-1.0-4.0-0.0-0.11","5","4","5","6","3","4","3","4","3","3","5","1","1","0","1","0","2","1","2","4","3","5","4","4","3","4","3","4","5","8","7","9","7","9","9","7","9","8","6","3","5","5","4","4","5","2","5","4","1","4","4","6","3","6","2","5","4","6","1","3","3","6","3","3","4","2","6","5","2","6","5","5","4","3","4","5","5","4","3","763057696781111297","黄","141","Male","[""坏他"",""坏我"",""好他"",""好我""]","[""弱他"",""弱我"",""强他"",""强我""]","","","","","","","","nonmatch","","","","","","","","","","key","f","16.562095238094308","768","428","f","true","nonmatch","img/circle.png","弱我","强我","ALT2","ability","","","","","","","","",""
"null","<span style='color:GreenYellow; font-size: 70px;'>正确! </span>","null","html-keyboard-response","131","615507","0.0-8.0-1.0-4.0-0.0-1.11","5","4","5","6","3","4","3","4","3","3","5","1","1","0","1","0","2","1","2","4","3","5","4","4","3","4","3","4","5","8","7","9","7","9","9","7","9","8","6","3","5","5","4","4","5","2","5","4","1","4","4","6","3","6","2","5","4","6","1","3","3","6","3","3","4","2","6","5","2","6","5","5","4","3","4","5","5","4","3","763057696781111297","黄","141","Male","[""坏他"",""坏我"",""好他"",""好我""]","[""弱他"",""弱我"",""强他"",""强我""]","","","","","","","","","","","","","","","","","","","","","","","","","","","","","","feedback_test","","","","","","","","",""
"998","","f","psychophysics","132","617508","0.0-8.0-1.0-4.0-0.0-0.12","5","4","5","6","3","4","3","4","3","3","5","1","1","0","1","0","2","1","2","4","3","5","4","4","3","4","3","4","5","8","7","9","7","9","9","7","9","8","6","3","5","5","4","4","5","2","5","4","1","4","4","6","3","6","2","5","4","6","1","3","3","6","3","3","4","2","6","5","2","6","5","5","4","3","4","5","5","4","3","763057696781111297","黄","141","Male","[""坏他"",""坏我"",""好他"",""好我""]","[""弱他"",""弱我"",""强他"",""强我""]","","","","","","","","nonmatch","","","","","","","","","","key","f","16.561875000000388","768","428","f","true","nonmatch","img/trapezoid.png","弱我","强他","ALT2","ability","","","","","","","","",""
"null","<span style='color:GreenYellow; font-size: 70px;'>正确! </span>","null","html-keyboard-response","133","618010","0.0-8.0-1.0-4.0-0.0-1.12","5","4","5","6","3","4","3","4","3","3","5","1","1","0","1","0","2","1","2","4","3","5","4","4","3","4","3","4","5","8","7","9","7","9","9","7","9","8","6","3","5","5","4","4","5","2","5","4","1","4","4","6","3","6","2","5","4","6","1","3","3","6","3","3","4","2","6","5","2","6","5","5","4","3","4","5","5","4","3","763057696781111297","黄","141","Male","[""坏他"",""坏我"",""好他"",""好我""]","[""弱他"",""弱我"",""强他"",""强我""]","","","","","","","","","","","","","","","","","","","","","","","","","","","","","","feedback_test","","","","","","","","",""
"615","","j","psychophysics","134","619628","0.0-8.0-1.0-4.0-0.0-0.13","5","4","5","6","3","4","3","4","3","3","5","1","1","0","1","0","2","1","2","4","3","5","4","4","3","4","3","4","5","8","7","9","7","9","9","7","9","8","6","3","5","5","4","4","5","2","5","4","1","4","4","6","3","6","2","5","4","6","1","3","3","6","3","3","4","2","6","5","2","6","5","5","4","3","4","5","5","4","3","763057696781111297","黄","141","Male","[""坏他"",""坏我"",""好他"",""好我""]","[""弱他"",""弱我"",""强他"",""强我""]","","","","","","","","match","","","","","","","","","","key","j","16.56248453608234","768","428","j","true","match","img/circle.png","强我","强我","ALT2","ability","","","","","","","","",""
"null","<span style='color:GreenYellow; font-size: 70px;'>正确! </span>","null","html-keyboard-response","135","620129","0.0-8.0-1.0-4.0-0.0-1.13","5","4","5","6","3","4","3","4","3","3","5","1","1","0","1","0","2","1","2","4","3","5","4","4","3","4","3","4","5","8","7","9","7","9","9","7","9","8","6","3","5","5","4","4","5","2","5","4","1","4","4","6","3","6","2","5","4","6","1","3","3","6","3","3","4","2","6","5","2","6","5","5","4","3","4","5","5","4","3","763057696781111297","黄","141","Male","[""坏他"",""坏我"",""好他"",""好我""]","[""弱他"",""弱我"",""强他"",""强我""]","","","","","","","","","","","","","","","","","","","","","","","","","","","","","","feedback_test","","","","","","","","",""
"679","","f","psychophysics","136","621810","0.0-8.0-1.0-4.0-0.0-0.14","5","4","5","6","3","4","3","4","3","3","5","1","1","0","1","0","2","1","2","4","3","5","4","4","3","4","3","4","5","8","7","9","7","9","9","7","9","8","6","3","5","5","4","4","5","2","5","4","1","4","4","6","3","6","2","5","4","6","1","3","3","6","3","3","4","2","6","5","2","6","5","5","4","3","4","5","5","4","3","763057696781111297","黄","141","Male","[""坏他"",""坏我"",""好他"",""好我""]","[""弱他"",""弱我"",""强他"",""强我""]","","","","","","","","nonmatch","","","","","","","","","","key","f","16.562445544554752","768","428","f","true","nonmatch","img/circle.png","弱他","强我","ALT2","ability","","","","","","","","",""
"null","<span style='color:GreenYellow; font-size: 70px;'>正确! </span>","null","html-keyboard-response","137","622311","0.0-8.0-1.0-4.0-0.0-1.14","5","4","5","6","3","4","3","4","3","3","5","1","1","0","1","0","2","1","2","4","3","5","4","4","3","4","3","4","5","8","7","9","7","9","9","7","9","8","6","3","5","5","4","4","5","2","5","4","1","4","4","6","3","6","2","5","4","6","1","3","3","6","3","3","4","2","6","5","2","6","5","5","4","3","4","5","5","4","3","763057696781111297","黄","141","Male","[""坏他"",""坏我"",""好他"",""好我""]","[""弱他"",""弱我"",""强他"",""强我""]","","","","","","","","","","","","","","","","","","","","","","","","","","","","","","feedback_test","","","","","","","","",""
