"rt","stimulus","response","trial_type","trial_index","time_elapsed","internal_node_id","swb_1","swb_2","swb_3","swb_4","swb_5","LOT_1","LOT_2","LOT_3","LOT_4","LOT_5","LOT_6","IPC_1","IPC_2","IPC_3","IPC_4","IPC_5","IPC_6","IPC_7","IPC_8","MorIden_1","MorIden_2","MorIden_3","MorIden_4","MorIden_5","MorIden_6","MorIden_7","MorIden_8","MorIden_9","MorIden_10","moralSeImag_1","moralSeImag_2","moralSeImag_3","moralSeImag_4","moralSeImag_5","moralSeImag_6","moralSeImag_7","moralSeImag_8","moralSeImag_9","sde_1","sde_2","sde_3","sde_4","sde_5","sde_6","sde_7","sde_8","sde_9","sde_10","trap2","sde_11","sde_12","sde_13","sde_14","sde_15","sde_16","sde_17","sde_18","sde_19","sde_20","IM_1","IM_2","IM_3","IM_4","IM_5","IM_6","IM_7","IM_8","IM_9","IM_10","IM_11","IM_12","IM_13","IM_14","IM_15","IM_16","IM_17","IM_18","IM_19","IM_20","subj_idx","friend_name","ParticipantID","Sex","Word","Word2","value","success","timeout","failed_images","failed_audio","failed_video","user_agent","responses","item_order","radio_event_ids","radio_event_times","key_event_times","mouse_event_times","straightlining","zigzagging","honeypot","view_history","response_type","key_press","avg_frame_time","center_x","center_y","correct_response","correct","identity","Image","word","condition","task_id","screen_id","time_stamp","person","valence","domain","math","status","duration","question_order","trap2_item"
"103201","
   <p><div style='color:white; font-size: 25px'>您好，欢迎参加本次实验。</div></p>
   <p><div style='color:white; font-size: 25px'>为充分保障您的权利，请确保您已经知晓并同意《参与实验同意书》以及《数据公开知情同意书》。</div></p>
   <p><div style='color:white; font-size: 25px'>如果您未见过上述内容，请咨询实验员。</div></p>
   <p style='color:white; font-size: 25px'>如果您选择继续实验，则表示您已经清楚两份知情同意书的内容并同意。</p>
   <p><div style = ""color: pink;font-size:30px;"">请确保您记得day0的实验编号，您将在本次实验输入该编号，若您忘记，请咨询实验员后作答。</div></p>
   <p><div style = ""color:lightblue;font-size:25px;"">请您尽可能认真地作答，我们将依据您在各问卷和按键任务中的作答质量发放报酬。</div></p>
   <p> <div style = ""color: green""><按空格键至下页></div> </p>
   "," ","html-keyboard-response","0","103206","0.0-0.0","5","4","3","4","6","3","2","3","2","1","3","-1","-2","0","0","-1","1","0","0","3","4","4","2","4","2","2","2","1","2","3","2","4","3","1","2","1","4","4","5","4","3","3","4","5","5","2","5","5","1","4","2","3","3","3","3","4","3","6","3","1","2","3","1","2","3","6","6","7","6","6","3","5","3","3","3","2","3","1","3","657683860254883840","邵","686","Male","[""好他"",""坏我"",""好我"",""坏他""]","[""强他"",""弱我"",""强我"",""弱他""]","","","","","","","","","","","","","","","","","","","","","","","","","","","","","","","","","","","","","","",""
"","","","call-function","1","103208","0.0-1.0-0.0","5","4","3","4","6","3","2","3","2","1","3","-1","-2","0","0","-1","1","0","0","3","4","4","2","4","2","2","2","1","2","3","2","4","3","1","2","1","4","4","5","4","3","3","4","5","5","2","5","5","1","4","2","3","3","3","3","4","3","6","3","1","2","3","1","2","3","6","6","7","6","6","3","5","3","3","3","2","3","1","3","657683860254883840","邵","686","Male","[""好他"",""坏我"",""好我"",""坏他""]","[""强他"",""弱我"",""强我"",""弱他""]","","","","","","","","","","","","","","","","","","","","","","","","","","","","","","","","","","","","","","",""
"20826","","[{""name"":""Sex"",""value"":""0""},{""name"":""friend_name"",""value"":""邵""},{""name"":""ParticipantID"",""value"":""686""}]","survey-html-form","2","124036","0.0-1.0-1.0","5","4","3","4","6","3","2","3","2","1","3","-1","-2","0","0","-1","1","0","0","3","4","4","2","4","2","2","2","1","2","3","2","4","3","1","2","1","4","4","5","4","3","3","4","5","5","2","5","5","1","4","2","3","3","3","3","4","3","6","3","1","2","3","1","2","3","6","6","7","6","6","3","5","3","3","3","2","3","1","3","657683860254883840","邵","686","Male","[""好他"",""坏我"",""好我"",""坏他""]","[""强他"",""弱我"",""强我"",""弱他""]","","","","","","","","","","","","","","","","","","","","","","","","","","","","","","","","","","","","","","",""
"","","","preload","3","124523","0.0-2.0","5","4","3","4","6","3","2","3","2","1","3","-1","-2","0","0","-1","1","0","0","3","4","4","2","4","2","2","2","1","2","3","2","4","3","1","2","1","4","4","5","4","3","3","4","5","5","2","5","5","1","4","2","3","3","3","3","4","3","6","3","1","2","3","1","2","3","6","6","7","6","6","3","5","3","3","3","2","3","1","3","657683860254883840","邵","686","Male","[""好他"",""坏我"",""好我"",""坏他""]","[""强他"",""弱我"",""强我"",""弱他""]","","true","false","[]","[]","[]","","","","","","","","","","","","","","","","","","","","","","","","","","","","","","","","",""
"","","","fullscreen","4","143365","0.0-3.0","5","4","3","4","6","3","2","3","2","1","3","-1","-2","0","0","-1","1","0","0","3","4","4","2","4","2","2","2","1","2","3","2","4","3","1","2","1","4","4","5","4","3","3","4","5","5","2","5","5","1","4","2","3","3","3","3","4","3","6","3","1","2","3","1","2","3","6","6","7","6","6","3","5","3","3","3","2","3","1","3","657683860254883840","邵","686","Male","[""好他"",""坏我"",""好我"",""坏他""]","[""强他"",""弱我"",""强我"",""弱他""]","","true","","","","","{}","","","","","","","","","","","","","","","","","","","","","","","","","","","","","","","",""
"11120.800000071526","","{""Q01"":""5"",""Q02"":""4"",""Q03"":""3"",""Q04"":""4"",""Q05"":""6""}","survey-template","5","154491","0.0-4.0","5","4","3","4","6","3","2","3","2","1","3","-1","-2","0","0","-1","1","0","0","3","4","4","2","4","2","2","2","1","2","3","2","4","3","1","2","1","4","4","5","4","3","3","4","5","5","2","5","5","1","4","2","3","3","3","3","4","3","6","3","1","2","3","1","2","3","6","6","7","6","6","3","5","3","3","3","2","3","1","3","657683860254883840","邵","686","Male","[""好他"",""坏我"",""好我"",""坏他""]","[""强他"",""弱我"",""强我"",""弱他""]","","","","","","","","{""Q01"":""5"",""Q02"":""4"",""Q03"":""3"",""Q04"":""4"",""Q05"":""6""}","[0,1,2,3,4]","[""Q01"",""Q02"",""Q03"",""Q04"",""Q05""]","[3631.2000000476837,4729.5,6489.899999976158,7728.600000023842,10493.700000047684]","[]","[3631.2000000476837,4729.5,6489.899999976158,7129.399999976158,7728.600000023842,10182.700000047684,10493.700000047684,11119.899999976158]","0.4","0.75","0","","","","","","","","","","","","","","","","","","","","","","",""
"14318.899999976158","","{""Q01"":""3"",""Q02"":""2"",""Q03"":""3"",""Q04"":""2"",""Q05"":""1"",""Q06"":""3""}","survey-template","6","168815","0.0-5.0","5","4","3","4","6","3","2","3","2","1","3","-1","-2","0","0","-1","1","0","0","3","4","4","2","4","2","2","2","1","2","3","2","4","3","1","2","1","4","4","5","4","3","3","4","5","5","2","5","5","1","4","2","3","3","3","3","4","3","6","3","1","2","3","1","2","3","6","6","7","6","6","3","5","3","3","3","2","3","1","3","657683860254883840","邵","686","Male","[""好他"",""坏我"",""好我"",""坏他""]","[""强他"",""弱我"",""强我"",""弱他""]","","","","","","","","{""Q01"":""3"",""Q02"":""2"",""Q03"":""3"",""Q04"":""2"",""Q05"":""1"",""Q06"":""3""}","[0,1,2,3,4,5]","[""Q01"",""Q02"",""Q03"",""Q04"",""Q05"",""Q06""]","[2747.899999976158,4443.199999928474,6578.5,8426.599999904633,10367.399999976158,13331]","[]","[2214.399999976158,2747.899999976158,4443.199999928474,6578.5,8426.599999904633,10367.399999976158,11333.399999976158,12676.399999976158,13331,14317.899999976158]","0.5","0.8","0","","","","","","","","","","","","","","","","","","","","","","",""
"19895.200000047684","","{""Q01"":""-1"",""Q02"":""-2"",""Q03"":""0"",""Q04"":""0"",""Q05"":""-1"",""Q06"":""1"",""Q07"":""0"",""Q08"":""0""}","survey-template","7","188715","0.0-6.0","5","4","3","4","6","3","2","3","2","1","3","-1","-2","0","0","-1","1","0","0","3","4","4","2","4","2","2","2","1","2","3","2","4","3","1","2","1","4","4","5","4","3","3","4","5","5","2","5","5","1","4","2","3","3","3","3","4","3","6","3","1","2","3","1","2","3","6","6","7","6","6","3","5","3","3","3","2","3","1","3","657683860254883840","邵","686","Male","[""好他"",""坏我"",""好我"",""坏他""]","[""强他"",""弱我"",""强我"",""弱他""]","","","","","","","","{""Q01"":""-1"",""Q02"":""-2"",""Q03"":""0"",""Q04"":""0"",""Q05"":""-1"",""Q06"":""1"",""Q07"":""0"",""Q08"":""0""}","[0,1,2,3,4,5,6,7]","[""Q01"",""Q02"",""Q03"",""Q04"",""Q05"",""Q06"",""Q07"",""Q08""]","[2567.5,5756.600000023842,9287.399999976158,11204.899999976158,13269.800000071526,15377.200000047684,18366.899999976158,18896.399999976158]","[]","[2567.5,3189.8000000715256,3888.600000023842,5756.600000023842,9287.399999976158,11204.899999976158,12228.800000071526,13269.800000071526,15377.200000047684,18366.899999976158,18896.399999976158,19893.700000047684]","0.5","0.42857142857142855","0","","","","","","","","","","","","","","","","","","","","","","",""
"20807","","","instructions","8","209526","0.0-7.0","5","4","3","4","6","3","2","3","2","1","3","-1","-2","0","0","-1","1","0","0","3","4","4","2","4","2","2","2","1","2","3","2","4","3","1","2","1","4","4","5","4","3","3","4","5","5","2","5","5","1","4","2","3","3","3","3","4","3","6","3","1","2","3","1","2","3","6","6","7","6","6","3","5","3","3","3","2","3","1","3","657683860254883840","邵","686","Male","[""好他"",""坏我"",""好我"",""坏他""]","[""强他"",""弱我"",""强我"",""弱他""]","","","","","","","","","","","","","","","","","[{""page_index"":0,""viewing_time"":20806}]","","","","","","","","","","","","","","","","","","","","","",""
"44887","","","instructions","9","254415","0.0-8.0-0.0-0.0","5","4","3","4","6","3","2","3","2","1","3","-1","-2","0","0","-1","1","0","0","3","4","4","2","4","2","2","2","1","2","3","2","4","3","1","2","1","4","4","5","4","3","3","4","5","5","2","5","5","1","4","2","3","3","3","3","4","3","6","3","1","2","3","1","2","3","6","6","7","6","6","3","5","3","3","3","2","3","1","3","657683860254883840","邵","686","Male","[""好他"",""坏我"",""好我"",""坏他""]","[""强他"",""弱我"",""强我"",""弱他""]","","","","","","","","","","","","","","","","","[{""page_index"":0,""viewing_time"":12476},{""page_index"":1,""viewing_time"":26486},{""page_index"":2,""viewing_time"":3146},{""page_index"":3,""viewing_time"":2779}]","","","","","","","","","","","","","","","","","","","","","",""
"1028","","j","psychophysics","10","256448","0.0-8.0-0.0-1.0-0.0-0.0","5","4","3","4","6","3","2","3","2","1","3","-1","-2","0","0","-1","1","0","0","3","4","4","2","4","2","2","2","1","2","3","2","4","3","1","2","1","4","4","5","4","3","3","4","5","5","2","5","5","1","4","2","3","3","3","3","4","3","6","3","1","2","3","1","2","3","6","6","7","6","6","3","5","3","3","3","2","3","1","3","657683860254883840","邵","686","Male","[""好他"",""坏我"",""好我"",""坏他""]","[""强他"",""弱我"",""强我"",""弱他""]","","","","","","","","nonmatch","","","","","","","","","","key","j","16.668841666666655","768","428","j","true","nonmatch","img/diamond.png","坏他","坏我","prac_ALT2_moral","practice_moral","","","","","","","","",""
"null","<span style='color:GreenYellow; font-size: 70px;'>正确! </span>","null","html-keyboard-response","11","256951","0.0-8.0-0.0-1.0-0.0-1.0","5","4","3","4","6","3","2","3","2","1","3","-1","-2","0","0","-1","1","0","0","3","4","4","2","4","2","2","2","1","2","3","2","4","3","1","2","1","4","4","5","4","3","3","4","5","5","2","5","5","1","4","2","3","3","3","3","4","3","6","3","1","2","3","1","2","3","6","6","7","6","6","3","5","3","3","3","2","3","1","3","657683860254883840","邵","686","Male","[""好他"",""坏我"",""好我"",""坏他""]","[""强他"",""弱我"",""强我"",""弱他""]","","","","","","","","","","","","","","","","","","","","","","","","","","","","","","feedback_test","","","","","","","","",""
"900","","j","psychophysics","12","258854","0.0-8.0-0.0-1.0-0.0-0.1","5","4","3","4","6","3","2","3","2","1","3","-1","-2","0","0","-1","1","0","0","3","4","4","2","4","2","2","2","1","2","3","2","4","3","1","2","1","4","4","5","4","3","3","4","5","5","2","5","5","1","4","2","3","3","3","3","4","3","6","3","1","2","3","1","2","3","6","6","7","6","6","3","5","3","3","3","2","3","1","3","657683860254883840","邵","686","Male","[""好他"",""坏我"",""好我"",""坏他""]","[""强他"",""弱我"",""强我"",""弱他""]","","","","","","","","nonmatch","","","","","","","","","","key","j","16.668938053097314","768","428","j","true","nonmatch","img/pentagon.png","坏我","好他","prac_ALT2_moral","practice_moral","","","","","","","","",""
"null","<span style='color:GreenYellow; font-size: 70px;'>正确! </span>","null","html-keyboard-response","13","259355","0.0-8.0-0.0-1.0-0.0-1.1","5","4","3","4","6","3","2","3","2","1","3","-1","-2","0","0","-1","1","0","0","3","4","4","2","4","2","2","2","1","2","3","2","4","3","1","2","1","4","4","5","4","3","3","4","5","5","2","5","5","1","4","2","3","3","3","3","4","3","6","3","1","2","3","1","2","3","6","6","7","6","6","3","5","3","3","3","2","3","1","3","657683860254883840","邵","686","Male","[""好他"",""坏我"",""好我"",""坏他""]","[""强他"",""弱我"",""强我"",""弱他""]","","","","","","","","","","","","","","","","","","","","","","","","","","","","","","feedback_test","","","","","","","","",""
"775","","f","psychophysics","14","261133","0.0-8.0-0.0-1.0-0.0-0.2","5","4","3","4","6","3","2","3","2","1","3","-1","-2","0","0","-1","1","0","0","3","4","4","2","4","2","2","2","1","2","3","2","4","3","1","2","1","4","4","5","4","3","3","4","5","5","2","5","5","1","4","2","3","3","3","3","4","3","6","3","1","2","3","1","2","3","6","6","7","6","6","3","5","3","3","3","2","3","1","3","657683860254883840","邵","686","Male","[""好他"",""坏我"",""好我"",""坏他""]","[""强他"",""弱我"",""强我"",""弱他""]","","","","","","","","match","","","","","","","","","","key","f","16.668257142857016","768","428","f","true","match","img/diamond.png","坏我","坏我","prac_ALT2_moral","practice_moral","","","","","","","","",""
"null","<span style='color:GreenYellow; font-size: 70px;'>正确! </span>","null","html-keyboard-response","15","261635","0.0-8.0-0.0-1.0-0.0-1.2","5","4","3","4","6","3","2","3","2","1","3","-1","-2","0","0","-1","1","0","0","3","4","4","2","4","2","2","2","1","2","3","2","4","3","1","2","1","4","4","5","4","3","3","4","5","5","2","5","5","1","4","2","3","3","3","3","4","3","6","3","1","2","3","1","2","3","6","6","7","6","6","3","5","3","3","3","2","3","1","3","657683860254883840","邵","686","Male","[""好他"",""坏我"",""好我"",""坏他""]","[""强他"",""弱我"",""强我"",""弱他""]","","","","","","","","","","","","","","","","","","","","","","","","","","","","","","feedback_test","","","","","","","","",""
"535","","f","psychophysics","16","263173","0.0-8.0-0.0-1.0-0.0-0.3","5","4","3","4","6","3","2","3","2","1","3","-1","-2","0","0","-1","1","0","0","3","4","4","2","4","2","2","2","1","2","3","2","4","3","1","2","1","4","4","5","4","3","3","4","5","5","2","5","5","1","4","2","3","3","3","3","4","3","6","3","1","2","3","1","2","3","6","6","7","6","6","3","5","3","3","3","2","3","1","3","657683860254883840","邵","686","Male","[""好他"",""坏我"",""好我"",""坏他""]","[""强他"",""弱我"",""强我"",""弱他""]","","","","","","","","match","","","","","","","","","","key","f","16.66771428571415","768","428","f","true","match","img/square.png","好我","好我","prac_ALT2_moral","practice_moral","","","","","","","","",""
"null","<span style='color:GreenYellow; font-size: 70px;'>正确! </span>","null","html-keyboard-response","17","263677","0.0-8.0-0.0-1.0-0.0-1.3","5","4","3","4","6","3","2","3","2","1","3","-1","-2","0","0","-1","1","0","0","3","4","4","2","4","2","2","2","1","2","3","2","4","3","1","2","1","4","4","5","4","3","3","4","5","5","2","5","5","1","4","2","3","3","3","3","4","3","6","3","1","2","3","1","2","3","6","6","7","6","6","3","5","3","3","3","2","3","1","3","657683860254883840","邵","686","Male","[""好他"",""坏我"",""好我"",""坏他""]","[""强他"",""弱我"",""强我"",""弱他""]","","","","","","","","","","","","","","","","","","","","","","","","","","","","","","feedback_test","","","","","","","","",""
"568","","j","psychophysics","18","265248","0.0-8.0-0.0-1.0-0.0-0.4","5","4","3","4","6","3","2","3","2","1","3","-1","-2","0","0","-1","1","0","0","3","4","4","2","4","2","2","2","1","2","3","2","4","3","1","2","1","4","4","5","4","3","3","4","5","5","2","5","5","1","4","2","3","3","3","3","4","3","6","3","1","2","3","1","2","3","6","6","7","6","6","3","5","3","3","3","2","3","1","3","657683860254883840","邵","686","Male","[""好他"",""坏我"",""好我"",""坏他""]","[""强他"",""弱我"",""强我"",""弱他""]","","","","","","","","nonmatch","","","","","","","","","","key","j","16.669978494623862","768","428","j","true","nonmatch","img/ellipse.png","好我","坏他","prac_ALT2_moral","practice_moral","","","","","","","","",""
"null","<span style='color:GreenYellow; font-size: 70px;'>正确! </span>","null","html-keyboard-response","19","265751","0.0-8.0-0.0-1.0-0.0-1.4","5","4","3","4","6","3","2","3","2","1","3","-1","-2","0","0","-1","1","0","0","3","4","4","2","4","2","2","2","1","2","3","2","4","3","1","2","1","4","4","5","4","3","3","4","5","5","2","5","5","1","4","2","3","3","3","3","4","3","6","3","1","2","3","1","2","3","6","6","7","6","6","3","5","3","3","3","2","3","1","3","657683860254883840","邵","686","Male","[""好他"",""坏我"",""好我"",""坏他""]","[""强他"",""弱我"",""强我"",""弱他""]","","","","","","","","","","","","","","","","","","","","","","","","","","","","","","feedback_test","","","","","","","","",""
"704","","j","psychophysics","20","267457","0.0-8.0-0.0-1.0-0.0-0.5","5","4","3","4","6","3","2","3","2","1","3","-1","-2","0","0","-1","1","0","0","3","4","4","2","4","2","2","2","1","2","3","2","4","3","1","2","1","4","4","5","4","3","3","4","5","5","2","5","5","1","4","2","3","3","3","3","4","3","6","3","1","2","3","1","2","3","6","6","7","6","6","3","5","3","3","3","2","3","1","3","657683860254883840","邵","686","Male","[""好他"",""坏我"",""好我"",""坏他""]","[""强他"",""弱我"",""强我"",""弱他""]","","","","","","","","nonmatch","","","","","","","","","","key","j","16.66763366336616","768","428","j","true","nonmatch","img/diamond.png","好他","坏我","prac_ALT2_moral","practice_moral","","","","","","","","",""
"null","<span style='color:GreenYellow; font-size: 70px;'>正确! </span>","null","html-keyboard-response","21","267959","0.0-8.0-0.0-1.0-0.0-1.5","5","4","3","4","6","3","2","3","2","1","3","-1","-2","0","0","-1","1","0","0","3","4","4","2","4","2","2","2","1","2","3","2","4","3","1","2","1","4","4","5","4","3","3","4","5","5","2","5","5","1","4","2","3","3","3","3","4","3","6","3","1","2","3","1","2","3","6","6","7","6","6","3","5","3","3","3","2","3","1","3","657683860254883840","邵","686","Male","[""好他"",""坏我"",""好我"",""坏他""]","[""强他"",""弱我"",""强我"",""弱他""]","","","","","","","","","","","","","","","","","","","","","","","","","","","","","","feedback_test","","","","","","","","",""
"772","","j","psychophysics","22","269741","0.0-8.0-0.0-1.0-0.0-0.6","5","4","3","4","6","3","2","3","2","1","3","-1","-2","0","0","-1","1","0","0","3","4","4","2","4","2","2","2","1","2","3","2","4","3","1","2","1","4","4","5","4","3","3","4","5","5","2","5","5","1","4","2","3","3","3","3","4","3","6","3","1","2","3","1","2","3","6","6","7","6","6","3","5","3","3","3","2","3","1","3","657683860254883840","邵","686","Male","[""好他"",""坏我"",""好我"",""坏他""]","[""强他"",""弱我"",""强我"",""弱他""]","","","","","","","","nonmatch","","","","","","","","","","key","j","16.6691792452832","768","428","j","true","nonmatch","img/ellipse.png","坏我","坏他","prac_ALT2_moral","practice_moral","","","","","","","","",""
"null","<span style='color:GreenYellow; font-size: 70px;'>正确! </span>","null","html-keyboard-response","23","270244","0.0-8.0-0.0-1.0-0.0-1.6","5","4","3","4","6","3","2","3","2","1","3","-1","-2","0","0","-1","1","0","0","3","4","4","2","4","2","2","2","1","2","3","2","4","3","1","2","1","4","4","5","4","3","3","4","5","5","2","5","5","1","4","2","3","3","3","3","4","3","6","3","1","2","3","1","2","3","6","6","7","6","6","3","5","3","3","3","2","3","1","3","657683860254883840","邵","686","Male","[""好他"",""坏我"",""好我"",""坏他""]","[""强他"",""弱我"",""强我"",""弱他""]","","","","","","","","","","","","","","","","","","","","","","","","","","","","","","feedback_test","","","","","","","","",""
"869","","f","psychophysics","24","272114","0.0-8.0-0.0-1.0-0.0-0.7","5","4","3","4","6","3","2","3","2","1","3","-1","-2","0","0","-1","1","0","0","3","4","4","2","4","2","2","2","1","2","3","2","4","3","1","2","1","4","4","5","4","3","3","4","5","5","2","5","5","1","4","2","3","3","3","3","4","3","6","3","1","2","3","1","2","3","6","6","7","6","6","3","5","3","3","3","2","3","1","3","657683860254883840","邵","686","Male","[""好他"",""坏我"",""好我"",""坏他""]","[""强他"",""弱我"",""强我"",""弱他""]","","","","","","","","match","","","","","","","","","","key","f","16.668720720720746","768","428","f","true","match","img/ellipse.png","坏他","坏他","prac_ALT2_moral","practice_moral","","","","","","","","",""
"null","<span style='color:GreenYellow; font-size: 70px;'>正确! </span>","null","html-keyboard-response","25","272617","0.0-8.0-0.0-1.0-0.0-1.7","5","4","3","4","6","3","2","3","2","1","3","-1","-2","0","0","-1","1","0","0","3","4","4","2","4","2","2","2","1","2","3","2","4","3","1","2","1","4","4","5","4","3","3","4","5","5","2","5","5","1","4","2","3","3","3","3","4","3","6","3","1","2","3","1","2","3","6","6","7","6","6","3","5","3","3","3","2","3","1","3","657683860254883840","邵","686","Male","[""好他"",""坏我"",""好我"",""坏他""]","[""强他"",""弱我"",""强我"",""弱他""]","","","","","","","","","","","","","","","","","","","","","","","","","","","","","","feedback_test","","","","","","","","",""
"572","","f","psychophysics","26","274193","0.0-8.0-0.0-1.0-0.0-0.8","5","4","3","4","6","3","2","3","2","1","3","-1","-2","0","0","-1","1","0","0","3","4","4","2","4","2","2","2","1","2","3","2","4","3","1","2","1","4","4","5","4","3","3","4","5","5","2","5","5","1","4","2","3","3","3","3","4","3","6","3","1","2","3","1","2","3","6","6","7","6","6","3","5","3","3","3","2","3","1","3","657683860254883840","邵","686","Male","[""好他"",""坏我"",""好我"",""坏他""]","[""强他"",""弱我"",""强我"",""弱他""]","","","","","","","","match","","","","","","","","","","key","f","16.56336559139828","768","428","f","true","match","img/square.png","好我","好我","prac_ALT2_moral","practice_moral","","","","","","","","",""
"null","<span style='color:GreenYellow; font-size: 70px;'>正确! </span>","null","html-keyboard-response","27","274695","0.0-8.0-0.0-1.0-0.0-1.8","5","4","3","4","6","3","2","3","2","1","3","-1","-2","0","0","-1","1","0","0","3","4","4","2","4","2","2","2","1","2","3","2","4","3","1","2","1","4","4","5","4","3","3","4","5","5","2","5","5","1","4","2","3","3","3","3","4","3","6","3","1","2","3","1","2","3","6","6","7","6","6","3","5","3","3","3","2","3","1","3","657683860254883840","邵","686","Male","[""好他"",""坏我"",""好我"",""坏他""]","[""强他"",""弱我"",""强我"",""弱他""]","","","","","","","","","","","","","","","","","","","","","","","","","","","","","","feedback_test","","","","","","","","",""
"664","","j","psychophysics","28","276362","0.0-8.0-0.0-1.0-0.0-0.9","5","4","3","4","6","3","2","3","2","1","3","-1","-2","0","0","-1","1","0","0","3","4","4","2","4","2","2","2","1","2","3","2","4","3","1","2","1","4","4","5","4","3","3","4","5","5","2","5","5","1","4","2","3","3","3","3","4","3","6","3","1","2","3","1","2","3","6","6","7","6","6","3","5","3","3","3","2","3","1","3","657683860254883840","邵","686","Male","[""好他"",""坏我"",""好我"",""坏他""]","[""强他"",""弱我"",""强我"",""弱他""]","","","","","","","","nonmatch","","","","","","","","","","key","j","16.66952525252521","768","428","j","true","nonmatch","img/square.png","坏我","好我","prac_ALT2_moral","practice_moral","","","","","","","","",""
"null","<span style='color:GreenYellow; font-size: 70px;'>正确! </span>","null","html-keyboard-response","29","276869","0.0-8.0-0.0-1.0-0.0-1.9","5","4","3","4","6","3","2","3","2","1","3","-1","-2","0","0","-1","1","0","0","3","4","4","2","4","2","2","2","1","2","3","2","4","3","1","2","1","4","4","5","4","3","3","4","5","5","2","5","5","1","4","2","3","3","3","3","4","3","6","3","1","2","3","1","2","3","6","6","7","6","6","3","5","3","3","3","2","3","1","3","657683860254883840","邵","686","Male","[""好他"",""坏我"",""好我"",""坏他""]","[""强他"",""弱我"",""强我"",""弱他""]","","","","","","","","","","","","","","","","","","","","","","","","","","","","","","feedback_test","","","","","","","","",""
"575","","j","psychophysics","30","278447","0.0-8.0-0.0-1.0-0.0-0.10","5","4","3","4","6","3","2","3","2","1","3","-1","-2","0","0","-1","1","0","0","3","4","4","2","4","2","2","2","1","2","3","2","4","3","1","2","1","4","4","5","4","3","3","4","5","5","2","5","5","1","4","2","3","3","3","3","4","3","6","3","1","2","3","1","2","3","6","6","7","6","6","3","5","3","3","3","2","3","1","3","657683860254883840","邵","686","Male","[""好他"",""坏我"",""好我"",""坏他""]","[""强他"",""弱我"",""强我"",""弱他""]","","","","","","","","nonmatch","","","","","","","","","","key","j","16.670913978494823","768","428","j","true","nonmatch","img/square.png","坏他","好我","prac_ALT2_moral","practice_moral","","","","","","","","",""
"null","<span style='color:GreenYellow; font-size: 70px;'>正确! </span>","null","html-keyboard-response","31","278950","0.0-8.0-0.0-1.0-0.0-1.10","5","4","3","4","6","3","2","3","2","1","3","-1","-2","0","0","-1","1","0","0","3","4","4","2","4","2","2","2","1","2","3","2","4","3","1","2","1","4","4","5","4","3","3","4","5","5","2","5","5","1","4","2","3","3","3","3","4","3","6","3","1","2","3","1","2","3","6","6","7","6","6","3","5","3","3","3","2","3","1","3","657683860254883840","邵","686","Male","[""好他"",""坏我"",""好我"",""坏他""]","[""强他"",""弱我"",""强我"",""弱他""]","","","","","","","","","","","","","","","","","","","","","","","","","","","","","","feedback_test","","","","","","","","",""
"633","","j","psychophysics","32","280588","0.0-8.0-0.0-1.0-0.0-0.11","5","4","3","4","6","3","2","3","2","1","3","-1","-2","0","0","-1","1","0","0","3","4","4","2","4","2","2","2","1","2","3","2","4","3","1","2","1","4","4","5","4","3","3","4","5","5","2","5","5","1","4","2","3","3","3","3","4","3","6","3","1","2","3","1","2","3","6","6","7","6","6","3","5","3","3","3","2","3","1","3","657683860254883840","邵","686","Male","[""好他"",""坏我"",""好我"",""坏他""]","[""强他"",""弱我"",""强我"",""弱他""]","","","","","","","","nonmatch","","","","","","","","","","key","j","16.668326530612088","768","428","f","false","match","img/diamond.png","坏我","坏我","prac_ALT2_moral","practice_moral","","","","","","","","",""
"null","<span style='color:red; font-size: 70px;'>错误! </span>","null","html-keyboard-response","33","281090","0.0-8.0-0.0-1.0-0.0-1.11","5","4","3","4","6","3","2","3","2","1","3","-1","-2","0","0","-1","1","0","0","3","4","4","2","4","2","2","2","1","2","3","2","4","3","1","2","1","4","4","5","4","3","3","4","5","5","2","5","5","1","4","2","3","3","3","3","4","3","6","3","1","2","3","1","2","3","6","6","7","6","6","3","5","3","3","3","2","3","1","3","657683860254883840","邵","686","Male","[""好他"",""坏我"",""好我"",""坏他""]","[""强他"",""弱我"",""强我"",""弱他""]","","","","","","","","","","","","","","","","","","","","","","","","","","","","","","feedback_test","","","","","","","","",""
"815","","j","psychophysics","34","282908","0.0-8.0-0.0-1.0-0.0-0.12","5","4","3","4","6","3","2","3","2","1","3","-1","-2","0","0","-1","1","0","0","3","4","4","2","4","2","2","2","1","2","3","2","4","3","1","2","1","4","4","5","4","3","3","4","5","5","2","5","5","1","4","2","3","3","3","3","4","3","6","3","1","2","3","1","2","3","6","6","7","6","6","3","5","3","3","3","2","3","1","3","657683860254883840","邵","686","Male","[""好他"",""坏我"",""好我"",""坏他""]","[""强他"",""弱我"",""强我"",""弱他""]","","","","","","","","nonmatch","","","","","","","","","","key","j","16.66900925925896","768","428","j","true","nonmatch","img/ellipse.png","好他","坏他","prac_ALT2_moral","practice_moral","","","","","","","","",""
"null","<span style='color:GreenYellow; font-size: 70px;'>正确! </span>","null","html-keyboard-response","35","283411","0.0-8.0-0.0-1.0-0.0-1.12","5","4","3","4","6","3","2","3","2","1","3","-1","-2","0","0","-1","1","0","0","3","4","4","2","4","2","2","2","1","2","3","2","4","3","1","2","1","4","4","5","4","3","3","4","5","5","2","5","5","1","4","2","3","3","3","3","4","3","6","3","1","2","3","1","2","3","6","6","7","6","6","3","5","3","3","3","2","3","1","3","657683860254883840","邵","686","Male","[""好他"",""坏我"",""好我"",""坏他""]","[""强他"",""弱我"",""强我"",""弱他""]","","","","","","","","","","","","","","","","","","","","","","","","","","","","","","feedback_test","","","","","","","","",""
"940","","f","psychophysics","36","285354","0.0-8.0-0.0-1.0-0.0-0.13","5","4","3","4","6","3","2","3","2","1","3","-1","-2","0","0","-1","1","0","0","3","4","4","2","4","2","2","2","1","2","3","2","4","3","1","2","1","4","4","5","4","3","3","4","5","5","2","5","5","1","4","2","3","3","3","3","4","3","6","3","1","2","3","1","2","3","6","6","7","6","6","3","5","3","3","3","2","3","1","3","657683860254883840","邵","686","Male","[""好他"",""坏我"",""好我"",""坏他""]","[""强他"",""弱我"",""强我"",""弱他""]","","","","","","","","match","","","","","","","","","","key","f","16.66831034482738","768","428","f","true","match","img/pentagon.png","好他","好他","prac_ALT2_moral","practice_moral","","","","","","","","",""
"null","<span style='color:GreenYellow; font-size: 70px;'>正确! </span>","null","html-keyboard-response","37","285856","0.0-8.0-0.0-1.0-0.0-1.13","5","4","3","4","6","3","2","3","2","1","3","-1","-2","0","0","-1","1","0","0","3","4","4","2","4","2","2","2","1","2","3","2","4","3","1","2","1","4","4","5","4","3","3","4","5","5","2","5","5","1","4","2","3","3","3","3","4","3","6","3","1","2","3","1","2","3","6","6","7","6","6","3","5","3","3","3","2","3","1","3","657683860254883840","邵","686","Male","[""好他"",""坏我"",""好我"",""坏他""]","[""强他"",""弱我"",""强我"",""弱他""]","","","","","","","","","","","","","","","","","","","","","","","","","","","","","","feedback_test","","","","","","","","",""
"864","","f","psychophysics","38","287723","0.0-8.0-0.0-1.0-0.0-0.14","5","4","3","4","6","3","2","3","2","1","3","-1","-2","0","0","-1","1","0","0","3","4","4","2","4","2","2","2","1","2","3","2","4","3","1","2","1","4","4","5","4","3","3","4","5","5","2","5","5","1","4","2","3","3","3","3","4","3","6","3","1","2","3","1","2","3","6","6","7","6","6","3","5","3","3","3","2","3","1","3","657683860254883840","邵","686","Male","[""好他"",""坏我"",""好我"",""坏他""]","[""强他"",""弱我"",""强我"",""弱他""]","","","","","","","","match","","","","","","","","","","key","f","16.670360360360654","768","428","f","true","match","img/diamond.png","坏我","坏我","prac_ALT2_moral","practice_moral","","","","","","","","",""
"null","<span style='color:GreenYellow; font-size: 70px;'>正确! </span>","null","html-keyboard-response","39","288225","0.0-8.0-0.0-1.0-0.0-1.14","5","4","3","4","6","3","2","3","2","1","3","-1","-2","0","0","-1","1","0","0","3","4","4","2","4","2","2","2","1","2","3","2","4","3","1","2","1","4","4","5","4","3","3","4","5","5","2","5","5","1","4","2","3","3","3","3","4","3","6","3","1","2","3","1","2","3","6","6","7","6","6","3","5","3","3","3","2","3","1","3","657683860254883840","邵","686","Male","[""好他"",""坏我"",""好我"",""坏他""]","[""强他"",""弱我"",""强我"",""弱他""]","","","","","","","","","","","","","","","","","","","","","","","","","","","","","","feedback_test","","","","","","","","",""
"586","","f","psychophysics","40","289814","0.0-8.0-0.0-1.0-0.0-0.15","5","4","3","4","6","3","2","3","2","1","3","-1","-2","0","0","-1","1","0","0","3","4","4","2","4","2","2","2","1","2","3","2","4","3","1","2","1","4","4","5","4","3","3","4","5","5","2","5","5","1","4","2","3","3","3","3","4","3","6","3","1","2","3","1","2","3","6","6","7","6","6","3","5","3","3","3","2","3","1","3","657683860254883840","邵","686","Male","[""好他"",""坏我"",""好我"",""坏他""]","[""强他"",""弱我"",""强我"",""弱他""]","","","","","","","","match","","","","","","","","","","key","f","16.67038297872344","768","428","j","false","nonmatch","img/square.png","好他","好我","prac_ALT2_moral","practice_moral","","","","","","","","",""
"null","<span style='color:red; font-size: 70px;'>错误! </span>","null","html-keyboard-response","41","290317","0.0-8.0-0.0-1.0-0.0-1.15","5","4","3","4","6","3","2","3","2","1","3","-1","-2","0","0","-1","1","0","0","3","4","4","2","4","2","2","2","1","2","3","2","4","3","1","2","1","4","4","5","4","3","3","4","5","5","2","5","5","1","4","2","3","3","3","3","4","3","6","3","1","2","3","1","2","3","6","6","7","6","6","3","5","3","3","3","2","3","1","3","657683860254883840","邵","686","Male","[""好他"",""坏我"",""好我"",""坏他""]","[""强他"",""弱我"",""强我"",""弱他""]","","","","","","","","","","","","","","","","","","","","","","","","","","","","","","feedback_test","","","","","","","","",""
"766","","j","psychophysics","42","292090","0.0-8.0-0.0-1.0-0.0-0.16","5","4","3","4","6","3","2","3","2","1","3","-1","-2","0","0","-1","1","0","0","3","4","4","2","4","2","2","2","1","2","3","2","4","3","1","2","1","4","4","5","4","3","3","4","5","5","2","5","5","1","4","2","3","3","3","3","4","3","6","3","1","2","3","1","2","3","6","6","7","6","6","3","5","3","3","3","2","3","1","3","657683860254883840","邵","686","Male","[""好他"",""坏我"",""好我"",""坏他""]","[""强他"",""弱我"",""强我"",""弱他""]","","","","","","","","nonmatch","","","","","","","","","","key","j","16.66832075471702","768","428","f","false","match","img/pentagon.png","好他","好他","prac_ALT2_moral","practice_moral","","","","","","","","",""
"null","<span style='color:red; font-size: 70px;'>错误! </span>","null","html-keyboard-response","43","292592","0.0-8.0-0.0-1.0-0.0-1.16","5","4","3","4","6","3","2","3","2","1","3","-1","-2","0","0","-1","1","0","0","3","4","4","2","4","2","2","2","1","2","3","2","4","3","1","2","1","4","4","5","4","3","3","4","5","5","2","5","5","1","4","2","3","3","3","3","4","3","6","3","1","2","3","1","2","3","6","6","7","6","6","3","5","3","3","3","2","3","1","3","657683860254883840","邵","686","Male","[""好他"",""坏我"",""好我"",""坏他""]","[""强他"",""弱我"",""强我"",""弱他""]","","","","","","","","","","","","","","","","","","","","","","","","","","","","","","feedback_test","","","","","","","","",""
"801","","j","psychophysics","44","294395","0.0-8.0-0.0-1.0-0.0-0.17","5","4","3","4","6","3","2","3","2","1","3","-1","-2","0","0","-1","1","0","0","3","4","4","2","4","2","2","2","1","2","3","2","4","3","1","2","1","4","4","5","4","3","3","4","5","5","2","5","5","1","4","2","3","3","3","3","4","3","6","3","1","2","3","1","2","3","6","6","7","6","6","3","5","3","3","3","2","3","1","3","657683860254883840","邵","686","Male","[""好他"",""坏我"",""好我"",""坏他""]","[""强他"",""弱我"",""强我"",""弱他""]","","","","","","","","nonmatch","","","","","","","","","","key","j","16.671747663551745","768","428","j","true","nonmatch","img/pentagon.png","坏他","好他","prac_ALT2_moral","practice_moral","","","","","","","","",""
"null","<span style='color:GreenYellow; font-size: 70px;'>正确! </span>","null","html-keyboard-response","45","294896","0.0-8.0-0.0-1.0-0.0-1.17","5","4","3","4","6","3","2","3","2","1","3","-1","-2","0","0","-1","1","0","0","3","4","4","2","4","2","2","2","1","2","3","2","4","3","1","2","1","4","4","5","4","3","3","4","5","5","2","5","5","1","4","2","3","3","3","3","4","3","6","3","1","2","3","1","2","3","6","6","7","6","6","3","5","3","3","3","2","3","1","3","657683860254883840","邵","686","Male","[""好他"",""坏我"",""好我"",""坏他""]","[""强他"",""弱我"",""强我"",""弱他""]","","","","","","","","","","","","","","","","","","","","","","","","","","","","","","feedback_test","","","","","","","","",""
"868","","f","psychophysics","46","296767","0.0-8.0-0.0-1.0-0.0-0.18","5","4","3","4","6","3","2","3","2","1","3","-1","-2","0","0","-1","1","0","0","3","4","4","2","4","2","2","2","1","2","3","2","4","3","1","2","1","4","4","5","4","3","3","4","5","5","2","5","5","1","4","2","3","3","3","3","4","3","6","3","1","2","3","1","2","3","6","6","7","6","6","3","5","3","3","3","2","3","1","3","657683860254883840","邵","686","Male","[""好他"",""坏我"",""好我"",""坏他""]","[""强他"",""弱我"",""强我"",""弱他""]","","","","","","","","match","","","","","","","","","","key","f","16.670180180180306","768","428","f","true","match","img/ellipse.png","坏他","坏他","prac_ALT2_moral","practice_moral","","","","","","","","",""
"null","<span style='color:GreenYellow; font-size: 70px;'>正确! </span>","null","html-keyboard-response","47","297270","0.0-8.0-0.0-1.0-0.0-1.18","5","4","3","4","6","3","2","3","2","1","3","-1","-2","0","0","-1","1","0","0","3","4","4","2","4","2","2","2","1","2","3","2","4","3","1","2","1","4","4","5","4","3","3","4","5","5","2","5","5","1","4","2","3","3","3","3","4","3","6","3","1","2","3","1","2","3","6","6","7","6","6","3","5","3","3","3","2","3","1","3","657683860254883840","邵","686","Male","[""好他"",""坏我"",""好我"",""坏他""]","[""强他"",""弱我"",""强我"",""弱他""]","","","","","","","","","","","","","","","","","","","","","","","","","","","","","","feedback_test","","","","","","","","",""
"732","","f","psychophysics","48","299005","0.0-8.0-0.0-1.0-0.0-0.19","5","4","3","4","6","3","2","3","2","1","3","-1","-2","0","0","-1","1","0","0","3","4","4","2","4","2","2","2","1","2","3","2","4","3","1","2","1","4","4","5","4","3","3","4","5","5","2","5","5","1","4","2","3","3","3","3","4","3","6","3","1","2","3","1","2","3","6","6","7","6","6","3","5","3","3","3","2","3","1","3","657683860254883840","邵","686","Male","[""好他"",""坏我"",""好我"",""坏他""]","[""强他"",""弱我"",""强我"",""弱他""]","","","","","","","","match","","","","","","","","","","key","f","16.66749514563086","768","428","f","true","match","img/square.png","好我","好我","prac_ALT2_moral","practice_moral","","","","","","","","",""
"null","<span style='color:GreenYellow; font-size: 70px;'>正确! </span>","null","html-keyboard-response","49","299508","0.0-8.0-0.0-1.0-0.0-1.19","5","4","3","4","6","3","2","3","2","1","3","-1","-2","0","0","-1","1","0","0","3","4","4","2","4","2","2","2","1","2","3","2","4","3","1","2","1","4","4","5","4","3","3","4","5","5","2","5","5","1","4","2","3","3","3","3","4","3","6","3","1","2","3","1","2","3","6","6","7","6","6","3","5","3","3","3","2","3","1","3","657683860254883840","邵","686","Male","[""好他"",""坏我"",""好我"",""坏他""]","[""强他"",""弱我"",""强我"",""弱他""]","","","","","","","","","","","","","","","","","","","","","","","","","","","","","","feedback_test","","","","","","","","",""
"911","","f","psychophysics","50","301421","0.0-8.0-0.0-1.0-0.0-0.20","5","4","3","4","6","3","2","3","2","1","3","-1","-2","0","0","-1","1","0","0","3","4","4","2","4","2","2","2","1","2","3","2","4","3","1","2","1","4","4","5","4","3","3","4","5","5","2","5","5","1","4","2","3","3","3","3","4","3","6","3","1","2","3","1","2","3","6","6","7","6","6","3","5","3","3","3","2","3","1","3","657683860254883840","邵","686","Male","[""好他"",""坏我"",""好我"",""坏他""]","[""强他"",""弱我"",""强我"",""弱他""]","","","","","","","","match","","","","","","","","","","key","f","16.669123893805093","768","428","f","true","match","img/ellipse.png","坏他","坏他","prac_ALT2_moral","practice_moral","","","","","","","","",""
"null","<span style='color:GreenYellow; font-size: 70px;'>正确! </span>","null","html-keyboard-response","51","301924","0.0-8.0-0.0-1.0-0.0-1.20","5","4","3","4","6","3","2","3","2","1","3","-1","-2","0","0","-1","1","0","0","3","4","4","2","4","2","2","2","1","2","3","2","4","3","1","2","1","4","4","5","4","3","3","4","5","5","2","5","5","1","4","2","3","3","3","3","4","3","6","3","1","2","3","1","2","3","6","6","7","6","6","3","5","3","3","3","2","3","1","3","657683860254883840","邵","686","Male","[""好他"",""坏我"",""好我"",""坏他""]","[""强他"",""弱我"",""强我"",""弱他""]","","","","","","","","","","","","","","","","","","","","","","","","","","","","","","feedback_test","","","","","","","","",""
"857","","j","psychophysics","52","303785","0.0-8.0-0.0-1.0-0.0-0.21","5","4","3","4","6","3","2","3","2","1","3","-1","-2","0","0","-1","1","0","0","3","4","4","2","4","2","2","2","1","2","3","2","4","3","1","2","1","4","4","5","4","3","3","4","5","5","2","5","5","1","4","2","3","3","3","3","4","3","6","3","1","2","3","1","2","3","6","6","7","6","6","3","5","3","3","3","2","3","1","3","657683860254883840","邵","686","Male","[""好他"",""坏我"",""好我"",""坏他""]","[""强他"",""弱我"",""强我"",""弱他""]","","","","","","","","nonmatch","","","","","","","","","","key","j","16.66955454545413","768","428","j","true","nonmatch","img/pentagon.png","好我","好他","prac_ALT2_moral","practice_moral","","","","","","","","",""
"null","<span style='color:GreenYellow; font-size: 70px;'>正确! </span>","null","html-keyboard-response","53","304287","0.0-8.0-0.0-1.0-0.0-1.21","5","4","3","4","6","3","2","3","2","1","3","-1","-2","0","0","-1","1","0","0","3","4","4","2","4","2","2","2","1","2","3","2","4","3","1","2","1","4","4","5","4","3","3","4","5","5","2","5","5","1","4","2","3","3","3","3","4","3","6","3","1","2","3","1","2","3","6","6","7","6","6","3","5","3","3","3","2","3","1","3","657683860254883840","邵","686","Male","[""好他"",""坏我"",""好我"",""坏他""]","[""强他"",""弱我"",""强我"",""弱他""]","","","","","","","","","","","","","","","","","","","","","","","","","","","","","","feedback_test","","","","","","","","",""
"796","","j","psychophysics","54","306087","0.0-8.0-0.0-1.0-0.0-0.22","5","4","3","4","6","3","2","3","2","1","3","-1","-2","0","0","-1","1","0","0","3","4","4","2","4","2","2","2","1","2","3","2","4","3","1","2","1","4","4","5","4","3","3","4","5","5","2","5","5","1","4","2","3","3","3","3","4","3","6","3","1","2","3","1","2","3","6","6","7","6","6","3","5","3","3","3","2","3","1","3","657683860254883840","邵","686","Male","[""好他"",""坏我"",""好我"",""坏他""]","[""强他"",""弱我"",""强我"",""弱他""]","","","","","","","","nonmatch","","","","","","","","","","key","j","16.666443396226242","768","428","j","true","nonmatch","img/diamond.png","好我","坏我","prac_ALT2_moral","practice_moral","","","","","","","","",""
"null","<span style='color:GreenYellow; font-size: 70px;'>正确! </span>","null","html-keyboard-response","55","306589","0.0-8.0-0.0-1.0-0.0-1.22","5","4","3","4","6","3","2","3","2","1","3","-1","-2","0","0","-1","1","0","0","3","4","4","2","4","2","2","2","1","2","3","2","4","3","1","2","1","4","4","5","4","3","3","4","5","5","2","5","5","1","4","2","3","3","3","3","4","3","6","3","1","2","3","1","2","3","6","6","7","6","6","3","5","3","3","3","2","3","1","3","657683860254883840","邵","686","Male","[""好他"",""坏我"",""好我"",""坏他""]","[""强他"",""弱我"",""强我"",""弱他""]","","","","","","","","","","","","","","","","","","","","","","","","","","","","","","feedback_test","","","","","","","","",""
"821","","f","psychophysics","56","308414","0.0-8.0-0.0-1.0-0.0-0.23","5","4","3","4","6","3","2","3","2","1","3","-1","-2","0","0","-1","1","0","0","3","4","4","2","4","2","2","2","1","2","3","2","4","3","1","2","1","4","4","5","4","3","3","4","5","5","2","5","5","1","4","2","3","3","3","3","4","3","6","3","1","2","3","1","2","3","6","6","7","6","6","3","5","3","3","3","2","3","1","3","657683860254883840","邵","686","Male","[""好他"",""坏我"",""好我"",""坏他""]","[""强他"",""弱我"",""强我"",""弱他""]","","","","","","","","match","","","","","","","","","","key","f","16.66822222222227","768","428","f","true","match","img/pentagon.png","好他","好他","prac_ALT2_moral","practice_moral","","","","","","","","",""
"null","<span style='color:GreenYellow; font-size: 70px;'>正确! </span>","null","html-keyboard-response","57","308916","0.0-8.0-0.0-1.0-0.0-1.23","5","4","3","4","6","3","2","3","2","1","3","-1","-2","0","0","-1","1","0","0","3","4","4","2","4","2","2","2","1","2","3","2","4","3","1","2","1","4","4","5","4","3","3","4","5","5","2","5","5","1","4","2","3","3","3","3","4","3","6","3","1","2","3","1","2","3","6","6","7","6","6","3","5","3","3","3","2","3","1","3","657683860254883840","邵","686","Male","[""好他"",""坏我"",""好我"",""坏他""]","[""强他"",""弱我"",""强我"",""弱他""]","","","","","","","","","","","","","","","","","","","","","","","","","","","","","","feedback_test","","","","","","","","",""
"653","","j","psychophysics","58","310573","0.0-8.0-0.0-1.0-0.0-0.24","5","4","3","4","6","3","2","3","2","1","3","-1","-2","0","0","-1","1","0","0","3","4","4","2","4","2","2","2","1","2","3","2","4","3","1","2","1","4","4","5","4","3","3","4","5","5","2","5","5","1","4","2","3","3","3","3","4","3","6","3","1","2","3","1","2","3","6","6","7","6","6","3","5","3","3","3","2","3","1","3","657683860254883840","邵","686","Male","[""好他"",""坏我"",""好我"",""坏他""]","[""强他"",""弱我"",""强我"",""弱他""]","","","","","","","","nonmatch","","","","","","","","","","key","j","16.66733333333325","768","428","j","true","nonmatch","img/diamond.png","好他","坏我","prac_ALT2_moral","practice_moral","","","","","","","","",""
"null","<span style='color:GreenYellow; font-size: 70px;'>正确! </span>","null","html-keyboard-response","59","311074","0.0-8.0-0.0-1.0-0.0-1.24","5","4","3","4","6","3","2","3","2","1","3","-1","-2","0","0","-1","1","0","0","3","4","4","2","4","2","2","2","1","2","3","2","4","3","1","2","1","4","4","5","4","3","3","4","5","5","2","5","5","1","4","2","3","3","3","3","4","3","6","3","1","2","3","1","2","3","6","6","7","6","6","3","5","3","3","3","2","3","1","3","657683860254883840","邵","686","Male","[""好他"",""坏我"",""好我"",""坏他""]","[""强他"",""弱我"",""强我"",""弱他""]","","","","","","","","","","","","","","","","","","","","","","","","","","","","","","feedback_test","","","","","","","","",""
"971","","j","psychophysics","60","313049","0.0-8.0-0.0-1.0-0.0-0.25","5","4","3","4","6","3","2","3","2","1","3","-1","-2","0","0","-1","1","0","0","3","4","4","2","4","2","2","2","1","2","3","2","4","3","1","2","1","4","4","5","4","3","3","4","5","5","2","5","5","1","4","2","3","3","3","3","4","3","6","3","1","2","3","1","2","3","6","6","7","6","6","3","5","3","3","3","2","3","1","3","657683860254883840","邵","686","Male","[""好他"",""坏我"",""好我"",""坏他""]","[""强他"",""弱我"",""强我"",""弱他""]","","","","","","","","nonmatch","","","","","","","","","","key","j","16.67052991452983","768","428","j","true","nonmatch","img/pentagon.png","坏他","好他","prac_ALT2_moral","practice_moral","","","","","","","","",""
"null","<span style='color:GreenYellow; font-size: 70px;'>正确! </span>","null","html-keyboard-response","61","313553","0.0-8.0-0.0-1.0-0.0-1.25","5","4","3","4","6","3","2","3","2","1","3","-1","-2","0","0","-1","1","0","0","3","4","4","2","4","2","2","2","1","2","3","2","4","3","1","2","1","4","4","5","4","3","3","4","5","5","2","5","5","1","4","2","3","3","3","3","4","3","6","3","1","2","3","1","2","3","6","6","7","6","6","3","5","3","3","3","2","3","1","3","657683860254883840","邵","686","Male","[""好他"",""坏我"",""好我"",""坏他""]","[""强他"",""弱我"",""强我"",""弱他""]","","","","","","","","","","","","","","","","","","","","","","","","","","","","","","feedback_test","","","","","","","","",""
"907","","j","psychophysics","62","315464","0.0-8.0-0.0-1.0-0.0-0.26","5","4","3","4","6","3","2","3","2","1","3","-1","-2","0","0","-1","1","0","0","3","4","4","2","4","2","2","2","1","2","3","2","4","3","1","2","1","4","4","5","4","3","3","4","5","5","2","5","5","1","4","2","3","3","3","3","4","3","6","3","1","2","3","1","2","3","6","6","7","6","6","3","5","3","3","3","2","3","1","3","657683860254883840","邵","686","Male","[""好他"",""坏我"",""好我"",""坏他""]","[""强他"",""弱我"",""强我"",""弱他""]","","","","","","","","nonmatch","","","","","","","","","","key","j","16.598654867256517","768","428","j","true","nonmatch","img/ellipse.png","好我","坏他","prac_ALT2_moral","practice_moral","","","","","","","","",""
"null","<span style='color:GreenYellow; font-size: 70px;'>正确! </span>","null","html-keyboard-response","63","315966","0.0-8.0-0.0-1.0-0.0-1.26","5","4","3","4","6","3","2","3","2","1","3","-1","-2","0","0","-1","1","0","0","3","4","4","2","4","2","2","2","1","2","3","2","4","3","1","2","1","4","4","5","4","3","3","4","5","5","2","5","5","1","4","2","3","3","3","3","4","3","6","3","1","2","3","1","2","3","6","6","7","6","6","3","5","3","3","3","2","3","1","3","657683860254883840","邵","686","Male","[""好他"",""坏我"",""好我"",""坏他""]","[""强他"",""弱我"",""强我"",""弱他""]","","","","","","","","","","","","","","","","","","","","","","","","","","","","","","feedback_test","","","","","","","","",""
"802","","j","psychophysics","64","317770","0.0-8.0-0.0-1.0-0.0-0.27","5","4","3","4","6","3","2","3","2","1","3","-1","-2","0","0","-1","1","0","0","3","4","4","2","4","2","2","2","1","2","3","2","4","3","1","2","1","4","4","5","4","3","3","4","5","5","2","5","5","1","4","2","3","3","3","3","4","3","6","3","1","2","3","1","2","3","6","6","7","6","6","3","5","3","3","3","2","3","1","3","657683860254883840","邵","686","Male","[""好他"",""坏我"",""好我"",""坏他""]","[""强他"",""弱我"",""强我"",""弱他""]","","","","","","","","nonmatch","","","","","","","","","","key","j","16.66880373831808","768","428","j","true","nonmatch","img/pentagon.png","好我","好他","prac_ALT2_moral","practice_moral","","","","","","","","",""
"null","<span style='color:GreenYellow; font-size: 70px;'>正确! </span>","null","html-keyboard-response","65","318272","0.0-8.0-0.0-1.0-0.0-1.27","5","4","3","4","6","3","2","3","2","1","3","-1","-2","0","0","-1","1","0","0","3","4","4","2","4","2","2","2","1","2","3","2","4","3","1","2","1","4","4","5","4","3","3","4","5","5","2","5","5","1","4","2","3","3","3","3","4","3","6","3","1","2","3","1","2","3","6","6","7","6","6","3","5","3","3","3","2","3","1","3","657683860254883840","邵","686","Male","[""好他"",""坏我"",""好我"",""坏他""]","[""强他"",""弱我"",""强我"",""弱他""]","","","","","","","","","","","","","","","","","","","","","","","","","","","","","","feedback_test","","","","","","","","",""
"723","","j","psychophysics","66","319997","0.0-8.0-0.0-1.0-0.0-0.28","5","4","3","4","6","3","2","3","2","1","3","-1","-2","0","0","-1","1","0","0","3","4","4","2","4","2","2","2","1","2","3","2","4","3","1","2","1","4","4","5","4","3","3","4","5","5","2","5","5","1","4","2","3","3","3","3","4","3","6","3","1","2","3","1","2","3","6","6","7","6","6","3","5","3","3","3","2","3","1","3","657683860254883840","邵","686","Male","[""好他"",""坏我"",""好我"",""坏他""]","[""强他"",""弱我"",""强我"",""弱他""]","","","","","","","","nonmatch","","","","","","","","","","key","j","16.668990196078656","768","428","j","true","nonmatch","img/square.png","坏他","好我","prac_ALT2_moral","practice_moral","","","","","","","","",""
"null","<span style='color:GreenYellow; font-size: 70px;'>正确! </span>","null","html-keyboard-response","67","320498","0.0-8.0-0.0-1.0-0.0-1.28","5","4","3","4","6","3","2","3","2","1","3","-1","-2","0","0","-1","1","0","0","3","4","4","2","4","2","2","2","1","2","3","2","4","3","1","2","1","4","4","5","4","3","3","4","5","5","2","5","5","1","4","2","3","3","3","3","4","3","6","3","1","2","3","1","2","3","6","6","7","6","6","3","5","3","3","3","2","3","1","3","657683860254883840","邵","686","Male","[""好他"",""坏我"",""好我"",""坏他""]","[""强他"",""弱我"",""强我"",""弱他""]","","","","","","","","","","","","","","","","","","","","","","","","","","","","","","feedback_test","","","","","","","","",""
"804","","f","psychophysics","68","322306","0.0-8.0-0.0-1.0-0.0-0.29","5","4","3","4","6","3","2","3","2","1","3","-1","-2","0","0","-1","1","0","0","3","4","4","2","4","2","2","2","1","2","3","2","4","3","1","2","1","4","4","5","4","3","3","4","5","5","2","5","5","1","4","2","3","3","3","3","4","3","6","3","1","2","3","1","2","3","6","6","7","6","6","3","5","3","3","3","2","3","1","3","657683860254883840","邵","686","Male","[""好他"",""坏我"",""好我"",""坏他""]","[""强他"",""弱我"",""强我"",""弱他""]","","","","","","","","match","","","","","","","","","","key","f","16.6671111111112","768","428","f","true","match","img/ellipse.png","坏他","坏他","prac_ALT2_moral","practice_moral","","","","","","","","",""
"null","<span style='color:GreenYellow; font-size: 70px;'>正确! </span>","null","html-keyboard-response","69","322808","0.0-8.0-0.0-1.0-0.0-1.29","5","4","3","4","6","3","2","3","2","1","3","-1","-2","0","0","-1","1","0","0","3","4","4","2","4","2","2","2","1","2","3","2","4","3","1","2","1","4","4","5","4","3","3","4","5","5","2","5","5","1","4","2","3","3","3","3","4","3","6","3","1","2","3","1","2","3","6","6","7","6","6","3","5","3","3","3","2","3","1","3","657683860254883840","邵","686","Male","[""好他"",""坏我"",""好我"",""坏他""]","[""强他"",""弱我"",""强我"",""弱他""]","","","","","","","","","","","","","","","","","","","","","","","","","","","","","","feedback_test","","","","","","","","",""
"801","","j","psychophysics","70","324612","0.0-8.0-0.0-1.0-0.0-0.30","5","4","3","4","6","3","2","3","2","1","3","-1","-2","0","0","-1","1","0","0","3","4","4","2","4","2","2","2","1","2","3","2","4","3","1","2","1","4","4","5","4","3","3","4","5","5","2","5","5","1","4","2","3","3","3","3","4","3","6","3","1","2","3","1","2","3","6","6","7","6","6","3","5","3","3","3","2","3","1","3","657683860254883840","邵","686","Male","[""好他"",""坏我"",""好我"",""坏他""]","[""强他"",""弱我"",""强我"",""弱他""]","","","","","","","","nonmatch","","","","","","","","","","key","j","16.66784112149508","768","428","j","true","nonmatch","img/diamond.png","坏他","坏我","prac_ALT2_moral","practice_moral","","","","","","","","",""
"null","<span style='color:GreenYellow; font-size: 70px;'>正确! </span>","null","html-keyboard-response","71","325114","0.0-8.0-0.0-1.0-0.0-1.30","5","4","3","4","6","3","2","3","2","1","3","-1","-2","0","0","-1","1","0","0","3","4","4","2","4","2","2","2","1","2","3","2","4","3","1","2","1","4","4","5","4","3","3","4","5","5","2","5","5","1","4","2","3","3","3","3","4","3","6","3","1","2","3","1","2","3","6","6","7","6","6","3","5","3","3","3","2","3","1","3","657683860254883840","邵","686","Male","[""好他"",""坏我"",""好我"",""坏他""]","[""强他"",""弱我"",""强我"",""弱他""]","","","","","","","","","","","","","","","","","","","","","","","","","","","","","","feedback_test","","","","","","","","",""
"575","","f","psychophysics","72","326692","0.0-8.0-0.0-1.0-0.0-0.31","5","4","3","4","6","3","2","3","2","1","3","-1","-2","0","0","-1","1","0","0","3","4","4","2","4","2","2","2","1","2","3","2","4","3","1","2","1","4","4","5","4","3","3","4","5","5","2","5","5","1","4","2","3","3","3","3","4","3","6","3","1","2","3","1","2","3","6","6","7","6","6","3","5","3","3","3","2","3","1","3","657683860254883840","邵","686","Male","[""好他"",""坏我"",""好我"",""坏他""]","[""强他"",""弱我"",""强我"",""弱他""]","","","","","","","","match","","","","","","","","","","key","f","16.669382978723004","768","428","f","true","match","img/square.png","好我","好我","prac_ALT2_moral","practice_moral","","","","","","","","",""
"null","<span style='color:GreenYellow; font-size: 70px;'>正确! </span>","null","html-keyboard-response","73","327209","0.0-8.0-0.0-1.0-0.0-1.31","5","4","3","4","6","3","2","3","2","1","3","-1","-2","0","0","-1","1","0","0","3","4","4","2","4","2","2","2","1","2","3","2","4","3","1","2","1","4","4","5","4","3","3","4","5","5","2","5","5","1","4","2","3","3","3","3","4","3","6","3","1","2","3","1","2","3","6","6","7","6","6","3","5","3","3","3","2","3","1","3","657683860254883840","邵","686","Male","[""好他"",""坏我"",""好我"",""坏他""]","[""强他"",""弱我"",""强我"",""弱他""]","","","","","","","","","","","","","","","","","","","","","","","","","","","","","","feedback_test","","","","","","","","",""
"892","","f","psychophysics","74","329104","0.0-8.0-0.0-1.0-0.0-0.32","5","4","3","4","6","3","2","3","2","1","3","-1","-2","0","0","-1","1","0","0","3","4","4","2","4","2","2","2","1","2","3","2","4","3","1","2","1","4","4","5","4","3","3","4","5","5","2","5","5","1","4","2","3","3","3","3","4","3","6","3","1","2","3","1","2","3","6","6","7","6","6","3","5","3","3","3","2","3","1","3","657683860254883840","邵","686","Male","[""好他"",""坏我"",""好我"",""坏他""]","[""强他"",""弱我"",""强我"",""弱他""]","","","","","","","","match","","","","","","","","","","key","f","16.669142857142496","768","428","f","true","match","img/diamond.png","坏我","坏我","prac_ALT2_moral","practice_moral","","","","","","","","",""
"null","<span style='color:GreenYellow; font-size: 70px;'>正确! </span>","null","html-keyboard-response","75","329606","0.0-8.0-0.0-1.0-0.0-1.32","5","4","3","4","6","3","2","3","2","1","3","-1","-2","0","0","-1","1","0","0","3","4","4","2","4","2","2","2","1","2","3","2","4","3","1","2","1","4","4","5","4","3","3","4","5","5","2","5","5","1","4","2","3","3","3","3","4","3","6","3","1","2","3","1","2","3","6","6","7","6","6","3","5","3","3","3","2","3","1","3","657683860254883840","邵","686","Male","[""好他"",""坏我"",""好我"",""坏他""]","[""强他"",""弱我"",""强我"",""弱他""]","","","","","","","","","","","","","","","","","","","","","","","","","","","","","","feedback_test","","","","","","","","",""
"816","","j","psychophysics","76","331425","0.0-8.0-0.0-1.0-0.0-0.33","5","4","3","4","6","3","2","3","2","1","3","-1","-2","0","0","-1","1","0","0","3","4","4","2","4","2","2","2","1","2","3","2","4","3","1","2","1","4","4","5","4","3","3","4","5","5","2","5","5","1","4","2","3","3","3","3","4","3","6","3","1","2","3","1","2","3","6","6","7","6","6","3","5","3","3","3","2","3","1","3","657683860254883840","邵","686","Male","[""好他"",""坏我"",""好我"",""坏他""]","[""强他"",""弱我"",""强我"",""弱他""]","","","","","","","","nonmatch","","","","","","","","","","key","j","16.667638888888717","768","428","j","true","nonmatch","img/diamond.png","好我","坏我","prac_ALT2_moral","practice_moral","","","","","","","","",""
"null","<span style='color:GreenYellow; font-size: 70px;'>正确! </span>","null","html-keyboard-response","77","331927","0.0-8.0-0.0-1.0-0.0-1.33","5","4","3","4","6","3","2","3","2","1","3","-1","-2","0","0","-1","1","0","0","3","4","4","2","4","2","2","2","1","2","3","2","4","3","1","2","1","4","4","5","4","3","3","4","5","5","2","5","5","1","4","2","3","3","3","3","4","3","6","3","1","2","3","1","2","3","6","6","7","6","6","3","5","3","3","3","2","3","1","3","657683860254883840","邵","686","Male","[""好他"",""坏我"",""好我"",""坏他""]","[""强他"",""弱我"",""强我"",""弱他""]","","","","","","","","","","","","","","","","","","","","","","","","","","","","","","feedback_test","","","","","","","","",""
"555","","j","psychophysics","78","333486","0.0-8.0-0.0-1.0-0.0-0.34","5","4","3","4","6","3","2","3","2","1","3","-1","-2","0","0","-1","1","0","0","3","4","4","2","4","2","2","2","1","2","3","2","4","3","1","2","1","4","4","5","4","3","3","4","5","5","2","5","5","1","4","2","3","3","3","3","4","3","6","3","1","2","3","1","2","3","6","6","7","6","6","3","5","3","3","3","2","3","1","3","657683860254883840","邵","686","Male","[""好他"",""坏我"",""好我"",""坏他""]","[""强他"",""弱我"",""强我"",""弱他""]","","","","","","","","nonmatch","","","","","","","","","","key","j","16.669076086956444","768","428","f","false","match","img/ellipse.png","坏他","坏他","prac_ALT2_moral","practice_moral","","","","","","","","",""
"null","<span style='color:red; font-size: 70px;'>错误! </span>","null","html-keyboard-response","79","333988","0.0-8.0-0.0-1.0-0.0-1.34","5","4","3","4","6","3","2","3","2","1","3","-1","-2","0","0","-1","1","0","0","3","4","4","2","4","2","2","2","1","2","3","2","4","3","1","2","1","4","4","5","4","3","3","4","5","5","2","5","5","1","4","2","3","3","3","3","4","3","6","3","1","2","3","1","2","3","6","6","7","6","6","3","5","3","3","3","2","3","1","3","657683860254883840","邵","686","Male","[""好他"",""坏我"",""好我"",""坏他""]","[""强他"",""弱我"",""强我"",""弱他""]","","","","","","","","","","","","","","","","","","","","","","","","","","","","","","feedback_test","","","","","","","","",""
"677","","j","psychophysics","80","335672","0.0-8.0-0.0-1.0-0.0-0.35","5","4","3","4","6","3","2","3","2","1","3","-1","-2","0","0","-1","1","0","0","3","4","4","2","4","2","2","2","1","2","3","2","4","3","1","2","1","4","4","5","4","3","3","4","5","5","2","5","5","1","4","2","3","3","3","3","4","3","6","3","1","2","3","1","2","3","6","6","7","6","6","3","5","3","3","3","2","3","1","3","657683860254883840","邵","686","Male","[""好他"",""坏我"",""好我"",""坏他""]","[""强他"",""弱我"",""强我"",""弱他""]","","","","","","","","nonmatch","","","","","","","","","","key","j","16.66903030303027","768","428","j","true","nonmatch","img/ellipse.png","好他","坏他","prac_ALT2_moral","practice_moral","","","","","","","","",""
"null","<span style='color:GreenYellow; font-size: 70px;'>正确! </span>","null","html-keyboard-response","81","336186","0.0-8.0-0.0-1.0-0.0-1.35","5","4","3","4","6","3","2","3","2","1","3","-1","-2","0","0","-1","1","0","0","3","4","4","2","4","2","2","2","1","2","3","2","4","3","1","2","1","4","4","5","4","3","3","4","5","5","2","5","5","1","4","2","3","3","3","3","4","3","6","3","1","2","3","1","2","3","6","6","7","6","6","3","5","3","3","3","2","3","1","3","657683860254883840","邵","686","Male","[""好他"",""坏我"",""好我"",""坏他""]","[""强他"",""弱我"",""强我"",""弱他""]","","","","","","","","","","","","","","","","","","","","","","","","","","","","","","feedback_test","","","","","","","","",""
"612","","f","psychophysics","82","337801","0.0-8.0-0.0-1.0-0.0-0.36","5","4","3","4","6","3","2","3","2","1","3","-1","-2","0","0","-1","1","0","0","3","4","4","2","4","2","2","2","1","2","3","2","4","3","1","2","1","4","4","5","4","3","3","4","5","5","2","5","5","1","4","2","3","3","3","3","4","3","6","3","1","2","3","1","2","3","6","6","7","6","6","3","5","3","3","3","2","3","1","3","657683860254883840","邵","686","Male","[""好他"",""坏我"",""好我"",""坏他""]","[""强他"",""弱我"",""强我"",""弱他""]","","","","","","","","match","","","","","","","","","","key","f","16.669135416666904","768","428","f","true","match","img/square.png","好我","好我","prac_ALT2_moral","practice_moral","","","","","","","","",""
"null","<span style='color:GreenYellow; font-size: 70px;'>正确! </span>","null","html-keyboard-response","83","338304","0.0-8.0-0.0-1.0-0.0-1.36","5","4","3","4","6","3","2","3","2","1","3","-1","-2","0","0","-1","1","0","0","3","4","4","2","4","2","2","2","1","2","3","2","4","3","1","2","1","4","4","5","4","3","3","4","5","5","2","5","5","1","4","2","3","3","3","3","4","3","6","3","1","2","3","1","2","3","6","6","7","6","6","3","5","3","3","3","2","3","1","3","657683860254883840","邵","686","Male","[""好他"",""坏我"",""好我"",""坏他""]","[""强他"",""弱我"",""强我"",""弱他""]","","","","","","","","","","","","","","","","","","","","","","","","","","","","","","feedback_test","","","","","","","","",""
"808","","f","psychophysics","84","340114","0.0-8.0-0.0-1.0-0.0-0.37","5","4","3","4","6","3","2","3","2","1","3","-1","-2","0","0","-1","1","0","0","3","4","4","2","4","2","2","2","1","2","3","2","4","3","1","2","1","4","4","5","4","3","3","4","5","5","2","5","5","1","4","2","3","3","3","3","4","3","6","3","1","2","3","1","2","3","6","6","7","6","6","3","5","3","3","3","2","3","1","3","657683860254883840","邵","686","Male","[""好他"",""坏我"",""好我"",""坏他""]","[""强他"",""弱我"",""强我"",""弱他""]","","","","","","","","match","","","","","","","","","","key","f","16.602037383177617","768","428","f","true","match","img/diamond.png","坏我","坏我","prac_ALT2_moral","practice_moral","","","","","","","","",""
"null","<span style='color:GreenYellow; font-size: 70px;'>正确! </span>","null","html-keyboard-response","85","340616","0.0-8.0-0.0-1.0-0.0-1.37","5","4","3","4","6","3","2","3","2","1","3","-1","-2","0","0","-1","1","0","0","3","4","4","2","4","2","2","2","1","2","3","2","4","3","1","2","1","4","4","5","4","3","3","4","5","5","2","5","5","1","4","2","3","3","3","3","4","3","6","3","1","2","3","1","2","3","6","6","7","6","6","3","5","3","3","3","2","3","1","3","657683860254883840","邵","686","Male","[""好他"",""坏我"",""好我"",""坏他""]","[""强他"",""弱我"",""强我"",""弱他""]","","","","","","","","","","","","","","","","","","","","","","","","","","","","","","feedback_test","","","","","","","","",""
"579","","j","psychophysics","86","342198","0.0-8.0-0.0-1.0-0.0-0.38","5","4","3","4","6","3","2","3","2","1","3","-1","-2","0","0","-1","1","0","0","3","4","4","2","4","2","2","2","1","2","3","2","4","3","1","2","1","4","4","5","4","3","3","4","5","5","2","5","5","1","4","2","3","3","3","3","4","3","6","3","1","2","3","1","2","3","6","6","7","6","6","3","5","3","3","3","2","3","1","3","657683860254883840","邵","686","Male","[""好他"",""坏我"",""好我"",""坏他""]","[""强他"",""弱我"",""强我"",""弱他""]","","","","","","","","nonmatch","","","","","","","","","","key","j","16.66927659574418","768","428","f","false","match","img/ellipse.png","坏他","坏他","prac_ALT2_moral","practice_moral","","","","","","","","",""
"null","<span style='color:red; font-size: 70px;'>错误! </span>","null","html-keyboard-response","87","342699","0.0-8.0-0.0-1.0-0.0-1.38","5","4","3","4","6","3","2","3","2","1","3","-1","-2","0","0","-1","1","0","0","3","4","4","2","4","2","2","2","1","2","3","2","4","3","1","2","1","4","4","5","4","3","3","4","5","5","2","5","5","1","4","2","3","3","3","3","4","3","6","3","1","2","3","1","2","3","6","6","7","6","6","3","5","3","3","3","2","3","1","3","657683860254883840","邵","686","Male","[""好他"",""坏我"",""好我"",""坏他""]","[""强他"",""弱我"",""强我"",""弱他""]","","","","","","","","","","","","","","","","","","","","","","","","","","","","","","feedback_test","","","","","","","","",""
"542","","f","psychophysics","88","344244","0.0-8.0-0.0-1.0-0.0-0.39","5","4","3","4","6","3","2","3","2","1","3","-1","-2","0","0","-1","1","0","0","3","4","4","2","4","2","2","2","1","2","3","2","4","3","1","2","1","4","4","5","4","3","3","4","5","5","2","5","5","1","4","2","3","3","3","3","4","3","6","3","1","2","3","1","2","3","6","6","7","6","6","3","5","3","3","3","2","3","1","3","657683860254883840","邵","686","Male","[""好他"",""坏我"",""好我"",""坏他""]","[""强他"",""弱我"",""强我"",""弱他""]","","","","","","","","match","","","","","","","","","","key","f","16.66872826086942","768","428","f","true","match","img/square.png","好我","好我","prac_ALT2_moral","practice_moral","","","","","","","","",""
"null","<span style='color:GreenYellow; font-size: 70px;'>正确! </span>","null","html-keyboard-response","89","344747","0.0-8.0-0.0-1.0-0.0-1.39","5","4","3","4","6","3","2","3","2","1","3","-1","-2","0","0","-1","1","0","0","3","4","4","2","4","2","2","2","1","2","3","2","4","3","1","2","1","4","4","5","4","3","3","4","5","5","2","5","5","1","4","2","3","3","3","3","4","3","6","3","1","2","3","1","2","3","6","6","7","6","6","3","5","3","3","3","2","3","1","3","657683860254883840","邵","686","Male","[""好他"",""坏我"",""好我"",""坏他""]","[""强他"",""弱我"",""强我"",""弱他""]","","","","","","","","","","","","","","","","","","","","","","","","","","","","","","feedback_test","","","","","","","","",""
"670","","j","psychophysics","90","346420","0.0-8.0-0.0-1.0-0.0-0.40","5","4","3","4","6","3","2","3","2","1","3","-1","-2","0","0","-1","1","0","0","3","4","4","2","4","2","2","2","1","2","3","2","4","3","1","2","1","4","4","5","4","3","3","4","5","5","2","5","5","1","4","2","3","3","3","3","4","3","6","3","1","2","3","1","2","3","6","6","7","6","6","3","5","3","3","3","2","3","1","3","657683860254883840","邵","686","Male","[""好他"",""坏我"",""好我"",""坏他""]","[""强他"",""弱我"",""强我"",""弱他""]","","","","","","","","nonmatch","","","","","","","","","","key","j","16.669303030303016","768","428","j","true","nonmatch","img/square.png","好他","好我","prac_ALT2_moral","practice_moral","","","","","","","","",""
"null","<span style='color:GreenYellow; font-size: 70px;'>正确! </span>","null","html-keyboard-response","91","346922","0.0-8.0-0.0-1.0-0.0-1.40","5","4","3","4","6","3","2","3","2","1","3","-1","-2","0","0","-1","1","0","0","3","4","4","2","4","2","2","2","1","2","3","2","4","3","1","2","1","4","4","5","4","3","3","4","5","5","2","5","5","1","4","2","3","3","3","3","4","3","6","3","1","2","3","1","2","3","6","6","7","6","6","3","5","3","3","3","2","3","1","3","657683860254883840","邵","686","Male","[""好他"",""坏我"",""好我"",""坏他""]","[""强他"",""弱我"",""强我"",""弱他""]","","","","","","","","","","","","","","","","","","","","","","","","","","","","","","feedback_test","","","","","","","","",""
"804","","f","psychophysics","92","348729","0.0-8.0-0.0-1.0-0.0-0.41","5","4","3","4","6","3","2","3","2","1","3","-1","-2","0","0","-1","1","0","0","3","4","4","2","4","2","2","2","1","2","3","2","4","3","1","2","1","4","4","5","4","3","3","4","5","5","2","5","5","1","4","2","3","3","3","3","4","3","6","3","1","2","3","1","2","3","6","6","7","6","6","3","5","3","3","3","2","3","1","3","657683860254883840","邵","686","Male","[""好他"",""坏我"",""好我"",""坏他""]","[""强他"",""弱我"",""强我"",""弱他""]","","","","","","","","match","","","","","","","","","","key","f","16.667747663551065","768","428","f","true","match","img/diamond.png","坏我","坏我","prac_ALT2_moral","practice_moral","","","","","","","","",""
"null","<span style='color:GreenYellow; font-size: 70px;'>正确! </span>","null","html-keyboard-response","93","349232","0.0-8.0-0.0-1.0-0.0-1.41","5","4","3","4","6","3","2","3","2","1","3","-1","-2","0","0","-1","1","0","0","3","4","4","2","4","2","2","2","1","2","3","2","4","3","1","2","1","4","4","5","4","3","3","4","5","5","2","5","5","1","4","2","3","3","3","3","4","3","6","3","1","2","3","1","2","3","6","6","7","6","6","3","5","3","3","3","2","3","1","3","657683860254883840","邵","686","Male","[""好他"",""坏我"",""好我"",""坏他""]","[""强他"",""弱我"",""强我"",""弱他""]","","","","","","","","","","","","","","","","","","","","","","","","","","","","","","feedback_test","","","","","","","","",""
"539","","f","psychophysics","94","350775","0.0-8.0-0.0-1.0-0.0-0.42","5","4","3","4","6","3","2","3","2","1","3","-1","-2","0","0","-1","1","0","0","3","4","4","2","4","2","2","2","1","2","3","2","4","3","1","2","1","4","4","5","4","3","3","4","5","5","2","5","5","1","4","2","3","3","3","3","4","3","6","3","1","2","3","1","2","3","6","6","7","6","6","3","5","3","3","3","2","3","1","3","657683860254883840","邵","686","Male","[""好他"",""坏我"",""好我"",""坏他""]","[""强他"",""弱我"",""强我"",""弱他""]","","","","","","","","match","","","","","","","","","","key","f","16.668108695652336","768","428","j","false","nonmatch","img/square.png","坏我","好我","prac_ALT2_moral","practice_moral","","","","","","","","",""
"null","<span style='color:red; font-size: 70px;'>错误! </span>","null","html-keyboard-response","95","351279","0.0-8.0-0.0-1.0-0.0-1.42","5","4","3","4","6","3","2","3","2","1","3","-1","-2","0","0","-1","1","0","0","3","4","4","2","4","2","2","2","1","2","3","2","4","3","1","2","1","4","4","5","4","3","3","4","5","5","2","5","5","1","4","2","3","3","3","3","4","3","6","3","1","2","3","1","2","3","6","6","7","6","6","3","5","3","3","3","2","3","1","3","657683860254883840","邵","686","Male","[""好他"",""坏我"",""好我"",""坏他""]","[""强他"",""弱我"",""强我"",""弱他""]","","","","","","","","","","","","","","","","","","","","","","","","","","","","","","feedback_test","","","","","","","","",""
"924","","f","psychophysics","96","353206","0.0-8.0-0.0-1.0-0.0-0.43","5","4","3","4","6","3","2","3","2","1","3","-1","-2","0","0","-1","1","0","0","3","4","4","2","4","2","2","2","1","2","3","2","4","3","1","2","1","4","4","5","4","3","3","4","5","5","2","5","5","1","4","2","3","3","3","3","4","3","6","3","1","2","3","1","2","3","6","6","7","6","6","3","5","3","3","3","2","3","1","3","657683860254883840","邵","686","Male","[""好他"",""坏我"",""好我"",""坏他""]","[""强他"",""弱我"",""强我"",""弱他""]","","","","","","","","match","","","","","","","","","","key","f","16.66998245614007","768","428","f","true","match","img/pentagon.png","好他","好他","prac_ALT2_moral","practice_moral","","","","","","","","",""
"null","<span style='color:GreenYellow; font-size: 70px;'>正确! </span>","null","html-keyboard-response","97","353707","0.0-8.0-0.0-1.0-0.0-1.43","5","4","3","4","6","3","2","3","2","1","3","-1","-2","0","0","-1","1","0","0","3","4","4","2","4","2","2","2","1","2","3","2","4","3","1","2","1","4","4","5","4","3","3","4","5","5","2","5","5","1","4","2","3","3","3","3","4","3","6","3","1","2","3","1","2","3","6","6","7","6","6","3","5","3","3","3","2","3","1","3","657683860254883840","邵","686","Male","[""好他"",""坏我"",""好我"",""坏他""]","[""强他"",""弱我"",""强我"",""弱他""]","","","","","","","","","","","","","","","","","","","","","","","","","","","","","","feedback_test","","","","","","","","",""
"1011","","f","psychophysics","98","355721","0.0-8.0-0.0-1.0-0.0-0.44","5","4","3","4","6","3","2","3","2","1","3","-1","-2","0","0","-1","1","0","0","3","4","4","2","4","2","2","2","1","2","3","2","4","3","1","2","1","4","4","5","4","3","3","4","5","5","2","5","5","1","4","2","3","3","3","3","4","3","6","3","1","2","3","1","2","3","6","6","7","6","6","3","5","3","3","3","2","3","1","3","657683860254883840","邵","686","Male","[""好他"",""坏我"",""好我"",""坏他""]","[""强他"",""弱我"",""强我"",""弱他""]","","","","","","","","match","","","","","","","","","","key","f","16.667672268907392","768","428","f","true","match","img/pentagon.png","好他","好他","prac_ALT2_moral","practice_moral","","","","","","","","",""
"null","<span style='color:GreenYellow; font-size: 70px;'>正确! </span>","null","html-keyboard-response","99","356222","0.0-8.0-0.0-1.0-0.0-1.44","5","4","3","4","6","3","2","3","2","1","3","-1","-2","0","0","-1","1","0","0","3","4","4","2","4","2","2","2","1","2","3","2","4","3","1","2","1","4","4","5","4","3","3","4","5","5","2","5","5","1","4","2","3","3","3","3","4","3","6","3","1","2","3","1","2","3","6","6","7","6","6","3","5","3","3","3","2","3","1","3","657683860254883840","邵","686","Male","[""好他"",""坏我"",""好我"",""坏他""]","[""强他"",""弱我"",""强我"",""弱他""]","","","","","","","","","","","","","","","","","","","","","","","","","","","","","","feedback_test","","","","","","","","",""
"681","","f","psychophysics","100","357907","0.0-8.0-0.0-1.0-0.0-0.45","5","4","3","4","6","3","2","3","2","1","3","-1","-2","0","0","-1","1","0","0","3","4","4","2","4","2","2","2","1","2","3","2","4","3","1","2","1","4","4","5","4","3","3","4","5","5","2","5","5","1","4","2","3","3","3","3","4","3","6","3","1","2","3","1","2","3","6","6","7","6","6","3","5","3","3","3","2","3","1","3","657683860254883840","邵","686","Male","[""好他"",""坏我"",""好我"",""坏他""]","[""强他"",""弱我"",""强我"",""弱他""]","","","","","","","","match","","","","","","","","","","key","f","16.66832323232372","768","428","f","true","match","img/pentagon.png","好他","好他","prac_ALT2_moral","practice_moral","","","","","","","","",""
"null","<span style='color:GreenYellow; font-size: 70px;'>正确! </span>","null","html-keyboard-response","101","358410","0.0-8.0-0.0-1.0-0.0-1.45","5","4","3","4","6","3","2","3","2","1","3","-1","-2","0","0","-1","1","0","0","3","4","4","2","4","2","2","2","1","2","3","2","4","3","1","2","1","4","4","5","4","3","3","4","5","5","2","5","5","1","4","2","3","3","3","3","4","3","6","3","1","2","3","1","2","3","6","6","7","6","6","3","5","3","3","3","2","3","1","3","657683860254883840","邵","686","Male","[""好他"",""坏我"",""好我"",""坏他""]","[""强他"",""弱我"",""强我"",""弱他""]","","","","","","","","","","","","","","","","","","","","","","","","","","","","","","feedback_test","","","","","","","","",""
"776","","j","psychophysics","102","360190","0.0-8.0-0.0-1.0-0.0-0.46","5","4","3","4","6","3","2","3","2","1","3","-1","-2","0","0","-1","1","0","0","3","4","4","2","4","2","2","2","1","2","3","2","4","3","1","2","1","4","4","5","4","3","3","4","5","5","2","5","5","1","4","2","3","3","3","3","4","3","6","3","1","2","3","1","2","3","6","6","7","6","6","3","5","3","3","3","2","3","1","3","657683860254883840","邵","686","Male","[""好他"",""坏我"",""好我"",""坏他""]","[""强他"",""弱我"",""强我"",""弱他""]","","","","","","","","nonmatch","","","","","","","","","","key","j","16.668238095237896","768","428","j","true","nonmatch","img/ellipse.png","坏我","坏他","prac_ALT2_moral","practice_moral","","","","","","","","",""
"null","<span style='color:GreenYellow; font-size: 70px;'>正确! </span>","null","html-keyboard-response","103","360693","0.0-8.0-0.0-1.0-0.0-1.46","5","4","3","4","6","3","2","3","2","1","3","-1","-2","0","0","-1","1","0","0","3","4","4","2","4","2","2","2","1","2","3","2","4","3","1","2","1","4","4","5","4","3","3","4","5","5","2","5","5","1","4","2","3","3","3","3","4","3","6","3","1","2","3","1","2","3","6","6","7","6","6","3","5","3","3","3","2","3","1","3","657683860254883840","邵","686","Male","[""好他"",""坏我"",""好我"",""坏他""]","[""强他"",""弱我"",""强我"",""弱他""]","","","","","","","","","","","","","","","","","","","","","","","","","","","","","","feedback_test","","","","","","","","",""
"662","","j","psychophysics","104","362359","0.0-8.0-0.0-1.0-0.0-0.47","5","4","3","4","6","3","2","3","2","1","3","-1","-2","0","0","-1","1","0","0","3","4","4","2","4","2","2","2","1","2","3","2","4","3","1","2","1","4","4","5","4","3","3","4","5","5","2","5","5","1","4","2","3","3","3","3","4","3","6","3","1","2","3","1","2","3","6","6","7","6","6","3","5","3","3","3","2","3","1","3","657683860254883840","邵","686","Male","[""好他"",""坏我"",""好我"",""坏他""]","[""强他"",""弱我"",""强我"",""弱他""]","","","","","","","","nonmatch","","","","","","","","","","key","j","16.670464646464538","768","428","j","true","nonmatch","img/pentagon.png","坏我","好他","prac_ALT2_moral","practice_moral","","","","","","","","",""
"null","<span style='color:GreenYellow; font-size: 70px;'>正确! </span>","null","html-keyboard-response","105","362862","0.0-8.0-0.0-1.0-0.0-1.47","5","4","3","4","6","3","2","3","2","1","3","-1","-2","0","0","-1","1","0","0","3","4","4","2","4","2","2","2","1","2","3","2","4","3","1","2","1","4","4","5","4","3","3","4","5","5","2","5","5","1","4","2","3","3","3","3","4","3","6","3","1","2","3","1","2","3","6","6","7","6","6","3","5","3","3","3","2","3","1","3","657683860254883840","邵","686","Male","[""好他"",""坏我"",""好我"",""坏他""]","[""强他"",""弱我"",""强我"",""弱他""]","","","","","","","","","","","","","","","","","","","","","","","","","","","","","","feedback_test","","","","","","","","",""
"32339","<style>.context{color:white; font-size: 35px; line-height:40px}</style>                            <div><p class='context'>您正确回答了88% 的试次。</p><p class='context'>您的平均反应时为773毫秒。</p><p class='context'>恭喜您完成练习。按空格键进入正式实验。</p><p class='footer' style='font-size: 35px; line-height:40px;'>请在进入正式实验实验之前将您的<span style='color: lightgreen;'>食指</span>放在电脑键盘的相应键位上进行按键。</p>"," ","html-keyboard-response","106","395207","0.0-8.0-0.0-2.0","5","4","3","4","6","3","2","3","2","1","3","-1","-2","0","0","-1","1","0","0","3","4","4","2","4","2","2","2","1","2","3","2","4","3","1","2","1","4","4","5","4","3","3","4","5","5","2","5","5","1","4","2","3","3","3","3","4","3","6","3","1","2","3","1","2","3","6","6","7","6","6","3","5","3","3","3","2","3","1","3","657683860254883840","邵","686","Male","[""好他"",""坏我"",""好我"",""坏他""]","[""强他"",""弱我"",""强我"",""弱他""]","","","","","","","","","","","","","","","","","","","","","","","","","","","","","","","","","","","","","","",""
"3134","
    <p style='color: white; font-size: 22px'>请您将手指放在按键上，准备进入正式的匹配任务。</p>
    <p> <div style = ""color: green""><按空格键进入下一阶段的匹配任务></div></p>
    "," ","html-keyboard-response","107","398343","0.0-8.0-0.0-3.0","5","4","3","4","6","3","2","3","2","1","3","-1","-2","0","0","-1","1","0","0","3","4","4","2","4","2","2","2","1","2","3","2","4","3","1","2","1","4","4","5","4","3","3","4","5","5","2","5","5","1","4","2","3","3","3","3","4","3","6","3","1","2","3","1","2","3","6","6","7","6","6","3","5","3","3","3","2","3","1","3","657683860254883840","邵","686","Male","[""好他"",""坏我"",""好我"",""坏他""]","[""强他"",""弱我"",""强我"",""弱他""]","","","","","","","","","","","","","","","","","","","","","","","","","","","","","","","","","","","","","","",""
"682","","j","psychophysics","108","400028","0.0-8.0-0.0-4.0-0.0-0.0","5","4","3","4","6","3","2","3","2","1","3","-1","-2","0","0","-1","1","0","0","3","4","4","2","4","2","2","2","1","2","3","2","4","3","1","2","1","4","4","5","4","3","3","4","5","5","2","5","5","1","4","2","3","3","3","3","4","3","6","3","1","2","3","1","2","3","6","6","7","6","6","3","5","3","3","3","2","3","1","3","657683860254883840","邵","686","Male","[""好他"",""坏我"",""好我"",""坏他""]","[""强他"",""弱我"",""强我"",""弱他""]","","","","","","","","nonmatch","","","","","","","","","","key","j","16.667129999999887","768","428","f","false","match","img/pentagon.png","好他","好他","ALT2","moral","","","","","","","","",""
"null","<span style='color:red; font-size: 70px;'>错误! </span>","null","html-keyboard-response","109","400530","0.0-8.0-0.0-4.0-0.0-1.0","5","4","3","4","6","3","2","3","2","1","3","-1","-2","0","0","-1","1","0","0","3","4","4","2","4","2","2","2","1","2","3","2","4","3","1","2","1","4","4","5","4","3","3","4","5","5","2","5","5","1","4","2","3","3","3","3","4","3","6","3","1","2","3","1","2","3","6","6","7","6","6","3","5","3","3","3","2","3","1","3","657683860254883840","邵","686","Male","[""好他"",""坏我"",""好我"",""坏他""]","[""强他"",""弱我"",""强我"",""弱他""]","","","","","","","","","","","","","","","","","","","","","","","","","","","","","","feedback_test","","","","","","","","",""
"743","","j","psychophysics","110","402278","0.0-8.0-0.0-4.0-0.0-0.1","5","4","3","4","6","3","2","3","2","1","3","-1","-2","0","0","-1","1","0","0","3","4","4","2","4","2","2","2","1","2","3","2","4","3","1","2","1","4","4","5","4","3","3","4","5","5","2","5","5","1","4","2","3","3","3","3","4","3","6","3","1","2","3","1","2","3","6","6","7","6","6","3","5","3","3","3","2","3","1","3","657683860254883840","邵","686","Male","[""好他"",""坏我"",""好我"",""坏他""]","[""强他"",""弱我"",""强我"",""弱他""]","","","","","","","","nonmatch","","","","","","","","","","key","j","16.668788461538497","768","428","j","true","nonmatch","img/ellipse.png","坏我","坏他","ALT2","moral","","","","","","","","",""
"null","<span style='color:GreenYellow; font-size: 70px;'>正确! </span>","null","html-keyboard-response","111","402781","0.0-8.0-0.0-4.0-0.0-1.1","5","4","3","4","6","3","2","3","2","1","3","-1","-2","0","0","-1","1","0","0","3","4","4","2","4","2","2","2","1","2","3","2","4","3","1","2","1","4","4","5","4","3","3","4","5","5","2","5","5","1","4","2","3","3","3","3","4","3","6","3","1","2","3","1","2","3","6","6","7","6","6","3","5","3","3","3","2","3","1","3","657683860254883840","邵","686","Male","[""好他"",""坏我"",""好我"",""坏他""]","[""强他"",""弱我"",""强我"",""弱他""]","","","","","","","","","","","","","","","","","","","","","","","","","","","","","","feedback_test","","","","","","","","",""
"862","","f","psychophysics","112","404646","0.0-8.0-0.0-4.0-0.0-0.2","5","4","3","4","6","3","2","3","2","1","3","-1","-2","0","0","-1","1","0","0","3","4","4","2","4","2","2","2","1","2","3","2","4","3","1","2","1","4","4","5","4","3","3","4","5","5","2","5","5","1","4","2","3","3","3","3","4","3","6","3","1","2","3","1","2","3","6","6","7","6","6","3","5","3","3","3","2","3","1","3","657683860254883840","邵","686","Male","[""好他"",""坏我"",""好我"",""坏他""]","[""强他"",""弱我"",""强我"",""弱他""]","","","","","","","","match","","","","","","","","","","key","f","16.669504504504527","768","428","j","false","nonmatch","img/ellipse.png","好我","坏他","ALT2","moral","","","","","","","","",""
"null","<span style='color:red; font-size: 70px;'>错误! </span>","null","html-keyboard-response","113","405149","0.0-8.0-0.0-4.0-0.0-1.2","5","4","3","4","6","3","2","3","2","1","3","-1","-2","0","0","-1","1","0","0","3","4","4","2","4","2","2","2","1","2","3","2","4","3","1","2","1","4","4","5","4","3","3","4","5","5","2","5","5","1","4","2","3","3","3","3","4","3","6","3","1","2","3","1","2","3","6","6","7","6","6","3","5","3","3","3","2","3","1","3","657683860254883840","邵","686","Male","[""好他"",""坏我"",""好我"",""坏他""]","[""强他"",""弱我"",""强我"",""弱他""]","","","","","","","","","","","","","","","","","","","","","","","","","","","","","","feedback_test","","","","","","","","",""
"557","","f","psychophysics","114","406710","0.0-8.0-0.0-4.0-0.0-0.3","5","4","3","4","6","3","2","3","2","1","3","-1","-2","0","0","-1","1","0","0","3","4","4","2","4","2","2","2","1","2","3","2","4","3","1","2","1","4","4","5","4","3","3","4","5","5","2","5","5","1","4","2","3","3","3","3","4","3","6","3","1","2","3","1","2","3","6","6","7","6","6","3","5","3","3","3","2","3","1","3","657683860254883840","邵","686","Male","[""好他"",""坏我"",""好我"",""坏他""]","[""强他"",""弱我"",""强我"",""弱他""]","","","","","","","","match","","","","","","","","","","key","f","16.66848387096768","768","428","f","true","match","img/square.png","好我","好我","ALT2","moral","","","","","","","","",""
"null","<span style='color:GreenYellow; font-size: 70px;'>正确! </span>","null","html-keyboard-response","115","407212","0.0-8.0-0.0-4.0-0.0-1.3","5","4","3","4","6","3","2","3","2","1","3","-1","-2","0","0","-1","1","0","0","3","4","4","2","4","2","2","2","1","2","3","2","4","3","1","2","1","4","4","5","4","3","3","4","5","5","2","5","5","1","4","2","3","3","3","3","4","3","6","3","1","2","3","1","2","3","6","6","7","6","6","3","5","3","3","3","2","3","1","3","657683860254883840","邵","686","Male","[""好他"",""坏我"",""好我"",""坏他""]","[""强他"",""弱我"",""强我"",""弱他""]","","","","","","","","","","","","","","","","","","","","","","","","","","","","","","feedback_test","","","","","","","","",""
"632","","j","psychophysics","116","408847","0.0-8.0-0.0-4.0-0.0-0.4","5","4","3","4","6","3","2","3","2","1","3","-1","-2","0","0","-1","1","0","0","3","4","4","2","4","2","2","2","1","2","3","2","4","3","1","2","1","4","4","5","4","3","3","4","5","5","2","5","5","1","4","2","3","3","3","3","4","3","6","3","1","2","3","1","2","3","6","6","7","6","6","3","5","3","3","3","2","3","1","3","657683860254883840","邵","686","Male","[""好他"",""坏我"",""好我"",""坏他""]","[""强他"",""弱我"",""强我"",""弱他""]","","","","","","","","nonmatch","","","","","","","","","","key","j","16.66970103092794","768","428","j","true","nonmatch","img/pentagon.png","好我","好他","ALT2","moral","","","","","","","","",""
"null","<span style='color:GreenYellow; font-size: 70px;'>正确! </span>","null","html-keyboard-response","117","409350","0.0-8.0-0.0-4.0-0.0-1.4","5","4","3","4","6","3","2","3","2","1","3","-1","-2","0","0","-1","1","0","0","3","4","4","2","4","2","2","2","1","2","3","2","4","3","1","2","1","4","4","5","4","3","3","4","5","5","2","5","5","1","4","2","3","3","3","3","4","3","6","3","1","2","3","1","2","3","6","6","7","6","6","3","5","3","3","3","2","3","1","3","657683860254883840","邵","686","Male","[""好他"",""坏我"",""好我"",""坏他""]","[""强他"",""弱我"",""强我"",""弱他""]","","","","","","","","","","","","","","","","","","","","","","","","","","","","","","feedback_test","","","","","","","","",""
"833","","j","psychophysics","118","411187","0.0-8.0-0.0-4.0-0.0-0.5","5","4","3","4","6","3","2","3","2","1","3","-1","-2","0","0","-1","1","0","0","3","4","4","2","4","2","2","2","1","2","3","2","4","3","1","2","1","4","4","5","4","3","3","4","5","5","2","5","5","1","4","2","3","3","3","3","4","3","6","3","1","2","3","1","2","3","6","6","7","6","6","3","5","3","3","3","2","3","1","3","657683860254883840","邵","686","Male","[""好他"",""坏我"",""好我"",""坏他""]","[""强他"",""弱我"",""强我"",""弱他""]","","","","","","","","nonmatch","","","","","","","","","","key","j","16.66982568807338","768","428","j","true","nonmatch","img/square.png","坏我","好我","ALT2","moral","","","","","","","","",""
"null","<span style='color:GreenYellow; font-size: 70px;'>正确! </span>","null","html-keyboard-response","119","411690","0.0-8.0-0.0-4.0-0.0-1.5","5","4","3","4","6","3","2","3","2","1","3","-1","-2","0","0","-1","1","0","0","3","4","4","2","4","2","2","2","1","2","3","2","4","3","1","2","1","4","4","5","4","3","3","4","5","5","2","5","5","1","4","2","3","3","3","3","4","3","6","3","1","2","3","1","2","3","6","6","7","6","6","3","5","3","3","3","2","3","1","3","657683860254883840","邵","686","Male","[""好他"",""坏我"",""好我"",""坏他""]","[""强他"",""弱我"",""强我"",""弱他""]","","","","","","","","","","","","","","","","","","","","","","","","","","","","","","feedback_test","","","","","","","","",""
"648","","j","psychophysics","120","413344","0.0-8.0-0.0-4.0-0.0-0.6","5","4","3","4","6","3","2","3","2","1","3","-1","-2","0","0","-1","1","0","0","3","4","4","2","4","2","2","2","1","2","3","2","4","3","1","2","1","4","4","5","4","3","3","4","5","5","2","5","5","1","4","2","3","3","3","3","4","3","6","3","1","2","3","1","2","3","6","6","7","6","6","3","5","3","3","3","2","3","1","3","657683860254883840","邵","686","Male","[""好他"",""坏我"",""好我"",""坏他""]","[""强他"",""弱我"",""强我"",""弱他""]","","","","","","","","nonmatch","","","","","","","","","","key","j","16.667787878788218","768","428","j","true","nonmatch","img/diamond.png","好我","坏我","ALT2","moral","","","","","","","","",""
"null","<span style='color:GreenYellow; font-size: 70px;'>正确! </span>","null","html-keyboard-response","121","413847","0.0-8.0-0.0-4.0-0.0-1.6","5","4","3","4","6","3","2","3","2","1","3","-1","-2","0","0","-1","1","0","0","3","4","4","2","4","2","2","2","1","2","3","2","4","3","1","2","1","4","4","5","4","3","3","4","5","5","2","5","5","1","4","2","3","3","3","3","4","3","6","3","1","2","3","1","2","3","6","6","7","6","6","3","5","3","3","3","2","3","1","3","657683860254883840","邵","686","Male","[""好他"",""坏我"",""好我"",""坏他""]","[""强他"",""弱我"",""强我"",""弱他""]","","","","","","","","","","","","","","","","","","","","","","","","","","","","","","feedback_test","","","","","","","","",""
"756","","f","psychophysics","122","415608","0.0-8.0-0.0-4.0-0.0-0.7","5","4","3","4","6","3","2","3","2","1","3","-1","-2","0","0","-1","1","0","0","3","4","4","2","4","2","2","2","1","2","3","2","4","3","1","2","1","4","4","5","4","3","3","4","5","5","2","5","5","1","4","2","3","3","3","3","4","3","6","3","1","2","3","1","2","3","6","6","7","6","6","3","5","3","3","3","2","3","1","3","657683860254883840","邵","686","Male","[""好他"",""坏我"",""好我"",""坏他""]","[""强他"",""弱我"",""强我"",""弱他""]","","","","","","","","match","","","","","","","","","","key","f","16.668653846154204","768","428","f","true","match","img/diamond.png","坏我","坏我","ALT2","moral","","","","","","","","",""
"null","<span style='color:GreenYellow; font-size: 70px;'>正确! </span>","null","html-keyboard-response","123","416111","0.0-8.0-0.0-4.0-0.0-1.7","5","4","3","4","6","3","2","3","2","1","3","-1","-2","0","0","-1","1","0","0","3","4","4","2","4","2","2","2","1","2","3","2","4","3","1","2","1","4","4","5","4","3","3","4","5","5","2","5","5","1","4","2","3","3","3","3","4","3","6","3","1","2","3","1","2","3","6","6","7","6","6","3","5","3","3","3","2","3","1","3","657683860254883840","邵","686","Male","[""好他"",""坏我"",""好我"",""坏他""]","[""强他"",""弱我"",""强我"",""弱他""]","","","","","","","","","","","","","","","","","","","","","","","","","","","","","","feedback_test","","","","","","","","",""
"687","","j","psychophysics","124","417801","0.0-8.0-0.0-4.0-0.0-0.8","5","4","3","4","6","3","2","3","2","1","3","-1","-2","0","0","-1","1","0","0","3","4","4","2","4","2","2","2","1","2","3","2","4","3","1","2","1","4","4","5","4","3","3","4","5","5","2","5","5","1","4","2","3","3","3","3","4","3","6","3","1","2","3","1","2","3","6","6","7","6","6","3","5","3","3","3","2","3","1","3","657683860254883840","邵","686","Male","[""好他"",""坏我"",""好我"",""坏他""]","[""强他"",""弱我"",""强我"",""弱他""]","","","","","","","","nonmatch","","","","","","","","","","key","j","16.66999000000011","768","428","j","true","nonmatch","img/diamond.png","好他","坏我","ALT2","moral","","","","","","","","",""
"null","<span style='color:GreenYellow; font-size: 70px;'>正确! </span>","null","html-keyboard-response","125","418319","0.0-8.0-0.0-4.0-0.0-1.8","5","4","3","4","6","3","2","3","2","1","3","-1","-2","0","0","-1","1","0","0","3","4","4","2","4","2","2","2","1","2","3","2","4","3","1","2","1","4","4","5","4","3","3","4","5","5","2","5","5","1","4","2","3","3","3","3","4","3","6","3","1","2","3","1","2","3","6","6","7","6","6","3","5","3","3","3","2","3","1","3","657683860254883840","邵","686","Male","[""好他"",""坏我"",""好我"",""坏他""]","[""强他"",""弱我"",""强我"",""弱他""]","","","","","","","","","","","","","","","","","","","","","","","","","","","","","","feedback_test","","","","","","","","",""
"785","","f","psychophysics","126","420107","0.0-8.0-0.0-4.0-0.0-0.9","5","4","3","4","6","3","2","3","2","1","3","-1","-2","0","0","-1","1","0","0","3","4","4","2","4","2","2","2","1","2","3","2","4","3","1","2","1","4","4","5","4","3","3","4","5","5","2","5","5","1","4","2","3","3","3","3","4","3","6","3","1","2","3","1","2","3","6","6","7","6","6","3","5","3","3","3","2","3","1","3","657683860254883840","邵","686","Male","[""好他"",""坏我"",""好我"",""坏他""]","[""强他"",""弱我"",""强我"",""弱他""]","","","","","","","","match","","","","","","","","","","key","f","16.669320754716743","768","428","f","true","match","img/diamond.png","坏我","坏我","ALT2","moral","","","","","","","","",""
"null","<span style='color:GreenYellow; font-size: 70px;'>正确! </span>","null","html-keyboard-response","127","420610","0.0-8.0-0.0-4.0-0.0-1.9","5","4","3","4","6","3","2","3","2","1","3","-1","-2","0","0","-1","1","0","0","3","4","4","2","4","2","2","2","1","2","3","2","4","3","1","2","1","4","4","5","4","3","3","4","5","5","2","5","5","1","4","2","3","3","3","3","4","3","6","3","1","2","3","1","2","3","6","6","7","6","6","3","5","3","3","3","2","3","1","3","657683860254883840","邵","686","Male","[""好他"",""坏我"",""好我"",""坏他""]","[""强他"",""弱我"",""强我"",""弱他""]","","","","","","","","","","","","","","","","","","","","","","","","","","","","","","feedback_test","","","","","","","","",""
"787","","j","psychophysics","128","422400","0.0-8.0-0.0-4.0-0.0-0.10","5","4","3","4","6","3","2","3","2","1","3","-1","-2","0","0","-1","1","0","0","3","4","4","2","4","2","2","2","1","2","3","2","4","3","1","2","1","4","4","5","4","3","3","4","5","5","2","5","5","1","4","2","3","3","3","3","4","3","6","3","1","2","3","1","2","3","6","6","7","6","6","3","5","3","3","3","2","3","1","3","657683860254883840","邵","686","Male","[""好他"",""坏我"",""好我"",""坏他""]","[""强他"",""弱我"",""强我"",""弱他""]","","","","","","","","nonmatch","","","","","","","","","","key","j","16.66719811320753","768","428","j","true","nonmatch","img/square.png","坏他","好我","ALT2","moral","","","","","","","","",""
"null","<span style='color:GreenYellow; font-size: 70px;'>正确! </span>","null","html-keyboard-response","129","422902","0.0-8.0-0.0-4.0-0.0-1.10","5","4","3","4","6","3","2","3","2","1","3","-1","-2","0","0","-1","1","0","0","3","4","4","2","4","2","2","2","1","2","3","2","4","3","1","2","1","4","4","5","4","3","3","4","5","5","2","5","5","1","4","2","3","3","3","3","4","3","6","3","1","2","3","1","2","3","6","6","7","6","6","3","5","3","3","3","2","3","1","3","657683860254883840","邵","686","Male","[""好他"",""坏我"",""好我"",""坏他""]","[""强他"",""弱我"",""强我"",""弱他""]","","","","","","","","","","","","","","","","","","","","","","","","","","","","","","feedback_test","","","","","","","","",""
"702","","j","psychophysics","130","424608","0.0-8.0-0.0-4.0-0.0-0.11","5","4","3","4","6","3","2","3","2","1","3","-1","-2","0","0","-1","1","0","0","3","4","4","2","4","2","2","2","1","2","3","2","4","3","1","2","1","4","4","5","4","3","3","4","5","5","2","5","5","1","4","2","3","3","3","3","4","3","6","3","1","2","3","1","2","3","6","6","7","6","6","3","5","3","3","3","2","3","1","3","657683860254883840","邵","686","Male","[""好他"",""坏我"",""好我"",""坏他""]","[""强他"",""弱我"",""强我"",""弱他""]","","","","","","","","nonmatch","","","","","","","","","","key","j","16.66888118811911","768","428","f","false","match","img/pentagon.png","好他","好他","ALT2","moral","","","","","","","","",""
"null","<span style='color:red; font-size: 70px;'>错误! </span>","null","html-keyboard-response","131","425109","0.0-8.0-0.0-4.0-0.0-1.11","5","4","3","4","6","3","2","3","2","1","3","-1","-2","0","0","-1","1","0","0","3","4","4","2","4","2","2","2","1","2","3","2","4","3","1","2","1","4","4","5","4","3","3","4","5","5","2","5","5","1","4","2","3","3","3","3","4","3","6","3","1","2","3","1","2","3","6","6","7","6","6","3","5","3","3","3","2","3","1","3","657683860254883840","邵","686","Male","[""好他"",""坏我"",""好我"",""坏他""]","[""强他"",""弱我"",""强我"",""弱他""]","","","","","","","","","","","","","","","","","","","","","","","","","","","","","","feedback_test","","","","","","","","",""
"695","","f","psychophysics","132","426807","0.0-8.0-0.0-4.0-0.0-0.12","5","4","3","4","6","3","2","3","2","1","3","-1","-2","0","0","-1","1","0","0","3","4","4","2","4","2","2","2","1","2","3","2","4","3","1","2","1","4","4","5","4","3","3","4","5","5","2","5","5","1","4","2","3","3","3","3","4","3","6","3","1","2","3","1","2","3","6","6","7","6","6","3","5","3","3","3","2","3","1","3","657683860254883840","邵","686","Male","[""好他"",""坏我"",""好我"",""坏他""]","[""强他"",""弱我"",""强我"",""弱他""]","","","","","","","","match","","","","","","","","","","key","f","16.66734999999986","768","428","f","true","match","img/diamond.png","坏我","坏我","ALT2","moral","","","","","","","","",""
"null","<span style='color:GreenYellow; font-size: 70px;'>正确! </span>","null","html-keyboard-response","133","427310","0.0-8.0-0.0-4.0-0.0-1.12","5","4","3","4","6","3","2","3","2","1","3","-1","-2","0","0","-1","1","0","0","3","4","4","2","4","2","2","2","1","2","3","2","4","3","1","2","1","4","4","5","4","3","3","4","5","5","2","5","5","1","4","2","3","3","3","3","4","3","6","3","1","2","3","1","2","3","6","6","7","6","6","3","5","3","3","3","2","3","1","3","657683860254883840","邵","686","Male","[""好他"",""坏我"",""好我"",""坏他""]","[""强他"",""弱我"",""强我"",""弱他""]","","","","","","","","","","","","","","","","","","","","","","","","","","","","","","feedback_test","","","","","","","","",""
"596","","f","psychophysics","134","428908","0.0-8.0-0.0-4.0-0.0-0.13","5","4","3","4","6","3","2","3","2","1","3","-1","-2","0","0","-1","1","0","0","3","4","4","2","4","2","2","2","1","2","3","2","4","3","1","2","1","4","4","5","4","3","3","4","5","5","2","5","5","1","4","2","3","3","3","3","4","3","6","3","1","2","3","1","2","3","6","6","7","6","6","3","5","3","3","3","2","3","1","3","657683860254883840","邵","686","Male","[""好他"",""坏我"",""好我"",""坏他""]","[""强他"",""弱我"",""强我"",""弱他""]","","","","","","","","match","","","","","","","","","","key","f","16.666872340425392","768","428","f","true","match","img/square.png","好我","好我","ALT2","moral","","","","","","","","",""
"null","<span style='color:GreenYellow; font-size: 70px;'>正确! </span>","null","html-keyboard-response","135","429410","0.0-8.0-0.0-4.0-0.0-1.13","5","4","3","4","6","3","2","3","2","1","3","-1","-2","0","0","-1","1","0","0","3","4","4","2","4","2","2","2","1","2","3","2","4","3","1","2","1","4","4","5","4","3","3","4","5","5","2","5","5","1","4","2","3","3","3","3","4","3","6","3","1","2","3","1","2","3","6","6","7","6","6","3","5","3","3","3","2","3","1","3","657683860254883840","邵","686","Male","[""好他"",""坏我"",""好我"",""坏他""]","[""强他"",""弱我"",""强我"",""弱他""]","","","","","","","","","","","","","","","","","","","","","","","","","","","","","","feedback_test","","","","","","","","",""
"566","","f","psychophysics","136","430979","0.0-8.0-0.0-4.0-0.0-0.14","5","4","3","4","6","3","2","3","2","1","3","-1","-2","0","0","-1","1","0","0","3","4","4","2","4","2","2","2","1","2","3","2","4","3","1","2","1","4","4","5","4","3","3","4","5","5","2","5","5","1","4","2","3","3","3","3","4","3","6","3","1","2","3","1","2","3","6","6","7","6","6","3","5","3","3","3","2","3","1","3","657683860254883840","邵","686","Male","[""好他"",""坏我"",""好我"",""坏他""]","[""强他"",""弱我"",""强我"",""弱他""]","","","","","","","","match","","","","","","","","","","key","f","16.67029032258064","768","428","f","true","match","img/square.png","好我","好我","ALT2","moral","","","","","","","","",""
"null","<span style='color:GreenYellow; font-size: 70px;'>正确! </span>","null","html-keyboard-response","137","431482","0.0-8.0-0.0-4.0-0.0-1.14","5","4","3","4","6","3","2","3","2","1","3","-1","-2","0","0","-1","1","0","0","3","4","4","2","4","2","2","2","1","2","3","2","4","3","1","2","1","4","4","5","4","3","3","4","5","5","2","5","5","1","4","2","3","3","3","3","4","3","6","3","1","2","3","1","2","3","6","6","7","6","6","3","5","3","3","3","2","3","1","3","657683860254883840","邵","686","Male","[""好他"",""坏我"",""好我"",""坏他""]","[""强他"",""弱我"",""强我"",""弱他""]","","","","","","","","","","","","","","","","","","","","","","","","","","","","","","feedback_test","","","","","","","","",""
"782","","j","psychophysics","138","433266","0.0-8.0-0.0-4.0-0.0-0.15","5","4","3","4","6","3","2","3","2","1","3","-1","-2","0","0","-1","1","0","0","3","4","4","2","4","2","2","2","1","2","3","2","4","3","1","2","1","4","4","5","4","3","3","4","5","5","2","5","5","1","4","2","3","3","3","3","4","3","6","3","1","2","3","1","2","3","6","6","7","6","6","3","5","3","3","3","2","3","1","3","657683860254883840","邵","686","Male","[""好他"",""坏我"",""好我"",""坏他""]","[""强他"",""弱我"",""强我"",""弱他""]","","","","","","","","nonmatch","","","","","","","","","","key","j","16.66876415094363","768","428","j","true","nonmatch","img/diamond.png","坏他","坏我","ALT2","moral","","","","","","","","",""
