"rt","stimulus","response","trial_type","trial_index","time_elapsed","internal_node_id","swb_1","swb_2","swb_3","swb_4","swb_5","LOT_1","LOT_2","LOT_3","LOT_4","LOT_5","LOT_6","IPC_1","IPC_2","IPC_3","IPC_4","IPC_5","IPC_6","IPC_7","IPC_8","MorIden_1","MorIden_2","MorIden_3","MorIden_4","MorIden_5","MorIden_6","MorIden_7","MorIden_8","MorIden_9","MorIden_10","moralSeImag_1","moralSeImag_2","moralSeImag_3","moralSeImag_4","moralSeImag_5","moralSeImag_6","moralSeImag_7","moralSeImag_8","moralSeImag_9","sde_1","sde_2","sde_3","sde_4","sde_5","sde_6","sde_7","sde_8","sde_9","sde_10","trap2","sde_11","sde_12","sde_13","sde_14","sde_15","sde_16","sde_17","sde_18","sde_19","sde_20","IM_1","IM_2","IM_3","IM_4","IM_5","IM_6","IM_7","IM_8","IM_9","IM_10","IM_11","IM_12","IM_13","IM_14","IM_15","IM_16","IM_17","IM_18","IM_19","IM_20","subj_idx","friend_name","ParticipantID","Sex","Word","Word2","value","success","timeout","failed_images","failed_audio","failed_video","user_agent","responses","item_order","radio_event_ids","radio_event_times","key_event_times","mouse_event_times","straightlining","zigzagging","honeypot","view_history","response_type","key_press","avg_frame_time","center_x","center_y","correct_response","correct","identity","Image","word","condition","task_id","screen_id","time_stamp","person","valence","domain","math","status","duration","question_order","trap2_item"
"16809","
   <p><div style='color:white; font-size: 25px'>您好，欢迎参加本次实验。</div></p>
   <p><div style='color:white; font-size: 25px'>为充分保障您的权利，请确保您已经知晓并同意《参与实验同意书》以及《数据公开知情同意书》。</div></p>
   <p><div style='color:white; font-size: 25px'>如果您未见过上述内容，请咨询实验员。</div></p>
   <p style='color:white; font-size: 25px'>如果您选择继续实验，则表示您已经清楚两份知情同意书的内容并同意。</p>
   <p><div style = ""color: pink;font-size:30px;"">请确保您记得day0的实验编号，您将在本次实验输入该编号，若您忘记，请咨询实验员后作答。</div></p>
   <p><div style = ""color:lightblue;font-size:25px;"">请您尽可能认真地作答，我们将依据您在各问卷和按键任务中的作答质量发放报酬。</div></p>
   <p> <div style = ""color: green""><按空格键至下页></div> </p>
   "," ","html-keyboard-response","0","16812","0.0-0.0","6","6","5","5","6","5","4","4","5","5","5","2","1","2","2","1","1","2","2","5","4","5","5","5","4","4","5","5","4","4","5","3","7","8","5","7","6","9","5","7","5","5","6","7","6","3","7","5","7","7","7","6","5","7","6","5","6","6","7","3","6","3","3","3","7","7","4","5","6","7","5","7","7","2","7","3","7","5","6","726468431867543552","徐","328","Female","[""好她"",""坏她"",""好我"",""坏我""]","[""强她"",""弱她"",""强我"",""弱我""]","","","","","","","","","","","","","","","","","","","","","","","","","","","","","","","","","","","","","","",""
"","","","call-function","1","16815","0.0-1.0-0.0","6","6","5","5","6","5","4","4","5","5","5","2","1","2","2","1","1","2","2","5","4","5","5","5","4","4","5","5","4","4","5","3","7","8","5","7","6","9","5","7","5","5","6","7","6","3","7","5","7","7","7","6","5","7","6","5","6","6","7","3","6","3","3","3","7","7","4","5","6","7","5","7","7","2","7","3","7","5","6","726468431867543552","徐","328","Female","[""好她"",""坏她"",""好我"",""坏我""]","[""强她"",""弱她"",""强我"",""弱我""]","","","","","","","","","","","","","","","","","","","","","","","","","","","","","","","","","","","","","","",""
"14258","","[{""name"":""Sex"",""value"":""1""},{""name"":""friend_name"",""value"":""徐""},{""name"":""ParticipantID"",""value"":""328""}]","survey-html-form","2","31075","0.0-1.0-1.0","6","6","5","5","6","5","4","4","5","5","5","2","1","2","2","1","1","2","2","5","4","5","5","5","4","4","5","5","4","4","5","3","7","8","5","7","6","9","5","7","5","5","6","7","6","3","7","5","7","7","7","6","5","7","6","5","6","6","7","3","6","3","3","3","7","7","4","5","6","7","5","7","7","2","7","3","7","5","6","726468431867543552","徐","328","Female","[""好她"",""坏她"",""好我"",""坏我""]","[""强她"",""弱她"",""强我"",""弱我""]","","","","","","","","","","","","","","","","","","","","","","","","","","","","","","","","","","","","","","",""
"","","","preload","3","31360","0.0-2.0","6","6","5","5","6","5","4","4","5","5","5","2","1","2","2","1","1","2","2","5","4","5","5","5","4","4","5","5","4","4","5","3","7","8","5","7","6","9","5","7","5","5","6","7","6","3","7","5","7","7","7","6","5","7","6","5","6","6","7","3","6","3","3","3","7","7","4","5","6","7","5","7","7","2","7","3","7","5","6","726468431867543552","徐","328","Female","[""好她"",""坏她"",""好我"",""坏我""]","[""强她"",""弱她"",""强我"",""弱我""]","","true","false","[]","[]","[]","","","","","","","","","","","","","","","","","","","","","","","","","","","","","","","","",""
"","","","fullscreen","4","43402","0.0-3.0","6","6","5","5","6","5","4","4","5","5","5","2","1","2","2","1","1","2","2","5","4","5","5","5","4","4","5","5","4","4","5","3","7","8","5","7","6","9","5","7","5","5","6","7","6","3","7","5","7","7","7","6","5","7","6","5","6","6","7","3","6","3","3","3","7","7","4","5","6","7","5","7","7","2","7","3","7","5","6","726468431867543552","徐","328","Female","[""好她"",""坏她"",""好我"",""坏我""]","[""强她"",""弱她"",""强我"",""弱我""]","","true","","","","","{}","","","","","","","","","","","","","","","","","","","","","","","","","","","","","","","",""
"14546.5","","{""Q01"":""6"",""Q02"":""6"",""Q03"":""5"",""Q04"":""5"",""Q05"":""6""}","survey-template","5","57958","0.0-4.0","6","6","5","5","6","5","4","4","5","5","5","2","1","2","2","1","1","2","2","5","4","5","5","5","4","4","5","5","4","4","5","3","7","8","5","7","6","9","5","7","5","5","6","7","6","3","7","5","7","7","7","6","5","7","6","5","6","6","7","3","6","3","3","3","7","7","4","5","6","7","5","7","7","2","7","3","7","5","6","726468431867543552","徐","328","Female","[""好她"",""坏她"",""好我"",""坏我""]","[""强她"",""弱她"",""强我"",""弱我""]","","","","","","","","{""Q01"":""6"",""Q02"":""6"",""Q03"":""5"",""Q04"":""5"",""Q05"":""6""}","[0,1,2,3,4]","[""Q01"",""Q02"",""Q03"",""Q04"",""Q05""]","[2791,5158,6677.900000035763,9039.100000023842,12023]","[]","[2791,5158,6677.900000035763,9039.100000023842,11054.900000035763,12023,14542.600000023842]","0.6","0.5","0","","","","","","","","","","","","","","","","","","","","","","",""
"19164.69999998808","","{""Q01"":""5"",""Q02"":""4"",""Q03"":""4"",""Q04"":""5"",""Q05"":""5"",""Q06"":""5""}","survey-template","6","77142","0.0-5.0","6","6","5","5","6","5","4","4","5","5","5","2","1","2","2","1","1","2","2","5","4","5","5","5","4","4","5","5","4","4","5","3","7","8","5","7","6","9","5","7","5","5","6","7","6","3","7","5","7","7","7","6","5","7","6","5","6","6","7","3","6","3","3","3","7","7","4","5","6","7","5","7","7","2","7","3","7","5","6","726468431867543552","徐","328","Female","[""好她"",""坏她"",""好我"",""坏我""]","[""强她"",""弱她"",""强我"",""弱我""]","","","","","","","","{""Q01"":""5"",""Q02"":""4"",""Q03"":""4"",""Q04"":""5"",""Q05"":""5"",""Q06"":""5""}","[0,1,2,3,4,5]","[""Q01"",""Q02"",""Q03"",""Q04"",""Q05"",""Q06""]","[2578.399999976158,5473.600000023842,7305.800000011921,11041.300000011921,14097.399999976158,16609.30000001192]","[]","[2578.399999976158,5473.600000023842,7305.800000011921,11041.300000011921,13153.5,14097.399999976158,16609.30000001192,19161.69999998808]","0.3333333333333333","0.2","0","","","","","","","","","","","","","","","","","","","","","","",""
"20125.900000035763","","{""Q01"":""2"",""Q02"":""1"",""Q03"":""2"",""Q04"":""2"",""Q05"":""1"",""Q06"":""1"",""Q07"":""2"",""Q08"":""2""}","survey-template","7","97281","0.0-6.0","6","6","5","5","6","5","4","4","5","5","5","2","1","2","2","1","1","2","2","5","4","5","5","5","4","4","5","5","4","4","5","3","7","8","5","7","6","9","5","7","5","5","6","7","6","3","7","5","7","7","7","6","5","7","6","5","6","6","7","3","6","3","3","3","7","7","4","5","6","7","5","7","7","2","7","3","7","5","6","726468431867543552","徐","328","Female","[""好她"",""坏她"",""好我"",""坏我""]","[""强她"",""弱她"",""强我"",""弱我""]","","","","","","","","{""Q01"":""2"",""Q02"":""1"",""Q03"":""2"",""Q04"":""2"",""Q05"":""1"",""Q06"":""1"",""Q07"":""2"",""Q08"":""2""}","[0,1,2,3,4,5,6,7]","[""Q01"",""Q02"",""Q03"",""Q04"",""Q05"",""Q06"",""Q07"",""Q08""]","[2421.800000011921,4757.5,7693.699999988079,9413.600000023842,12573.400000035763,13725.5,17005.400000035763,19381.5]","[]","[2421.800000011921,4757.5,7693.699999988079,9413.600000023842,11014.600000023842,12229.5,12573.400000035763,13140.900000035763,13725.5,17005.400000035763,19381.5,20124.5]","0.625","0.5714285714285714","0","","","","","","","","","","","","","","","","","","","","","","",""
"36908","","","instructions","8","134194","0.0-7.0","6","6","5","5","6","5","4","4","5","5","5","2","1","2","2","1","1","2","2","5","4","5","5","5","4","4","5","5","4","4","5","3","7","8","5","7","6","9","5","7","5","5","6","7","6","3","7","5","7","7","7","6","5","7","6","5","6","6","7","3","6","3","3","3","7","7","4","5","6","7","5","7","7","2","7","3","7","5","6","726468431867543552","徐","328","Female","[""好她"",""坏她"",""好我"",""坏我""]","[""强她"",""弱她"",""强我"",""弱我""]","","","","","","","","","","","","","","","","","[{""page_index"":0,""viewing_time"":36906}]","","","","","","","","","","","","","","","","","","","","","",""
"242813","","","instructions","9","377018","0.0-8.0-1.0-0.0","6","6","5","5","6","5","4","4","5","5","5","2","1","2","2","1","1","2","2","5","4","5","5","5","4","4","5","5","4","4","5","3","7","8","5","7","6","9","5","7","5","5","6","7","6","3","7","5","7","7","7","6","5","7","6","5","6","6","7","3","6","3","3","3","7","7","4","5","6","7","5","7","7","2","7","3","7","5","6","726468431867543552","徐","328","Female","[""好她"",""坏她"",""好我"",""坏我""]","[""强她"",""弱她"",""强我"",""弱我""]","","","","","","","","","","","","","","","","","[{""page_index"":0,""viewing_time"":16551},{""page_index"":1,""viewing_time"":221589},{""page_index"":2,""viewing_time"":3080},{""page_index"":3,""viewing_time"":1593}]","","","","","","","","","","","","","","","","","","","","","",""
"null","","null","psychophysics","10","379235","0.0-8.0-1.0-1.0-0.0-0.0","6","6","5","5","6","5","4","4","5","5","5","2","1","2","2","1","1","2","2","5","4","5","5","5","4","4","5","5","4","4","5","3","7","8","5","7","6","9","5","7","5","5","6","7","6","3","7","5","7","7","7","6","5","7","6","5","6","6","7","3","6","3","3","3","7","7","4","5","6","7","5","7","7","2","7","3","7","5","6","726468431867543552","徐","328","Female","[""好她"",""坏她"",""好我"",""坏我""]","[""强她"",""弱她"",""强我"",""弱我""]","","","","","","","","null","","","","","","","","","","key","null","16.668580152671552","960","489","j","false","nonmatch","img/diamond.png","弱我","强我","prac_ALT2_ability","practice_ability","","","","","","","","",""
"null","<span class='add_' style='color:yellow; font-size: 70px;'> 太慢! </span>","null","html-keyboard-response","11","379743","0.0-8.0-1.0-1.0-0.0-1.0","6","6","5","5","6","5","4","4","5","5","5","2","1","2","2","1","1","2","2","5","4","5","5","5","4","4","5","5","4","4","5","3","7","8","5","7","6","9","5","7","5","5","6","7","6","3","7","5","7","7","7","6","5","7","6","5","6","6","7","3","6","3","3","3","7","7","4","5","6","7","5","7","7","2","7","3","7","5","6","726468431867543552","徐","328","Female","[""好她"",""坏她"",""好我"",""坏我""]","[""强她"",""弱她"",""强我"",""弱我""]","","","","","","","","","","","","","","","","","","","","","","","","","","","","","","feedback_test","","","","","","","","",""
"322","","f","psychophysics","12","381072","0.0-8.0-1.0-1.0-0.0-0.1","6","6","5","5","6","5","4","4","5","5","5","2","1","2","2","1","1","2","2","5","4","5","5","5","4","4","5","5","4","4","5","3","7","8","5","7","6","9","5","7","5","5","6","7","6","3","7","5","7","7","7","6","5","7","6","5","6","6","7","3","6","3","3","3","7","7","4","5","6","7","5","7","7","2","7","3","7","5","6","726468431867543552","徐","328","Female","[""好她"",""坏她"",""好我"",""坏我""]","[""强她"",""弱她"",""强我"",""弱我""]","","","","","","","","match","","","","","","","","","","key","f","16.667324675324178","960","489","f","true","match","img/ellipse.png","弱她","弱她","prac_ALT2_ability","practice_ability","","","","","","","","",""
"null","<span style='color:GreenYellow; font-size: 70px;'>正确! </span>","null","html-keyboard-response","13","381576","0.0-8.0-1.0-1.0-0.0-1.1","6","6","5","5","6","5","4","4","5","5","5","2","1","2","2","1","1","2","2","5","4","5","5","5","4","4","5","5","4","4","5","3","7","8","5","7","6","9","5","7","5","5","6","7","6","3","7","5","7","7","7","6","5","7","6","5","6","6","7","3","6","3","3","3","7","7","4","5","6","7","5","7","7","2","7","3","7","5","6","726468431867543552","徐","328","Female","[""好她"",""坏她"",""好我"",""坏我""]","[""强她"",""弱她"",""强我"",""弱我""]","","","","","","","","","","","","","","","","","","","","","","","","","","","","","","feedback_test","","","","","","","","",""
"488","","j","psychophysics","14","383073","0.0-8.0-1.0-1.0-0.0-0.2","6","6","5","5","6","5","4","4","5","5","5","2","1","2","2","1","1","2","2","5","4","5","5","5","4","4","5","5","4","4","5","3","7","8","5","7","6","9","5","7","5","5","6","7","6","3","7","5","7","7","7","6","5","7","6","5","6","6","7","3","6","3","3","3","7","7","4","5","6","7","5","7","7","2","7","3","7","5","6","726468431867543552","徐","328","Female","[""好她"",""坏她"",""好我"",""坏我""]","[""强她"",""弱她"",""强我"",""弱我""]","","","","","","","","nonmatch","","","","","","","","","","key","j","16.666862068965433","960","489","f","false","match","img/diamond.png","强我","强我","prac_ALT2_ability","practice_ability","","","","","","","","",""
"null","<span style='color:red; font-size: 70px;'>错误! </span>","null","html-keyboard-response","15","383575","0.0-8.0-1.0-1.0-0.0-1.2","6","6","5","5","6","5","4","4","5","5","5","2","1","2","2","1","1","2","2","5","4","5","5","5","4","4","5","5","4","4","5","3","7","8","5","7","6","9","5","7","5","5","6","7","6","3","7","5","7","7","7","6","5","7","6","5","6","6","7","3","6","3","3","3","7","7","4","5","6","7","5","7","7","2","7","3","7","5","6","726468431867543552","徐","328","Female","[""好她"",""坏她"",""好我"",""坏我""]","[""强她"",""弱她"",""强我"",""弱我""]","","","","","","","","","","","","","","","","","","","","","","","","","","","","","","feedback_test","","","","","","","","",""
"284","","f","psychophysics","16","384872","0.0-8.0-1.0-1.0-0.0-0.3","6","6","5","5","6","5","4","4","5","5","5","2","1","2","2","1","1","2","2","5","4","5","5","5","4","4","5","5","4","4","5","3","7","8","5","7","6","9","5","7","5","5","6","7","6","3","7","5","7","7","7","6","5","7","6","5","6","6","7","3","6","3","3","3","7","7","4","5","6","7","5","7","7","2","7","3","7","5","6","726468431867543552","徐","328","Female","[""好她"",""坏她"",""好我"",""坏我""]","[""强她"",""弱她"",""强我"",""弱我""]","","","","","","","","match","","","","","","","","","","key","f","16.64571428571392","960","489","j","false","nonmatch","img/pentagon.png","弱她","强她","prac_ALT2_ability","practice_ability","","","","","","","","",""
"null","<span style='color:red; font-size: 70px;'>错误! </span>","null","html-keyboard-response","17","385375","0.0-8.0-1.0-1.0-0.0-1.3","6","6","5","5","6","5","4","4","5","5","5","2","1","2","2","1","1","2","2","5","4","5","5","5","4","4","5","5","4","4","5","3","7","8","5","7","6","9","5","7","5","5","6","7","6","3","7","5","7","7","7","6","5","7","6","5","6","6","7","3","6","3","3","3","7","7","4","5","6","7","5","7","7","2","7","3","7","5","6","726468431867543552","徐","328","Female","[""好她"",""坏她"",""好我"",""坏我""]","[""强她"",""弱她"",""强我"",""弱我""]","","","","","","","","","","","","","","","","","","","","","","","","","","","","","","feedback_test","","","","","","","","",""
"241","","j","psychophysics","18","386624","0.0-8.0-1.0-1.0-0.0-0.4","6","6","5","5","6","5","4","4","5","5","5","2","1","2","2","1","1","2","2","5","4","5","5","5","4","4","5","5","4","4","5","3","7","8","5","7","6","9","5","7","5","5","6","7","6","3","7","5","7","7","7","6","5","7","6","5","6","6","7","3","6","3","3","3","7","7","4","5","6","7","5","7","7","2","7","3","7","5","6","726468431867543552","徐","328","Female","[""好她"",""坏她"",""好我"",""坏我""]","[""强她"",""弱她"",""强我"",""弱我""]","","","","","","","","nonmatch","","","","","","","","","","key","j","16.926861111111066","960","489","j","true","nonmatch","img/ellipse.png","强我","弱她","prac_ALT2_ability","practice_ability","","","","","","","","",""
"null","<span style='color:GreenYellow; font-size: 70px;'>正确! </span>","null","html-keyboard-response","19","387127","0.0-8.0-1.0-1.0-0.0-1.4","6","6","5","5","6","5","4","4","5","5","5","2","1","2","2","1","1","2","2","5","4","5","5","5","4","4","5","5","4","4","5","3","7","8","5","7","6","9","5","7","5","5","6","7","6","3","7","5","7","7","7","6","5","7","6","5","6","6","7","3","6","3","3","3","7","7","4","5","6","7","5","7","7","2","7","3","7","5","6","726468431867543552","徐","328","Female","[""好她"",""坏她"",""好我"",""坏我""]","[""强她"",""弱她"",""强我"",""弱我""]","","","","","","","","","","","","","","","","","","","","","","","","","","","","","","feedback_test","","","","","","","","",""
"586","","j","psychophysics","20","388721","0.0-8.0-1.0-1.0-0.0-0.5","6","6","5","5","6","5","4","4","5","5","5","2","1","2","2","1","1","2","2","5","4","5","5","5","4","4","5","5","4","4","5","3","7","8","5","7","6","9","5","7","5","5","6","7","6","3","7","5","7","7","7","6","5","7","6","5","6","6","7","3","6","3","3","3","7","7","4","5","6","7","5","7","7","2","7","3","7","5","6","726468431867543552","徐","328","Female","[""好她"",""坏她"",""好我"",""坏我""]","[""强她"",""弱她"",""强我"",""弱我""]","","","","","","","","nonmatch","","","","","","","","","","key","j","16.711242105263455","960","489","j","true","nonmatch","img/pentagon.png","弱我","强她","prac_ALT2_ability","practice_ability","","","","","","","","",""
"null","<span style='color:GreenYellow; font-size: 70px;'>正确! </span>","null","html-keyboard-response","21","389223","0.0-8.0-1.0-1.0-0.0-1.5","6","6","5","5","6","5","4","4","5","5","5","2","1","2","2","1","1","2","2","5","4","5","5","5","4","4","5","5","4","4","5","3","7","8","5","7","6","9","5","7","5","5","6","7","6","3","7","5","7","7","7","6","5","7","6","5","6","6","7","3","6","3","3","3","7","7","4","5","6","7","5","7","7","2","7","3","7","5","6","726468431867543552","徐","328","Female","[""好她"",""坏她"",""好我"",""坏我""]","[""强她"",""弱她"",""强我"",""弱我""]","","","","","","","","","","","","","","","","","","","","","","","","","","","","","","feedback_test","","","","","","","","",""
"689","","j","psychophysics","22","390952","0.0-8.0-1.0-1.0-0.0-0.6","6","6","5","5","6","5","4","4","5","5","5","2","1","2","2","1","1","2","2","5","4","5","5","5","4","4","5","5","4","4","5","3","7","8","5","7","6","9","5","7","5","5","6","7","6","3","7","5","7","7","7","6","5","7","6","5","6","6","7","3","6","3","3","3","7","7","4","5","6","7","5","7","7","2","7","3","7","5","6","726468431867543552","徐","328","Female","[""好她"",""坏她"",""好我"",""坏我""]","[""强她"",""弱她"",""强我"",""弱我""]","","","","","","","","nonmatch","","","","","","","","","","key","j","16.66445098039249","960","489","f","false","match","img/ellipse.png","弱她","弱她","prac_ALT2_ability","practice_ability","","","","","","","","",""
"null","<span style='color:red; font-size: 70px;'>错误! </span>","null","html-keyboard-response","23","391456","0.0-8.0-1.0-1.0-0.0-1.6","6","6","5","5","6","5","4","4","5","5","5","2","1","2","2","1","1","2","2","5","4","5","5","5","4","4","5","5","4","4","5","3","7","8","5","7","6","9","5","7","5","5","6","7","6","3","7","5","7","7","7","6","5","7","6","5","6","6","7","3","6","3","3","3","7","7","4","5","6","7","5","7","7","2","7","3","7","5","6","726468431867543552","徐","328","Female","[""好她"",""坏她"",""好我"",""坏我""]","[""强她"",""弱她"",""强我"",""弱我""]","","","","","","","","","","","","","","","","","","","","","","","","","","","","","","feedback_test","","","","","","","","",""
"801","","j","psychophysics","24","393264","0.0-8.0-1.0-1.0-0.0-0.7","6","6","5","5","6","5","4","4","5","5","5","2","1","2","2","1","1","2","2","5","4","5","5","5","4","4","5","5","4","4","5","3","7","8","5","7","6","9","5","7","5","5","6","7","6","3","7","5","7","7","7","6","5","7","6","5","6","6","7","3","6","3","3","3","7","7","4","5","6","7","5","7","7","2","7","3","7","5","6","726468431867543552","徐","328","Female","[""好她"",""坏她"",""好我"",""坏我""]","[""强她"",""弱她"",""强我"",""弱我""]","","","","","","","","nonmatch","","","","","","","","","","key","j","16.603509433961797","960","489","j","true","nonmatch","img/diamond.png","弱她","强我","prac_ALT2_ability","practice_ability","","","","","","","","",""
"null","<span style='color:GreenYellow; font-size: 70px;'>正确! </span>","null","html-keyboard-response","25","393768","0.0-8.0-1.0-1.0-0.0-1.7","6","6","5","5","6","5","4","4","5","5","5","2","1","2","2","1","1","2","2","5","4","5","5","5","4","4","5","5","4","4","5","3","7","8","5","7","6","9","5","7","5","5","6","7","6","3","7","5","7","7","7","6","5","7","6","5","6","6","7","3","6","3","3","3","7","7","4","5","6","7","5","7","7","2","7","3","7","5","6","726468431867543552","徐","328","Female","[""好她"",""坏她"",""好我"",""坏我""]","[""强她"",""弱她"",""强我"",""弱我""]","","","","","","","","","","","","","","","","","","","","","","","","","","","","","","feedback_test","","","","","","","","",""
"674","","f","psychophysics","26","395452","0.0-8.0-1.0-1.0-0.0-0.8","6","6","5","5","6","5","4","4","5","5","5","2","1","2","2","1","1","2","2","5","4","5","5","5","4","4","5","5","4","4","5","3","7","8","5","7","6","9","5","7","5","5","6","7","6","3","7","5","7","7","7","6","5","7","6","5","6","6","7","3","6","3","3","3","7","7","4","5","6","7","5","7","7","2","7","3","7","5","6","726468431867543552","徐","328","Female","[""好她"",""坏她"",""好我"",""坏我""]","[""强她"",""弱她"",""强我"",""弱我""]","","","","","","","","match","","","","","","","","","","key","f","16.70442857142842","960","489","f","true","match","img/pentagon.png","强她","强她","prac_ALT2_ability","practice_ability","","","","","","","","",""
"null","<span style='color:GreenYellow; font-size: 70px;'>正确! </span>","null","html-keyboard-response","27","395960","0.0-8.0-1.0-1.0-0.0-1.8","6","6","5","5","6","5","4","4","5","5","5","2","1","2","2","1","1","2","2","5","4","5","5","5","4","4","5","5","4","4","5","3","7","8","5","7","6","9","5","7","5","5","6","7","6","3","7","5","7","7","7","6","5","7","6","5","6","6","7","3","6","3","3","3","7","7","4","5","6","7","5","7","7","2","7","3","7","5","6","726468431867543552","徐","328","Female","[""好她"",""坏她"",""好我"",""坏我""]","[""强她"",""弱她"",""强我"",""弱我""]","","","","","","","","","","","","","","","","","","","","","","","","","","","","","","feedback_test","","","","","","","","",""
"819","","j","psychophysics","28","397785","0.0-8.0-1.0-1.0-0.0-0.9","6","6","5","5","6","5","4","4","5","5","5","2","1","2","2","1","1","2","2","5","4","5","5","5","4","4","5","5","4","4","5","3","7","8","5","7","6","9","5","7","5","5","6","7","6","3","7","5","7","7","7","6","5","7","6","5","6","6","7","3","6","3","3","3","7","7","4","5","6","7","5","7","7","2","7","3","7","5","6","726468431867543552","徐","328","Female","[""好她"",""坏她"",""好我"",""坏我""]","[""强她"",""弱她"",""强我"",""弱我""]","","","","","","","","nonmatch","","","","","","","","","","key","j","16.664962962962885","960","489","f","false","match","img/diamond.png","强我","强我","prac_ALT2_ability","practice_ability","","","","","","","","",""
"null","<span style='color:red; font-size: 70px;'>错误! </span>","null","html-keyboard-response","29","398288","0.0-8.0-1.0-1.0-0.0-1.9","6","6","5","5","6","5","4","4","5","5","5","2","1","2","2","1","1","2","2","5","4","5","5","5","4","4","5","5","4","4","5","3","7","8","5","7","6","9","5","7","5","5","6","7","6","3","7","5","7","7","7","6","5","7","6","5","6","6","7","3","6","3","3","3","7","7","4","5","6","7","5","7","7","2","7","3","7","5","6","726468431867543552","徐","328","Female","[""好她"",""坏她"",""好我"",""坏我""]","[""强她"",""弱她"",""强我"",""弱我""]","","","","","","","","","","","","","","","","","","","","","","","","","","","","","","feedback_test","","","","","","","","",""
"752","","f","psychophysics","30","400048","0.0-8.0-1.0-1.0-0.0-0.10","6","6","5","5","6","5","4","4","5","5","5","2","1","2","2","1","1","2","2","5","4","5","5","5","4","4","5","5","4","4","5","3","7","8","5","7","6","9","5","7","5","5","6","7","6","3","7","5","7","7","7","6","5","7","6","5","6","6","7","3","6","3","3","3","7","7","4","5","6","7","5","7","7","2","7","3","7","5","6","726468431867543552","徐","328","Female","[""好她"",""坏她"",""好我"",""坏我""]","[""强她"",""弱她"",""强我"",""弱我""]","","","","","","","","match","","","","","","","","","","key","f","16.65289320388314","960","489","f","true","match","img/trapezoid.png","弱我","弱我","prac_ALT2_ability","practice_ability","","","","","","","","",""
"null","<span style='color:GreenYellow; font-size: 70px;'>正确! </span>","null","html-keyboard-response","31","400551","0.0-8.0-1.0-1.0-0.0-1.10","6","6","5","5","6","5","4","4","5","5","5","2","1","2","2","1","1","2","2","5","4","5","5","5","4","4","5","5","4","4","5","3","7","8","5","7","6","9","5","7","5","5","6","7","6","3","7","5","7","7","7","6","5","7","6","5","6","6","7","3","6","3","3","3","7","7","4","5","6","7","5","7","7","2","7","3","7","5","6","726468431867543552","徐","328","Female","[""好她"",""坏她"",""好我"",""坏我""]","[""强她"",""弱她"",""强我"",""弱我""]","","","","","","","","","","","","","","","","","","","","","","","","","","","","","","feedback_test","","","","","","","","",""
"614","","f","psychophysics","32","402174","0.0-8.0-1.0-1.0-0.0-0.11","6","6","5","5","6","5","4","4","5","5","5","2","1","2","2","1","1","2","2","5","4","5","5","5","4","4","5","5","4","4","5","3","7","8","5","7","6","9","5","7","5","5","6","7","6","3","7","5","7","7","7","6","5","7","6","5","6","6","7","3","6","3","3","3","7","7","4","5","6","7","5","7","7","2","7","3","7","5","6","726468431867543552","徐","328","Female","[""好她"",""坏她"",""好我"",""坏我""]","[""强她"",""弱她"",""强我"",""弱我""]","","","","","","","","match","","","","","","","","","","key","f","16.812389473684476","960","489","j","false","nonmatch","img/ellipse.png","弱我","弱她","prac_ALT2_ability","practice_ability","","","","","","","","",""
"null","<span style='color:red; font-size: 70px;'>错误! </span>","null","html-keyboard-response","33","402679","0.0-8.0-1.0-1.0-0.0-1.11","6","6","5","5","6","5","4","4","5","5","5","2","1","2","2","1","1","2","2","5","4","5","5","5","4","4","5","5","4","4","5","3","7","8","5","7","6","9","5","7","5","5","6","7","6","3","7","5","7","7","7","6","5","7","6","5","6","6","7","3","6","3","3","3","7","7","4","5","6","7","5","7","7","2","7","3","7","5","6","726468431867543552","徐","328","Female","[""好她"",""坏她"",""好我"",""坏我""]","[""强她"",""弱她"",""强我"",""弱我""]","","","","","","","","","","","","","","","","","","","","","","","","","","","","","","feedback_test","","","","","","","","",""
"877","","j","psychophysics","34","404562","0.0-8.0-1.0-1.0-0.0-0.12","6","6","5","5","6","5","4","4","5","5","5","2","1","2","2","1","1","2","2","5","4","5","5","5","4","4","5","5","4","4","5","3","7","8","5","7","6","9","5","7","5","5","6","7","6","3","7","5","7","7","7","6","5","7","6","5","6","6","7","3","6","3","3","3","7","7","4","5","6","7","5","7","7","2","7","3","7","5","6","726468431867543552","徐","328","Female","[""好她"",""坏她"",""好我"",""坏我""]","[""强她"",""弱她"",""强我"",""弱我""]","","","","","","","","nonmatch","","","","","","","","","","key","j","16.703663636363554","960","489","j","true","nonmatch","img/ellipse.png","强她","弱她","prac_ALT2_ability","practice_ability","","","","","","","","",""
"null","<span style='color:GreenYellow; font-size: 70px;'>正确! </span>","null","html-keyboard-response","35","405071","0.0-8.0-1.0-1.0-0.0-1.12","6","6","5","5","6","5","4","4","5","5","5","2","1","2","2","1","1","2","2","5","4","5","5","5","4","4","5","5","4","4","5","3","7","8","5","7","6","9","5","7","5","5","6","7","6","3","7","5","7","7","7","6","5","7","6","5","6","6","7","3","6","3","3","3","7","7","4","5","6","7","5","7","7","2","7","3","7","5","6","726468431867543552","徐","328","Female","[""好她"",""坏她"",""好我"",""坏我""]","[""强她"",""弱她"",""强我"",""弱我""]","","","","","","","","","","","","","","","","","","","","","","","","","","","","","","feedback_test","","","","","","","","",""
"896","","f","psychophysics","36","406977","0.0-8.0-1.0-1.0-0.0-0.13","6","6","5","5","6","5","4","4","5","5","5","2","1","2","2","1","1","2","2","5","4","5","5","5","4","4","5","5","4","4","5","3","7","8","5","7","6","9","5","7","5","5","6","7","6","3","7","5","7","7","7","6","5","7","6","5","6","6","7","3","6","3","3","3","7","7","4","5","6","7","5","7","7","2","7","3","7","5","6","726468431867543552","徐","328","Female","[""好她"",""坏她"",""好我"",""坏我""]","[""强她"",""弱她"",""强我"",""弱我""]","","","","","","","","match","","","","","","","","","","key","f","16.67481249999972","960","489","f","true","match","img/diamond.png","强我","强我","prac_ALT2_ability","practice_ability","","","","","","","","",""
"null","<span style='color:GreenYellow; font-size: 70px;'>正确! </span>","null","html-keyboard-response","37","407479","0.0-8.0-1.0-1.0-0.0-1.13","6","6","5","5","6","5","4","4","5","5","5","2","1","2","2","1","1","2","2","5","4","5","5","5","4","4","5","5","4","4","5","3","7","8","5","7","6","9","5","7","5","5","6","7","6","3","7","5","7","7","7","6","5","7","6","5","6","6","7","3","6","3","3","3","7","7","4","5","6","7","5","7","7","2","7","3","7","5","6","726468431867543552","徐","328","Female","[""好她"",""坏她"",""好我"",""坏我""]","[""强她"",""弱她"",""强我"",""弱我""]","","","","","","","","","","","","","","","","","","","","","","","","","","","","","","feedback_test","","","","","","","","",""
"781","","j","psychophysics","38","409264","0.0-8.0-1.0-1.0-0.0-0.14","6","6","5","5","6","5","4","4","5","5","5","2","1","2","2","1","1","2","2","5","4","5","5","5","4","4","5","5","4","4","5","3","7","8","5","7","6","9","5","7","5","5","6","7","6","3","7","5","7","7","7","6","5","7","6","5","6","6","7","3","6","3","3","3","7","7","4","5","6","7","5","7","7","2","7","3","7","5","6","726468431867543552","徐","328","Female","[""好她"",""坏她"",""好我"",""坏我""]","[""强她"",""弱她"",""强我"",""弱我""]","","","","","","","","nonmatch","","","","","","","","","","key","j","16.695153846153588","960","489","f","false","match","img/ellipse.png","弱她","弱她","prac_ALT2_ability","practice_ability","","","","","","","","",""
"null","<span style='color:red; font-size: 70px;'>错误! </span>","null","html-keyboard-response","39","409768","0.0-8.0-1.0-1.0-0.0-1.14","6","6","5","5","6","5","4","4","5","5","5","2","1","2","2","1","1","2","2","5","4","5","5","5","4","4","5","5","4","4","5","3","7","8","5","7","6","9","5","7","5","5","6","7","6","3","7","5","7","7","7","6","5","7","6","5","6","6","7","3","6","3","3","3","7","7","4","5","6","7","5","7","7","2","7","3","7","5","6","726468431867543552","徐","328","Female","[""好她"",""坏她"",""好我"",""坏我""]","[""强她"",""弱她"",""强我"",""弱我""]","","","","","","","","","","","","","","","","","","","","","","","","","","","","","","feedback_test","","","","","","","","",""
"737","","f","psychophysics","40","411513","0.0-8.0-1.0-1.0-0.0-0.15","6","6","5","5","6","5","4","4","5","5","5","2","1","2","2","1","1","2","2","5","4","5","5","5","4","4","5","5","4","4","5","3","7","8","5","7","6","9","5","7","5","5","6","7","6","3","7","5","7","7","7","6","5","7","6","5","6","6","7","3","6","3","3","3","7","7","4","5","6","7","5","7","7","2","7","3","7","5","6","726468431867543552","徐","328","Female","[""好她"",""坏她"",""好我"",""坏我""]","[""强她"",""弱她"",""强我"",""弱我""]","","","","","","","","match","","","","","","","","","","key","f","16.66382352941197","960","489","f","true","match","img/pentagon.png","强她","强她","prac_ALT2_ability","practice_ability","","","","","","","","",""
"null","<span style='color:GreenYellow; font-size: 70px;'>正确! </span>","null","html-keyboard-response","41","412015","0.0-8.0-1.0-1.0-0.0-1.15","6","6","5","5","6","5","4","4","5","5","5","2","1","2","2","1","1","2","2","5","4","5","5","5","4","4","5","5","4","4","5","3","7","8","5","7","6","9","5","7","5","5","6","7","6","3","7","5","7","7","7","6","5","7","6","5","6","6","7","3","6","3","3","3","7","7","4","5","6","7","5","7","7","2","7","3","7","5","6","726468431867543552","徐","328","Female","[""好她"",""坏她"",""好我"",""坏我""]","[""强她"",""弱她"",""强我"",""弱我""]","","","","","","","","","","","","","","","","","","","","","","","","","","","","","","feedback_test","","","","","","","","",""
"994","","j","psychophysics","42","414017","0.0-8.0-1.0-1.0-0.0-0.16","6","6","5","5","6","5","4","4","5","5","5","2","1","2","2","1","1","2","2","5","4","5","5","5","4","4","5","5","4","4","5","3","7","8","5","7","6","9","5","7","5","5","6","7","6","3","7","5","7","7","7","6","5","7","6","5","6","6","7","3","6","3","3","3","7","7","4","5","6","7","5","7","7","2","7","3","7","5","6","726468431867543552","徐","328","Female","[""好她"",""坏她"",""好我"",""坏我""]","[""强她"",""弱她"",""强我"",""弱我""]","","","","","","","","nonmatch","","","","","","","","","","key","j","16.637432203389867","960","489","j","true","nonmatch","img/trapezoid.png","强她","弱我","prac_ALT2_ability","practice_ability","","","","","","","","",""
"null","<span style='color:GreenYellow; font-size: 70px;'>正确! </span>","null","html-keyboard-response","43","414520","0.0-8.0-1.0-1.0-0.0-1.16","6","6","5","5","6","5","4","4","5","5","5","2","1","2","2","1","1","2","2","5","4","5","5","5","4","4","5","5","4","4","5","3","7","8","5","7","6","9","5","7","5","5","6","7","6","3","7","5","7","7","7","6","5","7","6","5","6","6","7","3","6","3","3","3","7","7","4","5","6","7","5","7","7","2","7","3","7","5","6","726468431867543552","徐","328","Female","[""好她"",""坏她"",""好我"",""坏我""]","[""强她"",""弱她"",""强我"",""弱我""]","","","","","","","","","","","","","","","","","","","","","","","","","","","","","","feedback_test","","","","","","","","",""
"810","","f","psychophysics","44","416338","0.0-8.0-1.0-1.0-0.0-0.17","6","6","5","5","6","5","4","4","5","5","5","2","1","2","2","1","1","2","2","5","4","5","5","5","4","4","5","5","4","4","5","3","7","8","5","7","6","9","5","7","5","5","6","7","6","3","7","5","7","7","7","6","5","7","6","5","6","6","7","3","6","3","3","3","7","7","4","5","6","7","5","7","7","2","7","3","7","5","6","726468431867543552","徐","328","Female","[""好她"",""坏她"",""好我"",""坏我""]","[""强她"",""弱她"",""强我"",""弱我""]","","","","","","","","match","","","","","","","","","","key","f","16.643242990654116","960","489","j","false","nonmatch","img/trapezoid.png","弱她","弱我","prac_ALT2_ability","practice_ability","","","","","","","","",""
"null","<span style='color:red; font-size: 70px;'>错误! </span>","null","html-keyboard-response","45","416840","0.0-8.0-1.0-1.0-0.0-1.17","6","6","5","5","6","5","4","4","5","5","5","2","1","2","2","1","1","2","2","5","4","5","5","5","4","4","5","5","4","4","5","3","7","8","5","7","6","9","5","7","5","5","6","7","6","3","7","5","7","7","7","6","5","7","6","5","6","6","7","3","6","3","3","3","7","7","4","5","6","7","5","7","7","2","7","3","7","5","6","726468431867543552","徐","328","Female","[""好她"",""坏她"",""好我"",""坏我""]","[""强她"",""弱她"",""强我"",""弱我""]","","","","","","","","","","","","","","","","","","","","","","","","","","","","","","feedback_test","","","","","","","","",""
"775","","f","psychophysics","46","418624","0.0-8.0-1.0-1.0-0.0-0.18","6","6","5","5","6","5","4","4","5","5","5","2","1","2","2","1","1","2","2","5","4","5","5","5","4","4","5","5","4","4","5","3","7","8","5","7","6","9","5","7","5","5","6","7","6","3","7","5","7","7","7","6","5","7","6","5","6","6","7","3","6","3","3","3","7","7","4","5","6","7","5","7","7","2","7","3","7","5","6","726468431867543552","徐","328","Female","[""好她"",""坏她"",""好我"",""坏我""]","[""强她"",""弱她"",""强我"",""弱我""]","","","","","","","","match","","","","","","","","","","key","f","16.64557142857174","960","489","f","true","match","img/trapezoid.png","弱我","弱我","prac_ALT2_ability","practice_ability","","","","","","","","",""
"null","<span style='color:GreenYellow; font-size: 70px;'>正确! </span>","null","html-keyboard-response","47","419128","0.0-8.0-1.0-1.0-0.0-1.18","6","6","5","5","6","5","4","4","5","5","5","2","1","2","2","1","1","2","2","5","4","5","5","5","4","4","5","5","4","4","5","3","7","8","5","7","6","9","5","7","5","5","6","7","6","3","7","5","7","7","7","6","5","7","6","5","6","6","7","3","6","3","3","3","7","7","4","5","6","7","5","7","7","2","7","3","7","5","6","726468431867543552","徐","328","Female","[""好她"",""坏她"",""好我"",""坏我""]","[""强她"",""弱她"",""强我"",""弱我""]","","","","","","","","","","","","","","","","","","","","","","","","","","","","","","feedback_test","","","","","","","","",""
"684","","f","psychophysics","48","420817","0.0-8.0-1.0-1.0-0.0-0.19","6","6","5","5","6","5","4","4","5","5","5","2","1","2","2","1","1","2","2","5","4","5","5","5","4","4","5","5","4","4","5","3","7","8","5","7","6","9","5","7","5","5","6","7","6","3","7","5","7","7","7","6","5","7","6","5","6","6","7","3","6","3","3","3","7","7","4","5","6","7","5","7","7","2","7","3","7","5","6","726468431867543552","徐","328","Female","[""好她"",""坏她"",""好我"",""坏我""]","[""强她"",""弱她"",""强我"",""弱我""]","","","","","","","","match","","","","","","","","","","key","f","16.66885148514855","960","489","j","false","nonmatch","img/pentagon.png","强我","强她","prac_ALT2_ability","practice_ability","","","","","","","","",""
"null","<span style='color:red; font-size: 70px;'>错误! </span>","null","html-keyboard-response","49","421321","0.0-8.0-1.0-1.0-0.0-1.19","6","6","5","5","6","5","4","4","5","5","5","2","1","2","2","1","1","2","2","5","4","5","5","5","4","4","5","5","4","4","5","3","7","8","5","7","6","9","5","7","5","5","6","7","6","3","7","5","7","7","7","6","5","7","6","5","6","6","7","3","6","3","3","3","7","7","4","5","6","7","5","7","7","2","7","3","7","5","6","726468431867543552","徐","328","Female","[""好她"",""坏她"",""好我"",""坏我""]","[""强她"",""弱她"",""强我"",""弱我""]","","","","","","","","","","","","","","","","","","","","","","","","","","","","","","feedback_test","","","","","","","","",""
"736","","f","psychophysics","50","423065","0.0-8.0-1.0-1.0-0.0-0.20","6","6","5","5","6","5","4","4","5","5","5","2","1","2","2","1","1","2","2","5","4","5","5","5","4","4","5","5","4","4","5","3","7","8","5","7","6","9","5","7","5","5","6","7","6","3","7","5","7","7","7","6","5","7","6","5","6","6","7","3","6","3","3","3","7","7","4","5","6","7","5","7","7","2","7","3","7","5","6","726468431867543552","徐","328","Female","[""好她"",""坏她"",""好我"",""坏我""]","[""强她"",""弱她"",""强我"",""弱我""]","","","","","","","","match","","","","","","","","","","key","f","16.660333333333256","960","489","j","false","nonmatch","img/trapezoid.png","强我","弱我","prac_ALT2_ability","practice_ability","","","","","","","","",""
"null","<span style='color:red; font-size: 70px;'>错误! </span>","null","html-keyboard-response","51","423569","0.0-8.0-1.0-1.0-0.0-1.20","6","6","5","5","6","5","4","4","5","5","5","2","1","2","2","1","1","2","2","5","4","5","5","5","4","4","5","5","4","4","5","3","7","8","5","7","6","9","5","7","5","5","6","7","6","3","7","5","7","7","7","6","5","7","6","5","6","6","7","3","6","3","3","3","7","7","4","5","6","7","5","7","7","2","7","3","7","5","6","726468431867543552","徐","328","Female","[""好她"",""坏她"",""好我"",""坏我""]","[""强她"",""弱她"",""强我"",""弱我""]","","","","","","","","","","","","","","","","","","","","","","","","","","","","","","feedback_test","","","","","","","","",""
"648","","f","psychophysics","52","425224","0.0-8.0-1.0-1.0-0.0-0.21","6","6","5","5","6","5","4","4","5","5","5","2","1","2","2","1","1","2","2","5","4","5","5","5","4","4","5","5","4","4","5","3","7","8","5","7","6","9","5","7","5","5","6","7","6","3","7","5","7","7","7","6","5","7","6","5","6","6","7","3","6","3","3","3","7","7","4","5","6","7","5","7","7","2","7","3","7","5","6","726468431867543552","徐","328","Female","[""好她"",""坏她"",""好我"",""坏我""]","[""强她"",""弱她"",""强我"",""弱我""]","","","","","","","","match","","","","","","","","","","key","f","16.668195876288685","960","489","j","false","nonmatch","img/diamond.png","强她","强我","prac_ALT2_ability","practice_ability","","","","","","","","",""
"null","<span style='color:red; font-size: 70px;'>错误! </span>","null","html-keyboard-response","53","425729","0.0-8.0-1.0-1.0-0.0-1.21","6","6","5","5","6","5","4","4","5","5","5","2","1","2","2","1","1","2","2","5","4","5","5","5","4","4","5","5","4","4","5","3","7","8","5","7","6","9","5","7","5","5","6","7","6","3","7","5","7","7","7","6","5","7","6","5","6","6","7","3","6","3","3","3","7","7","4","5","6","7","5","7","7","2","7","3","7","5","6","726468431867543552","徐","328","Female","[""好她"",""坏她"",""好我"",""坏我""]","[""强她"",""弱她"",""强我"",""弱我""]","","","","","","","","","","","","","","","","","","","","","","","","","","","","","","feedback_test","","","","","","","","",""
"685","","f","psychophysics","54","427417","0.0-8.0-1.0-1.0-0.0-0.22","6","6","5","5","6","5","4","4","5","5","5","2","1","2","2","1","1","2","2","5","4","5","5","5","4","4","5","5","4","4","5","3","7","8","5","7","6","9","5","7","5","5","6","7","6","3","7","5","7","7","7","6","5","7","6","5","6","6","7","3","6","3","3","3","7","7","4","5","6","7","5","7","7","2","7","3","7","5","6","726468431867543552","徐","328","Female","[""好她"",""坏她"",""好我"",""坏我""]","[""强她"",""弱她"",""强我"",""弱我""]","","","","","","","","match","","","","","","","","","","key","f","16.680757575757763","960","489","f","true","match","img/trapezoid.png","弱我","弱我","prac_ALT2_ability","practice_ability","","","","","","","","",""
"null","<span style='color:GreenYellow; font-size: 70px;'>正确! </span>","null","html-keyboard-response","55","427922","0.0-8.0-1.0-1.0-0.0-1.22","6","6","5","5","6","5","4","4","5","5","5","2","1","2","2","1","1","2","2","5","4","5","5","5","4","4","5","5","4","4","5","3","7","8","5","7","6","9","5","7","5","5","6","7","6","3","7","5","7","7","7","6","5","7","6","5","6","6","7","3","6","3","3","3","7","7","4","5","6","7","5","7","7","2","7","3","7","5","6","726468431867543552","徐","328","Female","[""好她"",""坏她"",""好我"",""坏我""]","[""强她"",""弱她"",""强我"",""弱我""]","","","","","","","","","","","","","","","","","","","","","","","","","","","","","","feedback_test","","","","","","","","",""
"1112","","f","psychophysics","56","430041","0.0-8.0-1.0-1.0-0.0-0.23","6","6","5","5","6","5","4","4","5","5","5","2","1","2","2","1","1","2","2","5","4","5","5","5","4","4","5","5","4","4","5","3","7","8","5","7","6","9","5","7","5","5","6","7","6","3","7","5","7","7","7","6","5","7","6","5","6","6","7","3","6","3","3","3","7","7","4","5","6","7","5","7","7","2","7","3","7","5","6","726468431867543552","徐","328","Female","[""好她"",""坏她"",""好我"",""坏我""]","[""强她"",""弱她"",""强我"",""弱我""]","","","","","","","","match","","","","","","","","","","key","f","16.6675839999998","960","489","f","true","match","img/pentagon.png","强她","强她","prac_ALT2_ability","practice_ability","","","","","","","","",""
"null","<span style='color:GreenYellow; font-size: 70px;'>正确! </span>","null","html-keyboard-response","57","430544","0.0-8.0-1.0-1.0-0.0-1.23","6","6","5","5","6","5","4","4","5","5","5","2","1","2","2","1","1","2","2","5","4","5","5","5","4","4","5","5","4","4","5","3","7","8","5","7","6","9","5","7","5","5","6","7","6","3","7","5","7","7","7","6","5","7","6","5","6","6","7","3","6","3","3","3","7","7","4","5","6","7","5","7","7","2","7","3","7","5","6","726468431867543552","徐","328","Female","[""好她"",""坏她"",""好我"",""坏我""]","[""强她"",""弱她"",""强我"",""弱我""]","","","","","","","","","","","","","","","","","","","","","","","","","","","","","","feedback_test","","","","","","","","",""
"753","","j","psychophysics","58","432305","0.0-8.0-1.0-1.0-0.0-0.24","6","6","5","5","6","5","4","4","5","5","5","2","1","2","2","1","1","2","2","5","4","5","5","5","4","4","5","5","4","4","5","3","7","8","5","7","6","9","5","7","5","5","6","7","6","3","7","5","7","7","7","6","5","7","6","5","6","6","7","3","6","3","3","3","7","7","4","5","6","7","5","7","7","2","7","3","7","5","6","726468431867543552","徐","328","Female","[""好她"",""坏她"",""好我"",""坏我""]","[""强她"",""弱她"",""强我"",""弱我""]","","","","","","","","nonmatch","","","","","","","","","","key","j","16.69276699029108","960","489","j","true","nonmatch","img/ellipse.png","强我","弱她","prac_ALT2_ability","practice_ability","","","","","","","","",""
"null","<span style='color:GreenYellow; font-size: 70px;'>正确! </span>","null","html-keyboard-response","59","432808","0.0-8.0-1.0-1.0-0.0-1.24","6","6","5","5","6","5","4","4","5","5","5","2","1","2","2","1","1","2","2","5","4","5","5","5","4","4","5","5","4","4","5","3","7","8","5","7","6","9","5","7","5","5","6","7","6","3","7","5","7","7","7","6","5","7","6","5","6","6","7","3","6","3","3","3","7","7","4","5","6","7","5","7","7","2","7","3","7","5","6","726468431867543552","徐","328","Female","[""好她"",""坏她"",""好我"",""坏我""]","[""强她"",""弱她"",""强我"",""弱我""]","","","","","","","","","","","","","","","","","","","","","","","","","","","","","","feedback_test","","","","","","","","",""
"835","","j","psychophysics","60","434649","0.0-8.0-1.0-1.0-0.0-0.25","6","6","5","5","6","5","4","4","5","5","5","2","1","2","2","1","1","2","2","5","4","5","5","5","4","4","5","5","4","4","5","3","7","8","5","7","6","9","5","7","5","5","6","7","6","3","7","5","7","7","7","6","5","7","6","5","6","6","7","3","6","3","3","3","7","7","4","5","6","7","5","7","7","2","7","3","7","5","6","726468431867543552","徐","328","Female","[""好她"",""坏她"",""好我"",""坏我""]","[""强她"",""弱她"",""强我"",""弱我""]","","","","","","","","nonmatch","","","","","","","","","","key","j","16.654559633027603","960","489","j","true","nonmatch","img/diamond.png","弱她","强我","prac_ALT2_ability","practice_ability","","","","","","","","",""
"null","<span style='color:GreenYellow; font-size: 70px;'>正确! </span>","null","html-keyboard-response","61","435152","0.0-8.0-1.0-1.0-0.0-1.25","6","6","5","5","6","5","4","4","5","5","5","2","1","2","2","1","1","2","2","5","4","5","5","5","4","4","5","5","4","4","5","3","7","8","5","7","6","9","5","7","5","5","6","7","6","3","7","5","7","7","7","6","5","7","6","5","6","6","7","3","6","3","3","3","7","7","4","5","6","7","5","7","7","2","7","3","7","5","6","726468431867543552","徐","328","Female","[""好她"",""坏她"",""好我"",""坏我""]","[""强她"",""弱她"",""强我"",""弱我""]","","","","","","","","","","","","","","","","","","","","","","","","","","","","","","feedback_test","","","","","","","","",""
"792","","j","psychophysics","62","436953","0.0-8.0-1.0-1.0-0.0-0.26","6","6","5","5","6","5","4","4","5","5","5","2","1","2","2","1","1","2","2","5","4","5","5","5","4","4","5","5","4","4","5","3","7","8","5","7","6","9","5","7","5","5","6","7","6","3","7","5","7","7","7","6","5","7","6","5","6","6","7","3","6","3","3","3","7","7","4","5","6","7","5","7","7","2","7","3","7","5","6","726468431867543552","徐","328","Female","[""好她"",""坏她"",""好我"",""坏我""]","[""强她"",""弱她"",""强我"",""弱我""]","","","","","","","","nonmatch","","","","","","","","","","key","j","16.717566037735626","960","489","j","true","nonmatch","img/pentagon.png","弱她","强她","prac_ALT2_ability","practice_ability","","","","","","","","",""
"null","<span style='color:GreenYellow; font-size: 70px;'>正确! </span>","null","html-keyboard-response","63","437456","0.0-8.0-1.0-1.0-0.0-1.26","6","6","5","5","6","5","4","4","5","5","5","2","1","2","2","1","1","2","2","5","4","5","5","5","4","4","5","5","4","4","5","3","7","8","5","7","6","9","5","7","5","5","6","7","6","3","7","5","7","7","7","6","5","7","6","5","6","6","7","3","6","3","3","3","7","7","4","5","6","7","5","7","7","2","7","3","7","5","6","726468431867543552","徐","328","Female","[""好她"",""坏她"",""好我"",""坏我""]","[""强她"",""弱她"",""强我"",""弱我""]","","","","","","","","","","","","","","","","","","","","","","","","","","","","","","feedback_test","","","","","","","","",""
"633","","f","psychophysics","64","439097","0.0-8.0-1.0-1.0-0.0-0.27","6","6","5","5","6","5","4","4","5","5","5","2","1","2","2","1","1","2","2","5","4","5","5","5","4","4","5","5","4","4","5","3","7","8","5","7","6","9","5","7","5","5","6","7","6","3","7","5","7","7","7","6","5","7","6","5","6","6","7","3","6","3","3","3","7","7","4","5","6","7","5","7","7","2","7","3","7","5","6","726468431867543552","徐","328","Female","[""好她"",""坏她"",""好我"",""坏我""]","[""强她"",""弱她"",""强我"",""弱我""]","","","","","","","","match","","","","","","","","","","key","f","16.609329896907024","960","489","f","true","match","img/ellipse.png","弱她","弱她","prac_ALT2_ability","practice_ability","","","","","","","","",""
"null","<span style='color:GreenYellow; font-size: 70px;'>正确! </span>","null","html-keyboard-response","65","439600","0.0-8.0-1.0-1.0-0.0-1.27","6","6","5","5","6","5","4","4","5","5","5","2","1","2","2","1","1","2","2","5","4","5","5","5","4","4","5","5","4","4","5","3","7","8","5","7","6","9","5","7","5","5","6","7","6","3","7","5","7","7","7","6","5","7","6","5","6","6","7","3","6","3","3","3","7","7","4","5","6","7","5","7","7","2","7","3","7","5","6","726468431867543552","徐","328","Female","[""好她"",""坏她"",""好我"",""坏我""]","[""强她"",""弱她"",""强我"",""弱我""]","","","","","","","","","","","","","","","","","","","","","","","","","","","","","","feedback_test","","","","","","","","",""
"793","","f","psychophysics","66","441401","0.0-8.0-1.0-1.0-0.0-0.28","6","6","5","5","6","5","4","4","5","5","5","2","1","2","2","1","1","2","2","5","4","5","5","5","4","4","5","5","4","4","5","3","7","8","5","7","6","9","5","7","5","5","6","7","6","3","7","5","7","7","7","6","5","7","6","5","6","6","7","3","6","3","3","3","7","7","4","5","6","7","5","7","7","2","7","3","7","5","6","726468431867543552","徐","328","Female","[""好她"",""坏她"",""好我"",""坏我""]","[""强她"",""弱她"",""强我"",""弱我""]","","","","","","","","match","","","","","","","","","","key","f","16.71223364486011","960","489","f","true","match","img/trapezoid.png","弱我","弱我","prac_ALT2_ability","practice_ability","","","","","","","","",""
"null","<span style='color:GreenYellow; font-size: 70px;'>正确! </span>","null","html-keyboard-response","67","441905","0.0-8.0-1.0-1.0-0.0-1.28","6","6","5","5","6","5","4","4","5","5","5","2","1","2","2","1","1","2","2","5","4","5","5","5","4","4","5","5","4","4","5","3","7","8","5","7","6","9","5","7","5","5","6","7","6","3","7","5","7","7","7","6","5","7","6","5","6","6","7","3","6","3","3","3","7","7","4","5","6","7","5","7","7","2","7","3","7","5","6","726468431867543552","徐","328","Female","[""好她"",""坏她"",""好我"",""坏我""]","[""强她"",""弱她"",""强我"",""弱我""]","","","","","","","","","","","","","","","","","","","","","","","","","","","","","","feedback_test","","","","","","","","",""
"712","","f","psychophysics","68","443625","0.0-8.0-1.0-1.0-0.0-0.29","6","6","5","5","6","5","4","4","5","5","5","2","1","2","2","1","1","2","2","5","4","5","5","5","4","4","5","5","4","4","5","3","7","8","5","7","6","9","5","7","5","5","6","7","6","3","7","5","7","7","7","6","5","7","6","5","6","6","7","3","6","3","3","3","7","7","4","5","6","7","5","7","7","2","7","3","7","5","6","726468431867543552","徐","328","Female","[""好她"",""坏她"",""好我"",""坏我""]","[""强她"",""弱她"",""强我"",""弱我""]","","","","","","","","match","","","","","","","","","","key","f","16.648699999999952","960","489","j","false","nonmatch","img/trapezoid.png","强她","弱我","prac_ALT2_ability","practice_ability","","","","","","","","",""
"null","<span style='color:red; font-size: 70px;'>错误! </span>","null","html-keyboard-response","69","444129","0.0-8.0-1.0-1.0-0.0-1.29","6","6","5","5","6","5","4","4","5","5","5","2","1","2","2","1","1","2","2","5","4","5","5","5","4","4","5","5","4","4","5","3","7","8","5","7","6","9","5","7","5","5","6","7","6","3","7","5","7","7","7","6","5","7","6","5","6","6","7","3","6","3","3","3","7","7","4","5","6","7","5","7","7","2","7","3","7","5","6","726468431867543552","徐","328","Female","[""好她"",""坏她"",""好我"",""坏我""]","[""强她"",""弱她"",""强我"",""弱我""]","","","","","","","","","","","","","","","","","","","","","","","","","","","","","","feedback_test","","","","","","","","",""
"468","","j","psychophysics","70","445601","0.0-8.0-1.0-1.0-0.0-0.30","6","6","5","5","6","5","4","4","5","5","5","2","1","2","2","1","1","2","2","5","4","5","5","5","4","4","5","5","4","4","5","3","7","8","5","7","6","9","5","7","5","5","6","7","6","3","7","5","7","7","7","6","5","7","6","5","6","6","7","3","6","3","3","3","7","7","4","5","6","7","5","7","7","2","7","3","7","5","6","726468431867543552","徐","328","Female","[""好她"",""坏她"",""好我"",""坏我""]","[""强她"",""弱她"",""强我"",""弱我""]","","","","","","","","nonmatch","","","","","","","","","","key","j","16.872999999999763","960","489","f","false","match","img/pentagon.png","强她","强她","prac_ALT2_ability","practice_ability","","","","","","","","",""
"null","<span style='color:red; font-size: 70px;'>错误! </span>","null","html-keyboard-response","71","446105","0.0-8.0-1.0-1.0-0.0-1.30","6","6","5","5","6","5","4","4","5","5","5","2","1","2","2","1","1","2","2","5","4","5","5","5","4","4","5","5","4","4","5","3","7","8","5","7","6","9","5","7","5","5","6","7","6","3","7","5","7","7","7","6","5","7","6","5","6","6","7","3","6","3","3","3","7","7","4","5","6","7","5","7","7","2","7","3","7","5","6","726468431867543552","徐","328","Female","[""好她"",""坏她"",""好我"",""坏我""]","[""强她"",""弱她"",""强我"",""弱我""]","","","","","","","","","","","","","","","","","","","","","","","","","","","","","","feedback_test","","","","","","","","",""
"758","","f","psychophysics","72","447873","0.0-8.0-1.0-1.0-0.0-0.31","6","6","5","5","6","5","4","4","5","5","5","2","1","2","2","1","1","2","2","5","4","5","5","5","4","4","5","5","4","4","5","3","7","8","5","7","6","9","5","7","5","5","6","7","6","3","7","5","7","7","7","6","5","7","6","5","6","6","7","3","6","3","3","3","7","7","4","5","6","7","5","7","7","2","7","3","7","5","6","726468431867543552","徐","328","Female","[""好她"",""坏她"",""好我"",""坏我""]","[""强她"",""弱她"",""强我"",""弱我""]","","","","","","","","match","","","","","","","","","","key","f","16.704485436892973","960","489","f","true","match","img/ellipse.png","弱她","弱她","prac_ALT2_ability","practice_ability","","","","","","","","",""
"null","<span style='color:GreenYellow; font-size: 70px;'>正确! </span>","null","html-keyboard-response","73","448377","0.0-8.0-1.0-1.0-0.0-1.31","6","6","5","5","6","5","4","4","5","5","5","2","1","2","2","1","1","2","2","5","4","5","5","5","4","4","5","5","4","4","5","3","7","8","5","7","6","9","5","7","5","5","6","7","6","3","7","5","7","7","7","6","5","7","6","5","6","6","7","3","6","3","3","3","7","7","4","5","6","7","5","7","7","2","7","3","7","5","6","726468431867543552","徐","328","Female","[""好她"",""坏她"",""好我"",""坏我""]","[""强她"",""弱她"",""强我"",""弱我""]","","","","","","","","","","","","","","","","","","","","","","","","","","","","","","feedback_test","","","","","","","","",""
"829","","f","psychophysics","74","450209","0.0-8.0-1.0-1.0-0.0-0.32","6","6","5","5","6","5","4","4","5","5","5","2","1","2","2","1","1","2","2","5","4","5","5","5","4","4","5","5","4","4","5","3","7","8","5","7","6","9","5","7","5","5","6","7","6","3","7","5","7","7","7","6","5","7","6","5","6","6","7","3","6","3","3","3","7","7","4","5","6","7","5","7","7","2","7","3","7","5","6","726468431867543552","徐","328","Female","[""好她"",""坏她"",""好我"",""坏我""]","[""强她"",""弱她"",""强我"",""弱我""]","","","","","","","","match","","","","","","","","","","key","f","16.776663551401896","960","489","j","false","nonmatch","img/diamond.png","弱我","强我","prac_ALT2_ability","practice_ability","","","","","","","","",""
"null","<span style='color:red; font-size: 70px;'>错误! </span>","null","html-keyboard-response","75","450713","0.0-8.0-1.0-1.0-0.0-1.32","6","6","5","5","6","5","4","4","5","5","5","2","1","2","2","1","1","2","2","5","4","5","5","5","4","4","5","5","4","4","5","3","7","8","5","7","6","9","5","7","5","5","6","7","6","3","7","5","7","7","7","6","5","7","6","5","6","6","7","3","6","3","3","3","7","7","4","5","6","7","5","7","7","2","7","3","7","5","6","726468431867543552","徐","328","Female","[""好她"",""坏她"",""好我"",""坏我""]","[""强她"",""弱她"",""强我"",""弱我""]","","","","","","","","","","","","","","","","","","","","","","","","","","","","","","feedback_test","","","","","","","","",""
"584","","f","psychophysics","76","452304","0.0-8.0-1.0-1.0-0.0-0.33","6","6","5","5","6","5","4","4","5","5","5","2","1","2","2","1","1","2","2","5","4","5","5","5","4","4","5","5","4","4","5","3","7","8","5","7","6","9","5","7","5","5","6","7","6","3","7","5","7","7","7","6","5","7","6","5","6","6","7","3","6","3","3","3","7","7","4","5","6","7","5","7","7","2","7","3","7","5","6","726468431867543552","徐","328","Female","[""好她"",""坏她"",""好我"",""坏我""]","[""强她"",""弱她"",""强我"",""弱我""]","","","","","","","","match","","","","","","","","","","key","f","16.5988404255322","960","489","f","true","match","img/ellipse.png","弱她","弱她","prac_ALT2_ability","practice_ability","","","","","","","","",""
"null","<span style='color:GreenYellow; font-size: 70px;'>正确! </span>","null","html-keyboard-response","77","452809","0.0-8.0-1.0-1.0-0.0-1.33","6","6","5","5","6","5","4","4","5","5","5","2","1","2","2","1","1","2","2","5","4","5","5","5","4","4","5","5","4","4","5","3","7","8","5","7","6","9","5","7","5","5","6","7","6","3","7","5","7","7","7","6","5","7","6","5","6","6","7","3","6","3","3","3","7","7","4","5","6","7","5","7","7","2","7","3","7","5","6","726468431867543552","徐","328","Female","[""好她"",""坏她"",""好我"",""坏我""]","[""强她"",""弱她"",""强我"",""弱我""]","","","","","","","","","","","","","","","","","","","","","","","","","","","","","","feedback_test","","","","","","","","",""
"657","","j","psychophysics","78","454472","0.0-8.0-1.0-1.0-0.0-0.34","6","6","5","5","6","5","4","4","5","5","5","2","1","2","2","1","1","2","2","5","4","5","5","5","4","4","5","5","4","4","5","3","7","8","5","7","6","9","5","7","5","5","6","7","6","3","7","5","7","7","7","6","5","7","6","5","6","6","7","3","6","3","3","3","7","7","4","5","6","7","5","7","7","2","7","3","7","5","6","726468431867543552","徐","328","Female","[""好她"",""坏她"",""好我"",""坏我""]","[""强她"",""弱她"",""强我"",""弱我""]","","","","","","","","nonmatch","","","","","","","","","","key","j","16.705387755102308","960","489","j","true","nonmatch","img/ellipse.png","强她","弱她","prac_ALT2_ability","practice_ability","","","","","","","","",""
"null","<span style='color:GreenYellow; font-size: 70px;'>正确! </span>","null","html-keyboard-response","79","454976","0.0-8.0-1.0-1.0-0.0-1.34","6","6","5","5","6","5","4","4","5","5","5","2","1","2","2","1","1","2","2","5","4","5","5","5","4","4","5","5","4","4","5","3","7","8","5","7","6","9","5","7","5","5","6","7","6","3","7","5","7","7","7","6","5","7","6","5","6","6","7","3","6","3","3","3","7","7","4","5","6","7","5","7","7","2","7","3","7","5","6","726468431867543552","徐","328","Female","[""好她"",""坏她"",""好我"",""坏我""]","[""强她"",""弱她"",""强我"",""弱我""]","","","","","","","","","","","","","","","","","","","","","","","","","","","","","","feedback_test","","","","","","","","",""
"920","","f","psychophysics","80","456900","0.0-8.0-1.0-1.0-0.0-0.35","6","6","5","5","6","5","4","4","5","5","5","2","1","2","2","1","1","2","2","5","4","5","5","5","4","4","5","5","4","4","5","3","7","8","5","7","6","9","5","7","5","5","6","7","6","3","7","5","7","7","7","6","5","7","6","5","6","6","7","3","6","3","3","3","7","7","4","5","6","7","5","7","7","2","7","3","7","5","6","726468431867543552","徐","328","Female","[""好她"",""坏她"",""好我"",""坏我""]","[""强她"",""弱她"",""强我"",""弱我""]","","","","","","","","match","","","","","","","","","","key","f","16.702026548672805","960","489","f","true","match","img/diamond.png","强我","强我","prac_ALT2_ability","practice_ability","","","","","","","","",""
"null","<span style='color:GreenYellow; font-size: 70px;'>正确! </span>","null","html-keyboard-response","81","457408","0.0-8.0-1.0-1.0-0.0-1.35","6","6","5","5","6","5","4","4","5","5","5","2","1","2","2","1","1","2","2","5","4","5","5","5","4","4","5","5","4","4","5","3","7","8","5","7","6","9","5","7","5","5","6","7","6","3","7","5","7","7","7","6","5","7","6","5","6","6","7","3","6","3","3","3","7","7","4","5","6","7","5","7","7","2","7","3","7","5","6","726468431867543552","徐","328","Female","[""好她"",""坏她"",""好我"",""坏我""]","[""强她"",""弱她"",""强我"",""弱我""]","","","","","","","","","","","","","","","","","","","","","","","","","","","","","","feedback_test","","","","","","","","",""
"809","","f","psychophysics","82","459225","0.0-8.0-1.0-1.0-0.0-0.36","6","6","5","5","6","5","4","4","5","5","5","2","1","2","2","1","1","2","2","5","4","5","5","5","4","4","5","5","4","4","5","3","7","8","5","7","6","9","5","7","5","5","6","7","6","3","7","5","7","7","7","6","5","7","6","5","6","6","7","3","6","3","3","3","7","7","4","5","6","7","5","7","7","2","7","3","7","5","6","726468431867543552","徐","328","Female","[""好她"",""坏她"",""好我"",""坏我""]","[""强她"",""弱她"",""强我"",""弱我""]","","","","","","","","match","","","","","","","","","","key","f","16.66901869158898","960","489","j","false","nonmatch","img/trapezoid.png","强我","弱我","prac_ALT2_ability","practice_ability","","","","","","","","",""
"null","<span style='color:red; font-size: 70px;'>错误! </span>","null","html-keyboard-response","83","459728","0.0-8.0-1.0-1.0-0.0-1.36","6","6","5","5","6","5","4","4","5","5","5","2","1","2","2","1","1","2","2","5","4","5","5","5","4","4","5","5","4","4","5","3","7","8","5","7","6","9","5","7","5","5","6","7","6","3","7","5","7","7","7","6","5","7","6","5","6","6","7","3","6","3","3","3","7","7","4","5","6","7","5","7","7","2","7","3","7","5","6","726468431867543552","徐","328","Female","[""好她"",""坏她"",""好我"",""坏我""]","[""强她"",""弱她"",""强我"",""弱我""]","","","","","","","","","","","","","","","","","","","","","","","","","","","","","","feedback_test","","","","","","","","",""
"564","","f","psychophysics","84","461297","0.0-8.0-1.0-1.0-0.0-0.37","6","6","5","5","6","5","4","4","5","5","5","2","1","2","2","1","1","2","2","5","4","5","5","5","4","4","5","5","4","4","5","3","7","8","5","7","6","9","5","7","5","5","6","7","6","3","7","5","7","7","7","6","5","7","6","5","6","6","7","3","6","3","3","3","7","7","4","5","6","7","5","7","7","2","7","3","7","5","6","726468431867543552","徐","328","Female","[""好她"",""坏她"",""好我"",""坏我""]","[""强她"",""弱她"",""强我"",""弱我""]","","","","","","","","match","","","","","","","","","","key","f","16.66245652173909","960","489","j","false","nonmatch","img/ellipse.png","弱我","弱她","prac_ALT2_ability","practice_ability","","","","","","","","",""
"null","<span style='color:red; font-size: 70px;'>错误! </span>","null","html-keyboard-response","85","461800","0.0-8.0-1.0-1.0-0.0-1.37","6","6","5","5","6","5","4","4","5","5","5","2","1","2","2","1","1","2","2","5","4","5","5","5","4","4","5","5","4","4","5","3","7","8","5","7","6","9","5","7","5","5","6","7","6","3","7","5","7","7","7","6","5","7","6","5","6","6","7","3","6","3","3","3","7","7","4","5","6","7","5","7","7","2","7","3","7","5","6","726468431867543552","徐","328","Female","[""好她"",""坏她"",""好我"",""坏我""]","[""强她"",""弱她"",""强我"",""弱我""]","","","","","","","","","","","","","","","","","","","","","","","","","","","","","","feedback_test","","","","","","","","",""
"864","","f","psychophysics","86","463672","0.0-8.0-1.0-1.0-0.0-0.38","6","6","5","5","6","5","4","4","5","5","5","2","1","2","2","1","1","2","2","5","4","5","5","5","4","4","5","5","4","4","5","3","7","8","5","7","6","9","5","7","5","5","6","7","6","3","7","5","7","7","7","6","5","7","6","5","6","6","7","3","6","3","3","3","7","7","4","5","6","7","5","7","7","2","7","3","7","5","6","726468431867543552","徐","328","Female","[""好她"",""坏她"",""好我"",""坏我""]","[""强她"",""弱她"",""强我"",""弱我""]","","","","","","","","match","","","","","","","","","","key","f","16.62569999999991","960","489","j","false","nonmatch","img/diamond.png","强她","强我","prac_ALT2_ability","practice_ability","","","","","","","","",""
"null","<span style='color:red; font-size: 70px;'>错误! </span>","null","html-keyboard-response","87","464177","0.0-8.0-1.0-1.0-0.0-1.38","6","6","5","5","6","5","4","4","5","5","5","2","1","2","2","1","1","2","2","5","4","5","5","5","4","4","5","5","4","4","5","3","7","8","5","7","6","9","5","7","5","5","6","7","6","3","7","5","7","7","7","6","5","7","6","5","6","6","7","3","6","3","3","3","7","7","4","5","6","7","5","7","7","2","7","3","7","5","6","726468431867543552","徐","328","Female","[""好她"",""坏她"",""好我"",""坏我""]","[""强她"",""弱她"",""强我"",""弱我""]","","","","","","","","","","","","","","","","","","","","","","","","","","","","","","feedback_test","","","","","","","","",""
"811","","j","psychophysics","88","465992","0.0-8.0-1.0-1.0-0.0-0.39","6","6","5","5","6","5","4","4","5","5","5","2","1","2","2","1","1","2","2","5","4","5","5","5","4","4","5","5","4","4","5","3","7","8","5","7","6","9","5","7","5","5","6","7","6","3","7","5","7","7","7","6","5","7","6","5","6","6","7","3","6","3","3","3","7","7","4","5","6","7","5","7","7","2","7","3","7","5","6","726468431867543552","徐","328","Female","[""好她"",""坏她"",""好我"",""坏我""]","[""强她"",""弱她"",""强我"",""弱我""]","","","","","","","","nonmatch","","","","","","","","","","key","j","16.770813084112277","960","489","j","true","nonmatch","img/trapezoid.png","弱她","弱我","prac_ALT2_ability","practice_ability","","","","","","","","",""
"null","<span style='color:GreenYellow; font-size: 70px;'>正确! </span>","null","html-keyboard-response","89","466497","0.0-8.0-1.0-1.0-0.0-1.39","6","6","5","5","6","5","4","4","5","5","5","2","1","2","2","1","1","2","2","5","4","5","5","5","4","4","5","5","4","4","5","3","7","8","5","7","6","9","5","7","5","5","6","7","6","3","7","5","7","7","7","6","5","7","6","5","6","6","7","3","6","3","3","3","7","7","4","5","6","7","5","7","7","2","7","3","7","5","6","726468431867543552","徐","328","Female","[""好她"",""坏她"",""好我"",""坏我""]","[""强她"",""弱她"",""强我"",""弱我""]","","","","","","","","","","","","","","","","","","","","","","","","","","","","","","feedback_test","","","","","","","","",""
"656","","f","psychophysics","90","468161","0.0-8.0-1.0-1.0-0.0-0.40","6","6","5","5","6","5","4","4","5","5","5","2","1","2","2","1","1","2","2","5","4","5","5","5","4","4","5","5","4","4","5","3","7","8","5","7","6","9","5","7","5","5","6","7","6","3","7","5","7","7","7","6","5","7","6","5","6","6","7","3","6","3","3","3","7","7","4","5","6","7","5","7","7","2","7","3","7","5","6","726468431867543552","徐","328","Female","[""好她"",""坏她"",""好我"",""坏我""]","[""强她"",""弱她"",""强我"",""弱我""]","","","","","","","","match","","","","","","","","","","key","f","16.69798979591828","960","489","f","true","match","img/trapezoid.png","弱我","弱我","prac_ALT2_ability","practice_ability","","","","","","","","",""
"null","<span style='color:GreenYellow; font-size: 70px;'>正确! </span>","null","html-keyboard-response","91","468665","0.0-8.0-1.0-1.0-0.0-1.40","6","6","5","5","6","5","4","4","5","5","5","2","1","2","2","1","1","2","2","5","4","5","5","5","4","4","5","5","4","4","5","3","7","8","5","7","6","9","5","7","5","5","6","7","6","3","7","5","7","7","7","6","5","7","6","5","6","6","7","3","6","3","3","3","7","7","4","5","6","7","5","7","7","2","7","3","7","5","6","726468431867543552","徐","328","Female","[""好她"",""坏她"",""好我"",""坏我""]","[""强她"",""弱她"",""强我"",""弱我""]","","","","","","","","","","","","","","","","","","","","","","","","","","","","","","feedback_test","","","","","","","","",""
"647","","f","psychophysics","92","470320","0.0-8.0-1.0-1.0-0.0-0.41","6","6","5","5","6","5","4","4","5","5","5","2","1","2","2","1","1","2","2","5","4","5","5","5","4","4","5","5","4","4","5","3","7","8","5","7","6","9","5","7","5","5","6","7","6","3","7","5","7","7","7","6","5","7","6","5","6","6","7","3","6","3","3","3","7","7","4","5","6","7","5","7","7","2","7","3","7","5","6","726468431867543552","徐","328","Female","[""好她"",""坏她"",""好我"",""坏我""]","[""强她"",""弱她"",""强我"",""弱我""]","","","","","","","","match","","","","","","","","","","key","f","16.6445051546391","960","489","f","true","match","img/diamond.png","强我","强我","prac_ALT2_ability","practice_ability","","","","","","","","",""
"null","<span style='color:GreenYellow; font-size: 70px;'>正确! </span>","null","html-keyboard-response","93","470825","0.0-8.0-1.0-1.0-0.0-1.41","6","6","5","5","6","5","4","4","5","5","5","2","1","2","2","1","1","2","2","5","4","5","5","5","4","4","5","5","4","4","5","3","7","8","5","7","6","9","5","7","5","5","6","7","6","3","7","5","7","7","7","6","5","7","6","5","6","6","7","3","6","3","3","3","7","7","4","5","6","7","5","7","7","2","7","3","7","5","6","726468431867543552","徐","328","Female","[""好她"",""坏她"",""好我"",""坏我""]","[""强她"",""弱她"",""强我"",""弱我""]","","","","","","","","","","","","","","","","","","","","","","","","","","","","","","feedback_test","","","","","","","","",""
"747","","j","psychophysics","94","472576","0.0-8.0-1.0-1.0-0.0-0.42","6","6","5","5","6","5","4","4","5","5","5","2","1","2","2","1","1","2","2","5","4","5","5","5","4","4","5","5","4","4","5","3","7","8","5","7","6","9","5","7","5","5","6","7","6","3","7","5","7","7","7","6","5","7","6","5","6","6","7","3","6","3","3","3","7","7","4","5","6","7","5","7","7","2","7","3","7","5","6","726468431867543552","徐","328","Female","[""好她"",""坏她"",""好我"",""坏我""]","[""强她"",""弱她"",""强我"",""弱我""]","","","","","","","","nonmatch","","","","","","","","","","key","j","16.690087378640474","960","489","f","false","match","img/trapezoid.png","弱我","弱我","prac_ALT2_ability","practice_ability","","","","","","","","",""
"null","<span style='color:red; font-size: 70px;'>错误! </span>","null","html-keyboard-response","95","473080","0.0-8.0-1.0-1.0-0.0-1.42","6","6","5","5","6","5","4","4","5","5","5","2","1","2","2","1","1","2","2","5","4","5","5","5","4","4","5","5","4","4","5","3","7","8","5","7","6","9","5","7","5","5","6","7","6","3","7","5","7","7","7","6","5","7","6","5","6","6","7","3","6","3","3","3","7","7","4","5","6","7","5","7","7","2","7","3","7","5","6","726468431867543552","徐","328","Female","[""好她"",""坏她"",""好我"",""坏我""]","[""强她"",""弱她"",""强我"",""弱我""]","","","","","","","","","","","","","","","","","","","","","","","","","","","","","","feedback_test","","","","","","","","",""
"879","","f","psychophysics","96","474968","0.0-8.0-1.0-1.0-0.0-0.43","6","6","5","5","6","5","4","4","5","5","5","2","1","2","2","1","1","2","2","5","4","5","5","5","4","4","5","5","4","4","5","3","7","8","5","7","6","9","5","7","5","5","6","7","6","3","7","5","7","7","7","6","5","7","6","5","6","6","7","3","6","3","3","3","7","7","4","5","6","7","5","7","7","2","7","3","7","5","6","726468431867543552","徐","328","Female","[""好她"",""坏她"",""好我"",""坏我""]","[""强她"",""弱她"",""强我"",""弱我""]","","","","","","","","match","","","","","","","","","","key","f","16.670504504504304","960","489","j","false","nonmatch","img/pentagon.png","强我","强她","prac_ALT2_ability","practice_ability","","","","","","","","",""
"null","<span style='color:red; font-size: 70px;'>错误! </span>","null","html-keyboard-response","97","475473","0.0-8.0-1.0-1.0-0.0-1.43","6","6","5","5","6","5","4","4","5","5","5","2","1","2","2","1","1","2","2","5","4","5","5","5","4","4","5","5","4","4","5","3","7","8","5","7","6","9","5","7","5","5","6","7","6","3","7","5","7","7","7","6","5","7","6","5","6","6","7","3","6","3","3","3","7","7","4","5","6","7","5","7","7","2","7","3","7","5","6","726468431867543552","徐","328","Female","[""好她"",""坏她"",""好我"",""坏我""]","[""强她"",""弱她"",""强我"",""弱我""]","","","","","","","","","","","","","","","","","","","","","","","","","","","","","","feedback_test","","","","","","","","",""
"706","","f","psychophysics","98","477184","0.0-8.0-1.0-1.0-0.0-0.44","6","6","5","5","6","5","4","4","5","5","5","2","1","2","2","1","1","2","2","5","4","5","5","5","4","4","5","5","4","4","5","3","7","8","5","7","6","9","5","7","5","5","6","7","6","3","7","5","7","7","7","6","5","7","6","5","6","6","7","3","6","3","3","3","7","7","4","5","6","7","5","7","7","2","7","3","7","5","6","726468431867543552","徐","328","Female","[""好她"",""坏她"",""好我"",""坏我""]","[""强她"",""弱她"",""强我"",""弱我""]","","","","","","","","match","","","","","","","","","","key","f","16.689079999999958","960","489","j","false","nonmatch","img/pentagon.png","弱我","强她","prac_ALT2_ability","practice_ability","","","","","","","","",""
"null","<span style='color:red; font-size: 70px;'>错误! </span>","null","html-keyboard-response","99","477688","0.0-8.0-1.0-1.0-0.0-1.44","6","6","5","5","6","5","4","4","5","5","5","2","1","2","2","1","1","2","2","5","4","5","5","5","4","4","5","5","4","4","5","3","7","8","5","7","6","9","5","7","5","5","6","7","6","3","7","5","7","7","7","6","5","7","6","5","6","6","7","3","6","3","3","3","7","7","4","5","6","7","5","7","7","2","7","3","7","5","6","726468431867543552","徐","328","Female","[""好她"",""坏她"",""好我"",""坏我""]","[""强她"",""弱她"",""强我"",""弱我""]","","","","","","","","","","","","","","","","","","","","","","","","","","","","","","feedback_test","","","","","","","","",""
"681","","f","psychophysics","100","479376","0.0-8.0-1.0-1.0-0.0-0.45","6","6","5","5","6","5","4","4","5","5","5","2","1","2","2","1","1","2","2","5","4","5","5","5","4","4","5","5","4","4","5","3","7","8","5","7","6","9","5","7","5","5","6","7","6","3","7","5","7","7","7","6","5","7","6","5","6","6","7","3","6","3","3","3","7","7","4","5","6","7","5","7","7","2","7","3","7","5","6","726468431867543552","徐","328","Female","[""好她"",""坏她"",""好我"",""坏我""]","[""强她"",""弱她"",""强我"",""弱我""]","","","","","","","","match","","","","","","","","","","key","f","16.60637373737391","960","489","f","true","match","img/pentagon.png","强她","强她","prac_ALT2_ability","practice_ability","","","","","","","","",""
"null","<span style='color:GreenYellow; font-size: 70px;'>正确! </span>","null","html-keyboard-response","101","479882","0.0-8.0-1.0-1.0-0.0-1.45","6","6","5","5","6","5","4","4","5","5","5","2","1","2","2","1","1","2","2","5","4","5","5","5","4","4","5","5","4","4","5","3","7","8","5","7","6","9","5","7","5","5","6","7","6","3","7","5","7","7","7","6","5","7","6","5","6","6","7","3","6","3","3","3","7","7","4","5","6","7","5","7","7","2","7","3","7","5","6","726468431867543552","徐","328","Female","[""好她"",""坏她"",""好我"",""坏我""]","[""强她"",""弱她"",""强我"",""弱我""]","","","","","","","","","","","","","","","","","","","","","","","","","","","","","","feedback_test","","","","","","","","",""
"568","","f","psychophysics","102","481457","0.0-8.0-1.0-1.0-0.0-0.46","6","6","5","5","6","5","4","4","5","5","5","2","1","2","2","1","1","2","2","5","4","5","5","5","4","4","5","5","4","4","5","3","7","8","5","7","6","9","5","7","5","5","6","7","6","3","7","5","7","7","7","6","5","7","6","5","6","6","7","3","6","3","3","3","7","7","4","5","6","7","5","7","7","2","7","3","7","5","6","726468431867543552","徐","328","Female","[""好她"",""坏她"",""好我"",""坏我""]","[""强她"",""弱她"",""强我"",""弱我""]","","","","","","","","match","","","","","","","","","","key","f","16.716956521738727","960","489","f","true","match","img/diamond.png","强我","强我","prac_ALT2_ability","practice_ability","","","","","","","","",""
"null","<span style='color:GreenYellow; font-size: 70px;'>正确! </span>","null","html-keyboard-response","103","481962","0.0-8.0-1.0-1.0-0.0-1.46","6","6","5","5","6","5","4","4","5","5","5","2","1","2","2","1","1","2","2","5","4","5","5","5","4","4","5","5","4","4","5","3","7","8","5","7","6","9","5","7","5","5","6","7","6","3","7","5","7","7","7","6","5","7","6","5","6","6","7","3","6","3","3","3","7","7","4","5","6","7","5","7","7","2","7","3","7","5","6","726468431867543552","徐","328","Female","[""好她"",""坏她"",""好我"",""坏我""]","[""强她"",""弱她"",""强我"",""弱我""]","","","","","","","","","","","","","","","","","","","","","","","","","","","","","","feedback_test","","","","","","","","",""
"736","","j","psychophysics","104","483706","0.0-8.0-1.0-1.0-0.0-0.47","6","6","5","5","6","5","4","4","5","5","5","2","1","2","2","1","1","2","2","5","4","5","5","5","4","4","5","5","4","4","5","3","7","8","5","7","6","9","5","7","5","5","6","7","6","3","7","5","7","7","7","6","5","7","6","5","6","6","7","3","6","3","3","3","7","7","4","5","6","7","5","7","7","2","7","3","7","5","6","726468431867543552","徐","328","Female","[""好她"",""坏她"",""好我"",""坏我""]","[""强她"",""弱她"",""强我"",""弱我""]","","","","","","","","nonmatch","","","","","","","","","","key","j","16.6546372549024","960","489","f","false","match","img/pentagon.png","强她","强她","prac_ALT2_ability","practice_ability","","","","","","","","",""
"null","<span style='color:red; font-size: 70px;'>错误! </span>","null","html-keyboard-response","105","484209","0.0-8.0-1.0-1.0-0.0-1.47","6","6","5","5","6","5","4","4","5","5","5","2","1","2","2","1","1","2","2","5","4","5","5","5","4","4","5","5","4","4","5","3","7","8","5","7","6","9","5","7","5","5","6","7","6","3","7","5","7","7","7","6","5","7","6","5","6","6","7","3","6","3","3","3","7","7","4","5","6","7","5","7","7","2","7","3","7","5","6","726468431867543552","徐","328","Female","[""好她"",""坏她"",""好我"",""坏我""]","[""强她"",""弱她"",""强我"",""弱我""]","","","","","","","","","","","","","","","","","","","","","","","","","","","","","","feedback_test","","","","","","","","",""
"101285","<style>.context{color:white; font-size: 35px; line-height:40px}</style>                          <div><p class='context'>您正确回答了56% 的试次。</p><p class='context'>您的平均反应时为724毫秒。</p><p class='context'>恭喜您完成练习。按空格键继续。</p></div>"," ","html-keyboard-response","106","585499","0.0-8.0-1.0-1.0-1.0-0.0","6","6","5","5","6","5","4","4","5","5","5","2","1","2","2","1","1","2","2","5","4","5","5","5","4","4","5","5","4","4","5","3","7","8","5","7","6","9","5","7","5","5","6","7","6","3","7","5","7","7","7","6","5","7","6","5","6","6","7","3","6","3","3","3","7","7","4","5","6","7","5","7","7","2","7","3","7","5","6","726468431867543552","徐","328","Female","[""好她"",""坏她"",""好我"",""坏我""]","[""强她"",""弱她"",""强我"",""弱我""]","","","","","","","","","","","","","","","","","","","","","","","","","","","","","","","","","","","","","","",""
"6396","","","instructions","107","591905","0.0-8.0-1.0-1.0-1.0-1.0","6","6","5","5","6","5","4","4","5","5","5","2","1","2","2","1","1","2","2","5","4","5","5","5","4","4","5","5","4","4","5","3","7","8","5","7","6","9","5","7","5","5","6","7","6","3","7","5","7","7","7","6","5","7","6","5","6","6","7","3","6","3","3","3","7","7","4","5","6","7","5","7","7","2","7","3","7","5","6","726468431867543552","徐","328","Female","[""好她"",""坏她"",""好我"",""坏我""]","[""强她"",""弱她"",""强我"",""弱我""]","","","","","","","","","","","","","","","","","[{""page_index"":0,""viewing_time"":2788},{""page_index"":1,""viewing_time"":2119},{""page_index"":2,""viewing_time"":1488}]","","","","","","","","","","","","","","","","","","","","","",""
"845","","f","psychophysics","108","593760","0.0-8.0-1.0-1.1-0.1-0.48","6","6","5","5","6","5","4","4","5","5","5","2","1","2","2","1","1","2","2","5","4","5","5","5","4","4","5","5","4","4","5","3","7","8","5","7","6","9","5","7","5","5","6","7","6","3","7","5","7","7","7","6","5","7","6","5","6","6","7","3","6","3","3","3","7","7","4","5","6","7","5","7","7","2","7","3","7","5","6","726468431867543552","徐","328","Female","[""好她"",""坏她"",""好我"",""坏我""]","[""强她"",""弱她"",""强我"",""弱我""]","","","","","","","","match","","","","","","","","","","key","f","16.664596330275153","960","489","j","false","nonmatch","img/pentagon.png","弱我","强她","prac_ALT2_ability","practice_ability","","","","","","","","",""
"null","<span style='color:red; font-size: 70px;'>错误! </span>","null","html-keyboard-response","109","594267","0.0-8.0-1.0-1.1-0.1-1.48","6","6","5","5","6","5","4","4","5","5","5","2","1","2","2","1","1","2","2","5","4","5","5","5","4","4","5","5","4","4","5","3","7","8","5","7","6","9","5","7","5","5","6","7","6","3","7","5","7","7","7","6","5","7","6","5","6","6","7","3","6","3","3","3","7","7","4","5","6","7","5","7","7","2","7","3","7","5","6","726468431867543552","徐","328","Female","[""好她"",""坏她"",""好我"",""坏我""]","[""强她"",""弱她"",""强我"",""弱我""]","","","","","","","","","","","","","","","","","","","","","","","","","","","","","","feedback_test","","","","","","","","",""
"855","","f","psychophysics","110","596125","0.0-8.0-1.0-1.1-0.1-0.49","6","6","5","5","6","5","4","4","5","5","5","2","1","2","2","1","1","2","2","5","4","5","5","5","4","4","5","5","4","4","5","3","7","8","5","7","6","9","5","7","5","5","6","7","6","3","7","5","7","7","7","6","5","7","6","5","6","6","7","3","6","3","3","3","7","7","4","5","6","7","5","7","7","2","7","3","7","5","6","726468431867543552","徐","328","Female","[""好她"",""坏她"",""好我"",""坏我""]","[""强她"",""弱她"",""强我"",""弱我""]","","","","","","","","match","","","","","","","","","","key","f","16.802518181818197","960","489","f","true","match","img/trapezoid.png","弱我","弱我","prac_ALT2_ability","practice_ability","","","","","","","","",""
"null","<span style='color:GreenYellow; font-size: 70px;'>正确! </span>","null","html-keyboard-response","111","596627","0.0-8.0-1.0-1.1-0.1-1.49","6","6","5","5","6","5","4","4","5","5","5","2","1","2","2","1","1","2","2","5","4","5","5","5","4","4","5","5","4","4","5","3","7","8","5","7","6","9","5","7","5","5","6","7","6","3","7","5","7","7","7","6","5","7","6","5","6","6","7","3","6","3","3","3","7","7","4","5","6","7","5","7","7","2","7","3","7","5","6","726468431867543552","徐","328","Female","[""好她"",""坏她"",""好我"",""坏我""]","[""强她"",""弱她"",""强我"",""弱我""]","","","","","","","","","","","","","","","","","","","","","","","","","","","","","","feedback_test","","","","","","","","",""
"795","","j","psychophysics","112","598432","0.0-8.0-1.0-1.1-0.1-0.50","6","6","5","5","6","5","4","4","5","5","5","2","1","2","2","1","1","2","2","5","4","5","5","5","4","4","5","5","4","4","5","3","7","8","5","7","6","9","5","7","5","5","6","7","6","3","7","5","7","7","7","6","5","7","6","5","6","6","7","3","6","3","3","3","7","7","4","5","6","7","5","7","7","2","7","3","7","5","6","726468431867543552","徐","328","Female","[""好她"",""坏她"",""好我"",""坏我""]","[""强她"",""弱她"",""强我"",""弱我""]","","","","","","","","nonmatch","","","","","","","","","","key","j","16.661292452829723","960","489","j","true","nonmatch","img/ellipse.png","强我","弱她","prac_ALT2_ability","practice_ability","","","","","","","","",""
"null","<span style='color:GreenYellow; font-size: 70px;'>正确! </span>","null","html-keyboard-response","113","598938","0.0-8.0-1.0-1.1-0.1-1.50","6","6","5","5","6","5","4","4","5","5","5","2","1","2","2","1","1","2","2","5","4","5","5","5","4","4","5","5","4","4","5","3","7","8","5","7","6","9","5","7","5","5","6","7","6","3","7","5","7","7","7","6","5","7","6","5","6","6","7","3","6","3","3","3","7","7","4","5","6","7","5","7","7","2","7","3","7","5","6","726468431867543552","徐","328","Female","[""好她"",""坏她"",""好我"",""坏我""]","[""强她"",""弱她"",""强我"",""弱我""]","","","","","","","","","","","","","","","","","","","","","","","","","","","","","","feedback_test","","","","","","","","",""
"913","","f","psychophysics","114","600856","0.0-8.0-1.0-1.1-0.1-0.51","6","6","5","5","6","5","4","4","5","5","5","2","1","2","2","1","1","2","2","5","4","5","5","5","4","4","5","5","4","4","5","3","7","8","5","7","6","9","5","7","5","5","6","7","6","3","7","5","7","7","7","6","5","7","6","5","6","6","7","3","6","3","3","3","7","7","4","5","6","7","5","7","7","2","7","3","7","5","6","726468431867543552","徐","328","Female","[""好她"",""坏她"",""好我"",""坏我""]","[""强她"",""弱她"",""强我"",""弱我""]","","","","","","","","match","","","","","","","","","","key","f","16.7532654867252","960","489","j","false","nonmatch","img/diamond.png","弱她","强我","prac_ALT2_ability","practice_ability","","","","","","","","",""
"null","<span style='color:red; font-size: 70px;'>错误! </span>","null","html-keyboard-response","115","601364","0.0-8.0-1.0-1.1-0.1-1.51","6","6","5","5","6","5","4","4","5","5","5","2","1","2","2","1","1","2","2","5","4","5","5","5","4","4","5","5","4","4","5","3","7","8","5","7","6","9","5","7","5","5","6","7","6","3","7","5","7","7","7","6","5","7","6","5","6","6","7","3","6","3","3","3","7","7","4","5","6","7","5","7","7","2","7","3","7","5","6","726468431867543552","徐","328","Female","[""好她"",""坏她"",""好我"",""坏我""]","[""强她"",""弱她"",""强我"",""弱我""]","","","","","","","","","","","","","","","","","","","","","","","","","","","","","","feedback_test","","","","","","","","",""
"836","","j","psychophysics","116","603208","0.0-8.0-1.0-1.1-0.1-0.52","6","6","5","5","6","5","4","4","5","5","5","2","1","2","2","1","1","2","2","5","4","5","5","5","4","4","5","5","4","4","5","3","7","8","5","7","6","9","5","7","5","5","6","7","6","3","7","5","7","7","7","6","5","7","6","5","6","6","7","3","6","3","3","3","7","7","4","5","6","7","5","7","7","2","7","3","7","5","6","726468431867543552","徐","328","Female","[""好她"",""坏她"",""好我"",""坏我""]","[""强她"",""弱她"",""强我"",""弱我""]","","","","","","","","nonmatch","","","","","","","","","","key","j","16.72394495412767","960","489","j","true","nonmatch","img/ellipse.png","强她","弱她","prac_ALT2_ability","practice_ability","","","","","","","","",""
"null","<span style='color:GreenYellow; font-size: 70px;'>正确! </span>","null","html-keyboard-response","117","603714","0.0-8.0-1.0-1.1-0.1-1.52","6","6","5","5","6","5","4","4","5","5","5","2","1","2","2","1","1","2","2","5","4","5","5","5","4","4","5","5","4","4","5","3","7","8","5","7","6","9","5","7","5","5","6","7","6","3","7","5","7","7","7","6","5","7","6","5","6","6","7","3","6","3","3","3","7","7","4","5","6","7","5","7","7","2","7","3","7","5","6","726468431867543552","徐","328","Female","[""好她"",""坏她"",""好我"",""坏我""]","[""强她"",""弱她"",""强我"",""弱我""]","","","","","","","","","","","","","","","","","","","","","","","","","","","","","","feedback_test","","","","","","","","",""
"1022","","f","psychophysics","118","605745","0.0-8.0-1.0-1.1-0.1-0.53","6","6","5","5","6","5","4","4","5","5","5","2","1","2","2","1","1","2","2","5","4","5","5","5","4","4","5","5","4","4","5","3","7","8","5","7","6","9","5","7","5","5","6","7","6","3","7","5","7","7","7","6","5","7","6","5","6","6","7","3","6","3","3","3","7","7","4","5","6","7","5","7","7","2","7","3","7","5","6","726468431867543552","徐","328","Female","[""好她"",""坏她"",""好我"",""坏我""]","[""强她"",""弱她"",""强我"",""弱我""]","","","","","","","","match","","","","","","","","","","key","f","16.807516666666682","960","489","j","false","nonmatch","img/diamond.png","弱我","强我","prac_ALT2_ability","practice_ability","","","","","","","","",""
"null","<span style='color:red; font-size: 70px;'>错误! </span>","null","html-keyboard-response","119","606251","0.0-8.0-1.0-1.1-0.1-1.53","6","6","5","5","6","5","4","4","5","5","5","2","1","2","2","1","1","2","2","5","4","5","5","5","4","4","5","5","4","4","5","3","7","8","5","7","6","9","5","7","5","5","6","7","6","3","7","5","7","7","7","6","5","7","6","5","6","6","7","3","6","3","3","3","7","7","4","5","6","7","5","7","7","2","7","3","7","5","6","726468431867543552","徐","328","Female","[""好她"",""坏她"",""好我"",""坏我""]","[""强她"",""弱她"",""强我"",""弱我""]","","","","","","","","","","","","","","","","","","","","","","","","","","","","","","feedback_test","","","","","","","","",""
"907","","f","psychophysics","120","608161","0.0-8.0-1.0-1.1-0.1-0.54","6","6","5","5","6","5","4","4","5","5","5","2","1","2","2","1","1","2","2","5","4","5","5","5","4","4","5","5","4","4","5","3","7","8","5","7","6","9","5","7","5","5","6","7","6","3","7","5","7","7","7","6","5","7","6","5","6","6","7","3","6","3","3","3","7","7","4","5","6","7","5","7","7","2","7","3","7","5","6","726468431867543552","徐","328","Female","[""好她"",""坏她"",""好我"",""坏我""]","[""强她"",""弱她"",""强我"",""弱我""]","","","","","","","","match","","","","","","","","","","key","f","16.66677876106212","960","489","f","true","match","img/trapezoid.png","弱我","弱我","prac_ALT2_ability","practice_ability","","","","","","","","",""
"null","<span style='color:GreenYellow; font-size: 70px;'>正确! </span>","null","html-keyboard-response","121","608667","0.0-8.0-1.0-1.1-0.1-1.54","6","6","5","5","6","5","4","4","5","5","5","2","1","2","2","1","1","2","2","5","4","5","5","5","4","4","5","5","4","4","5","3","7","8","5","7","6","9","5","7","5","5","6","7","6","3","7","5","7","7","7","6","5","7","6","5","6","6","7","3","6","3","3","3","7","7","4","5","6","7","5","7","7","2","7","3","7","5","6","726468431867543552","徐","328","Female","[""好她"",""坏她"",""好我"",""坏我""]","[""强她"",""弱她"",""强我"",""弱我""]","","","","","","","","","","","","","","","","","","","","","","","","","","","","","","feedback_test","","","","","","","","",""
"842","","f","psychophysics","122","610513","0.0-8.0-1.0-1.1-0.1-0.55","6","6","5","5","6","5","4","4","5","5","5","2","1","2","2","1","1","2","2","5","4","5","5","5","4","4","5","5","4","4","5","3","7","8","5","7","6","9","5","7","5","5","6","7","6","3","7","5","7","7","7","6","5","7","6","5","6","6","7","3","6","3","3","3","7","7","4","5","6","7","5","7","7","2","7","3","7","5","6","726468431867543552","徐","328","Female","[""好她"",""坏她"",""好我"",""坏我""]","[""强她"",""弱她"",""强我"",""弱我""]","","","","","","","","match","","","","","","","","","","key","f","16.854175925926366","960","489","j","false","nonmatch","img/pentagon.png","强我","强她","prac_ALT2_ability","practice_ability","","","","","","","","",""
"null","<span style='color:red; font-size: 70px;'>错误! </span>","null","html-keyboard-response","123","611019","0.0-8.0-1.0-1.1-0.1-1.55","6","6","5","5","6","5","4","4","5","5","5","2","1","2","2","1","1","2","2","5","4","5","5","5","4","4","5","5","4","4","5","3","7","8","5","7","6","9","5","7","5","5","6","7","6","3","7","5","7","7","7","6","5","7","6","5","6","6","7","3","6","3","3","3","7","7","4","5","6","7","5","7","7","2","7","3","7","5","6","726468431867543552","徐","328","Female","[""好她"",""坏她"",""好我"",""坏我""]","[""强她"",""弱她"",""强我"",""弱我""]","","","","","","","","","","","","","","","","","","","","","","","","","","","","","","feedback_test","","","","","","","","",""
"674","","f","psychophysics","124","612696","0.0-8.0-1.0-1.1-0.1-0.56","6","6","5","5","6","5","4","4","5","5","5","2","1","2","2","1","1","2","2","5","4","5","5","5","4","4","5","5","4","4","5","3","7","8","5","7","6","9","5","7","5","5","6","7","6","3","7","5","7","7","7","6","5","7","6","5","6","6","7","3","6","3","3","3","7","7","4","5","6","7","5","7","7","2","7","3","7","5","6","726468431867543552","徐","328","Female","[""好她"",""坏她"",""好我"",""坏我""]","[""强她"",""弱她"",""强我"",""弱我""]","","","","","","","","match","","","","","","","","","","key","f","16.638989898989994","960","489","f","true","match","img/pentagon.png","强她","强她","prac_ALT2_ability","practice_ability","","","","","","","","",""
"null","<span style='color:GreenYellow; font-size: 70px;'>正确! </span>","null","html-keyboard-response","125","613203","0.0-8.0-1.0-1.1-0.1-1.56","6","6","5","5","6","5","4","4","5","5","5","2","1","2","2","1","1","2","2","5","4","5","5","5","4","4","5","5","4","4","5","3","7","8","5","7","6","9","5","7","5","5","6","7","6","3","7","5","7","7","7","6","5","7","6","5","6","6","7","3","6","3","3","3","7","7","4","5","6","7","5","7","7","2","7","3","7","5","6","726468431867543552","徐","328","Female","[""好她"",""坏她"",""好我"",""坏我""]","[""强她"",""弱她"",""强我"",""弱我""]","","","","","","","","","","","","","","","","","","","","","","","","","","","","","","feedback_test","","","","","","","","",""
"870","","j","psychophysics","126","615080","0.0-8.0-1.0-1.1-0.1-0.57","6","6","5","5","6","5","4","4","5","5","5","2","1","2","2","1","1","2","2","5","4","5","5","5","4","4","5","5","4","4","5","3","7","8","5","7","6","9","5","7","5","5","6","7","6","3","7","5","7","7","7","6","5","7","6","5","6","6","7","3","6","3","3","3","7","7","4","5","6","7","5","7","7","2","7","3","7","5","6","726468431867543552","徐","328","Female","[""好她"",""坏她"",""好我"",""坏我""]","[""强她"",""弱她"",""强我"",""弱我""]","","","","","","","","nonmatch","","","","","","","","","","key","j","16.787118181818037","960","489","j","true","nonmatch","img/trapezoid.png","强我","弱我","prac_ALT2_ability","practice_ability","","","","","","","","",""
"null","<span style='color:GreenYellow; font-size: 70px;'>正确! </span>","null","html-keyboard-response","127","615587","0.0-8.0-1.0-1.1-0.1-1.57","6","6","5","5","6","5","4","4","5","5","5","2","1","2","2","1","1","2","2","5","4","5","5","5","4","4","5","5","4","4","5","3","7","8","5","7","6","9","5","7","5","5","6","7","6","3","7","5","7","7","7","6","5","7","6","5","6","6","7","3","6","3","3","3","7","7","4","5","6","7","5","7","7","2","7","3","7","5","6","726468431867543552","徐","328","Female","[""好她"",""坏她"",""好我"",""坏我""]","[""强她"",""弱她"",""强我"",""弱我""]","","","","","","","","","","","","","","","","","","","","","","","","","","","","","","feedback_test","","","","","","","","",""
"758","","f","psychophysics","128","617353","0.0-8.0-1.0-1.1-0.1-0.58","6","6","5","5","6","5","4","4","5","5","5","2","1","2","2","1","1","2","2","5","4","5","5","5","4","4","5","5","4","4","5","3","7","8","5","7","6","9","5","7","5","5","6","7","6","3","7","5","7","7","7","6","5","7","6","5","6","6","7","3","6","3","3","3","7","7","4","5","6","7","5","7","7","2","7","3","7","5","6","726468431867543552","徐","328","Female","[""好她"",""坏她"",""好我"",""坏我""]","[""强她"",""弱她"",""强我"",""弱我""]","","","","","","","","match","","","","","","","","","","key","f","16.692619047619935","960","489","f","true","match","img/ellipse.png","弱她","弱她","prac_ALT2_ability","practice_ability","","","","","","","","",""
"null","<span style='color:GreenYellow; font-size: 70px;'>正确! </span>","null","html-keyboard-response","129","617859","0.0-8.0-1.0-1.1-0.1-1.58","6","6","5","5","6","5","4","4","5","5","5","2","1","2","2","1","1","2","2","5","4","5","5","5","4","4","5","5","4","4","5","3","7","8","5","7","6","9","5","7","5","5","6","7","6","3","7","5","7","7","7","6","5","7","6","5","6","6","7","3","6","3","3","3","7","7","4","5","6","7","5","7","7","2","7","3","7","5","6","726468431867543552","徐","328","Female","[""好她"",""坏她"",""好我"",""坏我""]","[""强她"",""弱她"",""强我"",""弱我""]","","","","","","","","","","","","","","","","","","","","","","","","","","","","","","feedback_test","","","","","","","","",""
"774","","j","psychophysics","130","619640","0.0-8.0-1.0-1.1-0.1-0.59","6","6","5","5","6","5","4","4","5","5","5","2","1","2","2","1","1","2","2","5","4","5","5","5","4","4","5","5","4","4","5","3","7","8","5","7","6","9","5","7","5","5","6","7","6","3","7","5","7","7","7","6","5","7","6","5","6","6","7","3","6","3","3","3","7","7","4","5","6","7","5","7","7","2","7","3","7","5","6","726468431867543552","徐","328","Female","[""好她"",""坏她"",""好我"",""坏我""]","[""强她"",""弱她"",""强我"",""弱我""]","","","","","","","","nonmatch","","","","","","","","","","key","j","16.862323809523755","960","489","f","false","match","img/diamond.png","强我","强我","prac_ALT2_ability","practice_ability","","","","","","","","",""
"null","<span style='color:red; font-size: 70px;'>错误! </span>","null","html-keyboard-response","131","620147","0.0-8.0-1.0-1.1-0.1-1.59","6","6","5","5","6","5","4","4","5","5","5","2","1","2","2","1","1","2","2","5","4","5","5","5","4","4","5","5","4","4","5","3","7","8","5","7","6","9","5","7","5","5","6","7","6","3","7","5","7","7","7","6","5","7","6","5","6","6","7","3","6","3","3","3","7","7","4","5","6","7","5","7","7","2","7","3","7","5","6","726468431867543552","徐","328","Female","[""好她"",""坏她"",""好我"",""坏我""]","[""强她"",""弱她"",""强我"",""弱我""]","","","","","","","","","","","","","","","","","","","","","","","","","","","","","","feedback_test","","","","","","","","",""
"808","","f","psychophysics","132","621960","0.0-8.0-1.0-1.1-0.1-0.60","6","6","5","5","6","5","4","4","5","5","5","2","1","2","2","1","1","2","2","5","4","5","5","5","4","4","5","5","4","4","5","3","7","8","5","7","6","9","5","7","5","5","6","7","6","3","7","5","7","7","7","6","5","7","6","5","6","6","7","3","6","3","3","3","7","7","4","5","6","7","5","7","7","2","7","3","7","5","6","726468431867543552","徐","328","Female","[""好她"",""坏她"",""好我"",""坏我""]","[""强她"",""弱她"",""强我"",""弱我""]","","","","","","","","match","","","","","","","","","","key","f","16.61212149532686","960","489","f","true","match","img/ellipse.png","弱她","弱她","prac_ALT2_ability","practice_ability","","","","","","","","",""
"null","<span style='color:GreenYellow; font-size: 70px;'>正确! </span>","null","html-keyboard-response","133","622467","0.0-8.0-1.0-1.1-0.1-1.60","6","6","5","5","6","5","4","4","5","5","5","2","1","2","2","1","1","2","2","5","4","5","5","5","4","4","5","5","4","4","5","3","7","8","5","7","6","9","5","7","5","5","6","7","6","3","7","5","7","7","7","6","5","7","6","5","6","6","7","3","6","3","3","3","7","7","4","5","6","7","5","7","7","2","7","3","7","5","6","726468431867543552","徐","328","Female","[""好她"",""坏她"",""好我"",""坏我""]","[""强她"",""弱她"",""强我"",""弱我""]","","","","","","","","","","","","","","","","","","","","","","","","","","","","","","feedback_test","","","","","","","","",""
"691","","j","psychophysics","134","624159","0.0-8.0-1.0-1.1-0.1-0.61","6","6","5","5","6","5","4","4","5","5","5","2","1","2","2","1","1","2","2","5","4","5","5","5","4","4","5","5","4","4","5","3","7","8","5","7","6","9","5","7","5","5","6","7","6","3","7","5","7","7","7","6","5","7","6","5","6","6","7","3","6","3","3","3","7","7","4","5","6","7","5","7","7","2","7","3","7","5","6","726468431867543552","徐","328","Female","[""好她"",""坏她"",""好我"",""坏我""]","[""强她"",""弱她"",""强我"",""弱我""]","","","","","","","","nonmatch","","","","","","","","","","key","j","16.76951000000001","960","489","j","true","nonmatch","img/ellipse.png","弱我","弱她","prac_ALT2_ability","practice_ability","","","","","","","","",""
"null","<span style='color:GreenYellow; font-size: 70px;'>正确! </span>","null","html-keyboard-response","135","624668","0.0-8.0-1.0-1.1-0.1-1.61","6","6","5","5","6","5","4","4","5","5","5","2","1","2","2","1","1","2","2","5","4","5","5","5","4","4","5","5","4","4","5","3","7","8","5","7","6","9","5","7","5","5","6","7","6","3","7","5","7","7","7","6","5","7","6","5","6","6","7","3","6","3","3","3","7","7","4","5","6","7","5","7","7","2","7","3","7","5","6","726468431867543552","徐","328","Female","[""好她"",""坏她"",""好我"",""坏我""]","[""强她"",""弱她"",""强我"",""弱我""]","","","","","","","","","","","","","","","","","","","","","","","","","","","","","","feedback_test","","","","","","","","",""
"850","","f","psychophysics","136","626519","0.0-8.0-1.0-1.1-0.1-0.62","6","6","5","5","6","5","4","4","5","5","5","2","1","2","2","1","1","2","2","5","4","5","5","5","4","4","5","5","4","4","5","3","7","8","5","7","6","9","5","7","5","5","6","7","6","3","7","5","7","7","7","6","5","7","6","5","6","6","7","3","6","3","3","3","7","7","4","5","6","7","5","7","7","2","7","3","7","5","6","726468431867543552","徐","328","Female","[""好她"",""坏她"",""好我"",""坏我""]","[""强她"",""弱她"",""强我"",""弱我""]","","","","","","","","match","","","","","","","","","","key","f","16.623531531531004","960","489","f","true","match","img/trapezoid.png","弱我","弱我","prac_ALT2_ability","practice_ability","","","","","","","","",""
"null","<span style='color:GreenYellow; font-size: 70px;'>正确! </span>","null","html-keyboard-response","137","627026","0.0-8.0-1.0-1.1-0.1-1.62","6","6","5","5","6","5","4","4","5","5","5","2","1","2","2","1","1","2","2","5","4","5","5","5","4","4","5","5","4","4","5","3","7","8","5","7","6","9","5","7","5","5","6","7","6","3","7","5","7","7","7","6","5","7","6","5","6","6","7","3","6","3","3","3","7","7","4","5","6","7","5","7","7","2","7","3","7","5","6","726468431867543552","徐","328","Female","[""好她"",""坏她"",""好我"",""坏我""]","[""强她"",""弱她"",""强我"",""弱我""]","","","","","","","","","","","","","","","","","","","","","","","","","","","","","","feedback_test","","","","","","","","",""
