"rt","stimulus","response","trial_type","trial_index","time_elapsed","internal_node_id","swb_1","swb_2","swb_3","swb_4","swb_5","LOT_1","LOT_2","LOT_3","LOT_4","LOT_5","LOT_6","IPC_1","IPC_2","IPC_3","IPC_4","IPC_5","IPC_6","IPC_7","IPC_8","MorIden_1","MorIden_2","MorIden_3","MorIden_4","MorIden_5","MorIden_6","MorIden_7","MorIden_8","MorIden_9","MorIden_10","moralSeImag_1","moralSeImag_2","moralSeImag_3","moralSeImag_4","moralSeImag_5","moralSeImag_6","moralSeImag_7","moralSeImag_8","moralSeImag_9","sde_1","sde_2","sde_3","sde_4","sde_5","sde_6","sde_7","sde_8","sde_9","sde_10","trap2","sde_11","sde_12","sde_13","sde_14","sde_15","sde_16","sde_17","sde_18","sde_19","sde_20","IM_1","IM_2","IM_3","IM_4","IM_5","IM_6","IM_7","IM_8","IM_9","IM_10","IM_11","IM_12","IM_13","IM_14","IM_15","IM_16","IM_17","IM_18","IM_19","IM_20","subj_idx","friend_name","ParticipantID","Sex","Word","Word2","value","success","timeout","failed_images","failed_audio","failed_video","user_agent","responses","item_order","radio_event_ids","radio_event_times","key_event_times","mouse_event_times","straightlining","zigzagging","honeypot","task_id","screen_id","time_stamp","response_type","key_press","avg_frame_time","center_x","center_y","person","word","valence","domain","math","correct_response","correct","status","identity","view_history","duration","Image","condition","question_order","trap2_item"
"1670","
   <p><div style='color:white; font-size: 25px'>您好，欢迎参加本次实验。</div></p>
   <p><div style='color:white; font-size: 25px'>为充分保障您的权利，请确保您已经知晓并同意《参与实验同意书》以及《数据公开知情同意书》。</div></p>
   <p><div style='color:white; font-size: 25px'>如果您未见过上述内容，请咨询实验员。</div></p>
   <p style='color:white; font-size: 25px'>如果您选择继续实验，则表示您已经清楚两份知情同意书的内容并同意。</p>
   <p><div style = ""color: pink;font-size:30px;"">请确保您记得day0的实验编号，您将在本次实验输入该编号，若您忘记，请咨询实验员后作答。</div></p>
   <p><div style = ""color:lightblue;font-size:25px;"">请您尽可能认真地作答，我们将依据您在各问卷和按键任务中的作答质量发放报酬。</div></p>
   <p> <div style = ""color: green""><按空格键至下页></div> </p>
   "," ","html-keyboard-response","0","1672","0.0-0.0","7","6","6","7","6","5","2","5","2","4","5","2","1","2","1","1","2","1","2","5","4","4","2","4","5","5","4","4","5","8","7","9","8","7","8","8","9","8","6","6","1","6","5","2","3","6","5","6","1","5","2","7","6","5","6","5","6","6","5","6","6","4","2","7","5","6","6","5","7","7","2","7","7","6","7","7","6","6","7","781502952228786178","汪","67","Female","[""坏她"",""好我"",""好她"",""坏我""]","[""弱她"",""强我"",""强她"",""弱我""]","","","","","","","","","","","","","","","","","","","","","","","","","","","","","","","","","","","","","","",""
"","","","call-function","1","1672","0.0-1.0-0.0","7","6","6","7","6","5","2","5","2","4","5","2","1","2","1","1","2","1","2","5","4","4","2","4","5","5","4","4","5","8","7","9","8","7","8","8","9","8","6","6","1","6","5","2","3","6","5","6","1","5","2","7","6","5","6","5","6","6","5","6","6","4","2","7","5","6","6","5","7","7","2","7","7","6","7","7","6","6","7","781502952228786178","汪","67","Female","[""坏她"",""好我"",""好她"",""坏我""]","[""弱她"",""强我"",""强她"",""弱我""]","","","","","","","","","","","","","","","","","","","","","","","","","","","","","","","","","","","","","","",""
"44523","","[{""name"":""Sex"",""value"":""1""},{""name"":""friend_name"",""value"":""汪""},{""name"":""ParticipantID"",""value"":""67""}]","survey-html-form","2","46197","0.0-1.0-1.0","7","6","6","7","6","5","2","5","2","4","5","2","1","2","1","1","2","1","2","5","4","4","2","4","5","5","4","4","5","8","7","9","8","7","8","8","9","8","6","6","1","6","5","2","3","6","5","6","1","5","2","7","6","5","6","5","6","6","5","6","6","4","2","7","5","6","6","5","7","7","2","7","7","6","7","7","6","6","7","781502952228786178","汪","67","Female","[""坏她"",""好我"",""好她"",""坏我""]","[""弱她"",""强我"",""强她"",""弱我""]","","","","","","","","","","","","","","","","","","","","","","","","","","","","","","","","","","","","","","",""
"","","","preload","3","47358","0.0-2.0","7","6","6","7","6","5","2","5","2","4","5","2","1","2","1","1","2","1","2","5","4","4","2","4","5","5","4","4","5","8","7","9","8","7","8","8","9","8","6","6","1","6","5","2","3","6","5","6","1","5","2","7","6","5","6","5","6","6","5","6","6","4","2","7","5","6","6","5","7","7","2","7","7","6","7","7","6","6","7","781502952228786178","汪","67","Female","[""坏她"",""好我"",""好她"",""坏我""]","[""弱她"",""强我"",""强她"",""弱我""]","","true","false","[]","[]","[]","","","","","","","","","","","","","","","","","","","","","","","","","","","","","","","","",""
"","","","fullscreen","4","50061","0.0-3.0","7","6","6","7","6","5","2","5","2","4","5","2","1","2","1","1","2","1","2","5","4","4","2","4","5","5","4","4","5","8","7","9","8","7","8","8","9","8","6","6","1","6","5","2","3","6","5","6","1","5","2","7","6","5","6","5","6","6","5","6","6","4","2","7","5","6","6","5","7","7","2","7","7","6","7","7","6","6","7","781502952228786178","汪","67","Female","[""坏她"",""好我"",""好她"",""坏我""]","[""弱她"",""强我"",""强她"",""弱我""]","","true","","","","","{}","","","","","","","","","","","","","","","","","","","","","","","","","","","","","","","",""
"31510.60000000894","","{""Q01"":""7"",""Q02"":""6"",""Q03"":""6"",""Q04"":""7"",""Q05"":""6""}","survey-template","5","81574","0.0-4.0","7","6","6","7","6","5","2","5","2","4","5","2","1","2","1","1","2","1","2","5","4","4","2","4","5","5","4","4","5","8","7","9","8","7","8","8","9","8","6","6","1","6","5","2","3","6","5","6","1","5","2","7","6","5","6","5","6","6","5","6","6","4","2","7","5","6","6","5","7","7","2","7","7","6","7","7","6","6","7","781502952228786178","汪","67","Female","[""坏她"",""好我"",""好她"",""坏我""]","[""弱她"",""强我"",""强她"",""弱我""]","","","","","","","","{""Q01"":""7"",""Q02"":""6"",""Q03"":""6"",""Q04"":""7"",""Q05"":""6""}","[0,1,2,3,4]","[""Q01"",""Q02"",""Q04"",""Q03"",""Q05""]","[23666.70000000298,24836.20000000298,27288.80000001192,28139.70000000298,30114.10000000894]","[]","[23666.70000000298,24836.20000000298,27288.80000001192,28139.70000000298,30114.10000000894,31508.90000000596]","0.6","0.75","0","","","","","","","","","","","","","","","","","","","","","","",""
"26277.40000000596","","{""Q01"":""5"",""Q02"":""2"",""Q03"":""5"",""Q04"":""2"",""Q05"":""4"",""Q06"":""5""}","survey-template","6","107855","0.0-5.0","7","6","6","7","6","5","2","5","2","4","5","2","1","2","1","1","2","1","2","5","4","4","2","4","5","5","4","4","5","8","7","9","8","7","8","8","9","8","6","6","1","6","5","2","3","6","5","6","1","5","2","7","6","5","6","5","6","6","5","6","6","4","2","7","5","6","6","5","7","7","2","7","7","6","7","7","6","6","7","781502952228786178","汪","67","Female","[""坏她"",""好我"",""好她"",""坏我""]","[""弱她"",""强我"",""强她"",""弱我""]","","","","","","","","{""Q01"":""5"",""Q02"":""2"",""Q03"":""5"",""Q04"":""2"",""Q05"":""4"",""Q06"":""5""}","[0,1,2,3,4,5]","[""Q01"",""Q02"",""Q03"",""Q04"",""Q05"",""Q06""]","[2927.5,14044.90000000596,15427.5,19055.80000001192,20842.30000001192,25600.70000000298]","[]","[2927.5,14044.90000000596,15427.5,19055.80000001192,20842.30000001192,25600.70000000298,26276.30000001192]","0.5","0.6","0","","","","","","","","","","","","","","","","","","","","","","",""
"16742.60000000894","","{""Q01"":""2"",""Q02"":""1"",""Q03"":""2"",""Q04"":""1"",""Q05"":""1"",""Q06"":""2"",""Q07"":""1"",""Q08"":""2""}","survey-template","7","124602","0.0-6.0","7","6","6","7","6","5","2","5","2","4","5","2","1","2","1","1","2","1","2","5","4","4","2","4","5","5","4","4","5","8","7","9","8","7","8","8","9","8","6","6","1","6","5","2","3","6","5","6","1","5","2","7","6","5","6","5","6","6","5","6","6","4","2","7","5","6","6","5","7","7","2","7","7","6","7","7","6","6","7","781502952228786178","汪","67","Female","[""坏她"",""好我"",""好她"",""坏我""]","[""弱她"",""强我"",""强她"",""弱我""]","","","","","","","","{""Q01"":""2"",""Q02"":""1"",""Q03"":""2"",""Q04"":""1"",""Q05"":""1"",""Q06"":""2"",""Q07"":""1"",""Q08"":""2""}","[0,1,2,3,4,5,6,7]","[""Q01"",""Q02"",""Q03"",""Q04"",""Q05"",""Q06"",""Q07"",""Q08""]","[3917.9000000059605,5876.9000000059605,9743.5,11670.10000000894,12639.79999999702,13775.70000000298,15242.79999999702,16140.90000000596]","[]","[3917.9000000059605,5876.9000000059605,9743.5,11670.10000000894,12639.79999999702,13775.70000000298,15242.79999999702,16140.90000000596,16741.5]","0.5","0.8571428571428571","0","","","","","","","","","","","","","","","","","","","","","","",""
"15197","
    <p><div style='color:white;font-size:35px; line-height:20px;'>词汇评估任务</div></p><br>
    <p><div style='color:white;font-size:25px; line-height:20px;'>请再次回忆该亲密的朋友，你们至少2年前就认识了，并且最近2年经常见面。</div></p>
    <p><div style='color:white;font-size:25px; line-height:20px;'>在本实验中，您将会看到一些形容词。</div></p>
    <p><div style='color:yellow;font-size:25px; line-height:20px;'>您的任务是判断这些形容词是否符合对您自己或您的朋友的描述。</div></p><p style='font-size:35px'>符合按<span style=""color:lightgreen""> j 键</span>，不符合按<span style=""color:red""> f 键</span></p>","0","html-button-response","8","139801","0.0-7.0-0.0","7","6","6","7","6","5","2","5","2","4","5","2","1","2","1","1","2","1","2","5","4","4","2","4","5","5","4","4","5","8","7","9","8","7","8","8","9","8","6","6","1","6","5","2","3","6","5","6","1","5","2","7","6","5","6","5","6","6","5","6","6","4","2","7","5","6","6","5","7","7","2","7","7","6","7","7","6","6","7","781502952228786178","汪","67","Female","[""坏她"",""好我"",""好她"",""坏我""]","[""弱她"",""强我"",""强她"",""弱我""]","","","","","","","","","","","","","","","","","SRET_EW","EW_instructions","Fri Jan 19 2024 20:17:01 GMT+0800 (中国标准时间)","","","","","","","","","","","","","","","","","","","",""
"765","","j","psychophysics","9","141571","0.0-7.0-1.0-0.0","7","6","6","7","6","5","2","5","2","4","5","2","1","2","1","1","2","1","2","5","4","4","2","4","5","5","4","4","5","8","7","9","8","7","8","8","9","8","6","6","1","6","5","2","3","6","5","6","1","5","2","7","6","5","6","5","6","6","5","6","6","4","2","7","5","6","6","5","7","7","2","7","7","6","7","7","6","6","7","781502952228786178","汪","67","Female","[""坏她"",""好我"",""好她"",""坏我""]","[""弱她"",""强我"",""强她"",""弱我""]","","","","","","","","yes","","","","","","","","","SRET_EW","EW_practice","","key","j","16.491262135922103","720","446","自己","严谨","Positive","ability","","","","","","","","","","",""
"1058","","f","psychophysics","10","143631","0.0-7.0-1.0-0.1","7","6","6","7","6","5","2","5","2","4","5","2","1","2","1","1","2","1","2","5","4","4","2","4","5","5","4","4","5","8","7","9","8","7","8","8","9","8","6","6","1","6","5","2","3","6","5","6","1","5","2","7","6","5","6","5","6","6","5","6","6","4","2","7","5","6","6","5","7","7","2","7","7","6","7","7","6","6","7","781502952228786178","汪","67","Female","[""坏她"",""好我"",""好她"",""坏我""]","[""弱她"",""强我"",""强她"",""弱我""]","","","","","","","","no","","","","","","","","","SRET_EW","EW_practice","","key","f","16.656097560975706","720","446","朋友","徇私","Negative","morality","","","","","","","","","","",""
"645","","j","psychophysics","11","145278","0.0-7.0-1.0-0.2","7","6","6","7","6","5","2","5","2","4","5","2","1","2","1","1","2","1","2","5","4","4","2","4","5","5","4","4","5","8","7","9","8","7","8","8","9","8","6","6","1","6","5","2","3","6","5","6","1","5","2","7","6","5","6","5","6","6","5","6","6","4","2","7","5","6","6","5","7","7","2","7","7","6","7","7","6","6","7","781502952228786178","汪","67","Female","[""坏她"",""好我"",""好她"",""坏我""]","[""弱她"",""强我"",""强她"",""弱我""]","","","","","","","","yes","","","","","","","","","SRET_EW","EW_practice","","key","j","16.65510204081615","720","446","朋友","忠实","Positive","morality","","","","","","","","","","",""
"927","","f","psychophysics","12","147206","0.0-7.0-1.0-0.3","7","6","6","7","6","5","2","5","2","4","5","2","1","2","1","1","2","1","2","5","4","4","2","4","5","5","4","4","5","8","7","9","8","7","8","8","9","8","6","6","1","6","5","2","3","6","5","6","1","5","2","7","6","5","6","5","6","6","5","6","6","4","2","7","5","6","6","5","7","7","2","7","7","6","7","7","6","6","7","781502952228786178","汪","67","Female","[""坏她"",""好我"",""好她"",""坏我""]","[""弱她"",""强我"",""强她"",""弱我""]","","","","","","","","no","","","","","","","","","SRET_EW","EW_practice","","key","f","16.65526315789484","720","446","自己","刻板","Negative","ability","","","","","","","","","","",""
"4320","
    <p><div style='color:white;font-size:35px; line-height:20px;'>请您再次阅读实验要求</div></p><br>
    <p><div style='color:white;font-size:25px; line-height:20px;'>请回忆某一个亲密的朋友，你们至少2年前就认识了，并且最近2年经常见面。</div></p>
    <p><div style='color:white;font-size:25px; line-height:20px;'>在本实验中，您将会看到一些形容词。</div></p>
    <p><div style='color:yellow;font-size:25px; line-height:20px;'>您的任务是判断这些形容词是否符合对您自己或您的朋友的描述。</div></p>
    <p><div class='footer' style='font-size:25px; line-height:20px;'>如果对本实验还有不清楚之处，请立即向实验员咨询。</p><p style='font-size:25px; line-height:20px;'>如果您明白了规则：</p><p style='font-size:22px; line-height:20px;'>请按 继续 进入正式实验</p>
    </div>
    <p style='font-size:35px'>符合按<span style=""color:lightgreen""> j 键</span>，不符合按<span style=""color:red""> f 键</span></p>","0","html-button-response","13","151527","0.0-7.0-2.0","7","6","6","7","6","5","2","5","2","4","5","2","1","2","1","1","2","1","2","5","4","4","2","4","5","5","4","4","5","8","7","9","8","7","8","8","9","8","6","6","1","6","5","2","3","6","5","6","1","5","2","7","6","5","6","5","6","6","5","6","6","4","2","7","5","6","6","5","7","7","2","7","7","6","7","7","6","6","7","781502952228786178","汪","67","Female","[""坏她"",""好我"",""好她"",""坏我""]","[""弱她"",""强我"",""强她"",""弱我""]","","","","","","","","","","","","","","","","","SRET_EW","prac_instructions","Fri Jan 19 2024 20:17:01 GMT+0800 (中国标准时间)","","","","","","","","","","","","","","","","","","","",""
"614","","j","psychophysics","14","153144","0.0-7.0-3.0-0.0","7","6","6","7","6","5","2","5","2","4","5","2","1","2","1","1","2","1","2","5","4","4","2","4","5","5","4","4","5","8","7","9","8","7","8","8","9","8","6","6","1","6","5","2","3","6","5","6","1","5","2","7","6","5","6","5","6","6","5","6","6","4","2","7","5","6","6","5","7","7","2","7","7","6","7","7","6","6","7","781502952228786178","汪","67","Female","[""坏她"",""好我"",""好她"",""坏我""]","[""弱她"",""强我"",""强她"",""弱我""]","","","","","","","","yes","","","","","","","","","SRET","EW_formal","","key","j","16.47938144329897","720","446","自己","坚贞","Positive","morality","","","","","","","","","","",""
"553","","j","psychophysics","15","154697","0.0-7.0-3.0-0.1","7","6","6","7","6","5","2","5","2","4","5","2","1","2","1","1","2","1","2","5","4","4","2","4","5","5","4","4","5","8","7","9","8","7","8","8","9","8","6","6","1","6","5","2","3","6","5","6","1","5","2","7","6","5","6","5","6","6","5","6","6","4","2","7","5","6","6","5","7","7","2","7","7","6","7","7","6","6","7","781502952228786178","汪","67","Female","[""坏她"",""好我"",""好她"",""坏我""]","[""弱她"",""强我"",""强她"",""弱我""]","","","","","","","","yes","","","","","","","","","SRET","EW_formal","","key","j","16.65376344086009","720","446","朋友","务实","Positive","ability","","","","","","","","","","",""
"607","","f","psychophysics","16","156306","0.0-7.0-3.0-0.2","7","6","6","7","6","5","2","5","2","4","5","2","1","2","1","1","2","1","2","5","4","4","2","4","5","5","4","4","5","8","7","9","8","7","8","8","9","8","6","6","1","6","5","2","3","6","5","6","1","5","2","7","6","5","6","5","6","6","5","6","6","4","2","7","5","6","6","5","7","7","2","7","7","6","7","7","6","6","7","781502952228786178","汪","67","Female","[""坏她"",""好我"",""好她"",""坏我""]","[""弱她"",""强我"",""强她"",""弱我""]","","","","","","","","no","","","","","","","","","SRET","EW_formal","","key","f","16.655789473684088","720","446","自己","说谎","Negative","morality","","","","","","","","","","",""
"556","","f","psychophysics","17","157864","0.0-7.0-3.0-0.3","7","6","6","7","6","5","2","5","2","4","5","2","1","2","1","1","2","1","2","5","4","4","2","4","5","5","4","4","5","8","7","9","8","7","8","8","9","8","6","6","1","6","5","2","3","6","5","6","1","5","2","7","6","5","6","5","6","6","5","6","6","4","2","7","5","6","6","5","7","7","2","7","7","6","7","7","6","6","7","781502952228786178","汪","67","Female","[""坏她"",""好我"",""好她"",""坏我""]","[""弱她"",""强我"",""强她"",""弱我""]","","","","","","","","no","","","","","","","","","SRET","EW_formal","","key","f","16.655913978494624","720","446","朋友","迷糊","Negative","ability","","","","","","","","","","",""
"726","","j","psychophysics","18","159592","0.0-7.0-3.0-0.4","7","6","6","7","6","5","2","5","2","4","5","2","1","2","1","1","2","1","2","5","4","4","2","4","5","5","4","4","5","8","7","9","8","7","8","8","9","8","6","6","1","6","5","2","3","6","5","6","1","5","2","7","6","5","6","5","6","6","5","6","6","4","2","7","5","6","6","5","7","7","2","7","7","6","7","7","6","6","7","781502952228786178","汪","67","Female","[""坏她"",""好我"",""好她"",""坏我""]","[""弱她"",""强我"",""强她"",""弱我""]","","","","","","","","yes","","","","","","","","","SRET","EW_formal","","key","j","16.65436893203878","720","446","朋友","娴熟","Positive","ability","","","","","","","","","","",""
"655","","f","psychophysics","19","161249","0.0-7.0-3.0-0.5","7","6","6","7","6","5","2","5","2","4","5","2","1","2","1","1","2","1","2","5","4","4","2","4","5","5","4","4","5","8","7","9","8","7","8","8","9","8","6","6","1","6","5","2","3","6","5","6","1","5","2","7","6","5","6","5","6","6","5","6","6","4","2","7","5","6","6","5","7","7","2","7","7","6","7","7","6","6","7","781502952228786178","汪","67","Female","[""坏她"",""好我"",""好她"",""坏我""]","[""弱她"",""强我"",""强她"",""弱我""]","","","","","","","","no","","","","","","","","","SRET","EW_formal","","key","f","16.698979591836736","720","446","自己","浅薄","Negative","ability","","","","","","","","","","",""
"535","","j","psychophysics","20","162786","0.0-7.0-3.0-0.6","7","6","6","7","6","5","2","5","2","4","5","2","1","2","1","1","2","1","2","5","4","4","2","4","5","5","4","4","5","8","7","9","8","7","8","8","9","8","6","6","1","6","5","2","3","6","5","6","1","5","2","7","6","5","6","5","6","6","5","6","6","4","2","7","5","6","6","5","7","7","2","7","7","6","7","7","6","6","7","781502952228786178","汪","67","Female","[""坏她"",""好我"",""好她"",""坏我""]","[""弱她"",""强我"",""强她"",""弱我""]","","","","","","","","yes","","","","","","","","","SRET","EW_formal","","key","j","16.656043956043764","720","446","自己","细心","Positive","ability","","","","","","","","","","",""
"659","","f","psychophysics","21","164448","0.0-7.0-3.0-0.7","7","6","6","7","6","5","2","5","2","4","5","2","1","2","1","1","2","1","2","5","4","4","2","4","5","5","4","4","5","8","7","9","8","7","8","8","9","8","6","6","1","6","5","2","3","6","5","6","1","5","2","7","6","5","6","5","6","6","5","6","6","4","2","7","5","6","6","5","7","7","2","7","7","6","7","7","6","6","7","781502952228786178","汪","67","Female","[""坏她"",""好我"",""好她"",""坏我""]","[""弱她"",""强我"",""强她"",""弱我""]","","","","","","","","no","","","","","","","","","SRET","EW_formal","","key","f","16.654545454545335","720","446","朋友","狡狯","Negative","morality","","","","","","","","","","",""
"517","","f","psychophysics","22","165966","0.0-7.0-3.0-0.8","7","6","6","7","6","5","2","5","2","4","5","2","1","2","1","1","2","1","2","5","4","4","2","4","5","5","4","4","5","8","7","9","8","7","8","8","9","8","6","6","1","6","5","2","3","6","5","6","1","5","2","7","6","5","6","5","6","6","5","6","6","4","2","7","5","6","6","5","7","7","2","7","7","6","7","7","6","6","7","781502952228786178","汪","67","Female","[""坏她"",""好我"",""好她"",""坏我""]","[""弱她"",""强我"",""强她"",""弱我""]","","","","","","","","no","","","","","","","","","SRET","EW_formal","","key","f","16.65444444444438","720","446","自己","草率","Negative","ability","","","","","","","","","","",""
"628","","j","psychophysics","23","167596","0.0-7.0-3.0-0.9","7","6","6","7","6","5","2","5","2","4","5","2","1","2","1","1","2","1","2","5","4","4","2","4","5","5","4","4","5","8","7","9","8","7","8","8","9","8","6","6","1","6","5","2","3","6","5","6","1","5","2","7","6","5","6","5","6","6","5","6","6","4","2","7","5","6","6","5","7","7","2","7","7","6","7","7","6","6","7","781502952228786178","汪","67","Female","[""坏她"",""好我"",""好她"",""坏我""]","[""弱她"",""强我"",""强她"",""弱我""]","","","","","","","","yes","","","","","","","","","SRET","EW_formal","","key","j","16.655670103092845","720","446","朋友","仁厚","Positive","morality","","","","","","","","","","",""
"652","","j","psychophysics","24","169249","0.0-7.0-3.0-0.10","7","6","6","7","6","5","2","5","2","4","5","2","1","2","1","1","2","1","2","5","4","4","2","4","5","5","4","4","5","8","7","9","8","7","8","8","9","8","6","6","1","6","5","2","3","6","5","6","1","5","2","7","6","5","6","5","6","6","5","6","6","4","2","7","5","6","6","5","7","7","2","7","7","6","7","7","6","6","7","781502952228786178","汪","67","Female","[""坏她"",""好我"",""好她"",""坏我""]","[""弱她"",""强我"",""强她"",""弱我""]","","","","","","","","yes","","","","","","","","","SRET","EW_formal","","key","j","16.655102040816445","720","446","朋友","守时","Positive","morality","","","","","","","","","","",""
"578","","f","psychophysics","25","170829","0.0-7.0-3.0-0.11","7","6","6","7","6","5","2","5","2","4","5","2","1","2","1","1","2","1","2","5","4","4","2","4","5","5","4","4","5","8","7","9","8","7","8","8","9","8","6","6","1","6","5","2","3","6","5","6","1","5","2","7","6","5","6","5","6","6","5","6","6","4","2","7","5","6","6","5","7","7","2","7","7","6","7","7","6","6","7","781502952228786178","汪","67","Female","[""坏她"",""好我"",""好她"",""坏我""]","[""弱她"",""强我"",""强她"",""弱我""]","","","","","","","","no","","","","","","","","","SRET","EW_formal","","key","f","16.655319148936233","720","446","朋友","诡诈","Negative","morality","","","","","","","","","","",""
"639","","j","psychophysics","26","172469","0.0-7.0-3.0-0.12","7","6","6","7","6","5","2","5","2","4","5","2","1","2","1","1","2","1","2","5","4","4","2","4","5","5","4","4","5","8","7","9","8","7","8","8","9","8","6","6","1","6","5","2","3","6","5","6","1","5","2","7","6","5","6","5","6","6","5","6","6","4","2","7","5","6","6","5","7","7","2","7","7","6","7","7","6","6","7","781502952228786178","汪","67","Female","[""坏她"",""好我"",""好她"",""坏我""]","[""弱她"",""强我"",""强她"",""弱我""]","","","","","","","","yes","","","","","","","","","SRET","EW_formal","","key","j","16.72680412371134","720","446","朋友","忠勇","Positive","morality","","","","","","","","","","",""
"1118","","j","psychophysics","27","174589","0.0-7.0-3.0-0.13","7","6","6","7","6","5","2","5","2","4","5","2","1","2","1","1","2","1","2","5","4","4","2","4","5","5","4","4","5","8","7","9","8","7","8","8","9","8","6","6","1","6","5","2","3","6","5","6","1","5","2","7","6","5","6","5","6","6","5","6","6","4","2","7","5","6","6","5","7","7","2","7","7","6","7","7","6","6","7","781502952228786178","汪","67","Female","[""坏她"",""好我"",""好她"",""坏我""]","[""弱她"",""强我"",""强她"",""弱我""]","","","","","","","","yes","","","","","","","","","SRET","EW_formal","","key","j","16.6555555555556","720","446","自己","依靠","Negative","ability","","","","","","","","","","",""
"576","","f","psychophysics","28","176167","0.0-7.0-3.0-0.14","7","6","6","7","6","5","2","5","2","4","5","2","1","2","1","1","2","1","2","5","4","4","2","4","5","5","4","4","5","8","7","9","8","7","8","8","9","8","6","6","1","6","5","2","3","6","5","6","1","5","2","7","6","5","6","5","6","6","5","6","6","4","2","7","5","6","6","5","7","7","2","7","7","6","7","7","6","6","7","781502952228786178","汪","67","Female","[""坏她"",""好我"",""好她"",""坏我""]","[""弱她"",""强我"",""强她"",""弱我""]","","","","","","","","no","","","","","","","","","SRET","EW_formal","","key","f","16.654255319148938","720","446","自己","歹毒","Negative","morality","","","","","","","","","","",""
"741","","f","psychophysics","29","177910","0.0-7.0-3.0-0.15","7","6","6","7","6","5","2","5","2","4","5","2","1","2","1","1","2","1","2","5","4","4","2","4","5","5","4","4","5","8","7","9","8","7","8","8","9","8","6","6","1","6","5","2","3","6","5","6","1","5","2","7","6","5","6","5","6","6","5","6","6","4","2","7","5","6","6","5","7","7","2","7","7","6","7","7","6","6","7","781502952228786178","汪","67","Female","[""坏她"",""好我"",""好她"",""坏我""]","[""弱她"",""强我"",""强她"",""弱我""]","","","","","","","","no","","","","","","","","","SRET","EW_formal","","key","f","16.655769230769344","720","446","朋友","笨蛋","Negative","ability","","","","","","","","","","",""
"600","","f","psychophysics","30","179512","0.0-7.0-3.0-0.16","7","6","6","7","6","5","2","5","2","4","5","2","1","2","1","1","2","1","2","5","4","4","2","4","5","5","4","4","5","8","7","9","8","7","8","8","9","8","6","6","1","6","5","2","3","6","5","6","1","5","2","7","6","5","6","5","6","6","5","6","6","4","2","7","5","6","6","5","7","7","2","7","7","6","7","7","6","6","7","781502952228786178","汪","67","Female","[""坏她"",""好我"",""好她"",""坏我""]","[""弱她"",""强我"",""强她"",""弱我""]","","","","","","","","no","","","","","","","","","SRET","EW_formal","","key","f","16.65473684210508","720","446","朋友","不孝","Negative","morality","","","","","","","","","","",""
"639","","f","psychophysics","31","181151","0.0-7.0-3.0-0.17","7","6","6","7","6","5","2","5","2","4","5","2","1","2","1","1","2","1","2","5","4","4","2","4","5","5","4","4","5","8","7","9","8","7","8","8","9","8","6","6","1","6","5","2","3","6","5","6","1","5","2","7","6","5","6","5","6","6","5","6","6","4","2","7","5","6","6","5","7","7","2","7","7","6","7","7","6","6","7","781502952228786178","汪","67","Female","[""坏她"",""好我"",""好她"",""坏我""]","[""弱她"",""强我"",""强她"",""弱我""]","","","","","","","","no","","","","","","","","","SRET","EW_formal","","key","f","16.72577319587623","720","446","朋友","逞强","Negative","ability","","","","","","","","","","",""
"608","","f","psychophysics","32","182761","0.0-7.0-3.0-0.18","7","6","6","7","6","5","2","5","2","4","5","2","1","2","1","1","2","1","2","5","4","4","2","4","5","5","4","4","5","8","7","9","8","7","8","8","9","8","6","6","1","6","5","2","3","6","5","6","1","5","2","7","6","5","6","5","6","6","5","6","6","4","2","7","5","6","6","5","7","7","2","7","7","6","7","7","6","6","7","781502952228786178","汪","67","Female","[""坏她"",""好我"",""好她"",""坏我""]","[""弱她"",""强我"",""强她"",""弱我""]","","","","","","","","no","","","","","","","","","SRET","EW_formal","","key","f","16.65625","720","446","自己","迂拙","Negative","ability","","","","","","","","","","",""
"622","","f","psychophysics","33","184383","0.0-7.0-3.0-0.19","7","6","6","7","6","5","2","5","2","4","5","2","1","2","1","1","2","1","2","5","4","4","2","4","5","5","4","4","5","8","7","9","8","7","8","8","9","8","6","6","1","6","5","2","3","6","5","6","1","5","2","7","6","5","6","5","6","6","5","6","6","4","2","7","5","6","6","5","7","7","2","7","7","6","7","7","6","6","7","781502952228786178","汪","67","Female","[""坏她"",""好我"",""好她"",""坏我""]","[""弱她"",""强我"",""强她"",""弱我""]","","","","","","","","no","","","","","","","","","SRET","EW_formal","","key","f","16.654166666666544","720","446","朋友","粗心","Negative","ability","","","","","","","","","","",""
"623","","j","psychophysics","34","186007","0.0-7.0-3.0-0.20","7","6","6","7","6","5","2","5","2","4","5","2","1","2","1","1","2","1","2","5","4","4","2","4","5","5","4","4","5","8","7","9","8","7","8","8","9","8","6","6","1","6","5","2","3","6","5","6","1","5","2","7","6","5","6","5","6","6","5","6","6","4","2","7","5","6","6","5","7","7","2","7","7","6","7","7","6","6","7","781502952228786178","汪","67","Female","[""坏她"",""好我"",""好她"",""坏我""]","[""弱她"",""强我"",""强她"",""弱我""]","","","","","","","","yes","","","","","","","","","SRET","EW_formal","","key","j","16.655670103092845","720","446","自己","博识","Positive","ability","","","","","","","","","","",""
"832","","j","psychophysics","35","187841","0.0-7.0-3.0-0.21","7","6","6","7","6","5","2","5","2","4","5","2","1","2","1","1","2","1","2","5","4","4","2","4","5","5","4","4","5","8","7","9","8","7","8","8","9","8","6","6","1","6","5","2","3","6","5","6","1","5","2","7","6","5","6","5","6","6","5","6","6","4","2","7","5","6","6","5","7","7","2","7","7","6","7","7","6","6","7","781502952228786178","汪","67","Female","[""坏她"",""好我"",""好她"",""坏我""]","[""弱她"",""强我"",""强她"",""弱我""]","","","","","","","","yes","","","","","","","","","SRET","EW_formal","","key","j","16.655045871559846","720","446","朋友","坦荡","Positive","morality","","","","","","","","","","",""
"591","","f","psychophysics","36","189434","0.0-7.0-3.0-0.22","7","6","6","7","6","5","2","5","2","4","5","2","1","2","1","1","2","1","2","5","4","4","2","4","5","5","4","4","5","8","7","9","8","7","8","8","9","8","6","6","1","6","5","2","3","6","5","6","1","5","2","7","6","5","6","5","6","6","5","6","6","4","2","7","5","6","6","5","7","7","2","7","7","6","7","7","6","6","7","781502952228786178","汪","67","Female","[""坏她"",""好我"",""好她"",""坏我""]","[""弱她"",""强我"",""强她"",""弱我""]","","","","","","","","no","","","","","","","","","SRET","EW_formal","","key","f","16.654255319148938","720","446","朋友","愚蠢","Negative","ability","","","","","","","","","","",""
"670","","f","psychophysics","37","191105","0.0-7.0-3.0-0.23","7","6","6","7","6","5","2","5","2","4","5","2","1","2","1","1","2","1","2","5","4","4","2","4","5","5","4","4","5","8","7","9","8","7","8","8","9","8","6","6","1","6","5","2","3","6","5","6","1","5","2","7","6","5","6","5","6","6","5","6","6","4","2","7","5","6","6","5","7","7","2","7","7","6","7","7","6","6","7","781502952228786178","汪","67","Female","[""坏她"",""好我"",""好她"",""坏我""]","[""弱她"",""强我"",""强她"",""弱我""]","","","","","","","","no","","","","","","","","","SRET","EW_formal","","key","f","16.72424242424225","720","446","朋友","罪恶","Negative","morality","","","","","","","","","","",""
"641","","f","psychophysics","38","192748","0.0-7.0-3.0-0.24","7","6","6","7","6","5","2","5","2","4","5","2","1","2","1","1","2","1","2","5","4","4","2","4","5","5","4","4","5","8","7","9","8","7","8","8","9","8","6","6","1","6","5","2","3","6","5","6","1","5","2","7","6","5","6","5","6","6","5","6","6","4","2","7","5","6","6","5","7","7","2","7","7","6","7","7","6","6","7","781502952228786178","汪","67","Female","[""坏她"",""好我"",""好她"",""坏我""]","[""弱她"",""强我"",""强她"",""弱我""]","","","","","","","","no","","","","","","","","","SRET","EW_formal","","key","f","16.655102040816445","720","446","自己","偏私","Negative","morality","","","","","","","","","","",""
"660","","j","psychophysics","39","194409","0.0-7.0-3.0-0.25","7","6","6","7","6","5","2","5","2","4","5","2","1","2","1","1","2","1","2","5","4","4","2","4","5","5","4","4","5","8","7","9","8","7","8","8","9","8","6","6","1","6","5","2","3","6","5","6","1","5","2","7","6","5","6","5","6","6","5","6","6","4","2","7","5","6","6","5","7","7","2","7","7","6","7","7","6","6","7","781502952228786178","汪","67","Female","[""坏她"",""好我"",""好她"",""坏我""]","[""弱她"",""强我"",""强她"",""弱我""]","","","","","","","","yes","","","","","","","","","SRET","EW_formal","","key","j","16.65454545454563","720","446","自己","廉明","Positive","morality","","","","","","","","","","",""
"976","","j","psychophysics","40","196387","0.0-7.0-3.0-0.26","7","6","6","7","6","5","2","5","2","4","5","2","1","2","1","1","2","1","2","5","4","4","2","4","5","5","4","4","5","8","7","9","8","7","8","8","9","8","6","6","1","6","5","2","3","6","5","6","1","5","2","7","6","5","6","5","6","6","5","6","6","4","2","7","5","6","6","5","7","7","2","7","7","6","7","7","6","6","7","781502952228786178","汪","67","Female","[""坏她"",""好我"",""好她"",""坏我""]","[""弱她"",""强我"",""强她"",""弱我""]","","","","","","","","yes","","","","","","","","","SRET","EW_formal","","key","j","16.654700854700906","720","446","自己","无敌","Positive","ability","","","","","","","","","","",""
"687","","j","psychophysics","41","198075","0.0-7.0-3.0-0.27","7","6","6","7","6","5","2","5","2","4","5","2","1","2","1","1","2","1","2","5","4","4","2","4","5","5","4","4","5","8","7","9","8","7","8","8","9","8","6","6","1","6","5","2","3","6","5","6","1","5","2","7","6","5","6","5","6","6","5","6","6","4","2","7","5","6","6","5","7","7","2","7","7","6","7","7","6","6","7","781502952228786178","汪","67","Female","[""坏她"",""好我"",""好她"",""坏我""]","[""弱她"",""强我"",""强她"",""弱我""]","","","","","","","","yes","","","","","","","","","SRET","EW_formal","","key","j","16.653465346534652","720","446","朋友","扎实","Positive","ability","","","","","","","","","","",""
"640","","f","psychophysics","42","199717","0.0-7.0-3.0-0.28","7","6","6","7","6","5","2","5","2","4","5","2","1","2","1","1","2","1","2","5","4","4","2","4","5","5","4","4","5","8","7","9","8","7","8","8","9","8","6","6","1","6","5","2","3","6","5","6","1","5","2","7","6","5","6","5","6","6","5","6","6","4","2","7","5","6","6","5","7","7","2","7","7","6","7","7","6","6","7","781502952228786178","汪","67","Female","[""坏她"",""好我"",""好她"",""坏我""]","[""弱她"",""强我"",""强她"",""弱我""]","","","","","","","","no","","","","","","","","","SRET","EW_formal","","key","f","16.65463917525773","720","446","朋友","自私","Negative","morality","","","","","","","","","","",""
"759","","f","psychophysics","43","201477","0.0-7.0-3.0-0.29","7","6","6","7","6","5","2","5","2","4","5","2","1","2","1","1","2","1","2","5","4","4","2","4","5","5","4","4","5","8","7","9","8","7","8","8","9","8","6","6","1","6","5","2","3","6","5","6","1","5","2","7","6","5","6","5","6","6","5","6","6","4","2","7","5","6","6","5","7","7","2","7","7","6","7","7","6","6","7","781502952228786178","汪","67","Female","[""坏她"",""好我"",""好她"",""坏我""]","[""弱她"",""强我"",""强她"",""弱我""]","","","","","","","","no","","","","","","","","","SRET","EW_formal","","key","f","16.720952380952216","720","446","自己","昏庸","Negative","ability","","","","","","","","","","",""
"660","","f","psychophysics","44","203139","0.0-7.0-3.0-0.30","7","6","6","7","6","5","2","5","2","4","5","2","1","2","1","1","2","1","2","5","4","4","2","4","5","5","4","4","5","8","7","9","8","7","8","8","9","8","6","6","1","6","5","2","3","6","5","6","1","5","2","7","6","5","6","5","6","6","5","6","6","4","2","7","5","6","6","5","7","7","2","7","7","6","7","7","6","6","7","781502952228786178","汪","67","Female","[""坏她"",""好我"",""好她"",""坏我""]","[""弱她"",""强我"",""强她"",""弱我""]","","","","","","","","no","","","","","","","","","SRET","EW_formal","","key","f","16.655102040816445","720","446","自己","失信","Negative","morality","","","","","","","","","","",""
"658","","j","psychophysics","45","204798","0.0-7.0-3.0-0.31","7","6","6","7","6","5","2","5","2","4","5","2","1","2","1","1","2","1","2","5","4","4","2","4","5","5","4","4","5","8","7","9","8","7","8","8","9","8","6","6","1","6","5","2","3","6","5","6","1","5","2","7","6","5","6","5","6","6","5","6","6","4","2","7","5","6","6","5","7","7","2","7","7","6","7","7","6","6","7","781502952228786178","汪","67","Female","[""坏她"",""好我"",""好她"",""坏我""]","[""弱她"",""强我"",""强她"",""弱我""]","","","","","","","","yes","","","","","","","","","SRET","EW_formal","","key","j","16.655555555555498","720","446","自己","果断","Positive","ability","","","","","","","","","","",""
"677","","j","psychophysics","46","206476","0.0-7.0-3.0-0.32","7","6","6","7","6","5","2","5","2","4","5","2","1","2","1","1","2","1","2","5","4","4","2","4","5","5","4","4","5","8","7","9","8","7","8","8","9","8","6","6","1","6","5","2","3","6","5","6","1","5","2","7","6","5","6","5","6","6","5","6","6","4","2","7","5","6","6","5","7","7","2","7","7","6","7","7","6","6","7","781502952228786178","汪","67","Female","[""坏她"",""好我"",""好她"",""坏我""]","[""弱她"",""强我"",""强她"",""弱我""]","","","","","","","","yes","","","","","","","","","SRET","EW_formal","","key","j","16.655999999999768","720","446","朋友","上进","Positive","ability","","","","","","","","","","",""
"561","","j","psychophysics","47","208038","0.0-7.0-3.0-0.33","7","6","6","7","6","5","2","5","2","4","5","2","1","2","1","1","2","1","2","5","4","4","2","4","5","5","4","4","5","8","7","9","8","7","8","8","9","8","6","6","1","6","5","2","3","6","5","6","1","5","2","7","6","5","6","5","6","6","5","6","6","4","2","7","5","6","6","5","7","7","2","7","7","6","7","7","6","6","7","781502952228786178","汪","67","Female","[""坏她"",""好我"",""好她"",""坏我""]","[""弱她"",""强我"",""强她"",""弱我""]","","","","","","","","yes","","","","","","","","","SRET","EW_formal","","key","j","16.655913978494624","720","446","自己","正气","Positive","morality","","","","","","","","","","",""
"506","","j","psychophysics","48","209546","0.0-7.0-3.0-0.34","7","6","6","7","6","5","2","5","2","4","5","2","1","2","1","1","2","1","2","5","4","4","2","4","5","5","4","4","5","8","7","9","8","7","8","8","9","8","6","6","1","6","5","2","3","6","5","6","1","5","2","7","6","5","6","5","6","6","5","6","6","4","2","7","5","6","6","5","7","7","2","7","7","6","7","7","6","6","7","781502952228786178","汪","67","Female","[""坏她"",""好我"",""好她"",""坏我""]","[""弱她"",""强我"",""强她"",""弱我""]","","","","","","","","yes","","","","","","","","","SRET","EW_formal","","key","j","16.65505617977515","720","446","自己","廉正","Positive","morality","","","","","","","","","","",""
"559","","j","psychophysics","49","211107","0.0-7.0-3.0-0.35","7","6","6","7","6","5","2","5","2","4","5","2","1","2","1","1","2","1","2","5","4","4","2","4","5","5","4","4","5","8","7","9","8","7","8","8","9","8","6","6","1","6","5","2","3","6","5","6","1","5","2","7","6","5","6","5","6","6","5","6","6","4","2","7","5","6","6","5","7","7","2","7","7","6","7","7","6","6","7","781502952228786178","汪","67","Female","[""坏她"",""好我"",""好她"",""坏我""]","[""弱她"",""强我"",""强她"",""弱我""]","","","","","","","","yes","","","","","","","","","SRET","EW_formal","","key","j","16.634408602150536","720","446","朋友","厚道","Positive","morality","","","","","","","","","","",""
"664","","f","psychophysics","50","212773","0.0-7.0-3.0-0.36","7","6","6","7","6","5","2","5","2","4","5","2","1","2","1","1","2","1","2","5","4","4","2","4","5","5","4","4","5","8","7","9","8","7","8","8","9","8","6","6","1","6","5","2","3","6","5","6","1","5","2","7","6","5","6","5","6","6","5","6","6","4","2","7","5","6","6","5","7","7","2","7","7","6","7","7","6","6","7","781502952228786178","汪","67","Female","[""坏她"",""好我"",""好她"",""坏我""]","[""弱她"",""强我"",""强她"",""弱我""]","","","","","","","","no","","","","","","","","","SRET","EW_formal","","key","f","16.655555555555498","720","446","朋友","龌龊","Negative","morality","","","","","","","","","","",""
"641","","j","psychophysics","51","214416","0.0-7.0-3.0-0.37","7","6","6","7","6","5","2","5","2","4","5","2","1","2","1","1","2","1","2","5","4","4","2","4","5","5","4","4","5","8","7","9","8","7","8","8","9","8","6","6","1","6","5","2","3","6","5","6","1","5","2","7","6","5","6","5","6","6","5","6","6","4","2","7","5","6","6","5","7","7","2","7","7","6","7","7","6","6","7","781502952228786178","汪","67","Female","[""坏她"",""好我"",""好她"",""坏我""]","[""弱她"",""强我"",""强她"",""弱我""]","","","","","","","","yes","","","","","","","","","SRET","EW_formal","","key","j","16.65510204081615","720","446","自己","勤奋","Positive","ability","","","","","","","","","","",""
"511","","j","psychophysics","52","215929","0.0-7.0-3.0-0.38","7","6","6","7","6","5","2","5","2","4","5","2","1","2","1","1","2","1","2","5","4","4","2","4","5","5","4","4","5","8","7","9","8","7","8","8","9","8","6","6","1","6","5","2","3","6","5","6","1","5","2","7","6","5","6","5","6","6","5","6","6","4","2","7","5","6","6","5","7","7","2","7","7","6","7","7","6","6","7","781502952228786178","汪","67","Female","[""坏她"",""好我"",""好她"",""坏我""]","[""弱她"",""强我"",""强她"",""弱我""]","","","","","","","","yes","","","","","","","","","SRET","EW_formal","","key","j","16.655555555555555","720","446","自己","孝顺","Positive","morality","","","","","","","","","","",""
"725","","f","psychophysics","53","217655","0.0-7.0-3.0-0.39","7","6","6","7","6","5","2","5","2","4","5","2","1","2","1","1","2","1","2","5","4","4","2","4","5","5","4","4","5","8","7","9","8","7","8","8","9","8","6","6","1","6","5","2","3","6","5","6","1","5","2","7","6","5","6","5","6","6","5","6","6","4","2","7","5","6","6","5","7","7","2","7","7","6","7","7","6","6","7","781502952228786178","汪","67","Female","[""坏她"",""好我"",""好她"",""坏我""]","[""弱她"",""强我"",""强她"",""弱我""]","","","","","","","","no","","","","","","","","","SRET","EW_formal","","key","f","16.6549019607842","720","446","自己","刻薄","Negative","morality","","","","","","","","","","",""
"525","","j","psychophysics","54","219182","0.0-7.0-3.0-0.40","7","6","6","7","6","5","2","5","2","4","5","2","1","2","1","1","2","1","2","5","4","4","2","4","5","5","4","4","5","8","7","9","8","7","8","8","9","8","6","6","1","6","5","2","3","6","5","6","1","5","2","7","6","5","6","5","6","6","5","6","6","4","2","7","5","6","6","5","7","7","2","7","7","6","7","7","6","6","7","781502952228786178","汪","67","Female","[""坏她"",""好我"",""好她"",""坏我""]","[""弱她"",""强我"",""强她"",""弱我""]","","","","","","","","yes","","","","","","","","","SRET","EW_formal","","key","j","16.65494505494512","720","446","自己","高尚","Positive","morality","","","","","","","","","","",""
"761","","f","psychophysics","55","220945","0.0-7.0-3.0-0.41","7","6","6","7","6","5","2","5","2","4","5","2","1","2","1","1","2","1","2","5","4","4","2","4","5","5","4","4","5","8","7","9","8","7","8","8","9","8","6","6","1","6","5","2","3","6","5","6","1","5","2","7","6","5","6","5","6","6","5","6","6","4","2","7","5","6","6","5","7","7","2","7","7","6","7","7","6","6","7","781502952228786178","汪","67","Female","[""坏她"",""好我"",""好她"",""坏我""]","[""弱她"",""强我"",""强她"",""弱我""]","","","","","","","","no","","","","","","","","","SRET","EW_formal","","key","f","16.655769230769344","720","446","自己","无为","Negative","ability","","","","","","","","","","",""
"687","","j","psychophysics","56","222634","0.0-7.0-3.0-0.42","7","6","6","7","6","5","2","5","2","4","5","2","1","2","1","1","2","1","2","5","4","4","2","4","5","5","4","4","5","8","7","9","8","7","8","8","9","8","6","6","1","6","5","2","3","6","5","6","1","5","2","7","6","5","6","5","6","6","5","6","6","4","2","7","5","6","6","5","7","7","2","7","7","6","7","7","6","6","7","781502952228786178","汪","67","Female","[""坏她"",""好我"",""好她"",""坏我""]","[""弱她"",""强我"",""强她"",""弱我""]","","","","","","","","yes","","","","","","","","","SRET","EW_formal","","key","j","16.65544554455457","720","446","自己","慷慨","Positive","morality","","","","","","","","","","",""
"797","","f","psychophysics","57","224434","0.0-7.0-3.0-0.43","7","6","6","7","6","5","2","5","2","4","5","2","1","2","1","1","2","1","2","5","4","4","2","4","5","5","4","4","5","8","7","9","8","7","8","8","9","8","6","6","1","6","5","2","3","6","5","6","1","5","2","7","6","5","6","5","6","6","5","6","6","4","2","7","5","6","6","5","7","7","2","7","7","6","7","7","6","6","7","781502952228786178","汪","67","Female","[""坏她"",""好我"",""好她"",""坏我""]","[""弱她"",""强我"",""强她"",""弱我""]","","","","","","","","no","","","","","","","","","SRET","EW_formal","","key","f","16.655140186915943","720","446","朋友","盲目","Negative","ability","","","","","","","","","","",""
"627","","j","psychophysics","58","226062","0.0-7.0-3.0-0.44","7","6","6","7","6","5","2","5","2","4","5","2","1","2","1","1","2","1","2","5","4","4","2","4","5","5","4","4","5","8","7","9","8","7","8","8","9","8","6","6","1","6","5","2","3","6","5","6","1","5","2","7","6","5","6","5","6","6","5","6","6","4","2","7","5","6","6","5","7","7","2","7","7","6","7","7","6","6","7","781502952228786178","汪","67","Female","[""坏她"",""好我"",""好她"",""坏我""]","[""弱她"",""强我"",""强她"",""弱我""]","","","","","","","","yes","","","","","","","","","SRET","EW_formal","","key","j","16.655208333333274","720","446","朋友","能干","Positive","ability","","","","","","","","","","",""
"661","","f","psychophysics","59","227734","0.0-7.0-3.0-0.45","7","6","6","7","6","5","2","5","2","4","5","2","1","2","1","1","2","1","2","5","4","4","2","4","5","5","4","4","5","8","7","9","8","7","8","8","9","8","6","6","1","6","5","2","3","6","5","6","1","5","2","7","6","5","6","5","6","6","5","6","6","4","2","7","5","6","6","5","7","7","2","7","7","6","7","7","6","6","7","781502952228786178","汪","67","Female","[""坏她"",""好我"",""好她"",""坏我""]","[""弱她"",""强我"",""强她"",""弱我""]","","","","","","","","no","","","","","","","","","SRET","EW_formal","","key","f","16.655","720","446","自己","蛇蝎","Negative","morality","","","","","","","","","","",""
"639","","f","psychophysics","60","229376","0.0-7.0-3.0-0.46","7","6","6","7","6","5","2","5","2","4","5","2","1","2","1","1","2","1","2","5","4","4","2","4","5","5","4","4","5","8","7","9","8","7","8","8","9","8","6","6","1","6","5","2","3","6","5","6","1","5","2","7","6","5","6","5","6","6","5","6","6","4","2","7","5","6","6","5","7","7","2","7","7","6","7","7","6","6","7","781502952228786178","汪","67","Female","[""坏她"",""好我"",""好她"",""坏我""]","[""弱她"",""强我"",""强她"",""弱我""]","","","","","","","","no","","","","","","","","","SRET","EW_formal","","key","f","16.656122448979474","720","446","自己","小人","Negative","morality","","","","","","","","","","",""
"957","","j","psychophysics","61","231334","0.0-7.0-3.0-0.47","7","6","6","7","6","5","2","5","2","4","5","2","1","2","1","1","2","1","2","5","4","4","2","4","5","5","4","4","5","8","7","9","8","7","8","8","9","8","6","6","1","6","5","2","3","6","5","6","1","5","2","7","6","5","6","5","6","6","5","6","6","4","2","7","5","6","6","5","7","7","2","7","7","6","7","7","6","6","7","781502952228786178","汪","67","Female","[""坏她"",""好我"",""好她"",""坏我""]","[""弱她"",""强我"",""强她"",""弱我""]","","","","","","","","yes","","","","","","","","","SRET","EW_formal","","key","j","16.714655172413742","720","446","自己","利落","Positive","ability","","","","","","","","","","",""
"934","","j","psychophysics","62","233271","0.0-7.0-3.0-0.48","7","6","6","7","6","5","2","5","2","4","5","2","1","2","1","1","2","1","2","5","4","4","2","4","5","5","4","4","5","8","7","9","8","7","8","8","9","8","6","6","1","6","5","2","3","6","5","6","1","5","2","7","6","5","6","5","6","6","5","6","6","4","2","7","5","6","6","5","7","7","2","7","7","6","7","7","6","6","7","781502952228786178","汪","67","Female","[""坏她"",""好我"",""好她"",""坏我""]","[""弱她"",""强我"",""强她"",""弱我""]","","","","","","","","yes","","","","","","","","","SRET","EW_formal","","key","j","16.65478260869555","720","446","朋友","刚正","Positive","morality","","","","","","","","","","",""
"897","","j","psychophysics","63","235171","0.0-7.0-3.0-0.49","7","6","6","7","6","5","2","5","2","4","5","2","1","2","1","1","2","1","2","5","4","4","2","4","5","5","4","4","5","8","7","9","8","7","8","8","9","8","6","6","1","6","5","2","3","6","5","6","1","5","2","7","6","5","6","5","6","6","5","6","6","4","2","7","5","6","6","5","7","7","2","7","7","6","7","7","6","6","7","781502952228786178","汪","67","Female","[""坏她"",""好我"",""好她"",""坏我""]","[""弱她"",""强我"",""强她"",""弱我""]","","","","","","","","yes","","","","","","","","","SRET","EW_formal","","key","j","16.654867256637168","720","446","朋友","自律","Positive","ability","","","","","","","","","","",""
"649","","j","psychophysics","64","236821","0.0-7.0-3.0-0.50","7","6","6","7","6","5","2","5","2","4","5","2","1","2","1","1","2","1","2","5","4","4","2","4","5","5","4","4","5","8","7","9","8","7","8","8","9","8","6","6","1","6","5","2","3","6","5","6","1","5","2","7","6","5","6","5","6","6","5","6","6","4","2","7","5","6","6","5","7","7","2","7","7","6","7","7","6","6","7","781502952228786178","汪","67","Female","[""坏她"",""好我"",""好她"",""坏我""]","[""弱她"",""强我"",""强她"",""弱我""]","","","","","","","","yes","","","","","","","","","SRET","EW_formal","","key","j","16.655102040816445","720","446","朋友","聪明","Positive","ability","","","","","","","","","","",""
"1051","","f","psychophysics","65","238874","0.0-7.0-3.0-0.51","7","6","6","7","6","5","2","5","2","4","5","2","1","2","1","1","2","1","2","5","4","4","2","4","5","5","4","4","5","8","7","9","8","7","8","8","9","8","6","6","1","6","5","2","3","6","5","6","1","5","2","7","6","5","6","5","6","6","5","6","6","4","2","7","5","6","6","5","7","7","2","7","7","6","7","7","6","6","7","781502952228786178","汪","67","Female","[""坏她"",""好我"",""好她"",""坏我""]","[""弱她"",""强我"",""强她"",""弱我""]","","","","","","","","no","","","","","","","","","SRET","EW_formal","","key","f","16.65491803278684","720","446","朋友","虚伪","Negative","morality","","","","","","","","","","",""
"975","","f","psychophysics","66","240851","0.0-7.0-3.0-0.52","7","6","6","7","6","5","2","5","2","4","5","2","1","2","1","1","2","1","2","5","4","4","2","4","5","5","4","4","5","8","7","9","8","7","8","8","9","8","6","6","1","6","5","2","3","6","5","6","1","5","2","7","6","5","6","5","6","6","5","6","6","4","2","7","5","6","6","5","7","7","2","7","7","6","7","7","6","6","7","781502952228786178","汪","67","Female","[""坏她"",""好我"",""好她"",""坏我""]","[""弱她"",""强我"",""强她"",""弱我""]","","","","","","","","no","","","","","","","","","SRET","EW_formal","","key","f","16.655084745762615","720","446","自己","外行","Negative","ability","","","","","","","","","","",""
"697","","f","psychophysics","67","242549","0.0-7.0-3.0-0.53","7","6","6","7","6","5","2","5","2","4","5","2","1","2","1","1","2","1","2","5","4","4","2","4","5","5","4","4","5","8","7","9","8","7","8","8","9","8","6","6","1","6","5","2","3","6","5","6","1","5","2","7","6","5","6","5","6","6","5","6","6","4","2","7","5","6","6","5","7","7","2","7","7","6","7","7","6","6","7","781502952228786178","汪","67","Female","[""坏她"",""好我"",""好她"",""坏我""]","[""弱她"",""强我"",""强她"",""弱我""]","","","","","","","","no","","","","","","","","","SRET","EW_formal","","key","f","16.722772277227723","720","446","朋友","迟钝","Negative","ability","","","","","","","","","","",""
"855","","j","psychophysics","68","244405","0.0-7.0-3.0-0.54","7","6","6","7","6","5","2","5","2","4","5","2","1","2","1","1","2","1","2","5","4","4","2","4","5","5","4","4","5","8","7","9","8","7","8","8","9","8","6","6","1","6","5","2","3","6","5","6","1","5","2","7","6","5","6","5","6","6","5","6","6","4","2","7","5","6","6","5","7","7","2","7","7","6","7","7","6","6","7","781502952228786178","汪","67","Female","[""坏她"",""好我"",""好她"",""坏我""]","[""弱她"",""强我"",""强她"",""弱我""]","","","","","","","","yes","","","","","","","","","SRET","EW_formal","","key","j","16.654545454545456","720","446","朋友","高效","Positive","ability","","","","","","","","","","",""
"942","","j","psychophysics","69","246349","0.0-7.0-3.0-0.55","7","6","6","7","6","5","2","5","2","4","5","2","1","2","1","1","2","1","2","5","4","4","2","4","5","5","4","4","5","8","7","9","8","7","8","8","9","8","6","6","1","6","5","2","3","6","5","6","1","5","2","7","6","5","6","5","6","6","5","6","6","4","2","7","5","6","6","5","7","7","2","7","7","6","7","7","6","6","7","781502952228786178","汪","67","Female","[""坏她"",""好我"",""好她"",""坏我""]","[""弱她"",""强我"",""强她"",""弱我""]","","","","","","","","yes","","","","","","","","","SRET","EW_formal","","key","j","16.655172413793103","720","446","朋友","忠义","Positive","morality","","","","","","","","","","",""
"585","","f","psychophysics","70","247936","0.0-7.0-3.0-0.56","7","6","6","7","6","5","2","5","2","4","5","2","1","2","1","1","2","1","2","5","4","4","2","4","5","5","4","4","5","8","7","9","8","7","8","8","9","8","6","6","1","6","5","2","3","6","5","6","1","5","2","7","6","5","6","5","6","6","5","6","6","4","2","7","5","6","6","5","7","7","2","7","7","6","7","7","6","6","7","781502952228786178","汪","67","Female","[""坏她"",""好我"",""好她"",""坏我""]","[""弱她"",""强我"",""强她"",""弱我""]","","","","","","","","no","","","","","","","","","SRET","EW_formal","","key","f","16.655319148936233","720","446","朋友","邪恶","Negative","morality","","","","","","","","","","",""
"635","","f","psychophysics","71","249574","0.0-7.0-3.0-0.57","7","6","6","7","6","5","2","5","2","4","5","2","1","2","1","1","2","1","2","5","4","4","2","4","5","5","4","4","5","8","7","9","8","7","8","8","9","8","6","6","1","6","5","2","3","6","5","6","1","5","2","7","6","5","6","5","6","6","5","6","6","4","2","7","5","6","6","5","7","7","2","7","7","6","7","7","6","6","7","781502952228786178","汪","67","Female","[""坏她"",""好我"",""好她"",""坏我""]","[""弱她"",""强我"",""强她"",""弱我""]","","","","","","","","no","","","","","","","","","SRET","EW_formal","","key","f","16.655670103092845","720","446","自己","背叛","Negative","morality","","","","","","","","","","",""
"636","","f","psychophysics","72","251212","0.0-7.0-3.0-0.58","7","6","6","7","6","5","2","5","2","4","5","2","1","2","1","1","2","1","2","5","4","4","2","4","5","5","4","4","5","8","7","9","8","7","8","8","9","8","6","6","1","6","5","2","3","6","5","6","1","5","2","7","6","5","6","5","6","6","5","6","6","4","2","7","5","6","6","5","7","7","2","7","7","6","7","7","6","6","7","781502952228786178","汪","67","Female","[""坏她"",""好我"",""好她"",""坏我""]","[""弱她"",""强我"",""强她"",""弱我""]","","","","","","","","no","","","","","","","","","SRET","EW_formal","","key","f","16.724489795918366","720","446","朋友","业余","Negative","ability","","","","","","","","","","",""
"1014","","j","psychophysics","73","253228","0.0-7.0-3.0-0.59","7","6","6","7","6","5","2","5","2","4","5","2","1","2","1","1","2","1","2","5","4","4","2","4","5","5","4","4","5","8","7","9","8","7","8","8","9","8","6","6","1","6","5","2","3","6","5","6","1","5","2","7","6","5","6","5","6","6","5","6","6","4","2","7","5","6","6","5","7","7","2","7","7","6","7","7","6","6","7","781502952228786178","汪","67","Female","[""坏她"",""好我"",""好她"",""坏我""]","[""弱她"",""强我"",""强她"",""弱我""]","","","","","","","","yes","","","","","","","","","SRET","EW_formal","","key","j","16.655000000000047","720","446","朋友","仗义","Positive","morality","","","","","","","","","","",""
"1369","","j","psychophysics","74","255599","0.0-7.0-3.0-0.60","7","6","6","7","6","5","2","5","2","4","5","2","1","2","1","1","2","1","2","5","4","4","2","4","5","5","4","4","5","8","7","9","8","7","8","8","9","8","6","6","1","6","5","2","3","6","5","6","1","5","2","7","6","5","6","5","6","6","5","6","6","4","2","7","5","6","6","5","7","7","2","7","7","6","7","7","6","6","7","781502952228786178","汪","67","Female","[""坏她"",""好我"",""好她"",""坏我""]","[""弱她"",""强我"",""强她"",""弱我""]","","","","","","","","yes","","","","","","","","","SRET","EW_formal","","key","j","16.65460992907793","720","446","朋友","利己","Negative","morality","","","","","","","","","","",""
"1051","","j","psychophysics","75","257651","0.0-7.0-3.0-0.61","7","6","6","7","6","5","2","5","2","4","5","2","1","2","1","1","2","1","2","5","4","4","2","4","5","5","4","4","5","8","7","9","8","7","8","8","9","8","6","6","1","6","5","2","3","6","5","6","1","5","2","7","6","5","6","5","6","6","5","6","6","4","2","7","5","6","6","5","7","7","2","7","7","6","7","7","6","6","7","781502952228786178","汪","67","Female","[""坏她"",""好我"",""好她"",""坏我""]","[""弱她"",""强我"",""强她"",""弱我""]","","","","","","","","yes","","","","","","","","","SRET","EW_formal","","key","j","16.65491803278684","720","446","朋友","骁勇","Positive","ability","","","","","","","","","","",""
"1129","","j","psychophysics","76","259782","0.0-7.0-3.0-0.62","7","6","6","7","6","5","2","5","2","4","5","2","1","2","1","1","2","1","2","5","4","4","2","4","5","5","4","4","5","8","7","9","8","7","8","8","9","8","6","6","1","6","5","2","3","6","5","6","1","5","2","7","6","5","6","5","6","6","5","6","6","4","2","7","5","6","6","5","7","7","2","7","7","6","7","7","6","6","7","781502952228786178","汪","67","Female","[""坏她"",""好我"",""好她"",""坏我""]","[""弱她"",""强我"",""强她"",""弱我""]","","","","","","","","yes","","","","","","","","","SRET","EW_formal","","key","j","16.65590551181116","720","446","自己","诚信","Positive","morality","","","","","","","","","","",""
"801","","f","psychophysics","77","261586","0.0-7.0-3.0-0.63","7","6","6","7","6","5","2","5","2","4","5","2","1","2","1","1","2","1","2","5","4","4","2","4","5","5","4","4","5","8","7","9","8","7","8","8","9","8","6","6","1","6","5","2","3","6","5","6","1","5","2","7","6","5","6","5","6","6","5","6","6","4","2","7","5","6","6","5","7","7","2","7","7","6","7","7","6","6","7","781502952228786178","汪","67","Female","[""坏她"",""好我"",""好她"",""坏我""]","[""弱她"",""强我"",""强她"",""弱我""]","","","","","","","","no","","","","","","","","","SRET","EW_formal","","key","f","16.7196261682243","720","446","自己","毛糙","Negative","ability","","","","","","","","","","",""
"745","","j","psychophysics","78","263332","0.0-7.0-3.0-0.64","7","6","6","7","6","5","2","5","2","4","5","2","1","2","1","1","2","1","2","5","4","4","2","4","5","5","4","4","5","8","7","9","8","7","8","8","9","8","6","6","1","6","5","2","3","6","5","6","1","5","2","7","6","5","6","5","6","6","5","6","6","4","2","7","5","6","6","5","7","7","2","7","7","6","7","7","6","6","7","781502952228786178","汪","67","Female","[""坏她"",""好我"",""好她"",""坏我""]","[""弱她"",""强我"",""强她"",""弱我""]","","","","","","","","yes","","","","","","","","","SRET","EW_formal","","key","j","16.655769230769344","720","446","朋友","稳健","Positive","ability","","","","","","","","","","",""
"854","","f","psychophysics","79","265189","0.0-7.0-3.0-0.65","7","6","6","7","6","5","2","5","2","4","5","2","1","2","1","1","2","1","2","5","4","4","2","4","5","5","4","4","5","8","7","9","8","7","8","8","9","8","6","6","1","6","5","2","3","6","5","6","1","5","2","7","6","5","6","5","6","6","5","6","6","4","2","7","5","6","6","5","7","7","2","7","7","6","7","7","6","6","7","781502952228786178","汪","67","Female","[""坏她"",""好我"",""好她"",""坏我""]","[""弱她"",""强我"",""强她"",""弱我""]","","","","","","","","no","","","","","","","","","SRET","EW_formal","","key","f","16.655454545454862","720","446","朋友","犹豫","Negative","ability","","","","","","","","","","",""
"881","","f","psychophysics","80","267072","0.0-7.0-3.0-0.66","7","6","6","7","6","5","2","5","2","4","5","2","1","2","1","1","2","1","2","5","4","4","2","4","5","5","4","4","5","8","7","9","8","7","8","8","9","8","6","6","1","6","5","2","3","6","5","6","1","5","2","7","6","5","6","5","6","6","5","6","6","4","2","7","5","6","6","5","7","7","2","7","7","6","7","7","6","6","7","781502952228786178","汪","67","Female","[""坏她"",""好我"",""好她"",""坏我""]","[""弱她"",""强我"",""强她"",""弱我""]","","","","","","","","no","","","","","","","","","SRET","EW_formal","","key","f","16.654867256637168","720","446","自己","怠惰","Negative","ability","","","","","","","","","","",""
"1710","","f","psychophysics","81","269783","0.0-7.0-3.0-0.67","7","6","6","7","6","5","2","5","2","4","5","2","1","2","1","1","2","1","2","5","4","4","2","4","5","5","4","4","5","8","7","9","8","7","8","8","9","8","6","6","1","6","5","2","3","6","5","6","1","5","2","7","6","5","6","5","6","6","5","6","6","4","2","7","5","6","6","5","7","7","2","7","7","6","7","7","6","6","7","781502952228786178","汪","67","Female","[""坏她"",""好我"",""好她"",""坏我""]","[""弱她"",""强我"",""强她"",""弱我""]","","","","","","","","no","","","","","","","","","SRET","EW_formal","","key","f","16.65527950310559","720","446","自己","有力","Positive","ability","","","","","","","","","","",""
"750","","f","psychophysics","82","271534","0.0-7.0-3.0-0.68","7","6","6","7","6","5","2","5","2","4","5","2","1","2","1","1","2","1","2","5","4","4","2","4","5","5","4","4","5","8","7","9","8","7","8","8","9","8","6","6","1","6","5","2","3","6","5","6","1","5","2","7","6","5","6","5","6","6","5","6","6","4","2","7","5","6","6","5","7","7","2","7","7","6","7","7","6","6","7","781502952228786178","汪","67","Female","[""坏她"",""好我"",""好她"",""坏我""]","[""弱她"",""强我"",""强她"",""弱我""]","","","","","","","","no","","","","","","","","","SRET","EW_formal","","key","f","16.721153846153847","720","446","自己","拖延","Negative","ability","","","","","","","","","","",""
"888","","j","psychophysics","83","273424","0.0-7.0-3.0-0.69","7","6","6","7","6","5","2","5","2","4","5","2","1","2","1","1","2","1","2","5","4","4","2","4","5","5","4","4","5","8","7","9","8","7","8","8","9","8","6","6","1","6","5","2","3","6","5","6","1","5","2","7","6","5","6","5","6","6","5","6","6","4","2","7","5","6","6","5","7","7","2","7","7","6","7","7","6","6","7","781502952228786178","汪","67","Female","[""坏她"",""好我"",""好她"",""坏我""]","[""弱她"",""强我"",""强她"",""弱我""]","","","","","","","","yes","","","","","","","","","SRET","EW_formal","","key","j","16.65535714285735","720","446","自己","善心","Positive","morality","","","","","","","","","","",""
"1040","","j","psychophysics","84","275465","0.0-7.0-3.0-0.70","7","6","6","7","6","5","2","5","2","4","5","2","1","2","1","1","2","1","2","5","4","4","2","4","5","5","4","4","5","8","7","9","8","7","8","8","9","8","6","6","1","6","5","2","3","6","5","6","1","5","2","7","6","5","6","5","6","6","5","6","6","4","2","7","5","6","6","5","7","7","2","7","7","6","7","7","6","6","7","781502952228786178","汪","67","Female","[""坏她"",""好我"",""好她"",""坏我""]","[""弱她"",""强我"",""强她"",""弱我""]","","","","","","","","yes","","","","","","","","","SRET","EW_formal","","key","j","16.654918032787076","720","446","朋友","善良","Positive","morality","","","","","","","","","","",""
"1280","","f","psychophysics","85","277747","0.0-7.0-3.0-0.71","7","6","6","7","6","5","2","5","2","4","5","2","1","2","1","1","2","1","2","5","4","4","2","4","5","5","4","4","5","8","7","9","8","7","8","8","9","8","6","6","1","6","5","2","3","6","5","6","1","5","2","7","6","5","6","5","6","6","5","6","6","4","2","7","5","6","6","5","7","7","2","7","7","6","7","7","6","6","7","781502952228786178","汪","67","Female","[""坏她"",""好我"",""好她"",""坏我""]","[""弱她"",""强我"",""强她"",""弱我""]","","","","","","","","no","","","","","","","","","SRET","EW_formal","","key","f","16.655147058823786","720","446","自己","卑鄙","Negative","morality","","","","","","","","","","",""
"1573","","f","psychophysics","86","280322","0.0-7.0-3.0-0.72","7","6","6","7","6","5","2","5","2","4","5","2","1","2","1","1","2","1","2","5","4","4","2","4","5","5","4","4","5","8","7","9","8","7","8","8","9","8","6","6","1","6","5","2","3","6","5","6","1","5","2","7","6","5","6","5","6","6","5","6","6","4","2","7","5","6","6","5","7","7","2","7","7","6","7","7","6","6","7","781502952228786178","汪","67","Female","[""坏她"",""好我"",""好她"",""坏我""]","[""弱她"",""强我"",""强她"",""弱我""]","","","","","","","","no","","","","","","","","","SRET","EW_formal","","key","f","16.655194805194956","720","446","朋友","伪善","Negative","morality","","","","","","","","","","",""
"614","","j","psychophysics","87","281937","0.0-7.0-3.0-0.73","7","6","6","7","6","5","2","5","2","4","5","2","1","2","1","1","2","1","2","5","4","4","2","4","5","5","4","4","5","8","7","9","8","7","8","8","9","8","6","6","1","6","5","2","3","6","5","6","1","5","2","7","6","5","6","5","6","6","5","6","6","4","2","7","5","6","6","5","7","7","2","7","7","6","7","7","6","6","7","781502952228786178","汪","67","Female","[""坏她"",""好我"",""好她"",""坏我""]","[""弱她"",""强我"",""强她"",""弱我""]","","","","","","","","yes","","","","","","","","","SRET","EW_formal","","key","j","16.727368421053","720","446","自己","坚持","Positive","ability","","","","","","","","","","",""
"722","","f","psychophysics","88","283662","0.0-7.0-3.0-0.74","7","6","6","7","6","5","2","5","2","4","5","2","1","2","1","1","2","1","2","5","4","4","2","4","5","5","4","4","5","8","7","9","8","7","8","8","9","8","6","6","1","6","5","2","3","6","5","6","1","5","2","7","6","5","6","5","6","6","5","6","6","4","2","7","5","6","6","5","7","7","2","7","7","6","7","7","6","6","7","781502952228786178","汪","67","Female","[""坏她"",""好我"",""好她"",""坏我""]","[""弱她"",""强我"",""强她"",""弱我""]","","","","","","","","no","","","","","","","","","SRET","EW_formal","","key","f","16.654368932039063","720","446","朋友","弱智","Negative","ability","","","","","","","","","","",""
"1175","","j","psychophysics","89","285838","0.0-7.0-3.0-0.75","7","6","6","7","6","5","2","5","2","4","5","2","1","2","1","1","2","1","2","5","4","4","2","4","5","5","4","4","5","8","7","9","8","7","8","8","9","8","6","6","1","6","5","2","3","6","5","6","1","5","2","7","6","5","6","5","6","6","5","6","6","4","2","7","5","6","6","5","7","7","2","7","7","6","7","7","6","6","7","781502952228786178","汪","67","Female","[""坏她"",""好我"",""好她"",""坏我""]","[""弱她"",""强我"",""强她"",""弱我""]","","","","","","","","yes","","","","","","","","","SRET","EW_formal","","key","j","16.655038759689923","720","446","自己","变通","Positive","ability","","","","","","","","","","",""
"644","","f","psychophysics","90","287483","0.0-7.0-3.0-0.76","7","6","6","7","6","5","2","5","2","4","5","2","1","2","1","1","2","1","2","5","4","4","2","4","5","5","4","4","5","8","7","9","8","7","8","8","9","8","6","6","1","6","5","2","3","6","5","6","1","5","2","7","6","5","6","5","6","6","5","6","6","4","2","7","5","6","6","5","7","7","2","7","7","6","7","7","6","6","7","781502952228786178","汪","67","Female","[""坏她"",""好我"",""好她"",""坏我""]","[""弱她"",""强我"",""强她"",""弱我""]","","","","","","","","no","","","","","","","","","SRET","EW_formal","","key","f","16.654081632652822","720","446","自己","无耻","Negative","morality","","","","","","","","","","",""
"825","","j","psychophysics","91","289311","0.0-7.0-3.0-0.77","7","6","6","7","6","5","2","5","2","4","5","2","1","2","1","1","2","1","2","5","4","4","2","4","5","5","4","4","5","8","7","9","8","7","8","8","9","8","6","6","1","6","5","2","3","6","5","6","1","5","2","7","6","5","6","5","6","6","5","6","6","4","2","7","5","6","6","5","7","7","2","7","7","6","7","7","6","6","7","781502952228786178","汪","67","Female","[""坏她"",""好我"",""好她"",""坏我""]","[""弱她"",""强我"",""强她"",""弱我""]","","","","","","","","yes","","","","","","","","","SRET","EW_formal","","key","j","16.655045871559313","720","446","自己","中用","Positive","ability","","","","","","","","","","",""
"1186","","j","psychophysics","92","291499","0.0-7.0-3.0-0.78","7","6","6","7","6","5","2","5","2","4","5","2","1","2","1","1","2","1","2","5","4","4","2","4","5","5","4","4","5","8","7","9","8","7","8","8","9","8","6","6","1","6","5","2","3","6","5","6","1","5","2","7","6","5","6","5","6","6","5","6","6","4","2","7","5","6","6","5","7","7","2","7","7","6","7","7","6","6","7","781502952228786178","汪","67","Female","[""坏她"",""好我"",""好她"",""坏我""]","[""弱她"",""强我"",""强她"",""弱我""]","","","","","","","","yes","","","","","","","","","SRET","EW_formal","","key","j","16.70846153846136","720","446","自己","侠义","Positive","morality","","","","","","","","","","",""
"659","","f","psychophysics","93","293159","0.0-7.0-3.0-0.79","7","6","6","7","6","5","2","5","2","4","5","2","1","2","1","1","2","1","2","5","4","4","2","4","5","5","4","4","5","8","7","9","8","7","8","8","9","8","6","6","1","6","5","2","3","6","5","6","1","5","2","7","6","5","6","5","6","6","5","6","6","4","2","7","5","6","6","5","7","7","2","7","7","6","7","7","6","6","7","781502952228786178","汪","67","Female","[""坏她"",""好我"",""好她"",""坏我""]","[""弱她"",""强我"",""强她"",""弱我""]","","","","","","","","no","","","","","","","","","SRET","EW_formal","","key","f","16.654545454545335","720","446","朋友","短视","Negative","ability","","","","","","","","","","",""
"1039","","f","psychophysics","94","295200","0.0-7.0-3.0-0.80","7","6","6","7","6","5","2","5","2","4","5","2","1","2","1","1","2","1","2","5","4","4","2","4","5","5","4","4","5","8","7","9","8","7","8","8","9","8","6","6","1","6","5","2","3","6","5","6","1","5","2","7","6","5","6","5","6","6","5","6","6","4","2","7","5","6","6","5","7","7","2","7","7","6","7","7","6","6","7","781502952228786178","汪","67","Female","[""坏她"",""好我"",""好她"",""坏我""]","[""弱她"",""强我"",""强她"",""弱我""]","","","","","","","","no","","","","","","","","","SRET","EW_formal","","key","f","16.65537190082635","720","446","自己","腐败","Negative","morality","","","","","","","","","","",""
"1259","","j","psychophysics","95","297460","0.0-7.0-3.0-0.81","7","6","6","7","6","5","2","5","2","4","5","2","1","2","1","1","2","1","2","5","4","4","2","4","5","5","4","4","5","8","7","9","8","7","8","8","9","8","6","6","1","6","5","2","3","6","5","6","1","5","2","7","6","5","6","5","6","6","5","6","6","4","2","7","5","6","6","5","7","7","2","7","7","6","7","7","6","6","7","781502952228786178","汪","67","Female","[""坏她"",""好我"",""好她"",""坏我""]","[""弱她"",""强我"",""强她"",""弱我""]","","","","","","","","yes","","","","","","","","","SRET","EW_formal","","key","j","16.654814814814557","720","446","朋友","慈悲","Positive","morality","","","","","","","","","","",""
"915","","j","psychophysics","96","299376","0.0-7.0-3.0-0.82","7","6","6","7","6","5","2","5","2","4","5","2","1","2","1","1","2","1","2","5","4","4","2","4","5","5","4","4","5","8","7","9","8","7","8","8","9","8","6","6","1","6","5","2","3","6","5","6","1","5","2","7","6","5","6","5","6","6","5","6","6","4","2","7","5","6","6","5","7","7","2","7","7","6","7","7","6","6","7","781502952228786178","汪","67","Female","[""坏她"",""好我"",""好她"",""坏我""]","[""弱她"",""强我"",""强她"",""弱我""]","","","","","","","","yes","","","","","","","","","SRET","EW_formal","","key","j","16.654385964912077","720","446","朋友","肯干","Positive","ability","","","","","","","","","","",""
"987","","j","psychophysics","97","301365","0.0-7.0-3.0-0.83","7","6","6","7","6","5","2","5","2","4","5","2","1","2","1","1","2","1","2","5","4","4","2","4","5","5","4","4","5","8","7","9","8","7","8","8","9","8","6","6","1","6","5","2","3","6","5","6","1","5","2","7","6","5","6","5","6","6","5","6","6","4","2","7","5","6","6","5","7","7","2","7","7","6","7","7","6","6","7","781502952228786178","汪","67","Female","[""坏她"",""好我"",""好她"",""坏我""]","[""弱她"",""强我"",""强她"",""弱我""]","","","","","","","","yes","","","","","","","","","SRET","EW_formal","","key","j","16.712711864407076","720","446","自己","爱国","Positive","morality","","","","","","","","","","",""
"648","","f","psychophysics","98","303015","0.0-7.0-3.0-0.84","7","6","6","7","6","5","2","5","2","4","5","2","1","2","1","1","2","1","2","5","4","4","2","4","5","5","4","4","5","8","7","9","8","7","8","8","9","8","6","6","1","6","5","2","3","6","5","6","1","5","2","7","6","5","6","5","6","6","5","6","6","4","2","7","5","6","6","5","7","7","2","7","7","6","7","7","6","6","7","781502952228786178","汪","67","Female","[""坏她"",""好我"",""好她"",""坏我""]","[""弱她"",""强我"",""强她"",""弱我""]","","","","","","","","no","","","","","","","","","SRET","EW_formal","","key","f","16.655102040816445","720","446","朋友","低俗","Negative","morality","","","","","","","","","","",""
"1029","","j","psychophysics","99","305045","0.0-7.0-3.0-0.85","7","6","6","7","6","5","2","5","2","4","5","2","1","2","1","1","2","1","2","5","4","4","2","4","5","5","4","4","5","8","7","9","8","7","8","8","9","8","6","6","1","6","5","2","3","6","5","6","1","5","2","7","6","5","6","5","6","6","5","6","6","4","2","7","5","6","6","5","7","7","2","7","7","6","7","7","6","6","7","781502952228786178","汪","67","Female","[""坏她"",""好我"",""好她"",""坏我""]","[""弱她"",""强我"",""强她"",""弱我""]","","","","","","","","yes","","","","","","","","","SRET","EW_formal","","key","j","16.65537190082635","720","446","自己","主见","Positive","ability","","","","","","","","","","",""
"687","","f","psychophysics","100","306734","0.0-7.0-3.0-0.86","7","6","6","7","6","5","2","5","2","4","5","2","1","2","1","1","2","1","2","5","4","4","2","4","5","5","4","4","5","8","7","9","8","7","8","8","9","8","6","6","1","6","5","2","3","6","5","6","1","5","2","7","6","5","6","5","6","6","5","6","6","4","2","7","5","6","6","5","7","7","2","7","7","6","7","7","6","6","7","781502952228786178","汪","67","Female","[""坏她"",""好我"",""好她"",""坏我""]","[""弱她"",""强我"",""强她"",""弱我""]","","","","","","","","no","","","","","","","","","SRET","EW_formal","","key","f","16.65399999999965","720","446","自己","缓慢","Negative","ability","","","","","","","","","","",""
"682","","j","psychophysics","101","308417","0.0-7.0-3.0-0.87","7","6","6","7","6","5","2","5","2","4","5","2","1","2","1","1","2","1","2","5","4","4","2","4","5","5","4","4","5","8","7","9","8","7","8","8","9","8","6","6","1","6","5","2","3","6","5","6","1","5","2","7","6","5","6","5","6","6","5","6","6","4","2","7","5","6","6","5","7","7","2","7","7","6","7","7","6","6","7","781502952228786178","汪","67","Female","[""坏她"",""好我"",""好她"",""坏我""]","[""弱她"",""强我"",""强她"",""弱我""]","","","","","","","","yes","","","","","","","","","SRET","EW_formal","","key","j","16.654000000000234","720","446","朋友","素养","Positive","morality","","","","","","","","","","",""
"13975","
    <p><div style='color:white;font-size:35px; line-height:20px;'>计算任务</div></p><br>
    <p><div style='color:red;font-size:25px; line-height:20px;'>接下来，您将看到一些四则运算题，<b>请从键盘选择 0-9 进行反应。</b></div></p>
    <p><div style='color:red;font-size:25px; line-height:20px;'>请尽可能快地进行计算，计算的速度和正确率将影响报酬的发放。</div></p>
    <p><div class='footer' style='color:white;font-size:25px; line-height:20px;'>如果对本实验还有不清楚之处，请立即向实验员咨询。</p><p style='color:white;font-size:25px; line-height:20px;'>如果您明白了规则：</p><p style='color:white;font-size:22px; line-height:20px;'>请按 继续 进入练习</p>
    </div>
    ","0","html-button-response","102","322393","0.0-7.0-4.0","7","6","6","7","6","5","2","5","2","4","5","2","1","2","1","1","2","1","2","5","4","4","2","4","5","5","4","4","5","8","7","9","8","7","8","8","9","8","6","6","1","6","5","2","3","6","5","6","1","5","2","7","6","5","6","5","6","6","5","6","6","4","2","7","5","6","6","5","7","7","2","7","7","6","7","7","6","6","7","781502952228786178","汪","67","Female","[""坏她"",""好我"",""好她"",""坏我""]","[""弱她"",""强我"",""强她"",""弱我""]","","","","","","","","","","","","","","","","","SRET_math","math_instructions","Fri Jan 19 2024 20:17:01 GMT+0800 (中国标准时间)","","","","","","","","","","","","","","","","","","","",""
"2139","","3","psychophysics","103","324551","0.0-7.0-5.0-0.0","7","6","6","7","6","5","2","5","2","4","5","2","1","2","1","1","2","1","2","5","4","4","2","4","5","5","4","4","5","8","7","9","8","7","8","8","9","8","6","6","1","6","5","2","3","6","5","6","1","5","2","7","6","5","6","5","6","6","5","6","6","4","2","7","5","6","6","5","7","7","2","7","7","6","7","7","6","6","7","781502952228786178","汪","67","Female","[""坏她"",""好我"",""好她"",""坏我""]","[""弱她"",""强我"",""强她"",""弱我""]","","","","","","","","3","","","","","","","","","SRET","SRET_math_calculate","","key","3","16.523846153845973","720","446","","","","","3+0= ?","3","1","","","","","","","",""
"2049","","7","psychophysics","104","326602","0.0-7.0-5.0-0.1","7","6","6","7","6","5","2","5","2","4","5","2","1","2","1","1","2","1","2","5","4","4","2","4","5","5","4","4","5","8","7","9","8","7","8","8","9","8","6","6","1","6","5","2","3","6","5","6","1","5","2","7","6","5","6","5","6","6","5","6","6","4","2","7","5","6","6","5","7","7","2","7","7","6","7","7","6","6","7","781502952228786178","汪","67","Female","[""坏她"",""好我"",""好她"",""坏我""]","[""弱她"",""强我"",""强她"",""弱我""]","","","","","","","","7","","","","","","","","","SRET","SRET_math_calculate","","key","7","16.65409836065564","720","446","","","","","5+2= ?","7","1","","","","","","","",""
"1856","","5","psychophysics","105","328474","0.0-7.0-5.0-0.2","7","6","6","7","6","5","2","5","2","4","5","2","1","2","1","1","2","1","2","5","4","4","2","4","5","5","4","4","5","8","7","9","8","7","8","8","9","8","6","6","1","6","5","2","3","6","5","6","1","5","2","7","6","5","6","5","6","6","5","6","6","4","2","7","5","6","6","5","7","7","2","7","7","6","7","7","6","6","7","781502952228786178","汪","67","Female","[""坏她"",""好我"",""好她"",""坏我""]","[""弱她"",""强我"",""强她"",""弱我""]","","","","","","","","5","","","","","","","","","SRET","SRET_math_calculate","","key","5","16.654954954954537","720","446","","","","","4+1= ?","5","1","","","","","","","",""
"3230","","8","psychophysics","106","331706","0.0-7.0-5.0-0.3","7","6","6","7","6","5","2","5","2","4","5","2","1","2","1","1","2","1","2","5","4","4","2","4","5","5","4","4","5","8","7","9","8","7","8","8","9","8","6","6","1","6","5","2","3","6","5","6","1","5","2","7","6","5","6","5","6","6","5","6","6","4","2","7","5","6","6","5","7","7","2","7","7","6","7","7","6","6","7","781502952228786178","汪","67","Female","[""坏她"",""好我"",""好她"",""坏我""]","[""弱她"",""强我"",""强她"",""弱我""]","","","","","","","","8","","","","","","","","","SRET","SRET_math_calculate","","key","8","16.654922279792867","720","446","","","","","72/9= ?","8","1","","","","","","","",""
"2487","","8","psychophysics","107","334203","0.0-7.0-5.0-0.4","7","6","6","7","6","5","2","5","2","4","5","2","1","2","1","1","2","1","2","5","4","4","2","4","5","5","4","4","5","8","7","9","8","7","8","8","9","8","6","6","1","6","5","2","3","6","5","6","1","5","2","7","6","5","6","5","6","6","5","6","6","4","2","7","5","6","6","5","7","7","2","7","7","6","7","7","6","6","7","781502952228786178","汪","67","Female","[""坏她"",""好我"",""好她"",""坏我""]","[""弱她"",""强我"",""强她"",""弱我""]","","","","","","","","8","","","","","","","","","SRET","SRET_math_calculate","","key","8","16.644295302013422","720","446","","","","","8*1= ?","8","1","","","","","","","",""
"2057","","1","psychophysics","108","336276","0.0-7.0-5.0-0.5","7","6","6","7","6","5","2","5","2","4","5","2","1","2","1","1","2","1","2","5","4","4","2","4","5","5","4","4","5","8","7","9","8","7","8","8","9","8","6","6","1","6","5","2","3","6","5","6","1","5","2","7","6","5","6","5","6","6","5","6","6","4","2","7","5","6","6","5","7","7","2","7","7","6","7","7","6","6","7","781502952228786178","汪","67","Female","[""坏她"",""好我"",""好她"",""坏我""]","[""弱她"",""强我"",""强她"",""弱我""]","","","","","","","","1","","","","","","","","","SRET","SRET_math_calculate","","key","1","16.655645161290227","720","446","","","","","9-8= ?","1","1","","","","","","","",""
"3385","","8","psychophysics","109","339675","0.0-7.0-5.0-0.6","7","6","6","7","6","5","2","5","2","4","5","2","1","2","1","1","2","1","2","5","4","4","2","4","5","5","4","4","5","8","7","9","8","7","8","8","9","8","6","6","1","6","5","2","3","6","5","6","1","5","2","7","6","5","6","5","6","6","5","6","6","4","2","7","5","6","6","5","7","7","2","7","7","6","7","7","6","6","7","781502952228786178","汪","67","Female","[""坏她"",""好我"",""好她"",""坏我""]","[""弱她"",""强我"",""强她"",""弱我""]","","","","","","","","8","","","","","","","","","SRET","SRET_math_calculate","","key","8","16.65467980295578","720","446","","","","","56/7= ?","8","1","","","","","","","",""
"2514","","0","psychophysics","110","342198","0.0-7.0-5.0-0.7","7","6","6","7","6","5","2","5","2","4","5","2","1","2","1","1","2","1","2","5","4","4","2","4","5","5","4","4","5","8","7","9","8","7","8","8","9","8","6","6","1","6","5","2","3","6","5","6","1","5","2","7","6","5","6","5","6","6","5","6","6","4","2","7","5","6","6","5","7","7","2","7","7","6","7","7","6","6","7","781502952228786178","汪","67","Female","[""坏她"",""好我"",""好她"",""坏我""]","[""弱她"",""强我"",""强她"",""弱我""]","","","","","","","","0","","","","","","","","","SRET","SRET_math_calculate","","key","0","16.70066666666651","720","446","","","","","6*0= ?","0","1","","","","","","","",""
"2490","","8","psychophysics","111","344707","0.0-7.0-5.0-0.8","7","6","6","7","6","5","2","5","2","4","5","2","1","2","1","1","2","1","2","5","4","4","2","4","5","5","4","4","5","8","7","9","8","7","8","8","9","8","6","6","1","6","5","2","3","6","5","6","1","5","2","7","6","5","6","5","6","6","5","6","6","4","2","7","5","6","6","5","7","7","2","7","7","6","7","7","6","6","7","781502952228786178","汪","67","Female","[""坏她"",""好我"",""好她"",""坏我""]","[""弱她"",""强我"",""强她"",""弱我""]","","","","","","","","8","","","","","","","","","SRET","SRET_math_calculate","","key","8","16.655333333333257","720","446","","","","","13-5= ?","8","1","","","","","","","",""
"2196","","6","psychophysics","112","346917","0.0-7.0-5.0-0.9","7","6","6","7","6","5","2","5","2","4","5","2","1","2","1","1","2","1","2","5","4","4","2","4","5","5","4","4","5","8","7","9","8","7","8","8","9","8","6","6","1","6","5","2","3","6","5","6","1","5","2","7","6","5","6","5","6","6","5","6","6","4","2","7","5","6","6","5","7","7","2","7","7","6","7","7","6","6","7","781502952228786178","汪","67","Female","[""坏她"",""好我"",""好她"",""坏我""]","[""弱她"",""强我"",""强她"",""弱我""]","","","","","","","","6","","","","","","","","","SRET","SRET_math_calculate","","key","6","16.654961832061424","720","446","","","","","11-5= ?","6","1","","","","","","","",""
"2567","","5","psychophysics","113","349499","0.0-7.0-5.0-0.10","7","6","6","7","6","5","2","5","2","4","5","2","1","2","1","1","2","1","2","5","4","4","2","4","5","5","4","4","5","8","7","9","8","7","8","8","9","8","6","6","1","6","5","2","3","6","5","6","1","5","2","7","6","5","6","5","6","6","5","6","6","4","2","7","5","6","6","5","7","7","2","7","7","6","7","7","6","6","7","781502952228786178","汪","67","Female","[""坏她"",""好我"",""好她"",""坏我""]","[""弱她"",""强我"",""强她"",""弱我""]","","","","","","","","5","","","","","","","","","SRET","SRET_math_calculate","","key","5","16.655194805194956","720","446","","","","","12-7= ?","5","1","","","","","","","",""
"1936","","6","psychophysics","114","351449","0.0-7.0-5.0-0.11","7","6","6","7","6","5","2","5","2","4","5","2","1","2","1","1","2","1","2","5","4","4","2","4","5","5","4","4","5","8","7","9","8","7","8","8","9","8","6","6","1","6","5","2","3","6","5","6","1","5","2","7","6","5","6","5","6","6","5","6","6","4","2","7","5","6","6","5","7","7","2","7","7","6","7","7","6","6","7","781502952228786178","汪","67","Female","[""坏她"",""好我"",""好她"",""坏我""]","[""弱她"",""强我"",""强她"",""弱我""]","","","","","","","","6","","","","","","","","","SRET","SRET_math_calculate","","key","6","16.655172413793103","720","446","","","","","2+4= ?","6","1","","","","","","","",""
"2105","","3","psychophysics","115","353571","0.0-7.0-5.0-0.12","7","6","6","7","6","5","2","5","2","4","5","2","1","2","1","1","2","1","2","5","4","4","2","4","5","5","4","4","5","8","7","9","8","7","8","8","9","8","6","6","1","6","5","2","3","6","5","6","1","5","2","7","6","5","6","5","6","6","5","6","6","4","2","7","5","6","6","5","7","7","2","7","7","6","7","7","6","6","7","781502952228786178","汪","67","Female","[""坏她"",""好我"",""好她"",""坏我""]","[""弱她"",""强我"",""强她"",""弱我""]","","","","","","","","3","","","","","","","","","SRET","SRET_math_calculate","","key","3","16.70952380952353","720","446","","","","","8-5= ?","3","1","","","","","","","",""
"2128","","4","psychophysics","116","355715","0.0-7.0-5.0-0.13","7","6","6","7","6","5","2","5","2","4","5","2","1","2","1","1","2","1","2","5","4","4","2","4","5","5","4","4","5","8","7","9","8","7","8","8","9","8","6","6","1","6","5","2","3","6","5","6","1","5","2","7","6","5","6","5","6","6","5","6","6","4","2","7","5","6","6","5","7","7","2","7","7","6","7","7","6","6","7","781502952228786178","汪","67","Female","[""坏她"",""好我"",""好她"",""坏我""]","[""弱她"",""强我"",""强她"",""弱我""]","","","","","","","","4","","","","","","","","","SRET","SRET_math_calculate","","key","4","16.65468749999991","720","446","","","","","9-5= ?","4","1","","","","","","","",""
"2492","","8","psychophysics","117","358208","0.0-7.0-5.0-0.14","7","6","6","7","6","5","2","5","2","4","5","2","1","2","1","1","2","1","2","5","4","4","2","4","5","5","4","4","5","8","7","9","8","7","8","8","9","8","6","6","1","6","5","2","3","6","5","6","1","5","2","7","6","5","6","5","6","6","5","6","6","4","2","7","5","6","6","5","7","7","2","7","7","6","7","7","6","6","7","781502952228786178","汪","67","Female","[""坏她"",""好我"",""好她"",""坏我""]","[""弱她"",""强我"",""强她"",""弱我""]","","","","","","","","8","","","","","","","","","SRET","SRET_math_calculate","","key","8","16.655704697986657","720","446","","","","","2*4= ?","8","1","","","","","","","",""
"2035","","9","psychophysics","118","360258","0.0-7.0-5.0-0.15","7","6","6","7","6","5","2","5","2","4","5","2","1","2","1","1","2","1","2","5","4","4","2","4","5","5","4","4","5","8","7","9","8","7","8","8","9","8","6","6","1","6","5","2","3","6","5","6","1","5","2","7","6","5","6","5","6","6","5","6","6","4","2","7","5","6","6","5","7","7","2","7","7","6","7","7","6","6","7","781502952228786178","汪","67","Female","[""坏她"",""好我"",""好她"",""坏我""]","[""弱她"",""强我"",""强她"",""弱我""]","","","","","","","","9","","","","","","","","","SRET","SRET_math_calculate","","key","9","16.654098360656118","720","446","","","","","3*3= ?","9","1","","","","","","","",""
"2773","","2","psychophysics","119","363047","0.0-7.0-5.0-0.16","7","6","6","7","6","5","2","5","2","4","5","2","1","2","1","1","2","1","2","5","4","4","2","4","5","5","4","4","5","8","7","9","8","7","8","8","9","8","6","6","1","6","5","2","3","6","5","6","1","5","2","7","6","5","6","5","6","6","5","6","6","4","2","7","5","6","6","5","7","7","2","7","7","6","7","7","6","6","7","781502952228786178","汪","67","Female","[""坏她"",""好我"",""好她"",""坏我""]","[""弱她"",""强我"",""强她"",""弱我""]","","","","","","","","2","","","","","","","","","SRET","SRET_math_calculate","","key","2","16.696987951807298","720","446","","","","","19-17= ?","2","1","","","","","","","",""
"2320","","7","psychophysics","120","365384","0.0-7.0-5.0-0.17","7","6","6","7","6","5","2","5","2","4","5","2","1","2","1","1","2","1","2","5","4","4","2","4","5","5","4","4","5","8","7","9","8","7","8","8","9","8","6","6","1","6","5","2","3","6","5","6","1","5","2","7","6","5","6","5","6","6","5","6","6","4","2","7","5","6","6","5","7","7","2","7","7","6","7","7","6","6","7","781502952228786178","汪","67","Female","[""坏她"",""好我"",""好她"",""坏我""]","[""弱她"",""强我"",""强她"",""弱我""]","","","","","","","","7","","","","","","","","","SRET","SRET_math_calculate","","key","7","16.654676258992804","720","446","","","","","21/3= ? ","7","1","","","","","","","",""
"2829","","9","psychophysics","121","368215","0.0-7.0-5.0-0.18","7","6","6","7","6","5","2","5","2","4","5","2","1","2","1","1","2","1","2","5","4","4","2","4","5","5","4","4","5","8","7","9","8","7","8","8","9","8","6","6","1","6","5","2","3","6","5","6","1","5","2","7","6","5","6","5","6","6","5","6","6","4","2","7","5","6","6","5","7","7","2","7","7","6","7","7","6","6","7","781502952228786178","汪","67","Female","[""坏她"",""好我"",""好她"",""坏我""]","[""弱她"",""强我"",""强她"",""弱我""]","","","","","","","","9","","","","","","","","","SRET","SRET_math_calculate","","key","9","16.655029585798886","720","446","","","","","6+3= ?","9","1","","","","","","","",""
"2266","","6","psychophysics","122","370497","0.0-7.0-5.0-0.19","7","6","6","7","6","5","2","5","2","4","5","2","1","2","1","1","2","1","2","5","4","4","2","4","5","5","4","4","5","8","7","9","8","7","8","8","9","8","6","6","1","6","5","2","3","6","5","6","1","5","2","7","6","5","6","5","6","6","5","6","6","4","2","7","5","6","6","5","7","7","2","7","7","6","7","7","6","6","7","781502952228786178","汪","67","Female","[""坏她"",""好我"",""好她"",""坏我""]","[""弱她"",""强我"",""强她"",""弱我""]","","","","","","","","6","","","","","","","","","SRET","SRET_math_calculate","","key","6","16.654411764705884","720","446","","","","","9-3= ?","6","1","","","","","","","",""
"2402","","2","psychophysics","123","372914","0.0-7.0-5.0-0.20","7","6","6","7","6","5","2","5","2","4","5","2","1","2","1","1","2","1","2","5","4","4","2","4","5","5","4","4","5","8","7","9","8","7","8","8","9","8","6","6","1","6","5","2","3","6","5","6","1","5","2","7","6","5","6","5","6","6","5","6","6","4","2","7","5","6","6","5","7","7","2","7","7","6","7","7","6","6","7","781502952228786178","汪","67","Female","[""坏她"",""好我"",""好她"",""坏我""]","[""弱她"",""强我"",""强她"",""弱我""]","","","","","","","","2","","","","","","","","","SRET","SRET_math_calculate","","key","2","16.60551724137923","720","446","","","","","8/4= ?","2","1","","","","","","","",""
"2283","","0","psychophysics","124","375199","0.0-7.0-5.0-0.21","7","6","6","7","6","5","2","5","2","4","5","2","1","2","1","1","2","1","2","5","4","4","2","4","5","5","4","4","5","8","7","9","8","7","8","8","9","8","6","6","1","6","5","2","3","6","5","6","1","5","2","7","6","5","6","5","6","6","5","6","6","4","2","7","5","6","6","5","7","7","2","7","7","6","7","7","6","6","7","781502952228786178","汪","67","Female","[""坏她"",""好我"",""好她"",""坏我""]","[""弱她"",""强我"",""强她"",""弱我""]","","","","","","","","0","","","","","","","","","SRET","SRET_math_calculate","","key","0","16.655147058823786","720","446","","","","","32-32= ?","0","1","","","","","","","",""
"2009","","8","psychophysics","125","377211","0.0-7.0-5.0-0.22","7","6","6","7","6","5","2","5","2","4","5","2","1","2","1","1","2","1","2","5","4","4","2","4","5","5","4","4","5","8","7","9","8","7","8","8","9","8","6","6","1","6","5","2","3","6","5","6","1","5","2","7","6","5","6","5","6","6","5","6","6","4","2","7","5","6","6","5","7","7","2","7","7","6","7","7","6","6","7","781502952228786178","汪","67","Female","[""坏她"",""好我"",""好她"",""坏我""]","[""弱她"",""强我"",""强她"",""弱我""]","","","","","","","","8","","","","","","","","","SRET","SRET_math_calculate","","key","8","16.654999999999806","720","446","","","","","1*8= ?","8","1","","","","","","","",""
"2363","","4","psychophysics","126","379590","0.0-7.0-5.0-0.23","7","6","6","7","6","5","2","5","2","4","5","2","1","2","1","1","2","1","2","5","4","4","2","4","5","5","4","4","5","8","7","9","8","7","8","8","9","8","6","6","1","6","5","2","3","6","5","6","1","5","2","7","6","5","6","5","6","6","5","6","6","4","2","7","5","6","6","5","7","7","2","7","7","6","7","7","6","6","7","781502952228786178","汪","67","Female","[""坏她"",""好我"",""好她"",""坏我""]","[""弱她"",""强我"",""强她"",""弱我""]","","","","","","","","4","","","","","","","","","SRET","SRET_math_calculate","","key","4","16.654929577464788","720","446","","","","","20/5= ?","4","1","","","","","","","",""
"2212","","0","psychophysics","127","381805","0.0-7.0-5.0-0.24","7","6","6","7","6","5","2","5","2","4","5","2","1","2","1","1","2","1","2","5","4","4","2","4","5","5","4","4","5","8","7","9","8","7","8","8","9","8","6","6","1","6","5","2","3","6","5","6","1","5","2","7","6","5","6","5","6","6","5","6","6","4","2","7","5","6","6","5","7","7","2","7","7","6","7","7","6","6","7","781502952228786178","汪","67","Female","[""坏她"",""好我"",""好她"",""坏我""]","[""弱她"",""强我"",""强她"",""弱我""]","","","","","","","","0","","","","","","","","","SRET","SRET_math_calculate","","key","0","16.65530303030303","720","446","","","","","12-12= ?","0","1","","","","","","","",""
"1972","","4","psychophysics","128","383794","0.0-7.0-5.0-0.25","7","6","6","7","6","5","2","5","2","4","5","2","1","2","1","1","2","1","2","5","4","4","2","4","5","5","4","4","5","8","7","9","8","7","8","8","9","8","6","6","1","6","5","2","3","6","5","6","1","5","2","7","6","5","6","5","6","6","5","6","6","4","2","7","5","6","6","5","7","7","2","7","7","6","7","7","6","6","7","781502952228786178","汪","67","Female","[""坏她"",""好我"",""好她"",""坏我""]","[""弱她"",""强我"",""强她"",""弱我""]","","","","","","","","4","","","","","","","","","SRET","SRET_math_calculate","","key","4","16.666101694915056","720","446","","","","","2+2= ?","4","1","","","","","","","",""
"2178","","6","psychophysics","129","385988","0.0-7.0-5.0-0.26","7","6","6","7","6","5","2","5","2","4","5","2","1","2","1","1","2","1","2","5","4","4","2","4","5","5","4","4","5","8","7","9","8","7","8","8","9","8","6","6","1","6","5","2","3","6","5","6","1","5","2","7","6","5","6","5","6","6","5","6","6","4","2","7","5","6","6","5","7","7","2","7","7","6","7","7","6","6","7","781502952228786178","汪","67","Female","[""坏她"",""好我"",""好她"",""坏我""]","[""弱她"",""强我"",""强她"",""弱我""]","","","","","","","","6","","","","","","","","","SRET","SRET_math_calculate","","key","6","16.655725190839874","720","446","","","","","4+2= ?","6","1","","","","","","","",""
"2038","","2","psychophysics","130","388028","0.0-7.0-5.0-0.27","7","6","6","7","6","5","2","5","2","4","5","2","1","2","1","1","2","1","2","5","4","4","2","4","5","5","4","4","5","8","7","9","8","7","8","8","9","8","6","6","1","6","5","2","3","6","5","6","1","5","2","7","6","5","6","5","6","6","5","6","6","4","2","7","5","6","6","5","7","7","2","7","7","6","7","7","6","6","7","781502952228786178","汪","67","Female","[""坏她"",""好我"",""好她"",""坏我""]","[""弱她"",""强我"",""强她"",""弱我""]","","","","","","","","2","","","","","","","","","SRET","SRET_math_calculate","","key","2","16.655371900826832","720","446","","","","","5-3= ?","2","1","","","","","","","",""
"2034","","6","psychophysics","131","390064","0.0-7.0-5.0-0.28","7","6","6","7","6","5","2","5","2","4","5","2","1","2","1","1","2","1","2","5","4","4","2","4","5","5","4","4","5","8","7","9","8","7","8","8","9","8","6","6","1","6","5","2","3","6","5","6","1","5","2","7","6","5","6","5","6","6","5","6","6","4","2","7","5","6","6","5","7","7","2","7","7","6","7","7","6","6","7","781502952228786178","汪","67","Female","[""坏她"",""好我"",""好她"",""坏我""]","[""弱她"",""强我"",""强她"",""弱我""]","","","","","","","","6","","","","","","","","","SRET","SRET_math_calculate","","key","6","16.654918032787076","720","446","","","","","3+3= ?","6","1","","","","","","","",""
"1876","","4","psychophysics","132","391942","0.0-7.0-5.0-0.29","7","6","6","7","6","5","2","5","2","4","5","2","1","2","1","1","2","1","2","5","4","4","2","4","5","5","4","4","5","8","7","9","8","7","8","8","9","8","6","6","1","6","5","2","3","6","5","6","1","5","2","7","6","5","6","5","6","6","5","6","6","4","2","7","5","6","6","5","7","7","2","7","7","6","7","7","6","6","7","781502952228786178","汪","67","Female","[""坏她"",""好我"",""好她"",""坏我""]","[""弱她"",""强我"",""强她"",""弱我""]","","","","","","","","4","","","","","","","","","SRET","SRET_math_calculate","","key","4","16.65495495495506","720","446","","","","","3+1= ?","4","1","","","","","","","",""
"2104","","6","psychophysics","133","394063","0.0-7.0-5.0-0.30","7","6","6","7","6","5","2","5","2","4","5","2","1","2","1","1","2","1","2","5","4","4","2","4","5","5","4","4","5","8","7","9","8","7","8","8","9","8","6","6","1","6","5","2","3","6","5","6","1","5","2","7","6","5","6","5","6","6","5","6","6","4","2","7","5","6","6","5","7","7","2","7","7","6","7","7","6","6","7","781502952228786178","汪","67","Female","[""坏她"",""好我"",""好她"",""坏我""]","[""弱她"",""强我"",""强她"",""弱我""]","","","","","","","","6","","","","","","","","","SRET","SRET_math_calculate","","key","6","16.709523809523994","720","446","","","","","3+5= ?","8","0","","","","","","","",""
"2483","","8","psychophysics","134","396562","0.0-7.0-5.0-0.31","7","6","6","7","6","5","2","5","2","4","5","2","1","2","1","1","2","1","2","5","4","4","2","4","5","5","4","4","5","8","7","9","8","7","8","8","9","8","6","6","1","6","5","2","3","6","5","6","1","5","2","7","6","5","6","5","6","6","5","6","6","4","2","7","5","6","6","5","7","7","2","7","7","6","7","7","6","6","7","781502952228786178","汪","67","Female","[""坏她"",""好我"",""好她"",""坏我""]","[""弱她"",""强我"",""强她"",""弱我""]","","","","","","","","8","","","","","","","","","SRET","SRET_math_calculate","","key","8","16.655033557046824","720","446","","","","","5+3= ?","8","1","","","","","","","",""
"1818","","7","psychophysics","135","398396","0.0-7.0-5.0-0.32","7","6","6","7","6","5","2","5","2","4","5","2","1","2","1","1","2","1","2","5","4","4","2","4","5","5","4","4","5","8","7","9","8","7","8","8","9","8","6","6","1","6","5","2","3","6","5","6","1","5","2","7","6","5","6","5","6","6","5","6","6","4","2","7","5","6","6","5","7","7","2","7","7","6","7","7","6","6","7","781502952228786178","汪","67","Female","[""坏她"",""好我"",""好她"",""坏我""]","[""弱她"",""强我"",""强她"",""弱我""]","","","","","","","","7","","","","","","","","","SRET","SRET_math_calculate","","key","7","16.655454545454333","720","446","","","","","2+5= ?","7","1","","","","","","","",""
"3058","","2","psychophysics","136","401468","0.0-7.0-5.0-0.33","7","6","6","7","6","5","2","5","2","4","5","2","1","2","1","1","2","1","2","5","4","4","2","4","5","5","4","4","5","8","7","9","8","7","8","8","9","8","6","6","1","6","5","2","3","6","5","6","1","5","2","7","6","5","6","5","6","6","5","6","6","4","2","7","5","6","6","5","7","7","2","7","7","6","7","7","6","6","7","781502952228786178","汪","67","Female","[""坏她"",""好我"",""好她"",""坏我""]","[""弱她"",""强我"",""强她"",""弱我""]","","","","","","","","2","","","","","","","","","SRET","SRET_math_calculate","","key","2","16.65519125683041","720","446","","","","","90/45= ?","2","1","","","","","","","",""
"3157","","9","psychophysics","137","404641","0.0-7.0-5.0-0.34","7","6","6","7","6","5","2","5","2","4","5","2","1","2","1","1","2","1","2","5","4","4","2","4","5","5","4","4","5","8","7","9","8","7","8","8","9","8","6","6","1","6","5","2","3","6","5","6","1","5","2","7","6","5","6","5","6","6","5","6","6","4","2","7","5","6","6","5","7","7","2","7","7","6","7","7","6","6","7","781502952228786178","汪","67","Female","[""坏她"",""好我"",""好她"",""坏我""]","[""弱她"",""强我"",""强她"",""弱我""]","","","","","","","","9","","","","","","","","","SRET","SRET_math_calculate","","key","9","16.691534391534145","720","446","","","","","43-34= ?","9","1","","","","","","","",""
"2173","","3","psychophysics","138","406824","0.0-7.0-5.0-0.35","7","6","6","7","6","5","2","5","2","4","5","2","1","2","1","1","2","1","2","5","4","4","2","4","5","5","4","4","5","8","7","9","8","7","8","8","9","8","6","6","1","6","5","2","3","6","5","6","1","5","2","7","6","5","6","5","6","6","5","6","6","4","2","7","5","6","6","5","7","7","2","7","7","6","7","7","6","6","7","781502952228786178","汪","67","Female","[""坏她"",""好我"",""好她"",""坏我""]","[""弱她"",""强我"",""强她"",""弱我""]","","","","","","","","3","","","","","","","","","SRET","SRET_math_calculate","","key","3","16.655384615384705","720","446","","","","","9/3= ?","3","1","","","","","","","",""
"2103","","3","psychophysics","139","408929","0.0-7.0-5.0-0.36","7","6","6","7","6","5","2","5","2","4","5","2","1","2","1","1","2","1","2","5","4","4","2","4","5","5","4","4","5","8","7","9","8","7","8","8","9","8","6","6","1","6","5","2","3","6","5","6","1","5","2","7","6","5","6","5","6","6","5","6","6","4","2","7","5","6","6","5","7","7","2","7","7","6","7","7","6","6","7","781502952228786178","汪","67","Female","[""坏她"",""好我"",""好她"",""坏我""]","[""弱她"",""强我"",""强她"",""弱我""]","","","","","","","","3","","","","","","","","","SRET","SRET_math_calculate","","key","3","16.654761904761905","720","446","","","","","3*1= ?","3","1","","","","","","","",""
"2314","","2","psychophysics","140","411246","0.0-7.0-5.0-0.37","7","6","6","7","6","5","2","5","2","4","5","2","1","2","1","1","2","1","2","5","4","4","2","4","5","5","4","4","5","8","7","9","8","7","8","8","9","8","6","6","1","6","5","2","3","6","5","6","1","5","2","7","6","5","6","5","6","6","5","6","6","4","2","7","5","6","6","5","7","7","2","7","7","6","7","7","6","6","7","781502952228786178","汪","67","Female","[""坏她"",""好我"",""好她"",""坏我""]","[""弱她"",""强我"",""强她"",""弱我""]","","","","","","","","2","","","","","","","","","SRET","SRET_math_calculate","","key","2","16.654347826086873","720","446","","","","","8-6= ?","2","1","","","","","","","",""
"2265","","5","psychophysics","141","413524","0.0-7.0-5.0-0.38","7","6","6","7","6","5","2","5","2","4","5","2","1","2","1","1","2","1","2","5","4","4","2","4","5","5","4","4","5","8","7","9","8","7","8","8","9","8","6","6","1","6","5","2","3","6","5","6","1","5","2","7","6","5","6","5","6","6","5","6","6","4","2","7","5","6","6","5","7","7","2","7","7","6","7","7","6","6","7","781502952228786178","汪","67","Female","[""坏她"",""好我"",""好她"",""坏我""]","[""弱她"",""强我"",""强她"",""弱我""]","","","","","","","","5","","","","","","","","","SRET","SRET_math_calculate","","key","5","16.70592592592584","720","446","","","","","9-4= ?","5","1","","","","","","","",""
"2038","","2","psychophysics","142","415570","0.0-7.0-5.0-0.39","7","6","6","7","6","5","2","5","2","4","5","2","1","2","1","1","2","1","2","5","4","4","2","4","5","5","4","4","5","8","7","9","8","7","8","8","9","8","6","6","1","6","5","2","3","6","5","6","1","5","2","7","6","5","6","5","6","6","5","6","6","4","2","7","5","6","6","5","7","7","2","7","7","6","7","7","6","6","7","781502952228786178","汪","67","Female","[""坏她"",""好我"",""好她"",""坏我""]","[""弱她"",""强我"",""强她"",""弱我""]","","","","","","","","2","","","","","","","","","SRET","SRET_math_calculate","","key","2","16.654918032787076","720","446","","","","","9-7= ?","2","1","","","","","","","",""
