"rt","stimulus","response","trial_type","trial_index","time_elapsed","internal_node_id","swb_1","swb_2","swb_3","swb_4","swb_5","LOT_1","LOT_2","LOT_3","LOT_4","LOT_5","LOT_6","IPC_1","IPC_2","IPC_3","IPC_4","IPC_5","IPC_6","IPC_7","IPC_8","MorIden_1","MorIden_2","MorIden_3","MorIden_4","MorIden_5","MorIden_6","MorIden_7","MorIden_8","MorIden_9","MorIden_10","moralSeImag_1","moralSeImag_2","moralSeImag_3","moralSeImag_4","moralSeImag_5","moralSeImag_6","moralSeImag_7","moralSeImag_8","moralSeImag_9","sde_1","sde_2","sde_3","sde_4","sde_5","sde_6","sde_7","sde_8","sde_9","sde_10","trap2","sde_11","sde_12","sde_13","sde_14","sde_15","sde_16","sde_17","sde_18","sde_19","sde_20","IM_1","IM_2","IM_3","IM_4","IM_5","IM_6","IM_7","IM_8","IM_9","IM_10","IM_11","IM_12","IM_13","IM_14","IM_15","IM_16","IM_17","IM_18","IM_19","IM_20","subj_idx","friend_name","ParticipantID","Sex","Word","Word2","value","success","timeout","failed_images","failed_audio","failed_video","user_agent","responses","item_order","radio_event_ids","radio_event_times","key_event_times","mouse_event_times","straightlining","zigzagging","honeypot","task_id","screen_id","time_stamp","response_type","key_press","avg_frame_time","center_x","center_y","person","word","valence","domain","math","correct_response","correct","status","view_history","identity","duration","Image","condition","question_order","trap2_item"
"14985","
   <p><div style='color:white; font-size: 25px'>您好，欢迎参加本次实验。</div></p>
   <p><div style='color:white; font-size: 25px'>为充分保障您的权利，请确保您已经知晓并同意《参与实验同意书》以及《数据公开知情同意书》。</div></p>
   <p><div style='color:white; font-size: 25px'>如果您未见过上述内容，请咨询实验员。</div></p>
   <p style='color:white; font-size: 25px'>如果您选择继续实验，则表示您已经清楚两份知情同意书的内容并同意。</p>
   <p><div style = ""color: pink;font-size:30px;"">请确保您记得day0的实验编号，您将在本次实验输入该编号，若您忘记，请咨询实验员后作答。</div></p>
   <p><div style = ""color:lightblue;font-size:25px;"">请您尽可能认真地作答，我们将依据您在各问卷和按键任务中的作答质量发放报酬。</div></p>
   <p> <div style = ""color: green""><按空格键至下页></div> </p>
   "," ","html-keyboard-response","0","14987","0.0-0.0","3","2","2","2","3","4","2","2","4","4","5","1","0","-1","0","-2","-1","0","0","5","4","5","5","5","4","4","3","4","4","4","5","3","6","3","2","4","4","5","3","3","2","3","3","2","3","1","3","1","1","3","2","5","3","2","3","3","2","2","3","3","2","3","1","3","3","1","3","2","1","3","2","3","1","3","2","3","3","2","2","682883457575026688","徐","83","Female","[""坏我"",""坏她"",""好她"",""好我""]","[""弱我"",""弱她"",""强她"",""强我""]","","","","","","","","","","","","","","","","","","","","","","","","","","","","","","","","","","","","","","",""
"","","","call-function","1","14989","0.0-1.0-0.0","3","2","2","2","3","4","2","2","4","4","5","1","0","-1","0","-2","-1","0","0","5","4","5","5","5","4","4","3","4","4","4","5","3","6","3","2","4","4","5","3","3","2","3","3","2","3","1","3","1","1","3","2","5","3","2","3","3","2","2","3","3","2","3","1","3","3","1","3","2","1","3","2","3","1","3","2","3","3","2","2","682883457575026688","徐","83","Female","[""坏我"",""坏她"",""好她"",""好我""]","[""弱我"",""弱她"",""强她"",""强我""]","","","","","","","","","","","","","","","","","","","","","","","","","","","","","","","","","","","","","","",""
"24952","","[{""name"":""Sex"",""value"":""1""},{""name"":""friend_name"",""value"":""徐""},{""name"":""ParticipantID"",""value"":""83""}]","survey-html-form","2","39942","0.0-1.0-1.0","3","2","2","2","3","4","2","2","4","4","5","1","0","-1","0","-2","-1","0","0","5","4","5","5","5","4","4","3","4","4","4","5","3","6","3","2","4","4","5","3","3","2","3","3","2","3","1","3","1","1","3","2","5","3","2","3","3","2","2","3","3","2","3","1","3","3","1","3","2","1","3","2","3","1","3","2","3","3","2","2","682883457575026688","徐","83","Female","[""坏我"",""坏她"",""好她"",""好我""]","[""弱我"",""弱她"",""强她"",""强我""]","","","","","","","","","","","","","","","","","","","","","","","","","","","","","","","","","","","","","","",""
"","","","preload","3","40765","0.0-2.0","3","2","2","2","3","4","2","2","4","4","5","1","0","-1","0","-2","-1","0","0","5","4","5","5","5","4","4","3","4","4","4","5","3","6","3","2","4","4","5","3","3","2","3","3","2","3","1","3","1","1","3","2","5","3","2","3","3","2","2","3","3","2","3","1","3","3","1","3","2","1","3","2","3","1","3","2","3","3","2","2","682883457575026688","徐","83","Female","[""坏我"",""坏她"",""好她"",""好我""]","[""弱我"",""弱她"",""强她"",""强我""]","","true","false","[]","[]","[]","","","","","","","","","","","","","","","","","","","","","","","","","","","","","","","","",""
"","","","fullscreen","4","44765","0.0-3.0","3","2","2","2","3","4","2","2","4","4","5","1","0","-1","0","-2","-1","0","0","5","4","5","5","5","4","4","3","4","4","4","5","3","6","3","2","4","4","5","3","3","2","3","3","2","3","1","3","1","1","3","2","5","3","2","3","3","2","2","3","3","2","3","1","3","3","1","3","2","1","3","2","3","1","3","2","3","3","2","2","682883457575026688","徐","83","Female","[""坏我"",""坏她"",""好她"",""好我""]","[""弱我"",""弱她"",""强她"",""强我""]","","true","","","","","{}","","","","","","","","","","","","","","","","","","","","","","","","","","","","","","","",""
"23817.700000047684","","{""Q01"":""3"",""Q02"":""2"",""Q03"":""2"",""Q04"":""2"",""Q05"":""3""}","survey-template","5","68587","0.0-4.0","3","2","2","2","3","4","2","2","4","4","5","1","0","-1","0","-2","-1","0","0","5","4","5","5","5","4","4","3","4","4","4","5","3","6","3","2","4","4","5","3","3","2","3","3","2","3","1","3","1","1","3","2","5","3","2","3","3","2","2","3","3","2","3","1","3","3","1","3","2","1","3","2","3","1","3","2","3","3","2","2","682883457575026688","徐","83","Female","[""坏我"",""坏她"",""好她"",""好我""]","[""弱我"",""弱她"",""强她"",""强我""]","","","","","","","","{""Q01"":""3"",""Q02"":""2"",""Q03"":""2"",""Q04"":""2"",""Q05"":""3""}","[0,1,2,3,4]","[""Q01"",""Q01"",""Q02"",""Q03"",""Q04"",""Q05""]","[5985.300000071526,10667.200000047684,11791.700000047684,13101.899999976158,18766.100000023842,21428.5]","[]","[5985.300000071526,9557.200000047684,10667.200000047684,11791.700000047684,13101.899999976158,14984.300000071526,18766.100000023842,20367.5,21428.5,23816.899999976158]","0.6","0.5","0","","","","","","","","","","","","","","","","","","","","","","",""
"29944","","{""Q01"":""4"",""Q02"":""2"",""Q03"":""2"",""Q04"":""4"",""Q05"":""4"",""Q06"":""5""}","survey-template","6","98533","0.0-5.0","3","2","2","2","3","4","2","2","4","4","5","1","0","-1","0","-2","-1","0","0","5","4","5","5","5","4","4","3","4","4","4","5","3","6","3","2","4","4","5","3","3","2","3","3","2","3","1","3","1","1","3","2","5","3","2","3","3","2","2","3","3","2","3","1","3","3","1","3","2","1","3","2","3","1","3","2","3","3","2","2","682883457575026688","徐","83","Female","[""坏我"",""坏她"",""好她"",""好我""]","[""弱我"",""弱她"",""强她"",""强我""]","","","","","","","","{""Q01"":""4"",""Q02"":""2"",""Q03"":""2"",""Q04"":""4"",""Q05"":""4"",""Q06"":""5""}","[0,1,2,3,4,5]","[""Q01"",""Q02"",""Q03"",""Q04"",""Q05"",""Q06""]","[6619.699999928474,9189.199999928474,10793.399999976158,15059.799999952316,19777.699999928474,25293.399999976158]","[]","[5219.299999952316,6619.699999928474,7835.399999976158,9189.199999928474,10793.399999976158,15059.799999952316,18606.799999952316,19777.699999928474,25293.399999976158,29943.5]","0.5","0","0","","","","","","","","","","","","","","","","","","","","","","",""
"25928.899999976158","","{""Q01"":""1"",""Q02"":""0"",""Q03"":""-1"",""Q04"":""0"",""Q05"":""-2"",""Q06"":""-1"",""Q07"":""0"",""Q08"":""0""}","survey-template","7","124464","0.0-6.0","3","2","2","2","3","4","2","2","4","4","5","1","0","-1","0","-2","-1","0","0","5","4","5","5","5","4","4","3","4","4","4","5","3","6","3","2","4","4","5","3","3","2","3","3","2","3","1","3","1","1","3","2","5","3","2","3","3","2","2","3","3","2","3","1","3","3","1","3","2","1","3","2","3","1","3","2","3","3","2","2","682883457575026688","徐","83","Female","[""坏我"",""坏她"",""好她"",""好我""]","[""弱我"",""弱她"",""强她"",""强我""]","","","","","","","","{""Q01"":""1"",""Q02"":""0"",""Q03"":""-1"",""Q04"":""0"",""Q05"":""-2"",""Q06"":""-1"",""Q07"":""0"",""Q08"":""0""}","[0,1,2,3,4,5,6,7]","[""Q01"",""Q02"",""Q03"",""Q04"",""Q05"",""Q06"",""Q07"",""Q08""]","[4449.700000047684,6024.799999952316,8747,10918.100000023842,12381.899999976158,14276.600000023842,20701,22877]","[]","[4449.700000047684,6024.799999952316,8747,10918.100000023842,12381.899999976158,14276.600000023842,20701,22877,25927.399999976158]","0.5","0.7142857142857143","0","","","","","","","","","","","","","","","","","","","","","","",""
"18562","
    <p><div style='color:white;font-size:35px; line-height:20px;'>词汇评估任务</div></p><br>
    <p><div style='color:white;font-size:25px; line-height:20px;'>请再次回忆该亲密的朋友，你们至少2年前就认识了，并且最近2年经常见面。</div></p>
    <p><div style='color:white;font-size:25px; line-height:20px;'>在本实验中，您将会看到一些形容词。</div></p>
    <p><div style='color:yellow;font-size:25px; line-height:20px;'>您的任务是判断这些形容词是否符合对您自己或您的朋友的描述。</div></p><p style='font-size:35px'>符合按<span style=""color:lightgreen""> j 键</span>，不符合按<span style=""color:red""> f 键</span></p>","0","html-button-response","8","143030","0.0-7.0-0.0","3","2","2","2","3","4","2","2","4","4","5","1","0","-1","0","-2","-1","0","0","5","4","5","5","5","4","4","3","4","4","4","5","3","6","3","2","4","4","5","3","3","2","3","3","2","3","1","3","1","1","3","2","5","3","2","3","3","2","2","3","3","2","3","1","3","3","1","3","2","1","3","2","3","1","3","2","3","3","2","2","682883457575026688","徐","83","Female","[""坏我"",""坏她"",""好她"",""好我""]","[""弱我"",""弱她"",""强她"",""强我""]","","","","","","","","","","","","","","","","","SRET_EW","EW_instructions","Fri Jan 19 2024 14:33:48 GMT+0800 (中国标准时间)","","","","","","","","","","","","","","","","","","","",""
"877","","j","psychophysics","9","144916","0.0-7.0-1.0-0.0","3","2","2","2","3","4","2","2","4","4","5","1","0","-1","0","-2","-1","0","0","5","4","5","5","5","4","4","3","4","4","4","5","3","6","3","2","4","4","5","3","3","2","3","3","2","3","1","3","1","1","3","2","5","3","2","3","3","2","2","3","3","2","3","1","3","3","1","3","2","1","3","2","3","1","3","2","3","3","2","2","682883457575026688","徐","83","Female","[""坏我"",""坏她"",""好她"",""好我""]","[""弱我"",""弱她"",""强她"",""强我""]","","","","","","","","yes","","","","","","","","","SRET_EW","EW_practice","","key","j","16.66725663716809","768","428","自己","严谨","Positive","ability","","","","","","","","","","",""
"1686","","f","psychophysics","10","147604","0.0-7.0-1.0-0.1","3","2","2","2","3","4","2","2","4","4","5","1","0","-1","0","-2","-1","0","0","5","4","5","5","5","4","4","3","4","4","4","5","3","6","3","2","4","4","5","3","3","2","3","3","2","3","1","3","1","1","3","2","5","3","2","3","3","2","2","3","3","2","3","1","3","3","1","3","2","1","3","2","3","1","3","2","3","3","2","2","682883457575026688","徐","83","Female","[""坏我"",""坏她"",""好她"",""好我""]","[""弱我"",""弱她"",""强她"",""强我""]","","","","","","","","no","","","","","","","","","SRET_EW","EW_practice","","key","f","16.665625","768","428","朋友","忠实","Positive","morality","","","","","","","","","","",""
"1103","","j","psychophysics","11","149709","0.0-7.0-1.0-0.2","3","2","2","2","3","4","2","2","4","4","5","1","0","-1","0","-2","-1","0","0","5","4","5","5","5","4","4","3","4","4","4","5","3","6","3","2","4","4","5","3","3","2","3","3","2","3","1","3","1","1","3","2","5","3","2","3","3","2","2","3","3","2","3","1","3","3","1","3","2","1","3","2","3","1","3","2","3","3","2","2","682883457575026688","徐","83","Female","[""坏我"",""坏她"",""好她"",""好我""]","[""弱我"",""弱她"",""强她"",""强我""]","","","","","","","","yes","","","","","","","","","SRET_EW","EW_practice","","key","j","16.668800000000047","768","428","自己","刻板","Negative","ability","","","","","","","","","","",""
"1139","","f","psychophysics","12","151850","0.0-7.0-1.0-0.3","3","2","2","2","3","4","2","2","4","4","5","1","0","-1","0","-2","-1","0","0","5","4","5","5","5","4","4","3","4","4","4","5","3","6","3","2","4","4","5","3","3","2","3","3","2","3","1","3","1","1","3","2","5","3","2","3","3","2","2","3","3","2","3","1","3","3","1","3","2","1","3","2","3","1","3","2","3","3","2","2","682883457575026688","徐","83","Female","[""坏我"",""坏她"",""好她"",""好我""]","[""弱我"",""弱她"",""强她"",""强我""]","","","","","","","","no","","","","","","","","","SRET_EW","EW_practice","","key","f","16.667187499999955","768","428","朋友","徇私","Negative","morality","","","","","","","","","","",""
"15487","
    <p><div style='color:white;font-size:35px; line-height:20px;'>请您再次阅读实验要求</div></p><br>
    <p><div style='color:white;font-size:25px; line-height:20px;'>请回忆某一个亲密的朋友，你们至少2年前就认识了，并且最近2年经常见面。</div></p>
    <p><div style='color:white;font-size:25px; line-height:20px;'>在本实验中，您将会看到一些形容词。</div></p>
    <p><div style='color:yellow;font-size:25px; line-height:20px;'>您的任务是判断这些形容词是否符合对您自己或您的朋友的描述。</div></p>
    <p><div class='footer' style='font-size:25px; line-height:20px;'>如果对本实验还有不清楚之处，请立即向实验员咨询。</p><p style='font-size:25px; line-height:20px;'>如果您明白了规则：</p><p style='font-size:22px; line-height:20px;'>请按 继续 进入正式实验</p>
    </div>
    <p style='font-size:35px'>符合按<span style=""color:lightgreen""> j 键</span>，不符合按<span style=""color:red""> f 键</span></p>","0","html-button-response","13","167338","0.0-7.0-2.0","3","2","2","2","3","4","2","2","4","4","5","1","0","-1","0","-2","-1","0","0","5","4","5","5","5","4","4","3","4","4","4","5","3","6","3","2","4","4","5","3","3","2","3","3","2","3","1","3","1","1","3","2","5","3","2","3","3","2","2","3","3","2","3","1","3","3","1","3","2","1","3","2","3","1","3","2","3","3","2","2","682883457575026688","徐","83","Female","[""坏我"",""坏她"",""好她"",""好我""]","[""弱我"",""弱她"",""强她"",""强我""]","","","","","","","","","","","","","","","","","SRET_EW","prac_instructions","Fri Jan 19 2024 14:33:48 GMT+0800 (中国标准时间)","","","","","","","","","","","","","","","","","","","",""
"1167","","j","psychophysics","14","169508","0.0-7.0-3.0-0.0","3","2","2","2","3","4","2","2","4","4","5","1","0","-1","0","-2","-1","0","0","5","4","5","5","5","4","4","3","4","4","4","5","3","6","3","2","4","4","5","3","3","2","3","3","2","3","1","3","1","1","3","2","5","3","2","3","3","2","2","3","3","2","3","1","3","3","1","3","2","1","3","2","3","1","3","2","3","3","2","2","682883457575026688","徐","83","Female","[""坏我"",""坏她"",""好她"",""好我""]","[""弱我"",""弱她"",""强她"",""强我""]","","","","","","","","yes","","","","","","","","","SRET","EW_formal","","key","j","16.66615384615389","768","428","朋友","务实","Positive","ability","","","","","","","","","","",""
"1174","","f","psychophysics","15","171683","0.0-7.0-3.0-0.1","3","2","2","2","3","4","2","2","4","4","5","1","0","-1","0","-2","-1","0","0","5","4","5","5","5","4","4","3","4","4","4","5","3","6","3","2","4","4","5","3","3","2","3","3","2","3","1","3","1","1","3","2","5","3","2","3","3","2","2","3","3","2","3","1","3","3","1","3","2","1","3","2","3","1","3","2","3","3","2","2","682883457575026688","徐","83","Female","[""坏我"",""坏她"",""好她"",""好我""]","[""弱我"",""弱她"",""强她"",""强我""]","","","","","","","","no","","","","","","","","","SRET","EW_formal","","key","f","16.668461538461493","768","428","自己","说谎","Negative","morality","","","","","","","","","","",""
"1394","","f","psychophysics","16","174079","0.0-7.0-3.0-0.2","3","2","2","2","3","4","2","2","4","4","5","1","0","-1","0","-2","-1","0","0","5","4","5","5","5","4","4","3","4","4","4","5","3","6","3","2","4","4","5","3","3","2","3","3","2","3","1","3","1","1","3","2","5","3","2","3","3","2","2","3","3","2","3","1","3","3","1","3","2","1","3","2","3","1","3","2","3","3","2","2","682883457575026688","徐","83","Female","[""坏我"",""坏她"",""好她"",""好我""]","[""弱我"",""弱她"",""强她"",""强我""]","","","","","","","","no","","","","","","","","","SRET","EW_formal","","key","f","16.66619718309863","768","428","朋友","迷糊","Negative","ability","","","","","","","","","","",""
"1361","","j","psychophysics","17","176445","0.0-7.0-3.0-0.3","3","2","2","2","3","4","2","2","4","4","5","1","0","-1","0","-2","-1","0","0","5","4","5","5","5","4","4","3","4","4","4","5","3","6","3","2","4","4","5","3","3","2","3","3","2","3","1","3","1","1","3","2","5","3","2","3","3","2","2","3","3","2","3","1","3","3","1","3","2","1","3","2","3","1","3","2","3","3","2","2","682883457575026688","徐","83","Female","[""坏我"",""坏她"",""好她"",""好我""]","[""弱我"",""弱她"",""强她"",""强我""]","","","","","","","","yes","","","","","","","","","SRET","EW_formal","","key","j","16.665957446808676","768","428","自己","坚贞","Positive","morality","","","","","","","","","","",""
"1057","","f","psychophysics","18","178505","0.0-7.0-3.0-0.4","3","2","2","2","3","4","2","2","4","4","5","1","0","-1","0","-2","-1","0","0","5","4","5","5","5","4","4","3","4","4","4","5","3","6","3","2","4","4","5","3","3","2","3","3","2","3","1","3","1","1","3","2","5","3","2","3","3","2","2","3","3","2","3","1","3","3","1","3","2","1","3","2","3","1","3","2","3","3","2","2","682883457575026688","徐","83","Female","[""坏我"",""坏她"",""好她"",""好我""]","[""弱我"",""弱她"",""强她"",""强我""]","","","","","","","","no","","","","","","","","","SRET","EW_formal","","key","f","16.666666666666668","768","428","自己","周到","Positive","ability","","","","","","","","","","",""
"942","","j","psychophysics","19","180449","0.0-7.0-3.0-0.5","3","2","2","2","3","4","2","2","4","4","5","1","0","-1","0","-2","-1","0","0","5","4","5","5","5","4","4","3","4","4","4","5","3","6","3","2","4","4","5","3","3","2","3","3","2","3","1","3","1","1","3","2","5","3","2","3","3","2","2","3","3","2","3","1","3","3","1","3","2","1","3","2","3","1","3","2","3","3","2","2","682883457575026688","徐","83","Female","[""坏我"",""坏她"",""好她"",""好我""]","[""弱我"",""弱她"",""强她"",""强我""]","","","","","","","","yes","","","","","","","","","SRET","EW_formal","","key","j","16.667241379310294","768","428","自己","文明","Positive","morality","","","","","","","","","","",""
"1055","","f","psychophysics","20","182505","0.0-7.0-3.0-0.6","3","2","2","2","3","4","2","2","4","4","5","1","0","-1","0","-2","-1","0","0","5","4","5","5","5","4","4","3","4","4","4","5","3","6","3","2","4","4","5","3","3","2","3","3","2","3","1","3","1","1","3","2","5","3","2","3","3","2","2","3","3","2","3","1","3","3","1","3","2","1","3","2","3","1","3","2","3","3","2","2","682883457575026688","徐","83","Female","[""坏我"",""坏她"",""好她"",""好我""]","[""弱我"",""弱她"",""强她"",""强我""]","","","","","","","","no","","","","","","","","","SRET","EW_formal","","key","f","16.667213114754052","768","428","自己","贪污","Negative","morality","","","","","","","","","","",""
"1718","","f","psychophysics","21","185225","0.0-7.0-3.0-0.7","3","2","2","2","3","4","2","2","4","4","5","1","0","-1","0","-2","-1","0","0","5","4","5","5","5","4","4","3","4","4","4","5","3","6","3","2","4","4","5","3","3","2","3","3","2","3","1","3","1","1","3","2","5","3","2","3","3","2","2","3","3","2","3","1","3","3","1","3","2","1","3","2","3","1","3","2","3","3","2","2","682883457575026688","徐","83","Female","[""坏我"",""坏她"",""好她"",""好我""]","[""弱我"",""弱她"",""强她"",""强我""]","","","","","","","","no","","","","","","","","","SRET","EW_formal","","key","f","16.66543209876554","768","428","朋友","短浅","Negative","ability","","","","","","","","","","",""
"925","","f","psychophysics","22","187151","0.0-7.0-3.0-0.8","3","2","2","2","3","4","2","2","4","4","5","1","0","-1","0","-2","-1","0","0","5","4","5","5","5","4","4","3","4","4","4","5","3","6","3","2","4","4","5","3","3","2","3","3","2","3","1","3","1","1","3","2","5","3","2","3","3","2","2","3","3","2","3","1","3","3","1","3","2","1","3","2","3","1","3","2","3","3","2","2","682883457575026688","徐","83","Female","[""坏我"",""坏她"",""好她"",""好我""]","[""弱我"",""弱她"",""强她"",""强我""]","","","","","","","","no","","","","","","","","","SRET","EW_formal","","key","f","16.667826086956673","768","428","朋友","无助","Negative","ability","","","","","","","","","","",""
"769","","j","psychophysics","23","188922","0.0-7.0-3.0-0.9","3","2","2","2","3","4","2","2","4","4","5","1","0","-1","0","-2","-1","0","0","5","4","5","5","5","4","4","3","4","4","4","5","3","6","3","2","4","4","5","3","3","2","3","3","2","3","1","3","1","1","3","2","5","3","2","3","3","2","2","3","3","2","3","1","3","3","1","3","2","1","3","2","3","1","3","2","3","3","2","2","682883457575026688","徐","83","Female","[""坏我"",""坏她"",""好她"",""好我""]","[""弱我"",""弱她"",""强她"",""强我""]","","","","","","","","yes","","","","","","","","","SRET","EW_formal","","key","j","16.667619047618825","768","428","自己","努力","Positive","ability","","","","","","","","","","",""
"1515","","f","psychophysics","24","191439","0.0-7.0-3.0-0.10","3","2","2","2","3","4","2","2","4","4","5","1","0","-1","0","-2","-1","0","0","5","4","5","5","5","4","4","3","4","4","4","5","3","6","3","2","4","4","5","3","3","2","3","3","2","3","1","3","1","1","3","2","5","3","2","3","3","2","2","3","3","2","3","1","3","3","1","3","2","1","3","2","3","1","3","2","3","3","2","2","682883457575026688","徐","83","Female","[""坏我"",""坏她"",""好她"",""好我""]","[""弱我"",""弱她"",""强她"",""强我""]","","","","","","","","no","","","","","","","","","SRET","EW_formal","","key","f","16.66733333333337","768","428","朋友","才尽","Negative","ability","","","","","","","","","","",""
"769","","j","psychophysics","25","193211","0.0-7.0-3.0-0.11","3","2","2","2","3","4","2","2","4","4","5","1","0","-1","0","-2","-1","0","0","5","4","5","5","5","4","4","3","4","4","4","5","3","6","3","2","4","4","5","3","3","2","3","3","2","3","1","3","1","1","3","2","5","3","2","3","3","2","2","3","3","2","3","1","3","3","1","3","2","1","3","2","3","1","3","2","3","3","2","2","682883457575026688","徐","83","Female","[""坏我"",""坏她"",""好她"",""好我""]","[""弱我"",""弱她"",""强她"",""强我""]","","","","","","","","yes","","","","","","","","","SRET","EW_formal","","key","j","16.6676190476191","768","428","朋友","果断","Positive","ability","","","","","","","","","","",""
"794","","f","psychophysics","26","195010","0.0-7.0-3.0-0.12","3","2","2","2","3","4","2","2","4","4","5","1","0","-1","0","-2","-1","0","0","5","4","5","5","5","4","4","3","4","4","4","5","3","6","3","2","4","4","5","3","3","2","3","3","2","3","1","3","1","1","3","2","5","3","2","3","3","2","2","3","3","2","3","1","3","3","1","3","2","1","3","2","3","1","3","2","3","3","2","2","682883457575026688","徐","83","Female","[""坏我"",""坏她"",""好她"",""好我""]","[""弱我"",""弱她"",""强她"",""强我""]","","","","","","","","no","","","","","","","","","SRET","EW_formal","","key","f","16.666355140186806","768","428","朋友","不良","Negative","morality","","","","","","","","","","",""
"880","","j","psychophysics","27","196891","0.0-7.0-3.0-0.13","3","2","2","2","3","4","2","2","4","4","5","1","0","-1","0","-2","-1","0","0","5","4","5","5","5","4","4","3","4","4","4","5","3","6","3","2","4","4","5","3","3","2","3","3","2","3","1","3","1","1","3","2","5","3","2","3","3","2","2","3","3","2","3","1","3","3","1","3","2","1","3","2","3","1","3","2","3","3","2","2","682883457575026688","徐","83","Female","[""坏我"",""坏她"",""好她"",""好我""]","[""弱我"",""弱她"",""强她"",""强我""]","","","","","","","","yes","","","","","","","","","SRET","EW_formal","","key","j","16.66696428571439","768","428","自己","忠诚","Positive","morality","","","","","","","","","","",""
"760","","f","psychophysics","28","198651","0.0-7.0-3.0-0.14","3","2","2","2","3","4","2","2","4","4","5","1","0","-1","0","-2","-1","0","0","5","4","5","5","5","4","4","3","4","4","4","5","3","6","3","2","4","4","5","3","3","2","3","3","2","3","1","3","1","1","3","2","5","3","2","3","3","2","2","3","3","2","3","1","3","3","1","3","2","1","3","2","3","1","3","2","3","3","2","2","682883457575026688","徐","83","Female","[""坏我"",""坏她"",""好她"",""好我""]","[""弱我"",""弱她"",""强她"",""强我""]","","","","","","","","no","","","","","","","","","SRET","EW_formal","","key","f","16.669523809523977","768","428","朋友","无赖","Negative","morality","","","","","","","","","","",""
"882","","f","psychophysics","29","200535","0.0-7.0-3.0-0.15","3","2","2","2","3","4","2","2","4","4","5","1","0","-1","0","-2","-1","0","0","5","4","5","5","5","4","4","3","4","4","4","5","3","6","3","2","4","4","5","3","3","2","3","3","2","3","1","3","1","1","3","2","5","3","2","3","3","2","2","3","3","2","3","1","3","3","1","3","2","1","3","2","3","1","3","2","3","3","2","2","682883457575026688","徐","83","Female","[""坏我"",""坏她"",""好她"",""好我""]","[""弱我"",""弱她"",""强她"",""强我""]","","","","","","","","no","","","","","","","","","SRET","EW_formal","","key","f","16.667857142857038","768","428","朋友","差生","Negative","ability","","","","","","","","","","",""
"826","","f","psychophysics","30","202363","0.0-7.0-3.0-0.16","3","2","2","2","3","4","2","2","4","4","5","1","0","-1","0","-2","-1","0","0","5","4","5","5","5","4","4","3","4","4","4","5","3","6","3","2","4","4","5","3","3","2","3","3","2","3","1","3","1","1","3","2","5","3","2","3","3","2","2","3","3","2","3","1","3","3","1","3","2","1","3","2","3","1","3","2","3","3","2","2","682883457575026688","徐","83","Female","[""坏我"",""坏她"",""好她"",""好我""]","[""弱我"",""弱她"",""强她"",""强我""]","","","","","","","","no","","","","","","","","","SRET","EW_formal","","key","f","16.666972477064327","768","428","朋友","迂拙","Negative","ability","","","","","","","","","","",""
"716","","j","psychophysics","31","204080","0.0-7.0-3.0-0.17","3","2","2","2","3","4","2","2","4","4","5","1","0","-1","0","-2","-1","0","0","5","4","5","5","5","4","4","3","4","4","4","5","3","6","3","2","4","4","5","3","3","2","3","3","2","3","1","3","1","1","3","2","5","3","2","3","3","2","2","3","3","2","3","1","3","3","1","3","2","1","3","2","3","1","3","2","3","3","2","2","682883457575026688","徐","83","Female","[""坏我"",""坏她"",""好她"",""好我""]","[""弱我"",""弱她"",""强她"",""强我""]","","","","","","","","yes","","","","","","","","","SRET","EW_formal","","key","j","16.664705882352827","768","428","朋友","刻苦","Positive","ability","","","","","","","","","","",""
"1029","","j","psychophysics","32","206110","0.0-7.0-3.0-0.18","3","2","2","2","3","4","2","2","4","4","5","1","0","-1","0","-2","-1","0","0","5","4","5","5","5","4","4","3","4","4","4","5","3","6","3","2","4","4","5","3","3","2","3","3","2","3","1","3","1","1","3","2","5","3","2","3","3","2","2","3","3","2","3","1","3","3","1","3","2","1","3","2","3","1","3","2","3","3","2","2","682883457575026688","徐","83","Female","[""坏我"",""坏她"",""好她"",""好我""]","[""弱我"",""弱她"",""强她"",""强我""]","","","","","","","","yes","","","","","","","","","SRET","EW_formal","","key","j","16.664166666666762","768","428","自己","热心","Positive","morality","","","","","","","","","","",""
"747","","f","psychophysics","33","207858","0.0-7.0-3.0-0.19","3","2","2","2","3","4","2","2","4","4","5","1","0","-1","0","-2","-1","0","0","5","4","5","5","5","4","4","3","4","4","4","5","3","6","3","2","4","4","5","3","3","2","3","3","2","3","1","3","1","1","3","2","5","3","2","3","3","2","2","3","3","2","3","1","3","3","1","3","2","1","3","2","3","1","3","2","3","3","2","2","682883457575026688","徐","83","Female","[""坏我"",""坏她"",""好她"",""好我""]","[""弱我"",""弱她"",""强她"",""强我""]","","","","","","","","no","","","","","","","","","SRET","EW_formal","","key","f","16.66826923076923","768","428","自己","黑心","Negative","morality","","","","","","","","","","",""
"932","","j","psychophysics","34","209791","0.0-7.0-3.0-0.20","3","2","2","2","3","4","2","2","4","4","5","1","0","-1","0","-2","-1","0","0","5","4","5","5","5","4","4","3","4","4","4","5","3","6","3","2","4","4","5","3","3","2","3","3","2","3","1","3","1","1","3","2","5","3","2","3","3","2","2","3","3","2","3","1","3","3","1","3","2","1","3","2","3","1","3","2","3","3","2","2","682883457575026688","徐","83","Female","[""坏我"",""坏她"",""好她"",""好我""]","[""弱我"",""弱她"",""强她"",""强我""]","","","","","","","","yes","","","","","","","","","SRET","EW_formal","","key","j","16.666956521738978","768","428","朋友","高明","Positive","ability","","","","","","","","","","",""
"1051","","f","psychophysics","35","211844","0.0-7.0-3.0-0.21","3","2","2","2","3","4","2","2","4","4","5","1","0","-1","0","-2","-1","0","0","5","4","5","5","5","4","4","3","4","4","4","5","3","6","3","2","4","4","5","3","3","2","3","3","2","3","1","3","1","1","3","2","5","3","2","3","3","2","2","3","3","2","3","1","3","3","1","3","2","1","3","2","3","1","3","2","3","3","2","2","682883457575026688","徐","83","Female","[""坏我"",""坏她"",""好她"",""好我""]","[""弱我"",""弱她"",""强她"",""强我""]","","","","","","","","no","","","","","","","","","SRET","EW_formal","","key","f","16.666393442622855","768","428","自己","背叛","Negative","morality","","","","","","","","","","",""
"1319","","j","psychophysics","36","214163","0.0-7.0-3.0-0.22","3","2","2","2","3","4","2","2","4","4","5","1","0","-1","0","-2","-1","0","0","5","4","5","5","5","4","4","3","4","4","4","5","3","6","3","2","4","4","5","3","3","2","3","3","2","3","1","3","1","1","3","2","5","3","2","3","3","2","2","3","3","2","3","1","3","3","1","3","2","1","3","2","3","1","3","2","3","3","2","2","682883457575026688","徐","83","Female","[""坏我"",""坏她"",""好她"",""好我""]","[""弱我"",""弱她"",""强她"",""强我""]","","","","","","","","yes","","","","","","","","","SRET","EW_formal","","key","j","16.666187050359753","768","428","朋友","阴毒","Negative","morality","","","","","","","","","","",""
"915","","f","psychophysics","37","216079","0.0-7.0-3.0-0.23","3","2","2","2","3","4","2","2","4","4","5","1","0","-1","0","-2","-1","0","0","5","4","5","5","5","4","4","3","4","4","4","5","3","6","3","2","4","4","5","3","3","2","3","3","2","3","1","3","1","1","3","2","5","3","2","3","3","2","2","3","3","2","3","1","3","3","1","3","2","1","3","2","3","1","3","2","3","3","2","2","682883457575026688","徐","83","Female","[""坏我"",""坏她"",""好她"",""好我""]","[""弱我"",""弱她"",""强她"",""强我""]","","","","","","","","no","","","","","","","","","SRET","EW_formal","","key","f","16.66491228070191","768","428","朋友","不孝","Negative","morality","","","","","","","","","","",""
"1009","","f","psychophysics","38","218090","0.0-7.0-3.0-0.24","3","2","2","2","3","4","2","2","4","4","5","1","0","-1","0","-2","-1","0","0","5","4","5","5","5","4","4","3","4","4","4","5","3","6","3","2","4","4","5","3","3","2","3","3","2","3","1","3","1","1","3","2","5","3","2","3","3","2","2","3","3","2","3","1","3","3","1","3","2","1","3","2","3","1","3","2","3","3","2","2","682883457575026688","徐","83","Female","[""坏我"",""坏她"",""好她"",""好我""]","[""弱我"",""弱她"",""强她"",""强我""]","","","","","","","","no","","","","","","","","","SRET","EW_formal","","key","f","16.66386554621849","768","428","朋友","弱智","Negative","ability","","","","","","","","","","",""
"1023","","f","psychophysics","39","220115","0.0-7.0-3.0-0.25","3","2","2","2","3","4","2","2","4","4","5","1","0","-1","0","-2","-1","0","0","5","4","5","5","5","4","4","3","4","4","4","5","3","6","3","2","4","4","5","3","3","2","3","3","2","3","1","3","1","1","3","2","5","3","2","3","3","2","2","3","3","2","3","1","3","3","1","3","2","1","3","2","3","1","3","2","3","3","2","2","682883457575026688","徐","83","Female","[""坏我"",""坏她"",""好她"",""好我""]","[""弱我"",""弱她"",""强她"",""强我""]","","","","","","","","no","","","","","","","","","SRET","EW_formal","","key","f","16.666115702479388","768","428","自己","独断","Negative","ability","","","","","","","","","","",""
"1384","","f","psychophysics","40","222501","0.0-7.0-3.0-0.26","3","2","2","2","3","4","2","2","4","4","5","1","0","-1","0","-2","-1","0","0","5","4","5","5","5","4","4","3","4","4","4","5","3","6","3","2","4","4","5","3","3","2","3","3","2","3","1","3","1","1","3","2","5","3","2","3","3","2","2","3","3","2","3","1","3","3","1","3","2","1","3","2","3","1","3","2","3","3","2","2","682883457575026688","徐","83","Female","[""坏我"",""坏她"",""好她"",""好我""]","[""弱我"",""弱她"",""强她"",""强我""]","","","","","","","","no","","","","","","","","","SRET","EW_formal","","key","f","16.66619718309863","768","428","自己","骁勇","Positive","ability","","","","","","","","","","",""
"793","","j","psychophysics","41","224297","0.0-7.0-3.0-0.27","3","2","2","2","3","4","2","2","4","4","5","1","0","-1","0","-2","-1","0","0","5","4","5","5","5","4","4","3","4","4","4","5","3","6","3","2","4","4","5","3","3","2","3","3","2","3","1","3","1","1","3","2","5","3","2","3","3","2","2","3","3","2","3","1","3","3","1","3","2","1","3","2","3","1","3","2","3","3","2","2","682883457575026688","徐","83","Female","[""坏我"",""坏她"",""好她"",""好我""]","[""弱我"",""弱她"",""强她"",""强我""]","","","","","","","","yes","","","","","","","","","SRET","EW_formal","","key","j","16.667289719626115","768","428","自己","短视","Negative","ability","","","","","","","","","","",""
"1087","","f","psychophysics","42","226386","0.0-7.0-3.0-0.28","3","2","2","2","3","4","2","2","4","4","5","1","0","-1","0","-2","-1","0","0","5","4","5","5","5","4","4","3","4","4","4","5","3","6","3","2","4","4","5","3","3","2","3","3","2","3","1","3","1","1","3","2","5","3","2","3","3","2","2","3","3","2","3","1","3","3","1","3","2","1","3","2","3","1","3","2","3","3","2","2","682883457575026688","徐","83","Female","[""坏我"",""坏她"",""好她"",""好我""]","[""弱我"",""弱她"",""强她"",""强我""]","","","","","","","","no","","","","","","","","","SRET","EW_formal","","key","f","16.666129032257878","768","428","自己","聪明","Positive","ability","","","","","","","","","","",""
"688","","j","psychophysics","43","228075","0.0-7.0-3.0-0.29","3","2","2","2","3","4","2","2","4","4","5","1","0","-1","0","-2","-1","0","0","5","4","5","5","5","4","4","3","4","4","4","5","3","6","3","2","4","4","5","3","3","2","3","3","2","3","1","3","1","1","3","2","5","3","2","3","3","2","2","3","3","2","3","1","3","3","1","3","2","1","3","2","3","1","3","2","3","3","2","2","682883457575026688","徐","83","Female","[""坏我"",""坏她"",""好她"",""好我""]","[""弱我"",""弱她"",""强她"",""强我""]","","","","","","","","yes","","","","","","","","","SRET","EW_formal","","key","j","16.667999999999882","768","428","自己","粗心","Negative","ability","","","","","","","","","","",""
"843","","f","psychophysics","44","229919","0.0-7.0-3.0-0.30","3","2","2","2","3","4","2","2","4","4","5","1","0","-1","0","-2","-1","0","0","5","4","5","5","5","4","4","3","4","4","4","5","3","6","3","2","4","4","5","3","3","2","3","3","2","3","1","3","1","1","3","2","5","3","2","3","3","2","2","3","3","2","3","1","3","3","1","3","2","1","3","2","3","1","3","2","3","3","2","2","682883457575026688","徐","83","Female","[""坏我"",""坏她"",""好她"",""好我""]","[""弱我"",""弱她"",""强她"",""强我""]","","","","","","","","no","","","","","","","","","SRET","EW_formal","","key","f","16.670000000000105","768","428","自己","蛇蝎","Negative","morality","","","","","","","","","","",""
"766","","j","psychophysics","45","231686","0.0-7.0-3.0-0.31","3","2","2","2","3","4","2","2","4","4","5","1","0","-1","0","-2","-1","0","0","5","4","5","5","5","4","4","3","4","4","4","5","3","6","3","2","4","4","5","3","3","2","3","3","2","3","1","3","1","1","3","2","5","3","2","3","3","2","2","3","3","2","3","1","3","3","1","3","2","1","3","2","3","1","3","2","3","3","2","2","682883457575026688","徐","83","Female","[""坏我"",""坏她"",""好她"",""好我""]","[""弱我"",""弱她"",""强她"",""强我""]","","","","","","","","yes","","","","","","","","","SRET","EW_formal","","key","j","16.666666666666668","768","428","朋友","廉明","Positive","morality","","","","","","","","","","",""
"753","","f","psychophysics","46","233439","0.0-7.0-3.0-0.32","3","2","2","2","3","4","2","2","4","4","5","1","0","-1","0","-2","-1","0","0","5","4","5","5","5","4","4","3","4","4","4","5","3","6","3","2","4","4","5","3","3","2","3","3","2","3","1","3","1","1","3","2","5","3","2","3","3","2","2","3","3","2","3","1","3","3","1","3","2","1","3","2","3","1","3","2","3","3","2","2","682883457575026688","徐","83","Female","[""坏我"",""坏她"",""好她"",""好我""]","[""弱我"",""弱她"",""强她"",""强我""]","","","","","","","","no","","","","","","","","","SRET","EW_formal","","key","f","16.66826923076923","768","428","朋友","昏庸","Negative","ability","","","","","","","","","","",""
"1013","","f","psychophysics","47","235453","0.0-7.0-3.0-0.33","3","2","2","2","3","4","2","2","4","4","5","1","0","-1","0","-2","-1","0","0","5","4","5","5","5","4","4","3","4","4","4","5","3","6","3","2","4","4","5","3","3","2","3","3","2","3","1","3","1","1","3","2","5","3","2","3","3","2","2","3","3","2","3","1","3","3","1","3","2","1","3","2","3","1","3","2","3","3","2","2","682883457575026688","徐","83","Female","[""坏我"",""坏她"",""好她"",""好我""]","[""弱我"",""弱她"",""强她"",""强我""]","","","","","","","","no","","","","","","","","","SRET","EW_formal","","key","f","16.66750000000005","768","428","朋友","无耻","Negative","morality","","","","","","","","","","",""
"863","","j","psychophysics","48","237318","0.0-7.0-3.0-0.34","3","2","2","2","3","4","2","2","4","4","5","1","0","-1","0","-2","-1","0","0","5","4","5","5","5","4","4","3","4","4","4","5","3","6","3","2","4","4","5","3","3","2","3","3","2","3","1","3","1","1","3","2","5","3","2","3","3","2","2","3","3","2","3","1","3","3","1","3","2","1","3","2","3","1","3","2","3","3","2","2","682883457575026688","徐","83","Female","[""坏我"",""坏她"",""好她"",""好我""]","[""弱我"",""弱她"",""强她"",""强我""]","","","","","","","","yes","","","","","","","","","SRET","EW_formal","","key","j","16.666666666666668","768","428","自己","笨蛋","Negative","ability","","","","","","","","","","",""
"906","","j","psychophysics","49","239226","0.0-7.0-3.0-0.35","3","2","2","2","3","4","2","2","4","4","5","1","0","-1","0","-2","-1","0","0","5","4","5","5","5","4","4","3","4","4","4","5","3","6","3","2","4","4","5","3","3","2","3","3","2","3","1","3","1","1","3","2","5","3","2","3","3","2","2","3","3","2","3","1","3","3","1","3","2","1","3","2","3","1","3","2","3","3","2","2","682883457575026688","徐","83","Female","[""坏我"",""坏她"",""好她"",""好我""]","[""弱我"",""弱她"",""强她"",""强我""]","","","","","","","","yes","","","","","","","","","SRET","EW_formal","","key","j","16.66548672566382","768","428","朋友","敬业","Positive","morality","","","","","","","","","","",""
"1093","","j","psychophysics","50","241322","0.0-7.0-3.0-0.36","3","2","2","2","3","4","2","2","4","4","5","1","0","-1","0","-2","-1","0","0","5","4","5","5","5","4","4","3","4","4","4","5","3","6","3","2","4","4","5","3","3","2","3","3","2","3","1","3","1","1","3","2","5","3","2","3","3","2","2","3","3","2","3","1","3","3","1","3","2","1","3","2","3","1","3","2","3","3","2","2","682883457575026688","徐","83","Female","[""坏我"",""坏她"",""好她"",""好我""]","[""弱我"",""弱她"",""强她"",""强我""]","","","","","","","","yes","","","","","","","","","SRET","EW_formal","","key","j","16.665600000000094","768","428","朋友","虚假","Negative","morality","","","","","","","","","","",""
"1664","","j","psychophysics","51","243987","0.0-7.0-3.0-0.37","3","2","2","2","3","4","2","2","4","4","5","1","0","-1","0","-2","-1","0","0","5","4","5","5","5","4","4","3","4","4","4","5","3","6","3","2","4","4","5","3","3","2","3","3","2","3","1","3","1","1","3","2","5","3","2","3","3","2","2","3","3","2","3","1","3","3","1","3","2","1","3","2","3","1","3","2","3","3","2","2","682883457575026688","徐","83","Female","[""坏我"",""坏她"",""好她"",""好我""]","[""弱我"",""弱她"",""强她"",""强我""]","","","","","","","","yes","","","","","","","","","SRET","EW_formal","","key","j","16.66729559748413","768","428","自己","廉正","Positive","morality","","","","","","","","","","",""
"877","","f","psychophysics","52","245865","0.0-7.0-3.0-0.38","3","2","2","2","3","4","2","2","4","4","5","1","0","-1","0","-2","-1","0","0","5","4","5","5","5","4","4","3","4","4","4","5","3","6","3","2","4","4","5","3","3","2","3","3","2","3","1","3","1","1","3","2","5","3","2","3","3","2","2","3","3","2","3","1","3","3","1","3","2","1","3","2","3","1","3","2","3","3","2","2","682883457575026688","徐","83","Female","[""坏我"",""坏她"",""好她"",""好我""]","[""弱我"",""弱她"",""强她"",""强我""]","","","","","","","","no","","","","","","","","","SRET","EW_formal","","key","f","16.66696428571439","768","428","自己","不端","Negative","morality","","","","","","","","","","",""
"680","","j","psychophysics","53","247546","0.0-7.0-3.0-0.39","3","2","2","2","3","4","2","2","4","4","5","1","0","-1","0","-2","-1","0","0","5","4","5","5","5","4","4","3","4","4","4","5","3","6","3","2","4","4","5","3","3","2","3","3","2","3","1","3","1","1","3","2","5","3","2","3","3","2","2","3","3","2","3","1","3","3","1","3","2","1","3","2","3","1","3","2","3","3","2","2","682883457575026688","徐","83","Female","[""坏我"",""坏她"",""好她"",""好我""]","[""弱我"",""弱她"",""强她"",""强我""]","","","","","","","","yes","","","","","","","","","SRET","EW_formal","","key","j","16.666000000000057","768","428","自己","能干","Positive","ability","","","","","","","","","","",""
"815","","j","psychophysics","54","249362","0.0-7.0-3.0-0.40","3","2","2","2","3","4","2","2","4","4","5","1","0","-1","0","-2","-1","0","0","5","4","5","5","5","4","4","3","4","4","4","5","3","6","3","2","4","4","5","3","3","2","3","3","2","3","1","3","1","1","3","2","5","3","2","3","3","2","2","3","3","2","3","1","3","3","1","3","2","1","3","2","3","1","3","2","3","3","2","2","682883457575026688","徐","83","Female","[""坏我"",""坏她"",""好她"",""好我""]","[""弱我"",""弱她"",""强她"",""强我""]","","","","","","","","yes","","","","","","","","","SRET","EW_formal","","key","j","16.665740740740688","768","428","自己","宽容","Positive","morality","","","","","","","","","","",""
"1020","","j","psychophysics","55","251383","0.0-7.0-3.0-0.41","3","2","2","2","3","4","2","2","4","4","5","1","0","-1","0","-2","-1","0","0","5","4","5","5","5","4","4","3","4","4","4","5","3","6","3","2","4","4","5","3","3","2","3","3","2","3","1","3","1","1","3","2","5","3","2","3","3","2","2","3","3","2","3","1","3","3","1","3","2","1","3","2","3","1","3","2","3","3","2","2","682883457575026688","徐","83","Female","[""坏我"",""坏她"",""好她"",""好我""]","[""弱我"",""弱她"",""强她"",""强我""]","","","","","","","","yes","","","","","","","","","SRET","EW_formal","","key","j","16.666666666666668","768","428","自己","驽钝","Negative","ability","","","","","","","","","","",""
"677","","f","psychophysics","56","253062","0.0-7.0-3.0-0.42","3","2","2","2","3","4","2","2","4","4","5","1","0","-1","0","-2","-1","0","0","5","4","5","5","5","4","4","3","4","4","4","5","3","6","3","2","4","4","5","3","3","2","3","3","2","3","1","3","1","1","3","2","5","3","2","3","3","2","2","3","3","2","3","1","3","3","1","3","2","1","3","2","3","1","3","2","3","3","2","2","682883457575026688","徐","83","Female","[""坏我"",""坏她"",""好她"",""好我""]","[""弱我"",""弱她"",""强她"",""强我""]","","","","","","","","no","","","","","","","","","SRET","EW_formal","","key","f","16.665","768","428","自己","歹毒","Negative","morality","","","","","","","","","","",""
"775","","j","psychophysics","57","254838","0.0-7.0-3.0-0.43","3","2","2","2","3","4","2","2","4","4","5","1","0","-1","0","-2","-1","0","0","5","4","5","5","5","4","4","3","4","4","4","5","3","6","3","2","4","4","5","3","3","2","3","3","2","3","1","3","1","1","3","2","5","3","2","3","3","2","2","3","3","2","3","1","3","3","1","3","2","1","3","2","3","1","3","2","3","3","2","2","682883457575026688","徐","83","Female","[""坏我"",""坏她"",""好她"",""好我""]","[""弱我"",""弱她"",""强她"",""强我""]","","","","","","","","yes","","","","","","","","","SRET","EW_formal","","key","j","16.668571428571262","768","428","朋友","孝顺","Positive","morality","","","","","","","","","","",""
"866","","j","psychophysics","58","256706","0.0-7.0-3.0-0.44","3","2","2","2","3","4","2","2","4","4","5","1","0","-1","0","-2","-1","0","0","5","4","5","5","5","4","4","3","4","4","4","5","3","6","3","2","4","4","5","3","3","2","3","3","2","3","1","3","1","1","3","2","5","3","2","3","3","2","2","3","3","2","3","1","3","3","1","3","2","1","3","2","3","1","3","2","3","3","2","2","682883457575026688","徐","83","Female","[""坏我"",""坏她"",""好她"",""好我""]","[""弱我"",""弱她"",""强她"",""强我""]","","","","","","","","yes","","","","","","","","","SRET","EW_formal","","key","j","16.66486486486476","768","428","朋友","慷慨","Positive","morality","","","","","","","","","","",""
"853","","j","psychophysics","59","258561","0.0-7.0-3.0-0.45","3","2","2","2","3","4","2","2","4","4","5","1","0","-1","0","-2","-1","0","0","5","4","5","5","5","4","4","3","4","4","4","5","3","6","3","2","4","4","5","3","3","2","3","3","2","3","1","3","1","1","3","2","5","3","2","3","3","2","2","3","3","2","3","1","3","3","1","3","2","1","3","2","3","1","3","2","3","3","2","2","682883457575026688","徐","83","Female","[""坏我"",""坏她"",""好她"",""好我""]","[""弱我"",""弱她"",""强她"",""强我""]","","","","","","","","yes","","","","","","","","","SRET","EW_formal","","key","j","16.668181818181818","768","428","自己","拜金","Negative","morality","","","","","","","","","","",""
"955","","j","psychophysics","60","260520","0.0-7.0-3.0-0.46","3","2","2","2","3","4","2","2","4","4","5","1","0","-1","0","-2","-1","0","0","5","4","5","5","5","4","4","3","4","4","4","5","3","6","3","2","4","4","5","3","3","2","3","3","2","3","1","3","1","1","3","2","5","3","2","3","3","2","2","3","3","2","3","1","3","3","1","3","2","1","3","2","3","1","3","2","3","3","2","2","682883457575026688","徐","83","Female","[""坏我"",""坏她"",""好她"",""好我""]","[""弱我"",""弱她"",""强她"",""强我""]","","","","","","","","yes","","","","","","","","","SRET","EW_formal","","key","j","16.666666666666668","768","428","朋友","拖拉","Negative","ability","","","","","","","","","","",""
"826","","j","psychophysics","61","262347","0.0-7.0-3.0-0.47","3","2","2","2","3","4","2","2","4","4","5","1","0","-1","0","-2","-1","0","0","5","4","5","5","5","4","4","3","4","4","4","5","3","6","3","2","4","4","5","3","3","2","3","3","2","3","1","3","1","1","3","2","5","3","2","3","3","2","2","3","3","2","3","1","3","3","1","3","2","1","3","2","3","1","3","2","3","3","2","2","682883457575026688","徐","83","Female","[""坏我"",""坏她"",""好她"",""好我""]","[""弱我"",""弱她"",""强她"",""强我""]","","","","","","","","yes","","","","","","","","","SRET","EW_formal","","key","j","16.666972477064327","768","428","自己","愚钝","Negative","ability","","","","","","","","","","",""
"644","","j","psychophysics","62","263992","0.0-7.0-3.0-0.48","3","2","2","2","3","4","2","2","4","4","5","1","0","-1","0","-2","-1","0","0","5","4","5","5","5","4","4","3","4","4","4","5","3","6","3","2","4","4","5","3","3","2","3","3","2","3","1","3","1","1","3","2","5","3","2","3","3","2","2","3","3","2","3","1","3","3","1","3","2","1","3","2","3","1","3","2","3","3","2","2","682883457575026688","徐","83","Female","[""坏我"",""坏她"",""好她"",""好我""]","[""弱我"",""弱她"",""强她"",""强我""]","","","","","","","","yes","","","","","","","","","SRET","EW_formal","","key","j","16.66701030927847","768","428","朋友","坦荡","Positive","morality","","","","","","","","","","",""
"801","","f","psychophysics","63","265803","0.0-7.0-3.0-0.49","3","2","2","2","3","4","2","2","4","4","5","1","0","-1","0","-2","-1","0","0","5","4","5","5","5","4","4","3","4","4","4","5","3","6","3","2","4","4","5","3","3","2","3","3","2","3","1","3","1","1","3","2","5","3","2","3","3","2","2","3","3","2","3","1","3","3","1","3","2","1","3","2","3","1","3","2","3","3","2","2","682883457575026688","徐","83","Female","[""坏我"",""坏她"",""好她"",""好我""]","[""弱我"",""弱她"",""强她"",""强我""]","","","","","","","","no","","","","","","","","","SRET","EW_formal","","key","f","16.667592592592378","768","428","朋友","窝囊","Negative","ability","","","","","","","","","","",""
"767","","f","psychophysics","64","267572","0.0-7.0-3.0-0.50","3","2","2","2","3","4","2","2","4","4","5","1","0","-1","0","-2","-1","0","0","5","4","5","5","5","4","4","3","4","4","4","5","3","6","3","2","4","4","5","3","3","2","3","3","2","3","1","3","1","1","3","2","5","3","2","3","3","2","2","3","3","2","3","1","3","3","1","3","2","1","3","2","3","1","3","2","3","3","2","2","682883457575026688","徐","83","Female","[""坏我"",""坏她"",""好她"",""好我""]","[""弱我"",""弱她"",""强她"",""强我""]","","","","","","","","no","","","","","","","","","SRET","EW_formal","","key","f","16.66857142857154","768","428","自己","学霸","Positive","ability","","","","","","","","","","",""
"864","","j","psychophysics","65","269437","0.0-7.0-3.0-0.51","3","2","2","2","3","4","2","2","4","4","5","1","0","-1","0","-2","-1","0","0","5","4","5","5","5","4","4","3","4","4","4","5","3","6","3","2","4","4","5","3","3","2","3","3","2","3","1","3","1","1","3","2","5","3","2","3","3","2","2","3","3","2","3","1","3","3","1","3","2","1","3","2","3","1","3","2","3","3","2","2","682883457575026688","徐","83","Female","[""坏我"",""坏她"",""好她"",""好我""]","[""弱我"",""弱她"",""强她"",""强我""]","","","","","","","","yes","","","","","","","","","SRET","EW_formal","","key","j","16.665765765765975","768","428","自己","庸碌","Negative","ability","","","","","","","","","","",""
"760","","f","psychophysics","66","271198","0.0-7.0-3.0-0.52","3","2","2","2","3","4","2","2","4","4","5","1","0","-1","0","-2","-1","0","0","5","4","5","5","5","4","4","3","4","4","4","5","3","6","3","2","4","4","5","3","3","2","3","3","2","3","1","3","1","1","3","2","5","3","2","3","3","2","2","3","3","2","3","1","3","3","1","3","2","1","3","2","3","1","3","2","3","3","2","2","682883457575026688","徐","83","Female","[""坏我"",""坏她"",""好她"",""好我""]","[""弱我"",""弱她"",""强她"",""强我""]","","","","","","","","no","","","","","","","","","SRET","EW_formal","","key","f","16.66761904761938","768","428","自己","顶事","Positive","ability","","","","","","","","","","",""
"618","","j","psychophysics","67","272817","0.0-7.0-3.0-0.53","3","2","2","2","3","4","2","2","4","4","5","1","0","-1","0","-2","-1","0","0","5","4","5","5","5","4","4","3","4","4","4","5","3","6","3","2","4","4","5","3","3","2","3","3","2","3","1","3","1","1","3","2","5","3","2","3","3","2","2","3","3","2","3","1","3","3","1","3","2","1","3","2","3","1","3","2","3","3","2","2","682883457575026688","徐","83","Female","[""坏我"",""坏她"",""好她"",""好我""]","[""弱我"",""弱她"",""强她"",""强我""]","","","","","","","","yes","","","","","","","","","SRET","EW_formal","","key","j","16.66875000000012","768","428","朋友","远见","Positive","ability","","","","","","","","","","",""
"732","","j","psychophysics","68","274551","0.0-7.0-3.0-0.54","3","2","2","2","3","4","2","2","4","4","5","1","0","-1","0","-2","-1","0","0","5","4","5","5","5","4","4","3","4","4","4","5","3","6","3","2","4","4","5","3","3","2","3","3","2","3","1","3","1","1","3","2","5","3","2","3","3","2","2","3","3","2","3","1","3","3","1","3","2","1","3","2","3","1","3","2","3","3","2","2","682883457575026688","徐","83","Female","[""坏我"",""坏她"",""好她"",""好我""]","[""弱我"",""弱她"",""强她"",""强我""]","","","","","","","","yes","","","","","","","","","SRET","EW_formal","","key","j","16.67184466019429","768","428","朋友","利己","Negative","morality","","","","","","","","","","",""
"914","","j","psychophysics","69","276467","0.0-7.0-3.0-0.55","3","2","2","2","3","4","2","2","4","4","5","1","0","-1","0","-2","-1","0","0","5","4","5","5","5","4","4","3","4","4","4","5","3","6","3","2","4","4","5","3","3","2","3","3","2","3","1","3","1","1","3","2","5","3","2","3","3","2","2","3","3","2","3","1","3","3","1","3","2","1","3","2","3","1","3","2","3","3","2","2","682883457575026688","徐","83","Female","[""坏我"",""坏她"",""好她"",""好我""]","[""弱我"",""弱她"",""强她"",""强我""]","","","","","","","","yes","","","","","","","","","SRET","EW_formal","","key","j","16.669298245613934","768","428","自己","慈悲","Positive","morality","","","","","","","","","","",""
"834","","j","psychophysics","70","278303","0.0-7.0-3.0-0.56","3","2","2","2","3","4","2","2","4","4","5","1","0","-1","0","-2","-1","0","0","5","4","5","5","5","4","4","3","4","4","4","5","3","6","3","2","4","4","5","3","3","2","3","3","2","3","1","3","1","1","3","2","5","3","2","3","3","2","2","3","3","2","3","1","3","3","1","3","2","1","3","2","3","1","3","2","3","3","2","2","682883457575026688","徐","83","Female","[""坏我"",""坏她"",""好她"",""好我""]","[""弱我"",""弱她"",""强她"",""强我""]","","","","","","","","yes","","","","","","","","","SRET","EW_formal","","key","j","16.666972477063794","768","428","朋友","无为","Negative","ability","","","","","","","","","","",""
"1012","","j","psychophysics","71","280316","0.0-7.0-3.0-0.57","3","2","2","2","3","4","2","2","4","4","5","1","0","-1","0","-2","-1","0","0","5","4","5","5","5","4","4","3","4","4","4","5","3","6","3","2","4","4","5","3","3","2","3","3","2","3","1","3","1","1","3","2","5","3","2","3","3","2","2","3","3","2","3","1","3","3","1","3","2","1","3","2","3","1","3","2","3","3","2","2","682883457575026688","徐","83","Female","[""坏我"",""坏她"",""好她"",""好我""]","[""弱我"",""弱她"",""强她"",""强我""]","","","","","","","","yes","","","","","","","","","SRET","EW_formal","","key","j","16.667499999999805","768","428","朋友","自律","Positive","ability","","","","","","","","","","",""
"725","","j","psychophysics","72","282051","0.0-7.0-3.0-0.58","3","2","2","2","3","4","2","2","4","4","5","1","0","-1","0","-2","-1","0","0","5","4","5","5","5","4","4","3","4","4","4","5","3","6","3","2","4","4","5","3","3","2","3","3","2","3","1","3","1","1","3","2","5","3","2","3","3","2","2","3","3","2","3","1","3","3","1","3","2","1","3","2","3","1","3","2","3","3","2","2","682883457575026688","徐","83","Female","[""坏我"",""坏她"",""好她"",""好我""]","[""弱我"",""弱她"",""强她"",""强我""]","","","","","","","","yes","","","","","","","","","SRET","EW_formal","","key","j","16.66504854368932","768","428","朋友","仗义","Positive","morality","","","","","","","","","","",""
"892","","j","psychophysics","73","283945","0.0-7.0-3.0-0.59","3","2","2","2","3","4","2","2","4","4","5","1","0","-1","0","-2","-1","0","0","5","4","5","5","5","4","4","3","4","4","4","5","3","6","3","2","4","4","5","3","3","2","3","3","2","3","1","3","1","1","3","2","5","3","2","3","3","2","2","3","3","2","3","1","3","3","1","3","2","1","3","2","3","1","3","2","3","3","2","2","682883457575026688","徐","83","Female","[""坏我"",""坏她"",""好她"",""好我""]","[""弱我"",""弱她"",""强她"",""强我""]","","","","","","","","yes","","","","","","","","","SRET","EW_formal","","key","j","16.668141592920353","768","428","朋友","坚持","Positive","ability","","","","","","","","","","",""
"1119","","f","psychophysics","74","286066","0.0-7.0-3.0-0.60","3","2","2","2","3","4","2","2","4","4","5","1","0","-1","0","-2","-1","0","0","5","4","5","5","5","4","4","3","4","4","4","5","3","6","3","2","4","4","5","3","3","2","3","3","2","3","1","3","1","1","3","2","5","3","2","3","3","2","2","3","3","2","3","1","3","3","1","3","2","1","3","2","3","1","3","2","3","3","2","2","682883457575026688","徐","83","Female","[""坏我"",""坏她"",""好她"",""好我""]","[""弱我"",""弱她"",""强她"",""强我""]","","","","","","","","no","","","","","","","","","SRET","EW_formal","","key","f","16.665873015872737","768","428","自己","奉献","Positive","morality","","","","","","","","","","",""
"686","","j","psychophysics","75","287753","0.0-7.0-3.0-0.61","3","2","2","2","3","4","2","2","4","4","5","1","0","-1","0","-2","-1","0","0","5","4","5","5","5","4","4","3","4","4","4","5","3","6","3","2","4","4","5","3","3","2","3","3","2","3","1","3","1","1","3","2","5","3","2","3","3","2","2","3","3","2","3","1","3","3","1","3","2","1","3","2","3","1","3","2","3","3","2","2","682883457575026688","徐","83","Female","[""坏我"",""坏她"",""好她"",""好我""]","[""弱我"",""弱她"",""强她"",""强我""]","","","","","","","","yes","","","","","","","","","SRET","EW_formal","","key","j","16.667000000000115","768","428","朋友","忠义","Positive","morality","","","","","","","","","","",""
"726","","j","psychophysics","76","289481","0.0-7.0-3.0-0.62","3","2","2","2","3","4","2","2","4","4","5","1","0","-1","0","-2","-1","0","0","5","4","5","5","5","4","4","3","4","4","4","5","3","6","3","2","4","4","5","3","3","2","3","3","2","3","1","3","1","1","3","2","5","3","2","3","3","2","2","3","3","2","3","1","3","3","1","3","2","1","3","2","3","1","3","2","3","3","2","2","682883457575026688","徐","83","Female","[""坏我"",""坏她"",""好她"",""好我""]","[""弱我"",""弱她"",""强她"",""强我""]","","","","","","","","yes","","","","","","","","","SRET","EW_formal","","key","j","16.667961165048432","768","428","自己","善心","Positive","morality","","","","","","","","","","",""
"1050","","f","psychophysics","77","291533","0.0-7.0-3.0-0.63","3","2","2","2","3","4","2","2","4","4","5","1","0","-1","0","-2","-1","0","0","5","4","5","5","5","4","4","3","4","4","4","5","3","6","3","2","4","4","5","3","3","2","3","3","2","3","1","3","1","1","3","2","5","3","2","3","3","2","2","3","3","2","3","1","3","3","1","3","2","1","3","2","3","1","3","2","3","3","2","2","682883457575026688","徐","83","Female","[""坏我"",""坏她"",""好她"",""好我""]","[""弱我"",""弱她"",""强她"",""强我""]","","","","","","","","no","","","","","","","","","SRET","EW_formal","","key","f","16.667213114753814","768","428","自己","废物","Negative","ability","","","","","","","","","","",""
"1249","","f","psychophysics","78","293783","0.0-7.0-3.0-0.64","3","2","2","2","3","4","2","2","4","4","5","1","0","-1","0","-2","-1","0","0","5","4","5","5","5","4","4","3","4","4","4","5","3","6","3","2","4","4","5","3","3","2","3","3","2","3","1","3","1","1","3","2","5","3","2","3","3","2","2","3","3","2","3","1","3","3","1","3","2","1","3","2","3","1","3","2","3","3","2","2","682883457575026688","徐","83","Female","[""坏我"",""坏她"",""好她"",""好我""]","[""弱我"",""弱她"",""强她"",""强我""]","","","","","","","","no","","","","","","","","","SRET","EW_formal","","key","f","16.664925373134153","768","428","朋友","小人","Negative","morality","","","","","","","","","","",""
"888","","j","psychophysics","79","295674","0.0-7.0-3.0-0.65","3","2","2","2","3","4","2","2","4","4","5","1","0","-1","0","-2","-1","0","0","5","4","5","5","5","4","4","3","4","4","4","5","3","6","3","2","4","4","5","3","3","2","3","3","2","3","1","3","1","1","3","2","5","3","2","3","3","2","2","3","3","2","3","1","3","3","1","3","2","1","3","2","3","1","3","2","3","3","2","2","682883457575026688","徐","83","Female","[""坏我"",""坏她"",""好她"",""好我""]","[""弱我"",""弱她"",""强她"",""强我""]","","","","","","","","yes","","","","","","","","","SRET","EW_formal","","key","j","16.66696428571439","768","428","朋友","沉着","Positive","ability","","","","","","","","","","",""
"936","","j","psychophysics","80","297612","0.0-7.0-3.0-0.66","3","2","2","2","3","4","2","2","4","4","5","1","0","-1","0","-2","-1","0","0","5","4","5","5","5","4","4","3","4","4","4","5","3","6","3","2","4","4","5","3","3","2","3","3","2","3","1","3","1","1","3","2","5","3","2","3","3","2","2","3","3","2","3","1","3","3","1","3","2","1","3","2","3","1","3","2","3","3","2","2","682883457575026688","徐","83","Female","[""坏我"",""坏她"",""好她"",""好我""]","[""弱我"",""弱她"",""强她"",""强我""]","","","","","","","","yes","","","","","","","","","SRET","EW_formal","","key","j","16.666379310344727","768","428","自己","上进","Positive","ability","","","","","","","","","","",""
"1062","","j","psychophysics","81","299688","0.0-7.0-3.0-0.67","3","2","2","2","3","4","2","2","4","4","5","1","0","-1","0","-2","-1","0","0","5","4","5","5","5","4","4","3","4","4","4","5","3","6","3","2","4","4","5","3","3","2","3","3","2","3","1","3","1","1","3","2","5","3","2","3","3","2","2","3","3","2","3","1","3","3","1","3","2","1","3","2","3","1","3","2","3","3","2","2","682883457575026688","徐","83","Female","[""坏我"",""坏她"",""好她"",""好我""]","[""弱我"",""弱她"",""强她"",""强我""]","","","","","","","","yes","","","","","","","","","SRET","EW_formal","","key","j","16.665853658536303","768","428","自己","毛糙","Negative","ability","","","","","","","","","","",""
"1042","","f","psychophysics","82","301730","0.0-7.0-3.0-0.68","3","2","2","2","3","4","2","2","4","4","5","1","0","-1","0","-2","-1","0","0","5","4","5","5","5","4","4","3","4","4","4","5","3","6","3","2","4","4","5","3","3","2","3","3","2","3","1","3","1","1","3","2","5","3","2","3","3","2","2","3","3","2","3","1","3","3","1","3","2","1","3","2","3","1","3","2","3","3","2","2","682883457575026688","徐","83","Female","[""坏我"",""坏她"",""好她"",""好我""]","[""弱我"",""弱她"",""强她"",""强我""]","","","","","","","","no","","","","","","","","","SRET","EW_formal","","key","f","16.66721311475429","768","428","自己","混账","Negative","morality","","","","","","","","","","",""
"688","","f","psychophysics","83","303419","0.0-7.0-3.0-0.69","3","2","2","2","3","4","2","2","4","4","5","1","0","-1","0","-2","-1","0","0","5","4","5","5","5","4","4","3","4","4","4","5","3","6","3","2","4","4","5","3","3","2","3","3","2","3","1","3","1","1","3","2","5","3","2","3","3","2","2","3","3","2","3","1","3","3","1","3","2","1","3","2","3","1","3","2","3","3","2","2","682883457575026688","徐","83","Female","[""坏我"",""坏她"",""好她"",""好我""]","[""弱我"",""弱她"",""强她"",""强我""]","","","","","","","","no","","","","","","","","","SRET","EW_formal","","key","f","16.67099999999977","768","428","自己","淫乱","Negative","morality","","","","","","","","","","",""
"961","","j","psychophysics","84","305382","0.0-7.0-3.0-0.70","3","2","2","2","3","4","2","2","4","4","5","1","0","-1","0","-2","-1","0","0","5","4","5","5","5","4","4","3","4","4","4","5","3","6","3","2","4","4","5","3","3","2","3","3","2","3","1","3","1","1","3","2","5","3","2","3","3","2","2","3","3","2","3","1","3","3","1","3","2","1","3","2","3","1","3","2","3","3","2","2","682883457575026688","徐","83","Female","[""坏我"",""坏她"",""好她"",""好我""]","[""弱我"",""弱她"",""强她"",""强我""]","","","","","","","","yes","","","","","","","","","SRET","EW_formal","","key","j","16.666666666666668","768","428","朋友","干练","Positive","ability","","","","","","","","","","",""
"586","","f","psychophysics","85","306969","0.0-7.0-3.0-0.71","3","2","2","2","3","4","2","2","4","4","5","1","0","-1","0","-2","-1","0","0","5","4","5","5","5","4","4","3","4","4","4","5","3","6","3","2","4","4","5","3","3","2","3","3","2","3","1","3","1","1","3","2","5","3","2","3","3","2","2","3","3","2","3","1","3","3","1","3","2","1","3","2","3","1","3","2","3","3","2","2","682883457575026688","徐","83","Female","[""坏我"",""坏她"",""好她"",""好我""]","[""弱我"",""弱她"",""强她"",""强我""]","","","","","","","","no","","","","","","","","","SRET","EW_formal","","key","f","16.664893617021278","768","428","朋友","腐败","Negative","morality","","","","","","","","","","",""
"776","","j","psychophysics","86","308746","0.0-7.0-3.0-0.72","3","2","2","2","3","4","2","2","4","4","5","1","0","-1","0","-2","-1","0","0","5","4","5","5","5","4","4","3","4","4","4","5","3","6","3","2","4","4","5","3","3","2","3","3","2","3","1","3","1","1","3","2","5","3","2","3","3","2","2","3","3","2","3","1","3","3","1","3","2","1","3","2","3","1","3","2","3","3","2","2","682883457575026688","徐","83","Female","[""坏我"",""坏她"",""好她"",""好我""]","[""弱我"",""弱她"",""强她"",""强我""]","","","","","","","","yes","","","","","","","","","SRET","EW_formal","","key","j","16.66792452830178","768","428","朋友","守法","Positive","morality","","","","","","","","","","",""
"655","","j","psychophysics","87","310402","0.0-7.0-3.0-0.73","3","2","2","2","3","4","2","2","4","4","5","1","0","-1","0","-2","-1","0","0","5","4","5","5","5","4","4","3","4","4","4","5","3","6","3","2","4","4","5","3","3","2","3","3","2","3","1","3","1","1","3","2","5","3","2","3","3","2","2","3","3","2","3","1","3","3","1","3","2","1","3","2","3","1","3","2","3","3","2","2","682883457575026688","徐","83","Female","[""坏我"",""坏她"",""好她"",""好我""]","[""弱我"",""弱她"",""强她"",""强我""]","","","","","","","","yes","","","","","","","","","SRET","EW_formal","","key","j","16.667346938775747","768","428","朋友","变通","Positive","ability","","","","","","","","","","",""
"537","","j","psychophysics","88","311941","0.0-7.0-3.0-0.74","3","2","2","2","3","4","2","2","4","4","5","1","0","-1","0","-2","-1","0","0","5","4","5","5","5","4","4","3","4","4","4","5","3","6","3","2","4","4","5","3","3","2","3","3","2","3","1","3","1","1","3","2","5","3","2","3","3","2","2","3","3","2","3","1","3","3","1","3","2","1","3","2","3","1","3","2","3","3","2","2","682883457575026688","徐","83","Female","[""坏我"",""坏她"",""好她"",""好我""]","[""弱我"",""弱她"",""强她"",""强我""]","","","","","","","","yes","","","","","","","","","SRET","EW_formal","","key","j","16.667032967033094","768","428","朋友","高尚","Positive","morality","","","","","","","","","","",""
"586","","f","psychophysics","89","313528","0.0-7.0-3.0-0.75","3","2","2","2","3","4","2","2","4","4","5","1","0","-1","0","-2","-1","0","0","5","4","5","5","5","4","4","3","4","4","4","5","3","6","3","2","4","4","5","3","3","2","3","3","2","3","1","3","1","1","3","2","5","3","2","3","3","2","2","3","3","2","3","1","3","3","1","3","2","1","3","2","3","1","3","2","3","3","2","2","682883457575026688","徐","83","Female","[""坏我"",""坏她"",""好她"",""好我""]","[""弱我"",""弱她"",""强她"",""强我""]","","","","","","","","no","","","","","","","","","SRET","EW_formal","","key","f","16.66631578947356","768","428","朋友","虚伪","Negative","morality","","","","","","","","","","",""
"1018","","j","psychophysics","90","315548","0.0-7.0-3.0-0.76","3","2","2","2","3","4","2","2","4","4","5","1","0","-1","0","-2","-1","0","0","5","4","5","5","5","4","4","3","4","4","4","5","3","6","3","2","4","4","5","3","3","2","3","3","2","3","1","3","1","1","3","2","5","3","2","3","3","2","2","3","3","2","3","1","3","3","1","3","2","1","3","2","3","1","3","2","3","3","2","2","682883457575026688","徐","83","Female","[""坏我"",""坏她"",""好她"",""好我""]","[""弱我"",""弱她"",""强她"",""强我""]","","","","","","","","yes","","","","","","","","","SRET","EW_formal","","key","j","16.666666666666668","768","428","自己","外行","Negative","ability","","","","","","","","","","",""
"737","","f","psychophysics","91","317288","0.0-7.0-3.0-0.77","3","2","2","2","3","4","2","2","4","4","5","1","0","-1","0","-2","-1","0","0","5","4","5","5","5","4","4","3","4","4","4","5","3","6","3","2","4","4","5","3","3","2","3","3","2","3","1","3","1","1","3","2","5","3","2","3","3","2","2","3","3","2","3","1","3","3","1","3","2","1","3","2","3","1","3","2","3","3","2","2","682883457575026688","徐","83","Female","[""坏我"",""坏她"",""好她"",""好我""]","[""弱我"",""弱她"",""强她"",""强我""]","","","","","","","","no","","","","","","","","","SRET","EW_formal","","key","f","16.66504854368932","768","428","自己","奸诈","Negative","morality","","","","","","","","","","",""
"746","","j","psychophysics","92","319034","0.0-7.0-3.0-0.78","3","2","2","2","3","4","2","2","4","4","5","1","0","-1","0","-2","-1","0","0","5","4","5","5","5","4","4","3","4","4","4","5","3","6","3","2","4","4","5","3","3","2","3","3","2","3","1","3","1","1","3","2","5","3","2","3","3","2","2","3","3","2","3","1","3","3","1","3","2","1","3","2","3","1","3","2","3","3","2","2","682883457575026688","徐","83","Female","[""坏我"",""坏她"",""好她"",""好我""]","[""弱我"",""弱她"",""强她"",""强我""]","","","","","","","","yes","","","","","","","","","SRET","EW_formal","","key","j","16.669230769230545","768","428","朋友","守信","Positive","morality","","","","","","","","","","",""
"968","","j","psychophysics","93","321005","0.0-7.0-3.0-0.79","3","2","2","2","3","4","2","2","4","4","5","1","0","-1","0","-2","-1","0","0","5","4","5","5","5","4","4","3","4","4","4","5","3","6","3","2","4","4","5","3","3","2","3","3","2","3","1","3","1","1","3","2","5","3","2","3","3","2","2","3","3","2","3","1","3","3","1","3","2","1","3","2","3","1","3","2","3","3","2","2","682883457575026688","徐","83","Female","[""坏我"",""坏她"",""好她"",""好我""]","[""弱我"",""弱她"",""强她"",""强我""]","","","","","","","","yes","","","","","","","","","SRET","EW_formal","","key","j","16.665811965811667","768","428","自己","君子","Positive","morality","","","","","","","","","","",""
"539","","j","psychophysics","94","322545","0.0-7.0-3.0-0.80","3","2","2","2","3","4","2","2","4","4","5","1","0","-1","0","-2","-1","0","0","5","4","5","5","5","4","4","3","4","4","4","5","3","6","3","2","4","4","5","3","3","2","3","3","2","3","1","3","1","1","3","2","5","3","2","3","3","2","2","3","3","2","3","1","3","3","1","3","2","1","3","2","3","1","3","2","3","3","2","2","682883457575026688","徐","83","Female","[""坏我"",""坏她"",""好她"",""好我""]","[""弱我"",""弱她"",""强她"",""强我""]","","","","","","","","yes","","","","","","","","","SRET","EW_formal","","key","j","16.667391304347447","768","428","自己","忠良","Positive","morality","","","","","","","","","","",""
"899","","f","psychophysics","95","324446","0.0-7.0-3.0-0.81","3","2","2","2","3","4","2","2","4","4","5","1","0","-1","0","-2","-1","0","0","5","4","5","5","5","4","4","3","4","4","4","5","3","6","3","2","4","4","5","3","3","2","3","3","2","3","1","3","1","1","3","2","5","3","2","3","3","2","2","3","3","2","3","1","3","3","1","3","2","1","3","2","3","1","3","2","3","3","2","2","682883457575026688","徐","83","Female","[""坏我"",""坏她"",""好她"",""好我""]","[""弱我"",""弱她"",""强她"",""强我""]","","","","","","","","no","","","","","","","","","SRET","EW_formal","","key","f","16.663716814159294","768","428","朋友","博学","Positive","ability","","","","","","","","","","",""
"1019","","j","psychophysics","96","326466","0.0-7.0-3.0-0.82","3","2","2","2","3","4","2","2","4","4","5","1","0","-1","0","-2","-1","0","0","5","4","5","5","5","4","4","3","4","4","4","5","3","6","3","2","4","4","5","3","3","2","3","3","2","3","1","3","1","1","3","2","5","3","2","3","3","2","2","3","3","2","3","1","3","3","1","3","2","1","3","2","3","1","3","2","3","3","2","2","682883457575026688","徐","83","Female","[""坏我"",""坏她"",""好她"",""好我""]","[""弱我"",""弱她"",""强她"",""强我""]","","","","","","","","yes","","","","","","","","","SRET","EW_formal","","key","j","16.66833333333343","768","428","自己","思辨","Positive","ability","","","","","","","","","","",""
"960","","j","psychophysics","97","328428","0.0-7.0-3.0-0.83","3","2","2","2","3","4","2","2","4","4","5","1","0","-1","0","-2","-1","0","0","5","4","5","5","5","4","4","3","4","4","4","5","3","6","3","2","4","4","5","3","3","2","3","3","2","3","1","3","1","1","3","2","5","3","2","3","3","2","2","3","3","2","3","1","3","3","1","3","2","1","3","2","3","1","3","2","3","3","2","2","682883457575026688","徐","83","Female","[""坏我"",""坏她"",""好她"",""好我""]","[""弱我"",""弱她"",""强她"",""强我""]","","","","","","","","yes","","","","","","","","","SRET","EW_formal","","key","j","16.667521367521168","768","428","自己","肯干","Positive","ability","","","","","","","","","","",""
"942","","j","psychophysics","98","330371","0.0-7.0-3.0-0.84","3","2","2","2","3","4","2","2","4","4","5","1","0","-1","0","-2","-1","0","0","5","4","5","5","5","4","4","3","4","4","4","5","3","6","3","2","4","4","5","3","3","2","3","3","2","3","1","3","1","1","3","2","5","3","2","3","3","2","2","3","3","2","3","1","3","3","1","3","2","1","3","2","3","1","3","2","3","3","2","2","682883457575026688","徐","83","Female","[""坏我"",""坏她"",""好她"",""好我""]","[""弱我"",""弱她"",""强她"",""强我""]","","","","","","","","yes","","","","","","","","","SRET","EW_formal","","key","j","16.66782608695642","768","428","自己","缓慢","Negative","ability","","","","","","","","","","",""
"830","","f","psychophysics","99","332203","0.0-7.0-3.0-0.85","3","2","2","2","3","4","2","2","4","4","5","1","0","-1","0","-2","-1","0","0","5","4","5","5","5","4","4","3","4","4","4","5","3","6","3","2","4","4","5","3","3","2","3","3","2","3","1","3","1","1","3","2","5","3","2","3","3","2","2","3","3","2","3","1","3","3","1","3","2","1","3","2","3","1","3","2","3","3","2","2","682883457575026688","徐","83","Female","[""坏我"",""坏她"",""好她"",""好我""]","[""弱我"",""弱她"",""强她"",""强我""]","","","","","","","","no","","","","","","","","","SRET","EW_formal","","key","f","16.666972477064327","768","428","朋友","低俗","Negative","morality","","","","","","","","","","",""
"755","","j","psychophysics","100","333960","0.0-7.0-3.0-0.86","3","2","2","2","3","4","2","2","4","4","5","1","0","-1","0","-2","-1","0","0","5","4","5","5","5","4","4","3","4","4","4","5","3","6","3","2","4","4","5","3","3","2","3","3","2","3","1","3","1","1","3","2","5","3","2","3","3","2","2","3","3","2","3","1","3","3","1","3","2","1","3","2","3","1","3","2","3","3","2","2","682883457575026688","徐","83","Female","[""坏我"",""坏她"",""好她"",""好我""]","[""弱我"",""弱她"",""强她"",""强我""]","","","","","","","","yes","","","","","","","","","SRET","EW_formal","","key","j","16.668571428570985","768","428","朋友","素养","Positive","morality","","","","","","","","","","",""
"702","","j","psychophysics","101","335664","0.0-7.0-3.0-0.87","3","2","2","2","3","4","2","2","4","4","5","1","0","-1","0","-2","-1","0","0","5","4","5","5","5","4","4","3","4","4","4","5","3","6","3","2","4","4","5","3","3","2","3","3","2","3","1","3","1","1","3","2","5","3","2","3","3","2","2","3","3","2","3","1","3","3","1","3","2","1","3","2","3","1","3","2","3","3","2","2","682883457575026688","徐","83","Female","[""坏我"",""坏她"",""好她"",""好我""]","[""弱我"",""弱她"",""强她"",""强我""]","","","","","","","","yes","","","","","","","","","SRET","EW_formal","","key","j","16.667326732673498","768","428","自己","主见","Positive","ability","","","","","","","","","","",""
"11536","
    <p><div style='color:white;font-size:35px; line-height:20px;'>计算任务</div></p><br>
    <p><div style='color:red;font-size:25px; line-height:20px;'>接下来，您将看到一些四则运算题，<b>请从键盘选择 0-9 进行反应。</b></div></p>
    <p><div style='color:red;font-size:25px; line-height:20px;'>请尽可能快地进行计算，计算的速度和正确率将影响报酬的发放。</div></p>
    <p><div class='footer' style='color:white;font-size:25px; line-height:20px;'>如果对本实验还有不清楚之处，请立即向实验员咨询。</p><p style='color:white;font-size:25px; line-height:20px;'>如果您明白了规则：</p><p style='color:white;font-size:22px; line-height:20px;'>请按 继续 进入练习</p>
    </div>
    ","0","html-button-response","102","347201","0.0-7.0-4.0","3","2","2","2","3","4","2","2","4","4","5","1","0","-1","0","-2","-1","0","0","5","4","5","5","5","4","4","3","4","4","4","5","3","6","3","2","4","4","5","3","3","2","3","3","2","3","1","3","1","1","3","2","5","3","2","3","3","2","2","3","3","2","3","1","3","3","1","3","2","1","3","2","3","1","3","2","3","3","2","2","682883457575026688","徐","83","Female","[""坏我"",""坏她"",""好她"",""好我""]","[""弱我"",""弱她"",""强她"",""强我""]","","","","","","","","","","","","","","","","","SRET_math","math_instructions","Fri Jan 19 2024 14:33:48 GMT+0800 (中国标准时间)","","","","","","","","","","","","","","","","","","","",""
"2479","","8","psychophysics","103","349683","0.0-7.0-5.0-0.0","3","2","2","2","3","4","2","2","4","4","5","1","0","-1","0","-2","-1","0","0","5","4","5","5","5","4","4","3","4","4","4","5","3","6","3","2","4","4","5","3","3","2","3","3","2","3","1","3","1","1","3","2","5","3","2","3","3","2","2","3","3","2","3","1","3","3","1","3","2","1","3","2","3","1","3","2","3","3","2","2","682883457575026688","徐","83","Female","[""坏我"",""坏她"",""好她"",""好我""]","[""弱我"",""弱她"",""强她"",""强我""]","","","","","","","","8","","","","","","","","","SRET","SRET_math_calculate","","key","8","16.66711409395989","768","428","","","","","2+6= ?","8","1","","","","","","","",""
"2237","","6","psychophysics","104","351923","0.0-7.0-5.0-0.1","3","2","2","2","3","4","2","2","4","4","5","1","0","-1","0","-2","-1","0","0","5","4","5","5","5","4","4","3","4","4","4","5","3","6","3","2","4","4","5","3","3","2","3","3","2","3","1","3","1","1","3","2","5","3","2","3","3","2","2","3","3","2","3","1","3","3","1","3","2","1","3","2","3","1","3","2","3","3","2","2","682883457575026688","徐","83","Female","[""坏我"",""坏她"",""好她"",""好我""]","[""弱我"",""弱她"",""强她"",""强我""]","","","","","","","","6","","","","","","","","","SRET","SRET_math_calculate","","key","6","16.665413533834588","768","428","","","","","4+2= ?","6","1","","","","","","","",""
"2472","","6","psychophysics","105","354398","0.0-7.0-5.0-0.2","3","2","2","2","3","4","2","2","4","4","5","1","0","-1","0","-2","-1","0","0","5","4","5","5","5","4","4","3","4","4","4","5","3","6","3","2","4","4","5","3","3","2","3","3","2","3","1","3","1","1","3","2","5","3","2","3","3","2","2","3","3","2","3","1","3","3","1","3","2","1","3","2","3","1","3","2","3","3","2","2","682883457575026688","徐","83","Female","[""坏我"",""坏她"",""好她"",""好我""]","[""弱我"",""弱她"",""强她"",""强我""]","","","","","","","","6","","","","","","","","","SRET","SRET_math_calculate","","key","6","16.66891891891892","768","428","","","","","3*2= ?","6","1","","","","","","","",""
"3499","","5","psychophysics","106","357899","0.0-7.0-5.0-0.3","3","2","2","2","3","4","2","2","4","4","5","1","0","-1","0","-2","-1","0","0","5","4","5","5","5","4","4","3","4","4","4","5","3","6","3","2","4","4","5","3","3","2","3","3","2","3","1","3","1","1","3","2","5","3","2","3","3","2","2","3","3","2","3","1","3","3","1","3","2","1","3","2","3","1","3","2","3","3","2","2","682883457575026688","徐","83","Female","[""坏我"",""坏她"",""好她"",""好我""]","[""弱我"",""弱她"",""强她"",""强我""]","","","","","","","","5","","","","","","","","","SRET","SRET_math_calculate","","key","5","16.666985645933124","768","428","","","","","12-7= ?","5","1","","","","","","","",""
"2951","","8","psychophysics","107","360852","0.0-7.0-5.0-0.4","3","2","2","2","3","4","2","2","4","4","5","1","0","-1","0","-2","-1","0","0","5","4","5","5","5","4","4","3","4","4","4","5","3","6","3","2","4","4","5","3","3","2","3","3","2","3","1","3","1","1","3","2","5","3","2","3","3","2","2","3","3","2","3","1","3","3","1","3","2","1","3","2","3","1","3","2","3","3","2","2","682883457575026688","徐","83","Female","[""坏我"",""坏她"",""好她"",""好我""]","[""弱我"",""弱她"",""强她"",""强我""]","","","","","","","","8","","","","","","","","","SRET","SRET_math_calculate","","key","8","16.667613636363637","768","428","","","","","5+3= ?","8","1","","","","","","","",""
"2137","","4","psychophysics","108","362991","0.0-7.0-5.0-0.5","3","2","2","2","3","4","2","2","4","4","5","1","0","-1","0","-2","-1","0","0","5","4","5","5","5","4","4","3","4","4","4","5","3","6","3","2","4","4","5","3","3","2","3","3","2","3","1","3","1","1","3","2","5","3","2","3","3","2","2","3","3","2","3","1","3","3","1","3","2","1","3","2","3","1","3","2","3","3","2","2","682883457575026688","徐","83","Female","[""坏我"",""坏她"",""好她"",""好我""]","[""弱我"",""弱她"",""强她"",""强我""]","","","","","","","","4","","","","","","","","","SRET","SRET_math_calculate","","key","4","16.66771653543298","768","428","","","","","4*1= ?","4","1","","","","","","","",""
"2906","","8","psychophysics","109","365900","0.0-7.0-5.0-0.6","3","2","2","2","3","4","2","2","4","4","5","1","0","-1","0","-2","-1","0","0","5","4","5","5","5","4","4","3","4","4","4","5","3","6","3","2","4","4","5","3","3","2","3","3","2","3","1","3","1","1","3","2","5","3","2","3","3","2","2","3","3","2","3","1","3","3","1","3","2","1","3","2","3","1","3","2","3","3","2","2","682883457575026688","徐","83","Female","[""坏我"",""坏她"",""好她"",""好我""]","[""弱我"",""弱她"",""强她"",""强我""]","","","","","","","","8","","","","","","","","","SRET","SRET_math_calculate","","key","8","16.66781609195409","768","428","","","","","13-5= ?","8","1","","","","","","","",""
"2086","","6","psychophysics","110","367988","0.0-7.0-5.0-0.7","3","2","2","2","3","4","2","2","4","4","5","1","0","-1","0","-2","-1","0","0","5","4","5","5","5","4","4","3","4","4","4","5","3","6","3","2","4","4","5","3","3","2","3","3","2","3","1","3","1","1","3","2","5","3","2","3","3","2","2","3","3","2","3","1","3","3","1","3","2","1","3","2","3","1","3","2","3","3","2","2","682883457575026688","徐","83","Female","[""坏我"",""坏她"",""好她"",""好我""]","[""弱我"",""弱她"",""强她"",""强我""]","","","","","","","","6","","","","","","","","","SRET","SRET_math_calculate","","key","6","16.66693548387106","768","428","","","","","8-2= ?","6","1","","","","","","","",""
"2089","","8","psychophysics","111","370079","0.0-7.0-5.0-0.8","3","2","2","2","3","4","2","2","4","4","5","1","0","-1","0","-2","-1","0","0","5","4","5","5","5","4","4","3","4","4","4","5","3","6","3","2","4","4","5","3","3","2","3","3","2","3","1","3","1","1","3","2","5","3","2","3","3","2","2","3","3","2","3","1","3","3","1","3","2","1","3","2","3","1","3","2","3","3","2","2","682883457575026688","徐","83","Female","[""坏我"",""坏她"",""好她"",""好我""]","[""弱我"",""弱她"",""强她"",""强我""]","","","","","","","","8","","","","","","","","","SRET","SRET_math_calculate","","key","8","16.667200000000186","768","428","","","","","8+1= ?","9","0","","","","","","","",""
"2211","","9","psychophysics","112","372292","0.0-7.0-5.0-0.9","3","2","2","2","3","4","2","2","4","4","5","1","0","-1","0","-2","-1","0","0","5","4","5","5","5","4","4","3","4","4","4","5","3","6","3","2","4","4","5","3","3","2","3","3","2","3","1","3","1","1","3","2","5","3","2","3","3","2","2","3","3","2","3","1","3","3","1","3","2","1","3","2","3","1","3","2","3","3","2","2","682883457575026688","徐","83","Female","[""坏我"",""坏她"",""好她"",""好我""]","[""弱我"",""弱她"",""强她"",""强我""]","","","","","","","","9","","","","","","","","","SRET","SRET_math_calculate","","key","9","16.666666666666668","768","428","","","","","5+4= ?","9","1","","","","","","","",""
"2104","","8","psychophysics","113","374398","0.0-7.0-5.0-0.10","3","2","2","2","3","4","2","2","4","4","5","1","0","-1","0","-2","-1","0","0","5","4","5","5","5","4","4","3","4","4","4","5","3","6","3","2","4","4","5","3","3","2","3","3","2","3","1","3","1","1","3","2","5","3","2","3","3","2","2","3","3","2","3","1","3","3","1","3","2","1","3","2","3","1","3","2","3","3","2","2","682883457575026688","徐","83","Female","[""坏我"",""坏她"",""好她"",""好我""]","[""弱我"",""弱她"",""强她"",""强我""]","","","","","","","","8","","","","","","","","","SRET","SRET_math_calculate","","key","8","16.667200000000186","768","428","","","","","9-1= ?","8","1","","","","","","","",""
"2178","","4","psychophysics","114","376578","0.0-7.0-5.0-0.11","3","2","2","2","3","4","2","2","4","4","5","1","0","-1","0","-2","-1","0","0","5","4","5","5","5","4","4","3","4","4","4","5","3","6","3","2","4","4","5","3","3","2","3","3","2","3","1","3","1","1","3","2","5","3","2","3","3","2","2","3","3","2","3","1","3","3","1","3","2","1","3","2","3","1","3","2","3","3","2","2","682883457575026688","徐","83","Female","[""坏我"",""坏她"",""好她"",""好我""]","[""弱我"",""弱她"",""强她"",""强我""]","","","","","","","","4","","","","","","","","","SRET","SRET_math_calculate","","key","4","16.666923076923165","768","428","","","","","9-5= ?","4","1","","","","","","","",""
"2217","","8","psychophysics","115","378798","0.0-7.0-5.0-0.12","3","2","2","2","3","4","2","2","4","4","5","1","0","-1","0","-2","-1","0","0","5","4","5","5","5","4","4","3","4","4","4","5","3","6","3","2","4","4","5","3","3","2","3","3","2","3","1","3","1","1","3","2","5","3","2","3","3","2","2","3","3","2","3","1","3","3","1","3","2","1","3","2","3","1","3","2","3","3","2","2","682883457575026688","徐","83","Female","[""坏我"",""坏她"",""好她"",""好我""]","[""弱我"",""弱她"",""强她"",""强我""]","","","","","","","","8","","","","","","","","","SRET","SRET_math_calculate","","key","8","16.664393939394028","768","428","","","","","3+5= ?","8","1","","","","","","","",""
"1979","","3","psychophysics","116","380779","0.0-7.0-5.0-0.13","3","2","2","2","3","4","2","2","4","4","5","1","0","-1","0","-2","-1","0","0","5","4","5","5","5","4","4","3","4","4","4","5","3","6","3","2","4","4","5","3","3","2","3","3","2","3","1","3","1","1","3","2","5","3","2","3","3","2","2","3","3","2","3","1","3","3","1","3","2","1","3","2","3","1","3","2","3","3","2","2","682883457575026688","徐","83","Female","[""坏我"",""坏她"",""好她"",""好我""]","[""弱我"",""弱她"",""强她"",""强我""]","","","","","","","","3","","","","","","","","","SRET","SRET_math_calculate","","key","3","16.667796610169393","768","428","","","","","1+2= ?","3","1","","","","","","","",""
"2954","","8","psychophysics","117","383734","0.0-7.0-5.0-0.14","3","2","2","2","3","4","2","2","4","4","5","1","0","-1","0","-2","-1","0","0","5","4","5","5","5","4","4","3","4","4","4","5","3","6","3","2","4","4","5","3","3","2","3","3","2","3","1","3","1","1","3","2","5","3","2","3","3","2","2","3","3","2","3","1","3","3","1","3","2","1","3","2","3","1","3","2","3","3","2","2","682883457575026688","徐","83","Female","[""坏我"",""坏她"",""好她"",""好我""]","[""弱我"",""弱她"",""强她"",""强我""]","","","","","","","","8","","","","","","","","","SRET","SRET_math_calculate","","key","8","16.665340909090776","768","428","","","","","11-3= ?","8","1","","","","","","","",""
"3219","","7","psychophysics","118","386955","0.0-7.0-5.0-0.15","3","2","2","2","3","4","2","2","4","4","5","1","0","-1","0","-2","-1","0","0","5","4","5","5","5","4","4","3","4","4","4","5","3","6","3","2","4","4","5","3","3","2","3","3","2","3","1","3","1","1","3","2","5","3","2","3","3","2","2","3","3","2","3","1","3","3","1","3","2","1","3","2","3","1","3","2","3","3","2","2","682883457575026688","徐","83","Female","[""坏我"",""坏她"",""好她"",""好我""]","[""弱我"",""弱她"",""强她"",""强我""]","","","","","","","","7","","","","","","","","","SRET","SRET_math_calculate","","key","7","16.667187500000182","768","428","","","","","49/7 = ?","7","1","","","","","","","",""
"2950","","7","psychophysics","119","389906","0.0-7.0-5.0-0.16","3","2","2","2","3","4","2","2","4","4","5","1","0","-1","0","-2","-1","0","0","5","4","5","5","5","4","4","3","4","4","4","5","3","6","3","2","4","4","5","3","3","2","3","3","2","3","1","3","1","1","3","2","5","3","2","3","3","2","2","3","3","2","3","1","3","3","1","3","2","1","3","2","3","1","3","2","3","3","2","2","682883457575026688","徐","83","Female","[""坏我"",""坏她"",""好她"",""好我""]","[""弱我"",""弱她"",""强她"",""强我""]","","","","","","","","7","","","","","","","","","SRET","SRET_math_calculate","","key","7","16.665909090909157","768","428","","","","","13-6= ?","7","1","","","","","","","",""
"2037","","5","psychophysics","120","391945","0.0-7.0-5.0-0.17","3","2","2","2","3","4","2","2","4","4","5","1","0","-1","0","-2","-1","0","0","5","4","5","5","5","4","4","3","4","4","4","5","3","6","3","2","4","4","5","3","3","2","3","3","2","3","1","3","1","1","3","2","5","3","2","3","3","2","2","3","3","2","3","1","3","3","1","3","2","1","3","2","3","1","3","2","3","3","2","2","682883457575026688","徐","83","Female","[""坏我"",""坏她"",""好她"",""好我""]","[""弱我"",""弱她"",""强她"",""强我""]","","","","","","","","5","","","","","","","","","SRET","SRET_math_calculate","","key","5","16.666393442622855","768","428","","","","","4+1= ?","5","1","","","","","","","",""
"2850","","1","psychophysics","121","394797","0.0-7.0-5.0-0.18","3","2","2","2","3","4","2","2","4","4","5","1","0","-1","0","-2","-1","0","0","5","4","5","5","5","4","4","3","4","4","4","5","3","6","3","2","4","4","5","3","3","2","3","3","2","3","1","3","1","1","3","2","5","3","2","3","3","2","2","3","3","2","3","1","3","3","1","3","2","1","3","2","3","1","3","2","3","3","2","2","682883457575026688","徐","83","Female","[""坏我"",""坏她"",""好她"",""好我""]","[""弱我"",""弱她"",""强她"",""强我""]","","","","","","","","1","","","","","","","","","SRET","SRET_math_calculate","","key","1","16.668235294117512","768","428","","","","","30-29= ?","1","1","","","","","","","",""
"2398","","5","psychophysics","122","397198","0.0-7.0-5.0-0.19","3","2","2","2","3","4","2","2","4","4","5","1","0","-1","0","-2","-1","0","0","5","4","5","5","5","4","4","3","4","4","4","5","3","6","3","2","4","4","5","3","3","2","3","3","2","3","1","3","1","1","3","2","5","3","2","3","3","2","2","3","3","2","3","1","3","3","1","3","2","1","3","2","3","1","3","2","3","3","2","2","682883457575026688","徐","83","Female","[""坏我"",""坏她"",""好她"",""好我""]","[""弱我"",""弱她"",""强她"",""强我""]","","","","","","","","5","","","","","","","","","SRET","SRET_math_calculate","","key","5","16.667832167832167","768","428","","","","","16-11= ?","5","1","","","","","","","",""
"2198","","7","psychophysics","123","399397","0.0-7.0-5.0-0.20","3","2","2","2","3","4","2","2","4","4","5","1","0","-1","0","-2","-1","0","0","5","4","5","5","5","4","4","3","4","4","4","5","3","6","3","2","4","4","5","3","3","2","3","3","2","3","1","3","1","1","3","2","5","3","2","3","3","2","2","3","3","2","3","1","3","3","1","3","2","1","3","2","3","1","3","2","3","3","2","2","682883457575026688","徐","83","Female","[""坏我"",""坏她"",""好她"",""好我""]","[""弱我"",""弱她"",""强她"",""强我""]","","","","","","","","7","","","","","","","","","SRET","SRET_math_calculate","","key","7","16.667175572519263","768","428","","","","","8-1= ?","7","1","","","","","","","",""
"1964","","5","psychophysics","124","401362","0.0-7.0-5.0-0.21","3","2","2","2","3","4","2","2","4","4","5","1","0","-1","0","-2","-1","0","0","5","4","5","5","5","4","4","3","4","4","4","5","3","6","3","2","4","4","5","3","3","2","3","3","2","3","1","3","1","1","3","2","5","3","2","3","3","2","2","3","3","2","3","1","3","3","1","3","2","1","3","2","3","1","3","2","3","3","2","2","682883457575026688","徐","83","Female","[""坏我"",""坏她"",""好她"",""好我""]","[""弱我"",""弱她"",""强她"",""强我""]","","","","","","","","5","","","","","","","","","SRET","SRET_math_calculate","","key","5","16.66837606837617","768","428","","","","","10-5= ?","5","1","","","","","","","",""
"2519","","2","psychophysics","125","403882","0.0-7.0-5.0-0.22","3","2","2","2","3","4","2","2","4","4","5","1","0","-1","0","-2","-1","0","0","5","4","5","5","5","4","4","3","4","4","4","5","3","6","3","2","4","4","5","3","3","2","3","3","2","3","1","3","1","1","3","2","5","3","2","3","3","2","2","3","3","2","3","1","3","3","1","3","2","1","3","2","3","1","3","2","3","3","2","2","682883457575026688","徐","83","Female","[""坏我"",""坏她"",""好她"",""好我""]","[""弱我"",""弱她"",""强她"",""强我""]","","","","","","","","2","","","","","","","","","SRET","SRET_math_calculate","","key","2","16.665333333333255","768","428","","","","","19-17= ?","2","1","","","","","","","",""
"2290","","8","psychophysics","126","406175","0.0-7.0-5.0-0.23","3","2","2","2","3","4","2","2","4","4","5","1","0","-1","0","-2","-1","0","0","5","4","5","5","5","4","4","3","4","4","4","5","3","6","3","2","4","4","5","3","3","2","3","3","2","3","1","3","1","1","3","2","5","3","2","3","3","2","2","3","3","2","3","1","3","3","1","3","2","1","3","2","3","1","3","2","3","3","2","2","682883457575026688","徐","83","Female","[""坏我"",""坏她"",""好她"",""好我""]","[""弱我"",""弱她"",""强她"",""强我""]","","","","","","","","8","","","","","","","","","SRET","SRET_math_calculate","","key","8","16.66715328467128","768","428","","","","","6+2= ?","8","1","","","","","","","",""
"2061","","7","psychophysics","127","408237","0.0-7.0-5.0-0.24","3","2","2","2","3","4","2","2","4","4","5","1","0","-1","0","-2","-1","0","0","5","4","5","5","5","4","4","3","4","4","4","5","3","6","3","2","4","4","5","3","3","2","3","3","2","3","1","3","1","1","3","2","5","3","2","3","3","2","2","3","3","2","3","1","3","3","1","3","2","1","3","2","3","1","3","2","3","3","2","2","682883457575026688","徐","83","Female","[""坏我"",""坏她"",""好她"",""好我""]","[""弱我"",""弱她"",""强她"",""强我""]","","","","","","","","7","","","","","","","","","SRET","SRET_math_calculate","","key","7","16.667213114753814","768","428","","","","","9-2= ?","7","1","","","","","","","",""
"2596","","0","psychophysics","128","410834","0.0-7.0-5.0-0.25","3","2","2","2","3","4","2","2","4","4","5","1","0","-1","0","-2","-1","0","0","5","4","5","5","5","4","4","3","4","4","4","5","3","6","3","2","4","4","5","3","3","2","3","3","2","3","1","3","1","1","3","2","5","3","2","3","3","2","2","3","3","2","3","1","3","3","1","3","2","1","3","2","3","1","3","2","3","3","2","2","682883457575026688","徐","83","Female","[""坏我"",""坏她"",""好她"",""好我""]","[""弱我"",""弱她"",""强她"",""强我""]","","","","","","","","0","","","","","","","","","SRET","SRET_math_calculate","","key","0","16.66838709677442","768","428","","","","","6*0= ?","0","1","","","","","","","",""
"2123","","8","psychophysics","129","412958","0.0-7.0-5.0-0.26","3","2","2","2","3","4","2","2","4","4","5","1","0","-1","0","-2","-1","0","0","5","4","5","5","5","4","4","3","4","4","4","5","3","6","3","2","4","4","5","3","3","2","3","3","2","3","1","3","1","1","3","2","5","3","2","3","3","2","2","3","3","2","3","1","3","3","1","3","2","1","3","2","3","1","3","2","3","3","2","2","682883457575026688","徐","83","Female","[""坏我"",""坏她"",""好她"",""好我""]","[""弱我"",""弱她"",""强她"",""强我""]","","","","","","","","8","","","","","","","","","SRET","SRET_math_calculate","","key","8","16.66614173228374","768","428","","","","","1+7= ?","8","1","","","","","","","",""
"2800","","8","psychophysics","130","415760","0.0-7.0-5.0-0.27","3","2","2","2","3","4","2","2","4","4","5","1","0","-1","0","-2","-1","0","0","5","4","5","5","5","4","4","3","4","4","4","5","3","6","3","2","4","4","5","3","3","2","3","3","2","3","1","3","1","1","3","2","5","3","2","3","3","2","2","3","3","2","3","1","3","3","1","3","2","1","3","2","3","1","3","2","3","3","2","2","682883457575026688","徐","83","Female","[""坏我"",""坏她"",""好她"",""好我""]","[""弱我"",""弱她"",""强她"",""强我""]","","","","","","","","8","","","","","","","","","SRET","SRET_math_calculate","","key","8","16.665269461077706","768","428","","","","","4*2= ?","8","1","","","","","","","",""
"2190","","7","psychophysics","131","417951","0.0-7.0-5.0-0.28","3","2","2","2","3","4","2","2","4","4","5","1","0","-1","0","-2","-1","0","0","5","4","5","5","5","4","4","3","4","4","4","5","3","6","3","2","4","4","5","3","3","2","3","3","2","3","1","3","1","1","3","2","5","3","2","3","3","2","2","3","3","2","3","1","3","3","1","3","2","1","3","2","3","1","3","2","3","3","2","2","682883457575026688","徐","83","Female","[""坏我"",""坏她"",""好她"",""好我""]","[""弱我"",""弱她"",""强她"",""强我""]","","","","","","","","7","","","","","","","","","SRET","SRET_math_calculate","","key","7","16.666153846153666","768","428","","","","","12-5= ?","7","1","","","","","","","",""
"2111","","9","psychophysics","132","420065","0.0-7.0-5.0-0.29","3","2","2","2","3","4","2","2","4","4","5","1","0","-1","0","-2","-1","0","0","5","4","5","5","5","4","4","3","4","4","4","5","3","6","3","2","4","4","5","3","3","2","3","3","2","3","1","3","1","1","3","2","5","3","2","3","3","2","2","3","3","2","3","1","3","3","1","3","2","1","3","2","3","1","3","2","3","3","2","2","682883457575026688","徐","83","Female","[""坏我"",""坏她"",""好她"",""好我""]","[""弱我"",""弱她"",""强她"",""强我""]","","","","","","","","9","","","","","","","","","SRET","SRET_math_calculate","","key","9","16.667460317460133","768","428","","","","","1+8= ?","9","1","","","","","","","",""
"2677","","9","psychophysics","133","422743","0.0-7.0-5.0-0.30","3","2","2","2","3","4","2","2","4","4","5","1","0","-1","0","-2","-1","0","0","5","4","5","5","5","4","4","3","4","4","4","5","3","6","3","2","4","4","5","3","3","2","3","3","2","3","1","3","1","1","3","2","5","3","2","3","3","2","2","3","3","2","3","1","3","3","1","3","2","1","3","2","3","1","3","2","3","3","2","2","682883457575026688","徐","83","Female","[""坏我"",""坏她"",""好她"",""好我""]","[""弱我"",""弱她"",""强她"",""强我""]","","","","","","","","9","","","","","","","","","SRET","SRET_math_calculate","","key","9","16.667499999999926","768","428","","","","","81/9= ?","9","1","","","","","","","",""
"2411","","3","psychophysics","134","425156","0.0-7.0-5.0-0.31","3","2","2","2","3","4","2","2","4","4","5","1","0","-1","0","-2","-1","0","0","5","4","5","5","5","4","4","3","4","4","4","5","3","6","3","2","4","4","5","3","3","2","3","3","2","3","1","3","1","1","3","2","5","3","2","3","3","2","2","3","3","2","3","1","3","3","1","3","2","1","3","2","3","1","3","2","3","3","2","2","682883457575026688","徐","83","Female","[""坏我"",""坏她"",""好她"",""好我""]","[""弱我"",""弱她"",""强她"",""强我""]","","","","","","","","3","","","","","","","","","SRET","SRET_math_calculate","","key","3","16.665734265734347","768","428","","","","","12/4= ?","3","1","","","","","","","",""
"2260","","7","psychophysics","135","427419","0.0-7.0-5.0-0.32","3","2","2","2","3","4","2","2","4","4","5","1","0","-1","0","-2","-1","0","0","5","4","5","5","5","4","4","3","4","4","4","5","3","6","3","2","4","4","5","3","3","2","3","3","2","3","1","3","1","1","3","2","5","3","2","3","3","2","2","3","3","2","3","1","3","3","1","3","2","1","3","2","3","1","3","2","3","3","2","2","682883457575026688","徐","83","Female","[""坏我"",""坏她"",""好她"",""好我""]","[""弱我"",""弱她"",""强她"",""强我""]","","","","","","","","7","","","","","","","","","SRET","SRET_math_calculate","","key","7","16.668148148147804","768","428","","","","","21/3= ? ","7","1","","","","","","","",""
"2314","","8","psychophysics","136","429734","0.0-7.0-5.0-0.33","3","2","2","2","3","4","2","2","4","4","5","1","0","-1","0","-2","-1","0","0","5","4","5","5","5","4","4","3","4","4","4","5","3","6","3","2","4","4","5","3","3","2","3","3","2","3","1","3","1","1","3","2","5","3","2","3","3","2","2","3","3","2","3","1","3","3","1","3","2","1","3","2","3","1","3","2","3","3","2","2","682883457575026688","徐","83","Female","[""坏我"",""坏她"",""好她"",""好我""]","[""弱我"",""弱她"",""强她"",""强我""]","","","","","","","","8","","","","","","","","","SRET","SRET_math_calculate","","key","8","16.665942028985675","768","428","","","","","8*1= ?","8","1","","","","","","","",""
"2582","","3","psychophysics","137","432317","0.0-7.0-5.0-0.34","3","2","2","2","3","4","2","2","4","4","5","1","0","-1","0","-2","-1","0","0","5","4","5","5","5","4","4","3","4","4","4","5","3","6","3","2","4","4","5","3","3","2","3","3","2","3","1","3","1","1","3","2","5","3","2","3","3","2","2","3","3","2","3","1","3","3","1","3","2","1","3","2","3","1","3","2","3","3","2","2","682883457575026688","徐","83","Female","[""坏我"",""坏她"",""好她"",""好我""]","[""弱我"",""弱她"",""强她"",""强我""]","","","","","","","","3","","","","","","","","","SRET","SRET_math_calculate","","key","3","16.66818181818197","768","428","","","","","9/3= ?","3","1","","","","","","","",""
"2078","","7","psychophysics","138","434397","0.0-7.0-5.0-0.35","3","2","2","2","3","4","2","2","4","4","5","1","0","-1","0","-2","-1","0","0","5","4","5","5","5","4","4","3","4","4","4","5","3","6","3","2","4","4","5","3","3","2","3","3","2","3","1","3","1","1","3","2","5","3","2","3","3","2","2","3","3","2","3","1","3","3","1","3","2","1","3","2","3","1","3","2","3","3","2","2","682883457575026688","徐","83","Female","[""坏我"",""坏她"",""好她"",""好我""]","[""弱我"",""弱她"",""强她"",""强我""]","","","","","","","","7","","","","","","","","","SRET","SRET_math_calculate","","key","7","16.66774193548378","768","428","","","","","7*1=  ?","7","1","","","","","","","",""
"2214","","8","psychophysics","139","436613","0.0-7.0-5.0-0.36","3","2","2","2","3","4","2","2","4","4","5","1","0","-1","0","-2","-1","0","0","5","4","5","5","5","4","4","3","4","4","4","5","3","6","3","2","4","4","5","3","3","2","3","3","2","3","1","3","1","1","3","2","5","3","2","3","3","2","2","3","3","2","3","1","3","3","1","3","2","1","3","2","3","1","3","2","3","3","2","2","682883457575026688","徐","83","Female","[""坏我"",""坏她"",""好她"",""好我""]","[""弱我"",""弱她"",""强她"",""强我""]","","","","","","","","8","","","","","","","","","SRET","SRET_math_calculate","","key","8","16.66893939393975","768","428","","","","","7+1= ?","8","1","","","","","","","",""
"2293","","4","psychophysics","140","438907","0.0-7.0-5.0-0.37","3","2","2","2","3","4","2","2","4","4","5","1","0","-1","0","-2","-1","0","0","5","4","5","5","5","4","4","3","4","4","4","5","3","6","3","2","4","4","5","3","3","2","3","3","2","3","1","3","1","1","3","2","5","3","2","3","3","2","2","3","3","2","3","1","3","3","1","3","2","1","3","2","3","1","3","2","3","3","2","2","682883457575026688","徐","83","Female","[""坏我"",""坏她"",""好她"",""好我""]","[""弱我"",""弱她"",""强她"",""强我""]","","","","","","","","4","","","","","","","","","SRET","SRET_math_calculate","","key","4","16.666423357664147","768","428","","","","","20/5= ?","4","1","","","","","","","",""
"2254","","3","psychophysics","141","441163","0.0-7.0-5.0-0.38","3","2","2","2","3","4","2","2","4","4","5","1","0","-1","0","-2","-1","0","0","5","4","5","5","5","4","4","3","4","4","4","5","3","6","3","2","4","4","5","3","3","2","3","3","2","3","1","3","1","1","3","2","5","3","2","3","3","2","2","3","3","2","3","1","3","3","1","3","2","1","3","2","3","1","3","2","3","3","2","2","682883457575026688","徐","83","Female","[""坏我"",""坏她"",""好她"",""好我""]","[""弱我"",""弱她"",""强她"",""强我""]","","","","","","","","3","","","","","","","","","SRET","SRET_math_calculate","","key","3","16.666417910447674","768","428","","","","","21/7=  ?","3","1","","","","","","","",""
"2252","","7","psychophysics","142","443417","0.0-7.0-5.0-0.39","3","2","2","2","3","4","2","2","4","4","5","1","0","-1","0","-2","-1","0","0","5","4","5","5","5","4","4","3","4","4","4","5","3","6","3","2","4","4","5","3","3","2","3","3","2","3","1","3","1","1","3","2","5","3","2","3","3","2","2","3","3","2","3","1","3","3","1","3","2","1","3","2","3","1","3","2","3","3","2","2","682883457575026688","徐","83","Female","[""坏我"",""坏她"",""好她"",""好我""]","[""弱我"",""弱她"",""强她"",""强我""]","","","","","","","","7","","","","","","","","","SRET","SRET_math_calculate","","key","7","16.667164179104216","768","428","","","","","3+4= ?","7","1","","","","","","","",""
