"rt","stimulus","response","trial_type","trial_index","time_elapsed","internal_node_id","swb_1","swb_2","swb_3","swb_4","swb_5","LOT_1","LOT_2","LOT_3","LOT_4","LOT_5","LOT_6","IPC_1","IPC_2","IPC_3","IPC_4","IPC_5","IPC_6","IPC_7","IPC_8","MorIden_1","MorIden_2","MorIden_3","MorIden_4","MorIden_5","MorIden_6","MorIden_7","MorIden_8","MorIden_9","MorIden_10","moralSeImag_1","moralSeImag_2","moralSeImag_3","moralSeImag_4","moralSeImag_5","moralSeImag_6","moralSeImag_7","moralSeImag_8","moralSeImag_9","sde_1","sde_2","sde_3","sde_4","sde_5","sde_6","sde_7","sde_8","sde_9","sde_10","trap2","sde_11","sde_12","sde_13","sde_14","sde_15","sde_16","sde_17","sde_18","sde_19","sde_20","IM_1","IM_2","IM_3","IM_4","IM_5","IM_6","IM_7","IM_8","IM_9","IM_10","IM_11","IM_12","IM_13","IM_14","IM_15","IM_16","IM_17","IM_18","IM_19","IM_20","subj_idx","friend_name","ParticipantID","Sex","Word","Word2","value","success","timeout","failed_images","failed_audio","failed_video","user_agent","responses","item_order","radio_event_ids","radio_event_times","key_event_times","mouse_event_times","straightlining","zigzagging","honeypot","task_id","screen_id","time_stamp","response_type","key_press","avg_frame_time","center_x","center_y","person","word","valence","domain","math","correct_response","correct","status","identity","view_history","duration","Image","condition","question_order","trap2_item"
"1556","
   <p><div style='color:white; font-size: 25px'>您好，欢迎参加本次实验。</div></p>
   <p><div style='color:white; font-size: 25px'>为充分保障您的权利，请确保您已经知晓并同意《参与实验同意书》以及《数据公开知情同意书》。</div></p>
   <p><div style='color:white; font-size: 25px'>如果您未见过上述内容，请咨询实验员。</div></p>
   <p style='color:white; font-size: 25px'>如果您选择继续实验，则表示您已经清楚两份知情同意书的内容并同意。</p>
   <p><div style = ""color: pink;font-size:30px;"">请确保您记得day0的实验编号，您将在本次实验输入该编号，若您忘记，请咨询实验员后作答。</div></p>
   <p><div style = ""color:lightblue;font-size:25px;"">请您尽可能认真地作答，我们将依据您在各问卷和按键任务中的作答质量发放报酬。</div></p>
   <p> <div style = ""color: green""><按空格键至下页></div> </p>
   "," ","html-keyboard-response","0","1572","0.0-0.0","7","6","7","6","7","5","2","5","5","5","5","0","-1","2","1","2","1","2","2","5","4","4","5","4","4","5","4","5","4","8","8","7","7","8","7","8","7","8","7","7","2","7","5","6","6","1","6","7","1","7","3","5","2","7","7","6","7","2","5","7","7","6","7","7","7","6","5","7","7","7","6","7","6","7","7","7","7","7","6","786950840366800897","黄","294","Female","[""坏我"",""好我"",""好她"",""坏她""]","[""弱我"",""强我"",""强她"",""弱她""]","","","","","","","","","","","","","","","","","","","","","","","","","","","","","","","","","","","","","","",""
"","","","call-function","1","1576","0.0-1.0-0.0","7","6","7","6","7","5","2","5","5","5","5","0","-1","2","1","2","1","2","2","5","4","4","5","4","4","5","4","5","4","8","8","7","7","8","7","8","7","8","7","7","2","7","5","6","6","1","6","7","1","7","3","5","2","7","7","6","7","2","5","7","7","6","7","7","7","6","5","7","7","7","6","7","6","7","7","7","7","7","6","786950840366800897","黄","294","Female","[""坏我"",""好我"",""好她"",""坏她""]","[""弱我"",""强我"",""强她"",""弱她""]","","","","","","","","","","","","","","","","","","","","","","","","","","","","","","","","","","","","","","",""
"29995","","[{""name"":""Sex"",""value"":""1""},{""name"":""friend_name"",""value"":""黄""},{""name"":""ParticipantID"",""value"":""294""}]","survey-html-form","2","31572","0.0-1.0-1.0","7","6","7","6","7","5","2","5","5","5","5","0","-1","2","1","2","1","2","2","5","4","4","5","4","4","5","4","5","4","8","8","7","7","8","7","8","7","8","7","7","2","7","5","6","6","1","6","7","1","7","3","5","2","7","7","6","7","2","5","7","7","6","7","7","7","6","5","7","7","7","6","7","6","7","7","7","7","7","6","786950840366800897","黄","294","Female","[""坏我"",""好我"",""好她"",""坏她""]","[""弱我"",""强我"",""强她"",""弱她""]","","","","","","","","","","","","","","","","","","","","","","","","","","","","","","","","","","","","","","",""
"","","","preload","3","32946","0.0-2.0","7","6","7","6","7","5","2","5","5","5","5","0","-1","2","1","2","1","2","2","5","4","4","5","4","4","5","4","5","4","8","8","7","7","8","7","8","7","8","7","7","2","7","5","6","6","1","6","7","1","7","3","5","2","7","7","6","7","2","5","7","7","6","7","7","7","6","5","7","7","7","6","7","6","7","7","7","7","7","6","786950840366800897","黄","294","Female","[""坏我"",""好我"",""好她"",""坏她""]","[""弱我"",""强我"",""强她"",""弱她""]","","true","false","[]","[]","[]","","","","","","","","","","","","","","","","","","","","","","","","","","","","","","","","",""
"","","","fullscreen","4","36564","0.0-3.0","7","6","7","6","7","5","2","5","5","5","5","0","-1","2","1","2","1","2","2","5","4","4","5","4","4","5","4","5","4","8","8","7","7","8","7","8","7","8","7","7","2","7","5","6","6","1","6","7","1","7","3","5","2","7","7","6","7","2","5","7","7","6","7","7","7","6","5","7","7","7","6","7","6","7","7","7","7","7","6","786950840366800897","黄","294","Female","[""坏我"",""好我"",""好她"",""坏她""]","[""弱我"",""强我"",""强她"",""弱她""]","","true","","","","","{}","","","","","","","","","","","","","","","","","","","","","","","","","","","","","","","",""
"17627.400000000023","","{""Q01"":""7"",""Q02"":""6"",""Q03"":""7"",""Q04"":""6"",""Q05"":""7""}","survey-template","5","54201","0.0-4.0","7","6","7","6","7","5","2","5","5","5","5","0","-1","2","1","2","1","2","2","5","4","4","5","4","4","5","4","5","4","8","8","7","7","8","7","8","7","8","7","7","2","7","5","6","6","1","6","7","1","7","3","5","2","7","7","6","7","2","5","7","7","6","7","7","7","6","5","7","7","7","6","7","6","7","7","7","7","7","6","786950840366800897","黄","294","Female","[""坏我"",""好我"",""好她"",""坏她""]","[""弱我"",""强我"",""强她"",""弱她""]","","","","","","","","{""Q01"":""7"",""Q02"":""6"",""Q03"":""7"",""Q04"":""6"",""Q05"":""7""}","[0,1,2,3,4]","[""Q01"",""Q02"",""Q03"",""Q04"",""Q05""]","[4425.900000000023,7899.900000000023,9115.20000000007,14790.900000000023,16379.300000000047]","[]","[4425.900000000023,6047.800000000047,7899.900000000023,9115.20000000007,12805.70000000007,14790.900000000023,16379.300000000047,17624.5]","0.6","1","0","","","","","","","","","","","","","","","","","","","","","","",""
"27330.300000000047","","{""Q01"":""5"",""Q02"":""2"",""Q03"":""5"",""Q04"":""5"",""Q05"":""5"",""Q06"":""5""}","survey-template","6","81546","0.0-5.0","7","6","7","6","7","5","2","5","5","5","5","0","-1","2","1","2","1","2","2","5","4","4","5","4","4","5","4","5","4","8","8","7","7","8","7","8","7","8","7","7","2","7","5","6","6","1","6","7","1","7","3","5","2","7","7","6","7","2","5","7","7","6","7","7","7","6","5","7","7","7","6","7","6","7","7","7","7","7","6","786950840366800897","黄","294","Female","[""坏我"",""好我"",""好她"",""坏她""]","[""弱我"",""强我"",""强她"",""弱她""]","","","","","","","","{""Q01"":""5"",""Q02"":""2"",""Q03"":""5"",""Q04"":""5"",""Q05"":""5"",""Q06"":""5""}","[0,1,2,3,4,5]","[""Q01"",""Q02"",""Q03"",""Q04"",""Q05"",""Q06""]","[5351.300000000047,11876.099999999977,15130.5,20001.400000000023,24514.400000000023,26389.20000000007]","[]","[5351.300000000047,11876.099999999977,15130.5,20001.400000000023,21036.5,24514.400000000023,26389.20000000007,27328]","0.5","0.8","0","","","","","","","","","","","","","","","","","","","","","","",""
"38014","","{""Q01"":""0"",""Q02"":""-1"",""Q03"":""2"",""Q04"":""1"",""Q05"":""2"",""Q06"":""1"",""Q07"":""2"",""Q08"":""2""}","survey-template","7","119559","0.0-6.0","7","6","7","6","7","5","2","5","5","5","5","0","-1","2","1","2","1","2","2","5","4","4","5","4","4","5","4","5","4","8","8","7","7","8","7","8","7","8","7","7","2","7","5","6","6","1","6","7","1","7","3","5","2","7","7","6","7","2","5","7","7","6","7","7","7","6","5","7","7","7","6","7","6","7","7","7","7","7","6","786950840366800897","黄","294","Female","[""坏我"",""好我"",""好她"",""坏她""]","[""弱我"",""强我"",""强她"",""弱她""]","","","","","","","","{""Q01"":""0"",""Q02"":""-1"",""Q03"":""2"",""Q04"":""1"",""Q05"":""2"",""Q06"":""1"",""Q07"":""2"",""Q08"":""2""}","[0,1,2,3,4,5,6,7]","[""Q01"",""Q02"",""Q03"",""Q04"",""Q05"",""Q06"",""Q07"",""Q08""]","[6312.099999999977,17030.79999999993,22011.5,25224.099999999977,27611.79999999993,32454.29999999993,35316,37398.29999999993]","[]","[6312.099999999977,14647.599999999977,14650.899999999907,14656.099999999977,14659.199999999953,17030.79999999993,22011.5,25224.099999999977,27611.79999999993,31039.199999999953,32454.29999999993,35316,36580.29999999993,37398.29999999993,38010.59999999998]","0.5","0.7142857142857143","0","","","","","","","","","","","","","","","","","","","","","","",""
"10537","
    <p><div style='color:white;font-size:35px; line-height:20px;'>词汇评估任务</div></p><br>
    <p><div style='color:white;font-size:25px; line-height:20px;'>请再次回忆该亲密的朋友，你们至少2年前就认识了，并且最近2年经常见面。</div></p>
    <p><div style='color:white;font-size:25px; line-height:20px;'>在本实验中，您将会看到一些形容词。</div></p>
    <p><div style='color:yellow;font-size:25px; line-height:20px;'>您的任务是判断这些形容词是否符合对您自己或您的朋友的描述。</div></p><p style='font-size:35px'>符合按<span style=""color:lightgreen""> f 键</span>，不符合按<span style=""color:red""> j 键</span></p>","0","html-button-response","8","130109","0.0-7.0-0.0","7","6","7","6","7","5","2","5","5","5","5","0","-1","2","1","2","1","2","2","5","4","4","5","4","4","5","4","5","4","8","8","7","7","8","7","8","7","8","7","7","2","7","5","6","6","1","6","7","1","7","3","5","2","7","7","6","7","2","5","7","7","6","7","7","7","6","5","7","7","7","6","7","6","7","7","7","7","7","6","786950840366800897","黄","294","Female","[""坏我"",""好我"",""好她"",""坏她""]","[""弱我"",""强我"",""强她"",""弱她""]","","","","","","","","","","","","","","","","","SRET_EW","EW_instructions","Thu Jan 18 2024 23:05:29 GMT+0800 (中国标准时间)","","","","","","","","","","","","","","","","","","","",""
"1699","","j","psychophysics","9","132870","0.0-7.0-1.0-0.0","7","6","7","6","7","5","2","5","5","5","5","0","-1","2","1","2","1","2","2","5","4","4","5","4","4","5","4","5","4","8","8","7","7","8","7","8","7","8","7","7","2","7","5","6","6","1","6","7","1","7","3","5","2","7","7","6","7","2","5","7","7","6","7","7","7","6","5","7","7","7","6","7","6","7","7","7","7","7","6","786950840366800897","黄","294","Female","[""坏我"",""好我"",""好她"",""坏她""]","[""弱我"",""强我"",""强她"",""弱她""]","","","","","","","","no","","","","","","","","","SRET_EW","EW_practice","","key","j","17.761794871795036","683","380","自己","刻板","Negative","ability","","","","","","","","","","",""
"675","","f","psychophysics","10","134551","0.0-7.0-1.0-0.1","7","6","7","6","7","5","2","5","5","5","5","0","-1","2","1","2","1","2","2","5","4","4","5","4","4","5","4","5","4","8","8","7","7","8","7","8","7","8","7","7","2","7","5","6","6","1","6","7","1","7","3","5","2","7","7","6","7","2","5","7","7","6","7","7","7","6","5","7","7","7","6","7","6","7","7","7","7","7","6","786950840366800897","黄","294","Female","[""坏我"",""好我"",""好她"",""坏她""]","[""弱我"",""强我"",""强她"",""弱她""]","","","","","","","","yes","","","","","","","","","SRET_EW","EW_practice","","key","f","17.035597938144118","683","380","自己","严谨","Positive","ability","","","","","","","","","","",""
"585","","j","psychophysics","11","136152","0.0-7.0-1.0-0.2","7","6","7","6","7","5","2","5","5","5","5","0","-1","2","1","2","1","2","2","5","4","4","5","4","4","5","4","5","4","8","8","7","7","8","7","8","7","8","7","7","2","7","5","6","6","1","6","7","1","7","3","5","2","7","7","6","7","2","5","7","7","6","7","7","7","6","5","7","7","7","6","7","6","7","7","7","7","7","6","786950840366800897","黄","294","Female","[""坏我"",""好我"",""好她"",""坏她""]","[""弱我"",""强我"",""强她"",""弱她""]","","","","","","","","no","","","","","","","","","SRET_EW","EW_practice","","key","j","16.870095744681052","683","380","朋友","徇私","Negative","morality","","","","","","","","","","",""
"504","","f","psychophysics","12","137664","0.0-7.0-1.0-0.3","7","6","7","6","7","5","2","5","5","5","5","0","-1","2","1","2","1","2","2","5","4","4","5","4","4","5","4","5","4","8","8","7","7","8","7","8","7","8","7","7","2","7","5","6","6","1","6","7","1","7","3","5","2","7","7","6","7","2","5","7","7","6","7","7","7","6","5","7","7","7","6","7","6","7","7","7","7","7","6","786950840366800897","黄","294","Female","[""坏我"",""好我"",""好她"",""坏她""]","[""弱我"",""强我"",""强她"",""弱她""]","","","","","","","","yes","","","","","","","","","SRET_EW","EW_practice","","key","f","17.266413793103613","683","380","朋友","忠实","Positive","morality","","","","","","","","","","",""
"4302","
    <p><div style='color:white;font-size:35px; line-height:20px;'>请您再次阅读实验要求</div></p><br>
    <p><div style='color:white;font-size:25px; line-height:20px;'>请回忆某一个亲密的朋友，你们至少2年前就认识了，并且最近2年经常见面。</div></p>
    <p><div style='color:white;font-size:25px; line-height:20px;'>在本实验中，您将会看到一些形容词。</div></p>
    <p><div style='color:yellow;font-size:25px; line-height:20px;'>您的任务是判断这些形容词是否符合对您自己或您的朋友的描述。</div></p>
    <p><div class='footer' style='font-size:25px; line-height:20px;'>如果对本实验还有不清楚之处，请立即向实验员咨询。</p><p style='font-size:25px; line-height:20px;'>如果您明白了规则：</p><p style='font-size:22px; line-height:20px;'>请按 继续 进入正式实验</p>
    </div>
    <p style='font-size:35px'>符合按<span style=""color:lightgreen""> f 键</span>，不符合按<span style=""color:red""> j 键</span></p>","0","html-button-response","13","141970","0.0-7.0-2.0","7","6","7","6","7","5","2","5","5","5","5","0","-1","2","1","2","1","2","2","5","4","4","5","4","4","5","4","5","4","8","8","7","7","8","7","8","7","8","7","7","2","7","5","6","6","1","6","7","1","7","3","5","2","7","7","6","7","2","5","7","7","6","7","7","7","6","5","7","7","7","6","7","6","7","7","7","7","7","6","786950840366800897","黄","294","Female","[""坏我"",""好我"",""好她"",""坏她""]","[""弱我"",""强我"",""强她"",""弱她""]","","","","","","","","","","","","","","","","","SRET_EW","prac_instructions","Thu Jan 18 2024 23:05:29 GMT+0800 (中国标准时间)","","","","","","","","","","","","","","","","","","","",""
"757","","j","psychophysics","14","143732","0.0-7.0-3.0-0.0","7","6","7","6","7","5","2","5","5","5","5","0","-1","2","1","2","1","2","2","5","4","4","5","4","4","5","4","5","4","8","8","7","7","8","7","8","7","8","7","7","2","7","5","6","6","1","6","7","1","7","3","5","2","7","7","6","7","2","5","7","7","6","7","7","7","6","5","7","7","7","6","7","6","7","7","7","7","7","6","786950840366800897","黄","294","Female","[""坏我"",""好我"",""好她"",""坏她""]","[""弱我"",""强我"",""强她"",""弱她""]","","","","","","","","no","","","","","","","","","SRET","EW_formal","","key","j","17.18234313725478","683","380","朋友","迷糊","Negative","ability","","","","","","","","","","",""
"566","","f","psychophysics","15","145303","0.0-7.0-3.0-0.1","7","6","7","6","7","5","2","5","5","5","5","0","-1","2","1","2","1","2","2","5","4","4","5","4","4","5","4","5","4","8","8","7","7","8","7","8","7","8","7","7","2","7","5","6","6","1","6","7","1","7","3","5","2","7","7","6","7","2","5","7","7","6","7","7","7","6","5","7","7","7","6","7","6","7","7","7","7","7","6","786950840366800897","黄","294","Female","[""坏我"",""好我"",""好她"",""坏她""]","[""弱我"",""强我"",""强她"",""弱她""]","","","","","","","","yes","","","","","","","","","SRET","EW_formal","","key","f","16.87345652173921","683","380","朋友","务实","Positive","ability","","","","","","","","","","",""
"649","","f","psychophysics","16","146957","0.0-7.0-3.0-0.2","7","6","7","6","7","5","2","5","5","5","5","0","-1","2","1","2","1","2","2","5","4","4","5","4","4","5","4","5","4","8","8","7","7","8","7","8","7","8","7","7","2","7","5","6","6","1","6","7","1","7","3","5","2","7","7","6","7","2","5","7","7","6","7","7","7","6","5","7","7","7","6","7","6","7","7","7","7","7","6","786950840366800897","黄","294","Female","[""坏我"",""好我"",""好她"",""坏她""]","[""弱我"",""强我"",""强她"",""弱她""]","","","","","","","","yes","","","","","","","","","SRET","EW_formal","","key","f","17.213124999999916","683","380","自己","坚贞","Positive","morality","","","","","","","","","","",""
"658","","j","psychophysics","17","148619","0.0-7.0-3.0-0.3","7","6","7","6","7","5","2","5","5","5","5","0","-1","2","1","2","1","2","2","5","4","4","5","4","4","5","4","5","4","8","8","7","7","8","7","8","7","8","7","7","2","7","5","6","6","1","6","7","1","7","3","5","2","7","7","6","7","2","5","7","7","6","7","7","7","6","5","7","7","7","6","7","6","7","7","7","7","7","6","786950840366800897","黄","294","Female","[""坏我"",""好我"",""好她"",""坏她""]","[""弱我"",""强我"",""强她"",""弱她""]","","","","","","","","no","","","","","","","","","SRET","EW_formal","","key","j","16.86352577319575","683","380","自己","说谎","Negative","morality","","","","","","","","","","",""
"534","","f","psychophysics","18","150162","0.0-7.0-3.0-0.4","7","6","7","6","7","5","2","5","5","5","5","0","-1","2","1","2","1","2","2","5","4","4","5","4","4","5","4","5","4","8","8","7","7","8","7","8","7","8","7","7","2","7","5","6","6","1","6","7","1","7","3","5","2","7","7","6","7","2","5","7","7","6","7","7","7","6","5","7","7","7","6","7","6","7","7","7","7","7","6","786950840366800897","黄","294","Female","[""坏我"",""好我"",""好她"",""坏她""]","[""弱我"",""强我"",""强她"",""弱她""]","","","","","","","","yes","","","","","","","","","SRET","EW_formal","","key","f","16.87498901098881","683","380","朋友","思辨","Positive","ability","","","","","","","","","","",""
"528","","f","psychophysics","19","151688","0.0-7.0-3.0-0.5","7","6","7","6","7","5","2","5","5","5","5","0","-1","2","1","2","1","2","2","5","4","4","5","4","4","5","4","5","4","8","8","7","7","8","7","8","7","8","7","7","2","7","5","6","6","1","6","7","1","7","3","5","2","7","7","6","7","2","5","7","7","6","7","7","7","6","5","7","7","7","6","7","6","7","7","7","7","7","6","786950840366800897","黄","294","Female","[""坏我"",""好我"",""好她"",""坏她""]","[""弱我"",""强我"",""强她"",""弱她""]","","","","","","","","yes","","","","","","","","","SRET","EW_formal","","key","f","16.69127777777774","683","380","自己","仁厚","Positive","morality","","","","","","","","","","",""
"463","","f","psychophysics","20","153155","0.0-7.0-3.0-0.6","7","6","7","6","7","5","2","5","5","5","5","0","-1","2","1","2","1","2","2","5","4","4","5","4","4","5","4","5","4","8","8","7","7","8","7","8","7","8","7","7","2","7","5","6","6","1","6","7","1","7","3","5","2","7","7","6","7","2","5","7","7","6","7","7","7","6","5","7","7","7","6","7","6","7","7","7","7","7","6","786950840366800897","黄","294","Female","[""坏我"",""好我"",""好她"",""坏她""]","[""弱我"",""强我"",""强她"",""弱她""]","","","","","","","","yes","","","","","","","","","SRET","EW_formal","","key","f","17.08310588235275","683","380","自己","忠良","Positive","morality","","","","","","","","","","",""
"557","","j","psychophysics","21","154719","0.0-7.0-3.0-0.7","7","6","7","6","7","5","2","5","5","5","5","0","-1","2","1","2","1","2","2","5","4","4","5","4","4","5","4","5","4","8","8","7","7","8","7","8","7","8","7","7","2","7","5","6","6","1","6","7","1","7","3","5","2","7","7","6","7","2","5","7","7","6","7","7","7","6","5","7","7","7","6","7","6","7","7","7","7","7","6","786950840366800897","黄","294","Female","[""坏我"",""好我"",""好她"",""坏她""]","[""弱我"",""强我"",""强她"",""弱她""]","","","","","","","","no","","","","","","","","","SRET","EW_formal","","key","j","17.059109890110058","683","380","自己","无为","Negative","ability","","","","","","","","","","",""
"565","","f","psychophysics","22","156288","0.0-7.0-3.0-0.8","7","6","7","6","7","5","2","5","5","5","5","0","-1","2","1","2","1","2","2","5","4","4","5","4","4","5","4","5","4","8","8","7","7","8","7","8","7","8","7","7","2","7","5","6","6","1","6","7","1","7","3","5","2","7","7","6","7","2","5","7","7","6","7","7","7","6","5","7","7","7","6","7","6","7","7","7","7","7","6","786950840366800897","黄","294","Female","[""坏我"",""好我"",""好她"",""坏她""]","[""弱我"",""强我"",""强她"",""弱她""]","","","","","","","","yes","","","","","","","","","SRET","EW_formal","","key","f","16.872293478260755","683","380","朋友","好心","Positive","morality","","","","","","","","","","",""
"636","","j","psychophysics","23","157930","0.0-7.0-3.0-0.9","7","6","7","6","7","5","2","5","5","5","5","0","-1","2","1","2","1","2","2","5","4","4","5","4","4","5","4","5","4","8","8","7","7","8","7","8","7","8","7","7","2","7","5","6","6","1","6","7","1","7","3","5","2","7","7","6","7","2","5","7","7","6","7","7","7","6","5","7","7","7","6","7","6","7","7","7","7","7","6","786950840366800897","黄","294","Female","[""坏我"",""好我"",""好她"",""坏她""]","[""弱我"",""强我"",""强她"",""弱她""]","","","","","","","","no","","","","","","","","","SRET","EW_formal","","key","j","16.86576041666679","683","380","朋友","歹毒","Negative","morality","","","","","","","","","","",""
"491","","f","psychophysics","24","159427","0.0-7.0-3.0-0.10","7","6","7","6","7","5","2","5","5","5","5","0","-1","2","1","2","1","2","2","5","4","4","5","4","4","5","4","5","4","8","8","7","7","8","7","8","7","8","7","7","2","7","5","6","6","1","6","7","1","7","3","5","2","7","7","6","7","2","5","7","7","6","7","7","7","6","5","7","7","7","6","7","6","7","7","7","7","7","6","786950840366800897","黄","294","Female","[""坏我"",""好我"",""好她"",""坏她""]","[""弱我"",""强我"",""强她"",""弱她""]","","","","","","","","yes","","","","","","","","","SRET","EW_formal","","key","f","17.075310344827876","683","380","朋友","博学","Positive","ability","","","","","","","","","","",""
"520","","f","psychophysics","25","160952","0.0-7.0-3.0-0.11","7","6","7","6","7","5","2","5","5","5","5","0","-1","2","1","2","1","2","2","5","4","4","5","4","4","5","4","5","4","8","8","7","7","8","7","8","7","8","7","7","2","7","5","6","6","1","6","7","1","7","3","5","2","7","7","6","7","2","5","7","7","6","7","7","7","6","5","7","7","7","6","7","6","7","7","7","7","7","6","786950840366800897","黄","294","Female","[""坏我"",""好我"",""好她"",""坏她""]","[""弱我"",""强我"",""强她"",""弱她""]","","","","","","","","yes","","","","","","","","","SRET","EW_formal","","key","f","17.06722471910121","683","380","朋友","沉着","Positive","ability","","","","","","","","","","",""
"657","","j","psychophysics","26","162613","0.0-7.0-3.0-0.12","7","6","7","6","7","5","2","5","5","5","5","0","-1","2","1","2","1","2","2","5","4","4","5","4","4","5","4","5","4","8","8","7","7","8","7","8","7","8","7","7","2","7","5","6","6","1","6","7","1","7","3","5","2","7","7","6","7","2","5","7","7","6","7","7","7","6","5","7","7","7","6","7","6","7","7","7","7","7","6","786950840366800897","黄","294","Female","[""坏我"",""好我"",""好她"",""坏她""]","[""弱我"",""强我"",""强她"",""弱她""]","","","","","","","","no","","","","","","","","","SRET","EW_formal","","key","j","16.86162886597917","683","380","自己","拖延","Negative","ability","","","","","","","","","","",""
"569","","j","psychophysics","27","164186","0.0-7.0-3.0-0.13","7","6","7","6","7","5","2","5","5","5","5","0","-1","2","1","2","1","2","2","5","4","4","5","4","4","5","4","5","4","8","8","7","7","8","7","8","7","8","7","7","2","7","5","6","6","1","6","7","1","7","3","5","2","7","7","6","7","2","5","7","7","6","7","7","7","6","5","7","7","7","6","7","6","7","7","7","7","7","6","786950840366800897","黄","294","Female","[""坏我"",""好我"",""好她"",""坏她""]","[""弱我"",""强我"",""强她"",""弱她""]","","","","","","","","no","","","","","","","","","SRET","EW_formal","","key","j","16.87359782608679","683","380","自己","无知","Negative","ability","","","","","","","","","","",""
"641","","j","psychophysics","28","165840","0.0-7.0-3.0-0.14","7","6","7","6","7","5","2","5","5","5","5","0","-1","2","1","2","1","2","2","5","4","4","5","4","4","5","4","5","4","8","8","7","7","8","7","8","7","8","7","7","2","7","5","6","6","1","6","7","1","7","3","5","2","7","7","6","7","2","5","7","7","6","7","7","7","6","5","7","7","7","6","7","6","7","7","7","7","7","6","786950840366800897","黄","294","Female","[""坏我"",""好我"",""好她"",""坏她""]","[""弱我"",""强我"",""强她"",""弱她""]","","","","","","","","no","","","","","","","","","SRET","EW_formal","","key","j","16.863247422680267","683","380","朋友","毛糙","Negative","ability","","","","","","","","","","",""
"552","","j","psychophysics","29","167399","0.0-7.0-3.0-0.15","7","6","7","6","7","5","2","5","5","5","5","0","-1","2","1","2","1","2","2","5","4","4","5","4","4","5","4","5","4","8","8","7","7","8","7","8","7","8","7","7","2","7","5","6","6","1","6","7","1","7","3","5","2","7","7","6","7","2","5","7","7","6","7","7","7","6","5","7","7","7","6","7","6","7","7","7","7","7","6","786950840366800897","黄","294","Female","[""坏我"",""好我"",""好她"",""坏她""]","[""弱我"",""强我"",""强她"",""弱她""]","","","","","","","","no","","","","","","","","","SRET","EW_formal","","key","j","16.873434782608694","683","380","朋友","阴毒","Negative","morality","","","","","","","","","","",""
"664","","f","psychophysics","30","169067","0.0-7.0-3.0-0.16","7","6","7","6","7","5","2","5","5","5","5","0","-1","2","1","2","1","2","2","5","4","4","5","4","4","5","4","5","4","8","8","7","7","8","7","8","7","8","7","7","2","7","5","6","6","1","6","7","1","7","3","5","2","7","7","6","7","2","5","7","7","6","7","7","7","6","5","7","7","7","6","7","6","7","7","7","7","7","6","786950840366800897","黄","294","Female","[""坏我"",""好我"",""好她"",""坏她""]","[""弱我"",""强我"",""强她"",""弱她""]","","","","","","","","yes","","","","","","","","","SRET","EW_formal","","key","f","17.036103092783584","683","380","自己","自私","Negative","morality","","","","","","","","","","",""
"747","","f","psychophysics","31","170818","0.0-7.0-3.0-0.17","7","6","7","6","7","5","2","5","5","5","5","0","-1","2","1","2","1","2","2","5","4","4","5","4","4","5","4","5","4","8","8","7","7","8","7","8","7","8","7","7","2","7","5","6","6","1","6","7","1","7","3","5","2","7","7","6","7","2","5","7","7","6","7","7","7","6","5","7","7","7","6","7","6","7","7","7","7","7","6","786950840366800897","黄","294","Female","[""坏我"",""好我"",""好她"",""坏她""]","[""弱我"",""强我"",""强她"",""弱她""]","","","","","","","","yes","","","","","","","","","SRET","EW_formal","","key","f","16.853067961165138","683","380","自己","顶事","Positive","ability","","","","","","","","","","",""
"690","","j","psychophysics","32","172512","0.0-7.0-3.0-0.18","7","6","7","6","7","5","2","5","5","5","5","0","-1","2","1","2","1","2","2","5","4","4","5","4","4","5","4","5","4","8","8","7","7","8","7","8","7","8","7","7","2","7","5","6","6","1","6","7","1","7","3","5","2","7","7","6","7","2","5","7","7","6","7","7","7","6","5","7","7","7","6","7","6","7","7","7","7","7","6","786950840366800897","黄","294","Female","[""坏我"",""好我"",""好她"",""坏她""]","[""弱我"",""强我"",""强她"",""弱她""]","","","","","","","","no","","","","","","","","","SRET","EW_formal","","key","j","16.691590000000144","683","380","朋友","无助","Negative","ability","","","","","","","","","","",""
"864","","f","psychophysics","33","174380","0.0-7.0-3.0-0.19","7","6","7","6","7","5","2","5","5","5","5","0","-1","2","1","2","1","2","2","5","4","4","5","4","4","5","4","5","4","8","8","7","7","8","7","8","7","8","7","7","2","7","5","6","6","1","6","7","1","7","3","5","2","7","7","6","7","2","5","7","7","6","7","7","7","6","5","7","7","7","6","7","6","7","7","7","7","7","6","786950840366800897","黄","294","Female","[""坏我"",""好我"",""好她"",""坏她""]","[""弱我"",""强我"",""强她"",""弱她""]","","","","","","","","yes","","","","","","","","","SRET","EW_formal","","key","f","16.84350000000003","683","380","自己","谦逊","Positive","morality","","","","","","","","","","",""
"693","","f","psychophysics","34","176077","0.0-7.0-3.0-0.20","7","6","7","6","7","5","2","5","5","5","5","0","-1","2","1","2","1","2","2","5","4","4","5","4","4","5","4","5","4","8","8","7","7","8","7","8","7","8","7","7","2","7","5","6","6","1","6","7","1","7","3","5","2","7","7","6","7","2","5","7","7","6","7","7","7","6","5","7","7","7","6","7","6","7","7","7","7","7","6","786950840366800897","黄","294","Female","[""坏我"",""好我"",""好她"",""坏她""]","[""弱我"",""强我"",""强她"",""弱她""]","","","","","","","","yes","","","","","","","","","SRET","EW_formal","","key","f","16.85996969696987","683","380","朋友","博识","Positive","ability","","","","","","","","","","",""
"627","","j","psychophysics","35","177721","0.0-7.0-3.0-0.21","7","6","7","6","7","5","2","5","5","5","5","0","-1","2","1","2","1","2","2","5","4","4","5","4","4","5","4","5","4","8","8","7","7","8","7","8","7","8","7","7","2","7","5","6","6","1","6","7","1","7","3","5","2","7","7","6","7","2","5","7","7","6","7","7","7","6","5","7","7","7","6","7","6","7","7","7","7","7","6","786950840366800897","黄","294","Female","[""坏我"",""好我"",""好她"",""坏她""]","[""弱我"",""强我"",""强她"",""弱她""]","","","","","","","","no","","","","","","","","","SRET","EW_formal","","key","j","17.039000000000062","683","380","朋友","恶劣","Negative","morality","","","","","","","","","","",""
"802","","f","psychophysics","36","179525","0.0-7.0-3.0-0.22","7","6","7","6","7","5","2","5","5","5","5","0","-1","2","1","2","1","2","2","5","4","4","5","4","4","5","4","5","4","8","8","7","7","8","7","8","7","8","7","7","2","7","5","6","6","1","6","7","1","7","3","5","2","7","7","6","7","2","5","7","7","6","7","7","7","6","5","7","7","7","6","7","6","7","7","7","7","7","6","786950840366800897","黄","294","Female","[""坏我"",""好我"",""好她"",""坏她""]","[""弱我"",""强我"",""强她"",""弱她""]","","","","","","","","yes","","","","","","","","","SRET","EW_formal","","key","f","16.849405660377464","683","380","朋友","远见","Positive","ability","","","","","","","","","","",""
"705","","j","psychophysics","37","181251","0.0-7.0-3.0-0.23","7","6","7","6","7","5","2","5","5","5","5","0","-1","2","1","2","1","2","2","5","4","4","5","4","4","5","4","5","4","8","8","7","7","8","7","8","7","8","7","7","2","7","5","6","6","1","6","7","1","7","3","5","2","7","7","6","7","2","5","7","7","6","7","7","7","6","5","7","7","7","6","7","6","7","7","7","7","7","6","786950840366800897","黄","294","Female","[""坏我"",""好我"",""好她"",""坏她""]","[""弱我"",""强我"",""强她"",""弱她""]","","","","","","","","no","","","","","","","","","SRET","EW_formal","","key","j","17.022000000000087","683","380","朋友","狡诈","Negative","morality","","","","","","","","","","",""
"683","","f","psychophysics","38","182938","0.0-7.0-3.0-0.24","7","6","7","6","7","5","2","5","5","5","5","0","-1","2","1","2","1","2","2","5","4","4","5","4","4","5","4","5","4","8","8","7","7","8","7","8","7","8","7","7","2","7","5","6","6","1","6","7","1","7","3","5","2","7","7","6","7","2","5","7","7","6","7","7","7","6","5","7","7","7","6","7","6","7","7","7","7","7","6","786950840366800897","黄","294","Female","[""坏我"",""好我"",""好她"",""坏她""]","[""弱我"",""强我"",""强她"",""弱她""]","","","","","","","","yes","","","","","","","","","SRET","EW_formal","","key","f","16.6917300000001","683","380","自己","独立","Positive","ability","","","","","","","","","","",""
"604","","f","psychophysics","39","184546","0.0-7.0-3.0-0.25","7","6","7","6","7","5","2","5","5","5","5","0","-1","2","1","2","1","2","2","5","4","4","5","4","4","5","4","5","4","8","8","7","7","8","7","8","7","8","7","7","2","7","5","6","6","1","6","7","1","7","3","5","2","7","7","6","7","2","5","7","7","6","7","7","7","6","5","7","7","7","6","7","6","7","7","7","7","7","6","786950840366800897","黄","294","Female","[""坏我"",""好我"",""好她"",""坏她""]","[""弱我"",""强我"",""强她"",""弱她""]","","","","","","","","yes","","","","","","","","","SRET","EW_formal","","key","f","16.869712765957726","683","380","自己","周到","Positive","ability","","","","","","","","","","",""
"682","","f","psychophysics","40","186230","0.0-7.0-3.0-0.26","7","6","7","6","7","5","2","5","5","5","5","0","-1","2","1","2","1","2","2","5","4","4","5","4","4","5","4","5","4","8","8","7","7","8","7","8","7","8","7","7","2","7","5","6","6","1","6","7","1","7","3","5","2","7","7","6","7","2","5","7","7","6","7","7","7","6","5","7","7","7","6","7","6","7","7","7","7","7","6","786950840366800897","黄","294","Female","[""坏我"",""好我"",""好她"",""坏她""]","[""弱我"",""强我"",""强她"",""弱她""]","","","","","","","","yes","","","","","","","","","SRET","EW_formal","","key","f","16.859282828283007","683","380","自己","廉正","Positive","morality","","","","","","","","","","",""
"627","","f","psychophysics","41","187861","0.0-7.0-3.0-0.27","7","6","7","6","7","5","2","5","5","5","5","0","-1","2","1","2","1","2","2","5","4","4","5","4","4","5","4","5","4","8","8","7","7","8","7","8","7","8","7","7","2","7","5","6","6","1","6","7","1","7","3","5","2","7","7","6","7","2","5","7","7","6","7","7","7","6","5","7","7","7","6","7","6","7","7","7","7","7","6","786950840366800897","黄","294","Female","[""坏我"",""好我"",""好她"",""坏她""]","[""弱我"",""强我"",""强她"",""弱她""]","","","","","","","","yes","","","","","","","","","SRET","EW_formal","","key","f","16.865020833333194","683","380","自己","勤恳","Positive","morality","","","","","","","","","","",""
"604","","f","psychophysics","42","189467","0.0-7.0-3.0-0.28","7","6","7","6","7","5","2","5","5","5","5","0","-1","2","1","2","1","2","2","5","4","4","5","4","4","5","4","5","4","8","8","7","7","8","7","8","7","8","7","7","2","7","5","6","6","1","6","7","1","7","3","5","2","7","7","6","7","2","5","7","7","6","7","7","7","6","5","7","7","7","6","7","6","7","7","7","7","7","6","786950840366800897","黄","294","Female","[""坏我"",""好我"",""好她"",""坏她""]","[""弱我"",""强我"",""强她"",""弱她""]","","","","","","","","yes","","","","","","","","","SRET","EW_formal","","key","f","16.691778947368547","683","380","朋友","细心","Positive","ability","","","","","","","","","","",""
"866","","f","psychophysics","43","191336","0.0-7.0-3.0-0.29","7","6","7","6","7","5","2","5","5","5","5","0","-1","2","1","2","1","2","2","5","4","4","5","4","4","5","4","5","4","8","8","7","7","8","7","8","7","8","7","7","2","7","5","6","6","1","6","7","1","7","3","5","2","7","7","6","7","2","5","7","7","6","7","7","7","6","5","7","7","7","6","7","6","7","7","7","7","7","6","786950840366800897","黄","294","Female","[""坏我"",""好我"",""好她"",""坏她""]","[""弱我"",""强我"",""强她"",""弱她""]","","","","","","","","yes","","","","","","","","","SRET","EW_formal","","key","f","16.691639639639615","683","380","朋友","独断","Negative","ability","","","","","","","","","","",""
"663","","f","psychophysics","44","193001","0.0-7.0-3.0-0.30","7","6","7","6","7","5","2","5","5","5","5","0","-1","2","1","2","1","2","2","5","4","4","5","4","4","5","4","5","4","8","8","7","7","8","7","8","7","8","7","7","2","7","5","6","6","1","6","7","1","7","3","5","2","7","7","6","7","2","5","7","7","6","7","7","7","6","5","7","7","7","6","7","6","7","7","7","7","7","6","786950840366800897","黄","294","Female","[""坏我"",""好我"",""好她"",""坏她""]","[""弱我"",""强我"",""强她"",""弱她""]","","","","","","","","yes","","","","","","","","","SRET","EW_formal","","key","f","16.692202020201933","683","380","朋友","干练","Positive","ability","","","","","","","","","","",""
"639","","j","psychophysics","45","194643","0.0-7.0-3.0-0.31","7","6","7","6","7","5","2","5","5","5","5","0","-1","2","1","2","1","2","2","5","4","4","5","4","4","5","4","5","4","8","8","7","7","8","7","8","7","8","7","7","2","7","5","6","6","1","6","7","1","7","3","5","2","7","7","6","7","2","5","7","7","6","7","7","7","6","5","7","7","7","6","7","6","7","7","7","7","7","6","786950840366800897","黄","294","Female","[""坏我"",""好我"",""好她"",""坏她""]","[""弱我"",""强我"",""强她"",""弱她""]","","","","","","","","no","","","","","","","","","SRET","EW_formal","","key","j","16.8648541666668","683","380","朋友","下流","Negative","morality","","","","","","","","","","",""
"630","","j","psychophysics","46","196275","0.0-7.0-3.0-0.32","7","6","7","6","7","5","2","5","5","5","5","0","-1","2","1","2","1","2","2","5","4","4","5","4","4","5","4","5","4","8","8","7","7","8","7","8","7","8","7","7","2","7","5","6","6","1","6","7","1","7","3","5","2","7","7","6","7","2","5","7","7","6","7","7","7","6","5","7","7","7","6","7","6","7","7","7","7","7","6","786950840366800897","黄","294","Female","[""坏我"",""好我"",""好她"",""坏她""]","[""弱我"",""强我"",""强她"",""弱她""]","","","","","","","","no","","","","","","","","","SRET","EW_formal","","key","j","16.864624999999858","683","380","朋友","不良","Negative","morality","","","","","","","","","","",""
"738","","j","psychophysics","47","198016","0.0-7.0-3.0-0.33","7","6","7","6","7","5","2","5","5","5","5","0","-1","2","1","2","1","2","2","5","4","4","5","4","4","5","4","5","4","8","8","7","7","8","7","8","7","8","7","7","2","7","5","6","6","1","6","7","1","7","3","5","2","7","7","6","7","2","5","7","7","6","7","7","7","6","5","7","7","7","6","7","6","7","7","7","7","7","6","786950840366800897","黄","294","Female","[""坏我"",""好我"",""好她"",""坏她""]","[""弱我"",""强我"",""强她"",""弱她""]","","","","","","","","no","","","","","","","","","SRET","EW_formal","","key","j","16.85533333333339","683","380","自己","无能","Negative","ability","","","","","","","","","","",""
"616","","j","psychophysics","48","199635","0.0-7.0-3.0-0.34","7","6","7","6","7","5","2","5","5","5","5","0","-1","2","1","2","1","2","2","5","4","4","5","4","4","5","4","5","4","8","8","7","7","8","7","8","7","8","7","7","2","7","5","6","6","1","6","7","1","7","3","5","2","7","7","6","7","2","5","7","7","6","7","7","7","6","5","7","7","7","6","7","6","7","7","7","7","7","6","786950840366800897","黄","294","Female","[""坏我"",""好我"",""好她"",""坏她""]","[""弱我"",""强我"",""强她"",""弱她""]","","","","","","","","no","","","","","","","","","SRET","EW_formal","","key","j","16.867263157894577","683","380","自己","偏私","Negative","morality","","","","","","","","","","",""
"716","","j","psychophysics","49","201353","0.0-7.0-3.0-0.35","7","6","7","6","7","5","2","5","5","5","5","0","-1","2","1","2","1","2","2","5","4","4","5","4","4","5","4","5","4","8","8","7","7","8","7","8","7","8","7","7","2","7","5","6","6","1","6","7","1","7","3","5","2","7","7","6","7","2","5","7","7","6","7","7","7","6","5","7","7","7","6","7","6","7","7","7","7","7","6","786950840366800897","黄","294","Female","[""坏我"",""好我"",""好她"",""坏她""]","[""弱我"",""强我"",""强她"",""弱她""]","","","","","","","","no","","","","","","","","","SRET","EW_formal","","key","j","17.734749999999924","683","380","自己","蛇蝎","Negative","morality","","","","","","","","","","",""
"722","","j","psychophysics","50","203078","0.0-7.0-3.0-0.36","7","6","7","6","7","5","2","5","5","5","5","0","-1","2","1","2","1","2","2","5","4","4","5","4","4","5","4","5","4","8","8","7","7","8","7","8","7","8","7","7","2","7","5","6","6","1","6","7","1","7","3","5","2","7","7","6","7","2","5","7","7","6","7","7","7","6","5","7","7","7","6","7","6","7","7","7","7","7","6","786950840366800897","黄","294","Female","[""坏我"",""好我"",""好她"",""坏她""]","[""弱我"",""强我"",""强她"",""弱她""]","","","","","","","","no","","","","","","","","","SRET","EW_formal","","key","j","17.02554000000004","683","380","朋友","盲目","Negative","ability","","","","","","","","","","",""
"599","","f","psychophysics","51","204685","0.0-7.0-3.0-0.37","7","6","7","6","7","5","2","5","5","5","5","0","-1","2","1","2","1","2","2","5","4","4","5","4","4","5","4","5","4","8","8","7","7","8","7","8","7","8","7","7","2","7","5","6","6","1","6","7","1","7","3","5","2","7","7","6","7","2","5","7","7","6","7","7","7","6","5","7","7","7","6","7","6","7","7","7","7","7","6","786950840366800897","黄","294","Female","[""坏我"",""好我"",""好她"",""坏她""]","[""弱我"",""强我"",""强她"",""弱她""]","","","","","","","","yes","","","","","","","","","SRET","EW_formal","","key","f","17.046829787234064","683","380","朋友","善心","Positive","morality","","","","","","","","","","",""
"685","","f","psychophysics","52","206373","0.0-7.0-3.0-0.38","7","6","7","6","7","5","2","5","5","5","5","0","-1","2","1","2","1","2","2","5","4","4","5","4","4","5","4","5","4","8","8","7","7","8","7","8","7","8","7","7","2","7","5","6","6","1","6","7","1","7","3","5","2","7","7","6","7","2","5","7","7","6","7","7","7","6","5","7","7","7","6","7","6","7","7","7","7","7","6","786950840366800897","黄","294","Female","[""坏我"",""好我"",""好她"",""坏她""]","[""弱我"",""强我"",""强她"",""弱她""]","","","","","","","","yes","","","","","","","","","SRET","EW_formal","","key","f","16.691140000000015","683","380","自己","厚道","Positive","morality","","","","","","","","","","",""
"917","","j","psychophysics","53","208294","0.0-7.0-3.0-0.39","7","6","7","6","7","5","2","5","5","5","5","0","-1","2","1","2","1","2","2","5","4","4","5","4","4","5","4","5","4","8","8","7","7","8","7","8","7","8","7","7","2","7","5","6","6","1","6","7","1","7","3","5","2","7","7","6","7","2","5","7","7","6","7","7","7","6","5","7","7","7","6","7","6","7","7","7","7","7","6","786950840366800897","黄","294","Female","[""坏我"",""好我"",""好她"",""坏她""]","[""弱我"",""强我"",""强她"",""弱她""]","","","","","","","","no","","","","","","","","","SRET","EW_formal","","key","j","16.840176991150464","683","380","朋友","业余","Negative","ability","","","","","","","","","","",""
"630","","j","psychophysics","54","209928","0.0-7.0-3.0-0.40","7","6","7","6","7","5","2","5","5","5","5","0","-1","2","1","2","1","2","2","5","4","4","5","4","4","5","4","5","4","8","8","7","7","8","7","8","7","8","7","7","2","7","5","6","6","1","6","7","1","7","3","5","2","7","7","6","7","2","5","7","7","6","7","7","7","6","5","7","7","7","6","7","6","7","7","7","7","7","6","786950840366800897","黄","294","Female","[""坏我"",""好我"",""好她"",""坏她""]","[""弱我"",""强我"",""强她"",""弱她""]","","","","","","","","no","","","","","","","","","SRET","EW_formal","","key","j","16.865322916666628","683","380","朋友","贪污","Negative","morality","","","","","","","","","","",""
"772","","f","psychophysics","55","211700","0.0-7.0-3.0-0.41","7","6","7","6","7","5","2","5","5","5","5","0","-1","2","1","2","1","2","2","5","4","4","5","4","4","5","4","5","4","8","8","7","7","8","7","8","7","8","7","7","2","7","5","6","6","1","6","7","1","7","3","5","2","7","7","6","7","2","5","7","7","6","7","7","7","6","5","7","7","7","6","7","6","7","7","7","7","7","6","786950840366800897","黄","294","Female","[""坏我"",""好我"",""好她"",""坏她""]","[""弱我"",""强我"",""强她"",""弱她""]","","","","","","","","yes","","","","","","","","","SRET","EW_formal","","key","f","16.85240384615379","683","380","朋友","学霸","Positive","ability","","","","","","","","","","",""
"652","","f","psychophysics","56","213378","0.0-7.0-3.0-0.42","7","6","7","6","7","5","2","5","5","5","5","0","-1","2","1","2","1","2","2","5","4","4","5","4","4","5","4","5","4","8","8","7","7","8","7","8","7","8","7","7","2","7","5","6","6","1","6","7","1","7","3","5","2","7","7","6","7","2","5","7","7","6","7","7","7","6","5","7","7","7","6","7","6","7","7","7","7","7","6","786950840366800897","黄","294","Female","[""坏我"",""好我"",""好她"",""坏她""]","[""弱我"",""强我"",""强她"",""弱她""]","","","","","","","","yes","","","","","","","","","SRET","EW_formal","","key","f","16.86019191919177","683","380","自己","娴熟","Positive","ability","","","","","","","","","","",""
"633","","f","psychophysics","57","215015","0.0-7.0-3.0-0.43","7","6","7","6","7","5","2","5","5","5","5","0","-1","2","1","2","1","2","2","5","4","4","5","4","4","5","4","5","4","8","8","7","7","8","7","8","7","8","7","7","2","7","5","6","6","1","6","7","1","7","3","5","2","7","7","6","7","2","5","7","7","6","7","7","7","6","5","7","7","7","6","7","6","7","7","7","7","7","6","786950840366800897","黄","294","Female","[""坏我"",""好我"",""好她"",""坏她""]","[""弱我"",""强我"",""强她"",""弱她""]","","","","","","","","yes","","","","","","","","","SRET","EW_formal","","key","f","16.86554166666671","683","380","自己","稳健","Positive","ability","","","","","","","","","","",""
"607","","f","psychophysics","58","216624","0.0-7.0-3.0-0.44","7","6","7","6","7","5","2","5","5","5","5","0","-1","2","1","2","1","2","2","5","4","4","5","4","4","5","4","5","4","8","8","7","7","8","7","8","7","8","7","7","2","7","5","6","6","1","6","7","1","7","3","5","2","7","7","6","7","2","5","7","7","6","7","7","7","6","5","7","7","7","6","7","6","7","7","7","7","7","6","786950840366800897","黄","294","Female","[""坏我"",""好我"",""好她"",""坏她""]","[""弱我"",""强我"",""强她"",""弱她""]","","","","","","","","yes","","","","","","","","","SRET","EW_formal","","key","f","16.8694361702126","683","380","朋友","敬业","Positive","morality","","","","","","","","","","",""
"660","","f","psychophysics","59","218287","0.0-7.0-3.0-0.45","7","6","7","6","7","5","2","5","5","5","5","0","-1","2","1","2","1","2","2","5","4","4","5","4","4","5","4","5","4","8","8","7","7","8","7","8","7","8","7","7","2","7","5","6","6","1","6","7","1","7","3","5","2","7","7","6","7","2","5","7","7","6","7","7","7","6","5","7","7","7","6","7","6","7","7","7","7","7","6","786950840366800897","黄","294","Female","[""坏我"",""好我"",""好她"",""坏她""]","[""弱我"",""强我"",""强她"",""弱她""]","","","","","","","","yes","","","","","","","","","SRET","EW_formal","","key","f","16.861040816326657","683","380","朋友","清廉","Positive","morality","","","","","","","","","","",""
"679","","f","psychophysics","60","219970","0.0-7.0-3.0-0.46","7","6","7","6","7","5","2","5","5","5","5","0","-1","2","1","2","1","2","2","5","4","4","5","4","4","5","4","5","4","8","8","7","7","8","7","8","7","8","7","7","2","7","5","6","6","1","6","7","1","7","3","5","2","7","7","6","7","2","5","7","7","6","7","7","7","6","5","7","7","7","6","7","6","7","7","7","7","7","6","786950840366800897","黄","294","Female","[""坏我"",""好我"",""好她"",""坏她""]","[""弱我"",""强我"",""强她"",""弱她""]","","","","","","","","yes","","","","","","","","","SRET","EW_formal","","key","f","16.692474747474677","683","380","朋友","坦荡","Positive","morality","","","","","","","","","","",""
"646","","j","psychophysics","61","221621","0.0-7.0-3.0-0.47","7","6","7","6","7","5","2","5","5","5","5","0","-1","2","1","2","1","2","2","5","4","4","5","4","4","5","4","5","4","8","8","7","7","8","7","8","7","8","7","7","2","7","5","6","6","1","6","7","1","7","3","5","2","7","7","6","7","2","5","7","7","6","7","7","7","6","5","7","7","7","6","7","6","7","7","7","7","7","6","786950840366800897","黄","294","Female","[""坏我"",""好我"",""好她"",""坏她""]","[""弱我"",""强我"",""强她"",""弱她""]","","","","","","","","no","","","","","","","","","SRET","EW_formal","","key","j","17.038864583333332","683","380","自己","差生","Negative","ability","","","","","","","","","","",""
"600","","f","psychophysics","62","223227","0.0-7.0-3.0-0.48","7","6","7","6","7","5","2","5","5","5","5","0","-1","2","1","2","1","2","2","5","4","4","5","4","4","5","4","5","4","8","8","7","7","8","7","8","7","8","7","7","2","7","5","6","6","1","6","7","1","7","3","5","2","7","7","6","7","2","5","7","7","6","7","7","7","6","5","7","7","7","6","7","6","7","7","7","7","7","6","786950840366800897","黄","294","Female","[""坏我"",""好我"",""好她"",""坏她""]","[""弱我"",""强我"",""强她"",""弱她""]","","","","","","","","yes","","","","","","","","","SRET","EW_formal","","key","f","16.867821052631573","683","380","自己","高尚","Positive","morality","","","","","","","","","","",""
"799","","j","psychophysics","63","225029","0.0-7.0-3.0-0.49","7","6","7","6","7","5","2","5","5","5","5","0","-1","2","1","2","1","2","2","5","4","4","5","4","4","5","4","5","4","8","8","7","7","8","7","8","7","8","7","7","2","7","5","6","6","1","6","7","1","7","3","5","2","7","7","6","7","2","5","7","7","6","7","7","7","6","5","7","7","7","6","7","6","7","7","7","7","7","6","786950840366800897","黄","294","Female","[""坏我"",""好我"",""好她"",""坏她""]","[""弱我"",""强我"",""强她"",""弱她""]","","","","","","","","no","","","","","","","","","SRET","EW_formal","","key","j","16.69198130841109","683","380","朋友","利落","Positive","ability","","","","","","","","","","",""
"679","","f","psychophysics","64","226712","0.0-7.0-3.0-0.50","7","6","7","6","7","5","2","5","5","5","5","0","-1","2","1","2","1","2","2","5","4","4","5","4","4","5","4","5","4","8","8","7","7","8","7","8","7","8","7","7","2","7","5","6","6","1","6","7","1","7","3","5","2","7","7","6","7","2","5","7","7","6","7","7","7","6","5","7","7","7","6","7","6","7","7","7","7","7","6","786950840366800897","黄","294","Female","[""坏我"",""好我"",""好她"",""坏她""]","[""弱我"",""强我"",""强她"",""弱她""]","","","","","","","","yes","","","","","","","","","SRET","EW_formal","","key","f","17.03569072164948","683","380","自己","努力","Positive","ability","","","","","","","","","","",""
"693","","j","psychophysics","65","228474","0.0-7.0-3.0-0.51","7","6","7","6","7","5","2","5","5","5","5","0","-1","2","1","2","1","2","2","5","4","4","5","4","4","5","4","5","4","8","8","7","7","8","7","8","7","8","7","7","2","7","5","6","6","1","6","7","1","7","3","5","2","7","7","6","7","2","5","7","7","6","7","7","7","6","5","7","7","7","6","7","6","7","7","7","7","7","6","786950840366800897","黄","294","Female","[""坏我"",""好我"",""好她"",""坏她""]","[""弱我"",""强我"",""强她"",""弱她""]","","","","","","","","no","","","","","","","","","SRET","EW_formal","","key","j","17.182960784313835","683","380","自己","腐败","Negative","morality","","","","","","","","","","",""
"685","","f","psychophysics","66","230161","0.0-7.0-3.0-0.52","7","6","7","6","7","5","2","5","5","5","5","0","-1","2","1","2","1","2","2","5","4","4","5","4","4","5","4","5","4","8","8","7","7","8","7","8","7","8","7","7","2","7","5","6","6","1","6","7","1","7","3","5","2","7","7","6","7","2","5","7","7","6","7","7","7","6","5","7","7","7","6","7","6","7","7","7","7","7","6","786950840366800897","黄","294","Female","[""坏我"",""好我"",""好她"",""坏她""]","[""弱我"",""强我"",""强她"",""弱她""]","","","","","","","","yes","","","","","","","","","SRET","EW_formal","","key","f","16.859535353535474","683","380","自己","守法","Positive","morality","","","","","","","","","","",""
"728","","j","psychophysics","67","231892","0.0-7.0-3.0-0.53","7","6","7","6","7","5","2","5","5","5","5","0","-1","2","1","2","1","2","2","5","4","4","5","4","4","5","4","5","4","8","8","7","7","8","7","8","7","8","7","7","2","7","5","6","6","1","6","7","1","7","3","5","2","7","7","6","7","2","5","7","7","6","7","7","7","6","5","7","7","7","6","7","6","7","7","7","7","7","6","786950840366800897","黄","294","Female","[""坏我"",""好我"",""好她"",""坏她""]","[""弱我"",""强我"",""强她"",""弱她""]","","","","","","","","no","","","","","","","","","SRET","EW_formal","","key","j","17.544234693877765","683","380","自己","愚蠢","Negative","ability","","","","","","","","","","",""
"655","","j","psychophysics","68","233555","0.0-7.0-3.0-0.54","7","6","7","6","7","5","2","5","5","5","5","0","-1","2","1","2","1","2","2","5","4","4","5","4","4","5","4","5","4","8","8","7","7","8","7","8","7","8","7","7","2","7","5","6","6","1","6","7","1","7","3","5","2","7","7","6","7","2","5","7","7","6","7","7","7","6","5","7","7","7","6","7","6","7","7","7","7","7","6","786950840366800897","黄","294","Female","[""坏我"",""好我"",""好她"",""坏她""]","[""弱我"",""强我"",""强她"",""弱她""]","","","","","","","","no","","","","","","","","","SRET","EW_formal","","key","j","16.863618556701113","683","380","自己","窝囊","Negative","ability","","","","","","","","","","",""
"673","","j","psychophysics","69","235235","0.0-7.0-3.0-0.55","7","6","7","6","7","5","2","5","5","5","5","0","-1","2","1","2","1","2","2","5","4","4","5","4","4","5","4","5","4","8","8","7","7","8","7","8","7","8","7","7","2","7","5","6","6","1","6","7","1","7","3","5","2","7","7","6","7","2","5","7","7","6","7","7","7","6","5","7","7","7","6","7","6","7","7","7","7","7","6","786950840366800897","黄","294","Female","[""坏我"",""好我"",""好她"",""坏她""]","[""弱我"",""强我"",""强她"",""弱她""]","","","","","","","","no","","","","","","","","","SRET","EW_formal","","key","j","16.86051515151536","683","380","自己","不仁","Negative","morality","","","","","","","","","","",""
"862","","j","psychophysics","70","237099","0.0-7.0-3.0-0.56","7","6","7","6","7","5","2","5","5","5","5","0","-1","2","1","2","1","2","2","5","4","4","5","4","4","5","4","5","4","8","8","7","7","8","7","8","7","8","7","7","2","7","5","6","6","1","6","7","1","7","3","5","2","7","7","6","7","2","5","7","7","6","7","7","7","6","5","7","7","7","6","7","6","7","7","7","7","7","6","786950840366800897","黄","294","Female","[""坏我"",""好我"",""好她"",""坏她""]","[""弱我"",""强我"",""强她"",""弱她""]","","","","","","","","no","","","","","","","","","SRET","EW_formal","","key","j","16.843036363636333","683","380","朋友","犹豫","Negative","ability","","","","","","","","","","",""
"1077","","j","psychophysics","71","239180","0.0-7.0-3.0-0.57","7","6","7","6","7","5","2","5","5","5","5","0","-1","2","1","2","1","2","2","5","4","4","5","4","4","5","4","5","4","8","8","7","7","8","7","8","7","8","7","7","2","7","5","6","6","1","6","7","1","7","3","5","2","7","7","6","7","2","5","7","7","6","7","7","7","6","5","7","7","7","6","7","6","7","7","7","7","7","6","786950840366800897","黄","294","Female","[""坏我"",""好我"",""好她"",""坏她""]","[""弱我"",""强我"",""强她"",""弱她""]","","","","","","","","no","","","","","","","","","SRET","EW_formal","","key","j","16.83018852459013","683","380","自己","新手","Negative","ability","","","","","","","","","","",""
"716","","f","psychophysics","72","240902","0.0-7.0-3.0-0.58","7","6","7","6","7","5","2","5","5","5","5","0","-1","2","1","2","1","2","2","5","4","4","5","4","4","5","4","5","4","8","8","7","7","8","7","8","7","8","7","7","2","7","5","6","6","1","6","7","1","7","3","5","2","7","7","6","7","2","5","7","7","6","7","7","7","6","5","7","7","7","6","7","6","7","7","7","7","7","6","786950840366800897","黄","294","Female","[""坏我"",""好我"",""好她"",""坏她""]","[""弱我"",""强我"",""强她"",""弱她""]","","","","","","","","yes","","","","","","","","","SRET","EW_formal","","key","f","16.855901960784276","683","380","朋友","高洁","Positive","morality","","","","","","","","","","",""
"590","","f","psychophysics","73","242495","0.0-7.0-3.0-0.59","7","6","7","6","7","5","2","5","5","5","5","0","-1","2","1","2","1","2","2","5","4","4","5","4","4","5","4","5","4","8","8","7","7","8","7","8","7","8","7","7","2","7","5","6","6","1","6","7","1","7","3","5","2","7","7","6","7","2","5","7","7","6","7","7","7","6","5","7","7","7","6","7","6","7","7","7","7","7","6","786950840366800897","黄","294","Female","[""坏我"",""好我"",""好她"",""坏她""]","[""弱我"",""强我"",""强她"",""弱她""]","","","","","","","","yes","","","","","","","","","SRET","EW_formal","","key","f","16.870569892472997","683","380","自己","守信","Positive","morality","","","","","","","","","","",""
"653","","f","psychophysics","74","244182","0.0-7.0-3.0-0.60","7","6","7","6","7","5","2","5","5","5","5","0","-1","2","1","2","1","2","2","5","4","4","5","4","4","5","4","5","4","8","8","7","7","8","7","8","7","8","7","7","2","7","5","6","6","1","6","7","1","7","3","5","2","7","7","6","7","2","5","7","7","6","7","7","7","6","5","7","7","7","6","7","6","7","7","7","7","7","6","786950840366800897","黄","294","Female","[""坏我"",""好我"",""好她"",""坏她""]","[""弱我"",""强我"",""强她"",""弱她""]","","","","","","","","yes","","","","","","","","","SRET","EW_formal","","key","f","16.86049494949508","683","380","朋友","忠勇","Positive","morality","","","","","","","","","","",""
"611","","j","psychophysics","75","245796","0.0-7.0-3.0-0.61","7","6","7","6","7","5","2","5","5","5","5","0","-1","2","1","2","1","2","2","5","4","4","5","4","4","5","4","5","4","8","8","7","7","8","7","8","7","8","7","7","2","7","5","6","6","1","6","7","1","7","3","5","2","7","7","6","7","2","5","7","7","6","7","7","7","6","5","7","7","7","6","7","6","7","7","7","7","7","6","786950840366800897","黄","294","Female","[""坏我"",""好我"",""好她"",""坏她""]","[""弱我"",""强我"",""强她"",""弱她""]","","","","","","","","no","","","","","","","","","SRET","EW_formal","","key","j","16.867399999999908","683","380","自己","黑心","Negative","morality","","","","","","","","","","",""
"641","","f","psychophysics","76","247440","0.0-7.0-3.0-0.62","7","6","7","6","7","5","2","5","5","5","5","0","-1","2","1","2","1","2","2","5","4","4","5","4","4","5","4","5","4","8","8","7","7","8","7","8","7","8","7","7","2","7","5","6","6","1","6","7","1","7","3","5","2","7","7","6","7","2","5","7","7","6","7","7","7","6","5","7","7","7","6","7","6","7","7","7","7","7","6","786950840366800897","黄","294","Female","[""坏我"",""好我"",""好她"",""坏她""]","[""弱我"",""强我"",""强她"",""弱她""]","","","","","","","","yes","","","","","","","","","SRET","EW_formal","","key","f","17.042452631578904","683","380","朋友","仁爱","Positive","morality","","","","","","","","","","",""
"1116","","f","psychophysics","77","249563","0.0-7.0-3.0-0.63","7","6","7","6","7","5","2","5","5","5","5","0","-1","2","1","2","1","2","2","5","4","4","5","4","4","5","4","5","4","8","8","7","7","8","7","8","7","8","7","7","2","7","5","6","6","1","6","7","1","7","3","5","2","7","7","6","7","2","5","7","7","6","7","7","7","6","5","7","7","7","6","7","6","7","7","7","7","7","6","786950840366800897","黄","294","Female","[""坏我"",""好我"",""好她"",""坏她""]","[""弱我"",""强我"",""强她"",""弱她""]","","","","","","","","yes","","","","","","","","","SRET","EW_formal","","key","f","16.96075806451629","683","380","自己","伪善","Negative","morality","","","","","","","","","","",""
"670","","j","psychophysics","78","251260","0.0-7.0-3.0-0.64","7","6","7","6","7","5","2","5","5","5","5","0","-1","2","1","2","1","2","2","5","4","4","5","4","4","5","4","5","4","8","8","7","7","8","7","8","7","8","7","7","2","7","5","6","6","1","6","7","1","7","3","5","2","7","7","6","7","2","5","7","7","6","7","7","7","6","5","7","7","7","6","7","6","7","7","7","7","7","6","786950840366800897","黄","294","Female","[""坏我"",""好我"",""好她"",""坏她""]","[""弱我"",""强我"",""强她"",""弱她""]","","","","","","","","no","","","","","","","","","SRET","EW_formal","","key","j","16.85850000000006","683","380","自己","迟钝","Negative","ability","","","","","","","","","","",""
"951","","f","psychophysics","79","253214","0.0-7.0-3.0-0.65","7","6","7","6","7","5","2","5","5","5","5","0","-1","2","1","2","1","2","2","5","4","4","5","4","4","5","4","5","4","8","8","7","7","8","7","8","7","8","7","7","2","7","5","6","6","1","6","7","1","7","3","5","2","7","7","6","7","2","5","7","7","6","7","7","7","6","5","7","7","7","6","7","6","7","7","7","7","7","6","786950840366800897","黄","294","Female","[""坏我"",""好我"",""好她"",""坏她""]","[""弱我"",""强我"",""强她"",""弱她""]","","","","","","","","yes","","","","","","","","","SRET","EW_formal","","key","f","16.984508771929796","683","380","朋友","刻苦","Positive","ability","","","","","","","","","","",""
"645","","j","psychophysics","80","254959","0.0-7.0-3.0-0.66","7","6","7","6","7","5","2","5","5","5","5","0","-1","2","1","2","1","2","2","5","4","4","5","4","4","5","4","5","4","8","8","7","7","8","7","8","7","8","7","7","2","7","5","6","6","1","6","7","1","7","3","5","2","7","7","6","7","2","5","7","7","6","7","7","7","6","5","7","7","7","6","7","6","7","7","7","7","7","6","786950840366800897","黄","294","Female","[""坏我"",""好我"",""好她"",""坏她""]","[""弱我"",""强我"",""强她"",""弱她""]","","","","","","","","no","","","","","","","","","SRET","EW_formal","","key","j","17.714653061224418","683","380","自己","奸险","Negative","morality","","","","","","","","","","",""
"797","","j","psychophysics","81","256762","0.0-7.0-3.0-0.67","7","6","7","6","7","5","2","5","5","5","5","0","-1","2","1","2","1","2","2","5","4","4","5","4","4","5","4","5","4","8","8","7","7","8","7","8","7","8","7","7","2","7","5","6","6","1","6","7","1","7","3","5","2","7","7","6","7","2","5","7","7","6","7","7","7","6","5","7","7","7","6","7","6","7","7","7","7","7","6","786950840366800897","黄","294","Female","[""坏我"",""好我"",""好她"",""坏她""]","[""弱我"",""强我"",""强她"",""弱她""]","","","","","","","","no","","","","","","","","","SRET","EW_formal","","key","j","16.84893396226409","683","380","自己","狡狯","Negative","morality","","","","","","","","","","",""
"581","","f","psychophysics","82","258348","0.0-7.0-3.0-0.68","7","6","7","6","7","5","2","5","5","5","5","0","-1","2","1","2","1","2","2","5","4","4","5","4","4","5","4","5","4","8","8","7","7","8","7","8","7","8","7","7","2","7","5","6","6","1","6","7","1","7","3","5","2","7","7","6","7","2","5","7","7","6","7","7","7","6","5","7","7","7","6","7","6","7","7","7","7","7","6","786950840366800897","黄","294","Female","[""坏我"",""好我"",""好她"",""坏她""]","[""弱我"",""强我"",""强她"",""弱她""]","","","","","","","","yes","","","","","","","","","SRET","EW_formal","","key","f","16.87029032258039","683","380","自己","全才","Positive","ability","","","","","","","","","","",""
"588","","f","psychophysics","83","259939","0.0-7.0-3.0-0.69","7","6","7","6","7","5","2","5","5","5","5","0","-1","2","1","2","1","2","2","5","4","4","5","4","4","5","4","5","4","8","8","7","7","8","7","8","7","8","7","7","2","7","5","6","6","1","6","7","1","7","3","5","2","7","7","6","7","2","5","7","7","6","7","7","7","6","5","7","7","7","6","7","6","7","7","7","7","7","6","786950840366800897","黄","294","Female","[""坏我"",""好我"",""好她"",""坏她""]","[""弱我"",""强我"",""强她"",""弱她""]","","","","","","","","yes","","","","","","","","","SRET","EW_formal","","key","f","16.691680851064255","683","380","自己","文明","Positive","morality","","","","","","","","","","",""
"649","","j","psychophysics","84","261592","0.0-7.0-3.0-0.70","7","6","7","6","7","5","2","5","5","5","5","0","-1","2","1","2","1","2","2","5","4","4","5","4","4","5","4","5","4","8","8","7","7","8","7","8","7","8","7","7","2","7","5","6","6","1","6","7","1","7","3","5","2","7","7","6","7","2","5","7","7","6","7","7","7","6","5","7","7","7","6","7","6","7","7","7","7","7","6","786950840366800897","黄","294","Female","[""坏我"",""好我"",""好她"",""坏她""]","[""弱我"",""强我"",""强她"",""弱她""]","","","","","","","","no","","","","","","","","","SRET","EW_formal","","key","j","16.863721649484713","683","380","朋友","不端","Negative","morality","","","","","","","","","","",""
"667","","f","psychophysics","85","263262","0.0-7.0-3.0-0.71","7","6","7","6","7","5","2","5","5","5","5","0","-1","2","1","2","1","2","2","5","4","4","5","4","4","5","4","5","4","8","8","7","7","8","7","8","7","8","7","7","2","7","5","6","6","1","6","7","1","7","3","5","2","7","7","6","7","2","5","7","7","6","7","7","7","6","5","7","7","7","6","7","6","7","7","7","7","7","6","786950840366800897","黄","294","Female","[""坏我"",""好我"",""好她"",""坏她""]","[""弱我"",""强我"",""强她"",""弱她""]","","","","","","","","yes","","","","","","","","","SRET","EW_formal","","key","f","17.03579381443308","683","380","自己","有力","Positive","ability","","","","","","","","","","",""
"657","","j","psychophysics","86","264929","0.0-7.0-3.0-0.72","7","6","7","6","7","5","2","5","5","5","5","0","-1","2","1","2","1","2","2","5","4","4","5","4","4","5","4","5","4","8","8","7","7","8","7","8","7","8","7","7","2","7","5","6","6","1","6","7","1","7","3","5","2","7","7","6","7","2","5","7","7","6","7","7","7","6","5","7","7","7","6","7","6","7","7","7","7","7","6","786950840366800897","黄","294","Female","[""坏我"",""好我"",""好她"",""坏她""]","[""弱我"",""强我"",""强她"",""弱她""]","","","","","","","","no","","","","","","","","","SRET","EW_formal","","key","j","17.21322916666698","683","380","朋友","缺德","Negative","morality","","","","","","","","","","",""
"653","","f","psychophysics","87","266584","0.0-7.0-3.0-0.73","7","6","7","6","7","5","2","5","5","5","5","0","-1","2","1","2","1","2","2","5","4","4","5","4","4","5","4","5","4","8","8","7","7","8","7","8","7","8","7","7","2","7","5","6","6","1","6","7","1","7","3","5","2","7","7","6","7","2","5","7","7","6","7","7","7","6","5","7","7","7","6","7","6","7","7","7","7","7","6","786950840366800897","黄","294","Female","[""坏我"",""好我"",""好她"",""坏她""]","[""弱我"",""强我"",""强她"",""弱她""]","","","","","","","","yes","","","","","","","","","SRET","EW_formal","","key","f","17.402021276595523","683","380","朋友","孝顺","Positive","morality","","","","","","","","","","",""
"948","","f","psychophysics","88","268549","0.0-7.0-3.0-0.74","7","6","7","6","7","5","2","5","5","5","5","0","-1","2","1","2","1","2","2","5","4","4","5","4","4","5","4","5","4","8","8","7","7","8","7","8","7","8","7","7","2","7","5","6","6","1","6","7","1","7","3","5","2","7","7","6","7","2","5","7","7","6","7","7","7","6","5","7","7","7","6","7","6","7","7","7","7","7","6","786950840366800897","黄","294","Female","[""坏我"",""好我"",""好她"",""坏她""]","[""弱我"",""强我"",""强她"",""弱她""]","","","","","","","","yes","","","","","","","","","SRET","EW_formal","","key","f","17.13084210526288","683","380","朋友","畏难","Negative","ability","","","","","","","","","","",""
"834","","f","psychophysics","89","270399","0.0-7.0-3.0-0.75","7","6","7","6","7","5","2","5","5","5","5","0","-1","2","1","2","1","2","2","5","4","4","5","4","4","5","4","5","4","8","8","7","7","8","7","8","7","8","7","7","2","7","5","6","6","1","6","7","1","7","3","5","2","7","7","6","7","2","5","7","7","6","7","7","7","6","5","7","7","7","6","7","6","7","7","7","7","7","6","786950840366800897","黄","294","Female","[""坏我"",""好我"",""好她"",""坏她""]","[""弱我"",""强我"",""强她"",""弱她""]","","","","","","","","yes","","","","","","","","","SRET","EW_formal","","key","f","18.001029411765092","683","380","朋友","才尽","Negative","ability","","","","","","","","","","",""
"828","","j","psychophysics","90","272220","0.0-7.0-3.0-0.76","7","6","7","6","7","5","2","5","5","5","5","0","-1","2","1","2","1","2","2","5","4","4","5","4","4","5","4","5","4","8","8","7","7","8","7","8","7","8","7","7","2","7","5","6","6","1","6","7","1","7","3","5","2","7","7","6","7","2","5","7","7","6","7","7","7","6","5","7","7","7","6","7","6","7","7","7","7","7","6","786950840366800897","黄","294","Female","[""坏我"",""好我"",""好她"",""坏她""]","[""弱我"",""强我"",""强她"",""弱她""]","","","","","","","","no","","","","","","","","","SRET","EW_formal","","key","j","16.84804672897232","683","380","朋友","拜金","Negative","morality","","","","","","","","","","",""
"658","","j","psychophysics","91","273898","0.0-7.0-3.0-0.77","7","6","7","6","7","5","2","5","5","5","5","0","-1","2","1","2","1","2","2","5","4","4","5","4","4","5","4","5","4","8","8","7","7","8","7","8","7","8","7","7","2","7","5","6","6","1","6","7","1","7","3","5","2","7","7","6","7","2","5","7","7","6","7","7","7","6","5","7","7","7","6","7","6","7","7","7","7","7","6","786950840366800897","黄","294","Female","[""坏我"",""好我"",""好她"",""坏她""]","[""弱我"",""强我"",""强她"",""弱她""]","","","","","","","","no","","","","","","","","","SRET","EW_formal","","key","j","17.388322916666464","683","380","自己","卑鄙","Negative","morality","","","","","","","","","","",""
"1185","","f","psychophysics","92","276086","0.0-7.0-3.0-0.78","7","6","7","6","7","5","2","5","5","5","5","0","-1","2","1","2","1","2","2","5","4","4","5","4","4","5","4","5","4","8","8","7","7","8","7","8","7","8","7","7","2","7","5","6","6","1","6","7","1","7","3","5","2","7","7","6","7","2","5","7","7","6","7","7","7","6","5","7","7","7","6","7","6","7","7","7","7","7","6","786950840366800897","黄","294","Female","[""坏我"",""好我"",""好她"",""坏她""]","[""弱我"",""强我"",""强她"",""弱她""]","","","","","","","","yes","","","","","","","","","SRET","EW_formal","","key","f","16.821085271318154","683","380","朋友","依靠","Negative","ability","","","","","","","","","","",""
"936","","f","psychophysics","93","278024","0.0-7.0-3.0-0.79","7","6","7","6","7","5","2","5","5","5","5","0","-1","2","1","2","1","2","2","5","4","4","5","4","4","5","4","5","4","8","8","7","7","8","7","8","7","8","7","7","2","7","5","6","6","1","6","7","1","7","3","5","2","7","7","6","7","2","5","7","7","6","7","7","7","6","5","7","7","7","6","7","6","7","7","7","7","7","6","786950840366800897","黄","294","Female","[""坏我"",""好我"",""好她"",""坏她""]","[""弱我"",""强我"",""强她"",""弱她""]","","","","","","","","yes","","","","","","","","","SRET","EW_formal","","key","f","16.839526315789524","683","380","朋友","奉献","Positive","morality","","","","","","","","","","",""
"997","","j","psychophysics","94","280025","0.0-7.0-3.0-0.80","7","6","7","6","7","5","2","5","5","5","5","0","-1","2","1","2","1","2","2","5","4","4","5","4","4","5","4","5","4","8","8","7","7","8","7","8","7","8","7","7","2","7","5","6","6","1","6","7","1","7","3","5","2","7","7","6","7","2","5","7","7","6","7","7","7","6","5","7","7","7","6","7","6","7","7","7","7","7","6","786950840366800897","黄","294","Female","[""坏我"",""好我"",""好她"",""坏她""]","[""弱我"",""强我"",""强她"",""弱她""]","","","","","","","","no","","","","","","","","","SRET","EW_formal","","key","j","17.271669565217632","683","380","朋友","庸碌","Negative","ability","","","","","","","","","","",""
"751","","f","psychophysics","95","281781","0.0-7.0-3.0-0.81","7","6","7","6","7","5","2","5","5","5","5","0","-1","2","1","2","1","2","2","5","4","4","5","4","4","5","4","5","4","8","8","7","7","8","7","8","7","8","7","7","2","7","5","6","6","1","6","7","1","7","3","5","2","7","7","6","7","2","5","7","7","6","7","7","7","6","5","7","7","7","6","7","6","7","7","7","7","7","6","786950840366800897","黄","294","Female","[""坏我"",""好我"",""好她"",""坏她""]","[""弱我"",""强我"",""强她"",""弱她""]","","","","","","","","yes","","","","","","","","","SRET","EW_formal","","key","f","17.01928431372553","683","380","自己","果断","Positive","ability","","","","","","","","","","",""
"807","","j","psychophysics","96","283596","0.0-7.0-3.0-0.82","7","6","7","6","7","5","2","5","5","5","5","0","-1","2","1","2","1","2","2","5","4","4","5","4","4","5","4","5","4","8","8","7","7","8","7","8","7","8","7","7","2","7","5","6","6","1","6","7","1","7","3","5","2","7","7","6","7","2","5","7","7","6","7","7","7","6","5","7","7","7","6","7","6","7","7","7","7","7","6","786950840366800897","黄","294","Female","[""坏我"",""好我"",""好她"",""坏她""]","[""弱我"",""强我"",""强她"",""弱她""]","","","","","","","","no","","","","","","","","","SRET","EW_formal","","key","j","17.00598113207511","683","380","自己","马虎","Negative","ability","","","","","","","","","","",""
"708","","f","psychophysics","97","285306","0.0-7.0-3.0-0.83","7","6","7","6","7","5","2","5","5","5","5","0","-1","2","1","2","1","2","2","5","4","4","5","4","4","5","4","5","4","8","8","7","7","8","7","8","7","8","7","7","2","7","5","6","6","1","6","7","1","7","3","5","2","7","7","6","7","2","5","7","7","6","7","7","7","6","5","7","7","7","6","7","6","7","7","7","7","7","6","786950840366800897","黄","294","Female","[""坏我"",""好我"",""好她"",""坏她""]","[""弱我"",""强我"",""强她"",""弱她""]","","","","","","","","yes","","","","","","","","","SRET","EW_formal","","key","f","16.69162376237616","683","380","自己","懂行","Positive","ability","","","","","","","","","","",""
"736","","j","psychophysics","98","287053","0.0-7.0-3.0-0.84","7","6","7","6","7","5","2","5","5","5","5","0","-1","2","1","2","1","2","2","5","4","4","5","4","4","5","4","5","4","8","8","7","7","8","7","8","7","8","7","7","2","7","5","6","6","1","6","7","1","7","3","5","2","7","7","6","7","2","5","7","7","6","7","7","7","6","5","7","7","7","6","7","6","7","7","7","7","7","6","786950840366800897","黄","294","Female","[""坏我"",""好我"",""好她"",""坏她""]","[""弱我"",""强我"",""强她"",""弱她""]","","","","","","","","no","","","","","","","","","SRET","EW_formal","","key","j","16.853825242718617","683","380","朋友","低俗","Negative","morality","","","","","","","","","","",""
"1059","","j","psychophysics","99","289115","0.0-7.0-3.0-0.85","7","6","7","6","7","5","2","5","5","5","5","0","-1","2","1","2","1","2","2","5","4","4","5","4","4","5","4","5","4","8","8","7","7","8","7","8","7","8","7","7","2","7","5","6","6","1","6","7","1","7","3","5","2","7","7","6","7","2","5","7","7","6","7","7","7","6","5","7","7","7","6","7","6","7","7","7","7","7","6","786950840366800897","黄","294","Female","[""坏我"",""好我"",""好她"",""坏她""]","[""弱我"",""强我"",""强她"",""弱她""]","","","","","","","","no","","","","","","","","","SRET","EW_formal","","key","j","16.82809016393444","683","380","自己","缓慢","Negative","ability","","","","","","","","","","",""
"649","","f","psychophysics","100","290767","0.0-7.0-3.0-0.86","7","6","7","6","7","5","2","5","5","5","5","0","-1","2","1","2","1","2","2","5","4","4","5","4","4","5","4","5","4","8","8","7","7","8","7","8","7","8","7","7","2","7","5","6","6","1","6","7","1","7","3","5","2","7","7","6","7","2","5","7","7","6","7","7","7","6","5","7","7","7","6","7","6","7","7","7","7","7","6","786950840366800897","黄","294","Female","[""坏我"",""好我"",""好她"",""坏她""]","[""弱我"",""强我"",""强她"",""弱她""]","","","","","","","","yes","","","","","","","","","SRET","EW_formal","","key","f","16.866354166666497","683","380","自己","主见","Positive","ability","","","","","","","","","","",""
"747","","f","psychophysics","101","292524","0.0-7.0-3.0-0.87","7","6","7","6","7","5","2","5","5","5","5","0","-1","2","1","2","1","2","2","5","4","4","5","4","4","5","4","5","4","8","8","7","7","8","7","8","7","8","7","7","2","7","5","6","6","1","6","7","1","7","3","5","2","7","7","6","7","2","5","7","7","6","7","7","7","6","5","7","7","7","6","7","6","7","7","7","7","7","6","786950840366800897","黄","294","Female","[""坏我"",""好我"",""好她"",""坏她""]","[""弱我"",""强我"",""强她"",""弱她""]","","","","","","","","yes","","","","","","","","","SRET","EW_formal","","key","f","17.015300970873795","683","380","朋友","素养","Positive","morality","","","","","","","","","","",""
"8777","
    <p><div style='color:white;font-size:35px; line-height:20px;'>计算任务</div></p><br>
    <p><div style='color:red;font-size:25px; line-height:20px;'>接下来，您将看到一些四则运算题，<b>请从键盘选择 0-9 进行反应。</b></div></p>
    <p><div style='color:red;font-size:25px; line-height:20px;'>请尽可能快地进行计算，计算的速度和正确率将影响报酬的发放。</div></p>
    <p><div class='footer' style='color:white;font-size:25px; line-height:20px;'>如果对本实验还有不清楚之处，请立即向实验员咨询。</p><p style='color:white;font-size:25px; line-height:20px;'>如果您明白了规则：</p><p style='color:white;font-size:22px; line-height:20px;'>请按 继续 进入练习</p>
    </div>
    ","0","html-button-response","102","301304","0.0-7.0-4.0","7","6","7","6","7","5","2","5","5","5","5","0","-1","2","1","2","1","2","2","5","4","4","5","4","4","5","4","5","4","8","8","7","7","8","7","8","7","8","7","7","2","7","5","6","6","1","6","7","1","7","3","5","2","7","7","6","7","2","5","7","7","6","7","7","7","6","5","7","7","7","6","7","6","7","7","7","7","7","6","786950840366800897","黄","294","Female","[""坏我"",""好我"",""好她"",""坏她""]","[""弱我"",""强我"",""强她"",""弱她""]","","","","","","","","","","","","","","","","","SRET_math","math_instructions","Thu Jan 18 2024 23:05:29 GMT+0800 (中国标准时间)","","","","","","","","","","","","","","","","","","","",""
"3517","","5","psychophysics","103","304831","0.0-7.0-5.0-0.0","7","6","7","6","7","5","2","5","5","5","5","0","-1","2","1","2","1","2","2","5","4","4","5","4","4","5","4","5","4","8","8","7","7","8","7","8","7","8","7","7","2","7","5","6","6","1","6","7","1","7","3","5","2","7","7","6","7","2","5","7","7","6","7","7","7","6","5","7","7","7","6","7","6","7","7","7","7","7","6","786950840366800897","黄","294","Female","[""坏我"",""好我"",""好她"",""坏她""]","[""弱我"",""强我"",""强她"",""弱她""]","","","","","","","","5","","","","","","","","","SRET","SRET_math_calculate","","key","5","17.014628019323627","683","380","","","","","10-5= ?","5","1","","","","","","","",""
"2402","","3","psychophysics","104","307279","0.0-7.0-5.0-0.1","7","6","7","6","7","5","2","5","5","5","5","0","-1","2","1","2","1","2","2","5","4","4","5","4","4","5","4","5","4","8","8","7","7","8","7","8","7","8","7","7","2","7","5","6","6","1","6","7","1","7","3","5","2","7","7","6","7","2","5","7","7","6","7","7","7","6","5","7","7","7","6","7","6","7","7","7","7","7","6","786950840366800897","黄","294","Female","[""坏我"",""好我"",""好她"",""坏她""]","[""弱我"",""强我"",""强她"",""弱她""]","","","","","","","","3","","","","","","","","","SRET","SRET_math_calculate","","key","3","16.92386111111086","683","380","","","","","9-6= ?","3","1","","","","","","","",""
"2514","","8","psychophysics","105","309798","0.0-7.0-5.0-0.2","7","6","7","6","7","5","2","5","5","5","5","0","-1","2","1","2","1","2","2","5","4","4","5","4","4","5","4","5","4","8","8","7","7","8","7","8","7","8","7","7","2","7","5","6","6","1","6","7","1","7","3","5","2","7","7","6","7","2","5","7","7","6","7","7","7","6","5","7","7","7","6","7","6","7","7","7","7","7","6","786950840366800897","黄","294","Female","[""坏我"",""好我"",""好她"",""坏她""]","[""弱我"",""强我"",""强她"",""弱她""]","","","","","","","","8","","","","","","","","","SRET","SRET_math_calculate","","key","8","16.8033959731544","683","380","","","","","1*8= ?","8","1","","","","","","","",""
"2483","","9","psychophysics","106","312285","0.0-7.0-5.0-0.3","7","6","7","6","7","5","2","5","5","5","5","0","-1","2","1","2","1","2","2","5","4","4","5","4","4","5","4","5","4","8","8","7","7","8","7","8","7","8","7","7","2","7","5","6","6","1","6","7","1","7","3","5","2","7","7","6","7","2","5","7","7","6","7","7","7","6","5","7","7","7","6","7","6","7","7","7","7","7","6","786950840366800897","黄","294","Female","[""坏我"",""好我"",""好她"",""坏她""]","[""弱我"",""强我"",""强她"",""弱她""]","","","","","","","","9","","","","","","","","","SRET","SRET_math_calculate","","key","9","17.036765517241417","683","380","","","","","49/7 = ?","7","0","","","","","","","",""
"1769","","9","psychophysics","107","314058","0.0-7.0-5.0-0.4","7","6","7","6","7","5","2","5","5","5","5","0","-1","2","1","2","1","2","2","5","4","4","5","4","4","5","4","5","4","8","8","7","7","8","7","8","7","8","7","7","2","7","5","6","6","1","6","7","1","7","3","5","2","7","7","6","7","2","5","7","7","6","7","7","7","6","5","7","7","7","6","7","6","7","7","7","7","7","6","786950840366800897","黄","294","Female","[""坏我"",""好我"",""好她"",""坏她""]","[""弱我"",""强我"",""强她"",""弱她""]","","","","","","","","9","","","","","","","","","SRET","SRET_math_calculate","","key","9","17.883969387755258","683","380","","","","","6+3= ?","9","1","","","","","","","",""
"2462","","3","psychophysics","108","316524","0.0-7.0-5.0-0.5","7","6","7","6","7","5","2","5","5","5","5","0","-1","2","1","2","1","2","2","5","4","4","5","4","4","5","4","5","4","8","8","7","7","8","7","8","7","8","7","7","2","7","5","6","6","1","6","7","1","7","3","5","2","7","7","6","7","2","5","7","7","6","7","7","7","6","5","7","7","7","6","7","6","7","7","7","7","7","6","786950840366800897","黄","294","Female","[""坏我"",""好我"",""好她"",""坏她""]","[""弱我"",""强我"",""强她"",""弱她""]","","","","","","","","3","","","","","","","","","SRET","SRET_math_calculate","","key","3","17.039499999999762","683","380","","","","","8/4= ?","2","0","","","","","","","",""
"215","","2","psychophysics","109","316744","0.0-7.0-5.0-0.6","7","6","7","6","7","5","2","5","5","5","5","0","-1","2","1","2","1","2","2","5","4","4","5","4","4","5","4","5","4","8","8","7","7","8","7","8","7","8","7","7","2","7","5","6","6","1","6","7","1","7","3","5","2","7","7","6","7","2","5","7","7","6","7","7","7","6","5","7","7","7","6","7","6","7","7","7","7","7","6","786950840366800897","黄","294","Female","[""坏我"",""好我"",""好她"",""坏她""]","[""弱我"",""强我"",""强她"",""弱她""]","","","","","","","","2","","","","","","","","","SRET","SRET_math_calculate","","key","2","16.695083333334576","683","380","","","","","32-23= ?","9","0","","","","","","","",""
"2135","","6","psychophysics","110","318884","0.0-7.0-5.0-0.7","7","6","7","6","7","5","2","5","5","5","5","0","-1","2","1","2","1","2","2","5","4","4","5","4","4","5","4","5","4","8","8","7","7","8","7","8","7","8","7","7","2","7","5","6","6","1","6","7","1","7","3","5","2","7","7","6","7","2","5","7","7","6","7","7","7","6","5","7","7","7","6","7","6","7","7","7","7","7","6","786950840366800897","黄","294","Female","[""坏我"",""好我"",""好她"",""坏她""]","[""弱我"",""强我"",""强她"",""弱她""]","","","","","","","","6","","","","","","","","","SRET","SRET_math_calculate","","key","6","16.95898400000017","683","380","","","","","11-5= ?","6","1","","","","","","","",""
"1888","","6","psychophysics","111","320783","0.0-7.0-5.0-0.8","7","6","7","6","7","5","2","5","5","5","5","0","-1","2","1","2","1","2","2","5","4","4","5","4","4","5","4","5","4","8","8","7","7","8","7","8","7","8","7","7","2","7","5","6","6","1","6","7","1","7","3","5","2","7","7","6","7","2","5","7","7","6","7","7","7","6","5","7","7","7","6","7","6","7","7","7","7","7","6","786950840366800897","黄","294","Female","[""坏我"",""好我"",""好她"",""坏她""]","[""弱我"",""强我"",""强她"",""弱她""]","","","","","","","","6","","","","","","","","","SRET","SRET_math_calculate","","key","6","16.99175675675642","683","380","","","","","4+2= ?","6","1","","","","","","","",""
"3075","","2","psychophysics","112","323872","0.0-7.0-5.0-0.9","7","6","7","6","7","5","2","5","5","5","5","0","-1","2","1","2","1","2","2","5","4","4","5","4","4","5","4","5","4","8","8","7","7","8","7","8","7","8","7","7","2","7","5","6","6","1","6","7","1","7","3","5","2","7","7","6","7","2","5","7","7","6","7","7","7","6","5","7","7","7","6","7","6","7","7","7","7","7","6","786950840366800897","黄","294","Female","[""坏我"",""好我"",""好她"",""坏她""]","[""弱我"",""强我"",""强她"",""弱她""]","","","","","","","","2","","","","","","","","","SRET","SRET_math_calculate","","key","2","16.7826448087431","683","380","","","","","90/45= ?","2","1","","","","","","","",""
"2785","","3","psychophysics","113","326661","0.0-7.0-5.0-0.10","7","6","7","6","7","5","2","5","5","5","5","0","-1","2","1","2","1","2","2","5","4","4","5","4","4","5","4","5","4","8","8","7","7","8","7","8","7","8","7","7","2","7","5","6","6","1","6","7","1","7","3","5","2","7","7","6","7","2","5","7","7","6","7","7","7","6","5","7","7","7","6","7","6","7","7","7","7","7","6","786950840366800897","黄","294","Female","[""坏我"",""好我"",""好她"",""坏她""]","[""弱我"",""强我"",""强她"",""弱她""]","","","","","","","","3","","","","","","","","","SRET","SRET_math_calculate","","key","3","16.79320000000016","683","380","","","","","9/3= ?","3","1","","","","","","","",""
"1983","","7","psychophysics","114","328650","0.0-7.0-5.0-0.11","7","6","7","6","7","5","2","5","5","5","5","0","-1","2","1","2","1","2","2","5","4","4","5","4","4","5","4","5","4","8","8","7","7","8","7","8","7","8","7","7","2","7","5","6","6","1","6","7","1","7","3","5","2","7","7","6","7","2","5","7","7","6","7","7","7","6","5","7","7","7","6","7","6","7","7","7","7","7","6","786950840366800897","黄","294","Female","[""坏我"",""好我"",""好她"",""坏她""]","[""弱我"",""强我"",""强她"",""弱她""]","","","","","","","","7","","","","","","","","","SRET","SRET_math_calculate","","key","7","16.833999999999826","683","380","","","","","12-5= ?","7","1","","","","","","","",""
"2096","","4","psychophysics","115","330797","0.0-7.0-5.0-0.12","7","6","7","6","7","5","2","5","5","5","5","0","-1","2","1","2","1","2","2","5","4","4","5","4","4","5","4","5","4","8","8","7","7","8","7","8","7","8","7","7","2","7","5","6","6","1","6","7","1","7","3","5","2","7","7","6","7","2","5","7","7","6","7","7","7","6","5","7","7","7","6","7","6","7","7","7","7","7","6","786950840366800897","黄","294","Female","[""坏我"",""好我"",""好她"",""坏她""]","[""弱我"",""强我"",""强她"",""弱她""]","","","","","","","","4","","","","","","","","","SRET","SRET_math_calculate","","key","4","16.822763779527403","683","380","","","","","8-4= ?","4","1","","","","","","","",""
"1965","","5","psychophysics","116","332756","0.0-7.0-5.0-0.13","7","6","7","6","7","5","2","5","5","5","5","0","-1","2","1","2","1","2","2","5","4","4","5","4","4","5","4","5","4","8","8","7","7","8","7","8","7","8","7","7","2","7","5","6","6","1","6","7","1","7","3","5","2","7","7","6","7","2","5","7","7","6","7","7","7","6","5","7","7","7","6","7","6","7","7","7","7","7","6","786950840366800897","黄","294","Female","[""坏我"",""好我"",""好她"",""坏她""]","[""弱我"",""强我"",""强她"",""弱她""]","","","","","","","","5","","","","","","","","","SRET","SRET_math_calculate","","key","5","16.692341880341512","683","380","","","","","4+1= ?","5","1","","","","","","","",""
"2498","","8","psychophysics","117","335259","0.0-7.0-5.0-0.14","7","6","7","6","7","5","2","5","5","5","5","0","-1","2","1","2","1","2","2","5","4","4","5","4","4","5","4","5","4","8","8","7","7","8","7","8","7","8","7","7","2","7","5","6","6","1","6","7","1","7","3","5","2","7","7","6","7","2","5","7","7","6","7","7","7","6","5","7","7","7","6","7","6","7","7","7","7","7","6","786950840366800897","黄","294","Female","[""坏我"",""好我"",""好她"",""坏她""]","[""弱我"",""强我"",""强她"",""弱她""]","","","","","","","","8","","","","","","","","","SRET","SRET_math_calculate","","key","8","16.9177823129251","683","380","","","","","4*2= ?","8","1","","","","","","","",""
"1778","","7","psychophysics","118","337076","0.0-7.0-5.0-0.15","7","6","7","6","7","5","2","5","5","5","5","0","-1","2","1","2","1","2","2","5","4","4","5","4","4","5","4","5","4","8","8","7","7","8","7","8","7","8","7","7","2","7","5","6","6","1","6","7","1","7","3","5","2","7","7","6","7","2","5","7","7","6","7","7","7","6","5","7","7","7","6","7","6","7","7","7","7","7","6","786950840366800897","黄","294","Female","[""坏我"",""好我"",""好她"",""坏她""]","[""弱我"",""强我"",""强她"",""弱她""]","","","","","","","","7","","","","","","","","","SRET","SRET_math_calculate","","key","7","17.007301886792224","683","380","","","","","2+5= ?","7","1","","","","","","","",""
"2156","","2","psychophysics","119","339236","0.0-7.0-5.0-0.16","7","6","7","6","7","5","2","5","5","5","5","0","-1","2","1","2","1","2","2","5","4","4","5","4","4","5","4","5","4","8","8","7","7","8","7","8","7","8","7","7","2","7","5","6","6","1","6","7","1","7","3","5","2","7","7","6","7","2","5","7","7","6","7","7","7","6","5","7","7","7","6","7","6","7","7","7","7","7","6","786950840366800897","黄","294","Female","[""坏我"",""好我"",""好她"",""坏她""]","[""弱我"",""强我"",""强她"",""弱她""]","","","","","","","","2","","","","","","","","","SRET","SRET_math_calculate","","key","2","16.957833333333607","683","380","","","","","19-17= ?","2","1","","","","","","","",""
"2136","","5","psychophysics","120","341378","0.0-7.0-5.0-0.17","7","6","7","6","7","5","2","5","5","5","5","0","-1","2","1","2","1","2","2","5","4","4","5","4","4","5","4","5","4","8","8","7","7","8","7","8","7","8","7","7","2","7","5","6","6","1","6","7","1","7","3","5","2","7","7","6","7","2","5","7","7","6","7","7","7","6","5","7","7","7","6","7","6","7","7","7","7","7","6","786950840366800897","黄","294","Female","[""坏我"",""好我"",""好她"",""坏她""]","[""弱我"",""强我"",""强她"",""弱她""]","","","","","","","","5","","","","","","","","","SRET","SRET_math_calculate","","key","5","16.823388888889145","683","380","","","","","9-4= ?","5","1","","","","","","","",""
"2041","","8","psychophysics","121","343460","0.0-7.0-5.0-0.18","7","6","7","6","7","5","2","5","5","5","5","0","-1","2","1","2","1","2","2","5","4","4","5","4","4","5","4","5","4","8","8","7","7","8","7","8","7","8","7","7","2","7","5","6","6","1","6","7","1","7","3","5","2","7","7","6","7","2","5","7","7","6","7","7","7","6","5","7","7","7","6","7","6","7","7","7","7","7","6","786950840366800897","黄","294","Female","[""坏我"",""好我"",""好她"",""坏她""]","[""弱我"",""强我"",""强她"",""弱她""]","","","","","","","","8","","","","","","","","","SRET","SRET_math_calculate","","key","8","16.96558196721341","683","380","","","","","8*1= ?","8","1","","","","","","","",""
"2647","","8","psychophysics","122","346112","0.0-7.0-5.0-0.19","7","6","7","6","7","5","2","5","5","5","5","0","-1","2","1","2","1","2","2","5","4","4","5","4","4","5","4","5","4","8","8","7","7","8","7","8","7","8","7","7","2","7","5","6","6","1","6","7","1","7","3","5","2","7","7","6","7","2","5","7","7","6","7","7","7","6","5","7","7","7","6","7","6","7","7","7","7","7","6","786950840366800897","黄","294","Female","[""坏我"",""好我"",""好她"",""坏她""]","[""弱我"",""强我"",""强她"",""弱她""]","","","","","","","","8","","","","","","","","","SRET","SRET_math_calculate","","key","8","16.905564102563986","683","380","","","","","56/7= ?","8","1","","","","","","","",""
"2048","","2","psychophysics","123","348163","0.0-7.0-5.0-0.20","7","6","7","6","7","5","2","5","5","5","5","0","-1","2","1","2","1","2","2","5","4","4","5","4","4","5","4","5","4","8","8","7","7","8","7","8","7","8","7","7","2","7","5","6","6","1","6","7","1","7","3","5","2","7","7","6","7","2","5","7","7","6","7","7","7","6","5","7","7","7","6","7","6","7","7","7","7","7","6","786950840366800897","黄","294","Female","[""坏我"",""好我"",""好她"",""坏她""]","[""弱我"",""强我"",""强她"",""弱她""]","","","","","","","","2","","","","","","","","","SRET","SRET_math_calculate","","key","2","16.969524999999944","683","380","","","","","5-3= ?","2","1","","","","","","","",""
"4318","","8","psychophysics","124","352485","0.0-7.0-5.0-0.21","7","6","7","6","7","5","2","5","5","5","5","0","-1","2","1","2","1","2","2","5","4","4","5","4","4","5","4","5","4","8","8","7","7","8","7","8","7","8","7","7","2","7","5","6","6","1","6","7","1","7","3","5","2","7","7","6","7","2","5","7","7","6","7","7","7","6","5","7","7","7","6","7","6","7","7","7","7","7","6","786950840366800897","黄","294","Female","[""坏我"",""好我"",""好她"",""坏她""]","[""弱我"",""强我"",""强她"",""弱她""]","","","","","","","","8","","","","","","","","","SRET","SRET_math_calculate","","key","8","17.021529644268718","683","380","","","","","13-5= ?","8","1","","","","","","","",""
"2098","","6","psychophysics","125","354587","0.0-7.0-5.0-0.22","7","6","7","6","7","5","2","5","5","5","5","0","-1","2","1","2","1","2","2","5","4","4","5","4","4","5","4","5","4","8","8","7","7","8","7","8","7","8","7","7","2","7","5","6","6","1","6","7","1","7","3","5","2","7","7","6","7","2","5","7","7","6","7","7","7","6","5","7","7","7","6","7","6","7","7","7","7","7","6","786950840366800897","黄","294","Female","[""坏我"",""好我"",""好她"",""坏她""]","[""弱我"",""强我"",""强她"",""弱她""]","","","","","","","","6","","","","","","","","","SRET","SRET_math_calculate","","key","6","16.826225806451536","683","380","","","","","3+3= ?","6","1","","","","","","","",""
"1918","","8","psychophysics","126","356509","0.0-7.0-5.0-0.23","7","6","7","6","7","5","2","5","5","5","5","0","-1","2","1","2","1","2","2","5","4","4","5","4","4","5","4","5","4","8","8","7","7","8","7","8","7","8","7","7","2","7","5","6","6","1","6","7","1","7","3","5","2","7","7","6","7","2","5","7","7","6","7","7","7","6","5","7","7","7","6","7","6","7","7","7","7","7","6","786950840366800897","黄","294","Female","[""坏我"",""好我"",""好她"",""坏她""]","[""弱我"",""强我"",""强她"",""弱她""]","","","","","","","","8","","","","","","","","","SRET","SRET_math_calculate","","key","8","16.691649122807","683","380","","","","","4+4= ?","8","1","","","","","","","",""
"1908","","8","psychophysics","127","358455","0.0-7.0-5.0-0.24","7","6","7","6","7","5","2","5","5","5","5","0","-1","2","1","2","1","2","2","5","4","4","5","4","4","5","4","5","4","8","8","7","7","8","7","8","7","8","7","7","2","7","5","6","6","1","6","7","1","7","3","5","2","7","7","6","7","2","5","7","7","6","7","7","7","6","5","7","7","7","6","7","6","7","7","7","7","7","6","786950840366800897","黄","294","Female","[""坏我"",""好我"",""好她"",""坏她""]","[""弱我"",""强我"",""强她"",""弱她""]","","","","","","","","8","","","","","","","","","SRET","SRET_math_calculate","","key","8","16.98703539822986","683","380","","","","","3+5= ?","8","1","","","","","","","",""
"1989","","4","psychophysics","128","360451","0.0-7.0-5.0-0.25","7","6","7","6","7","5","2","5","5","5","5","0","-1","2","1","2","1","2","2","5","4","4","5","4","4","5","4","5","4","8","8","7","7","8","7","8","7","8","7","7","2","7","5","6","6","1","6","7","1","7","3","5","2","7","7","6","7","2","5","7","7","6","7","7","7","6","5","7","7","7","6","7","6","7","7","7","7","7","6","786950840366800897","黄","294","Female","[""坏我"",""好我"",""好她"",""坏她""]","[""弱我"",""强我"",""强她"",""弱她""]","","","","","","","","4","","","","","","","","","SRET","SRET_math_calculate","","key","4","16.83322033898311","683","380","","","","","2+2= ?","4","1","","","","","","","",""
"1926","","8","psychophysics","129","362385","0.0-7.0-5.0-0.26","7","6","7","6","7","5","2","5","5","5","5","0","-1","2","1","2","1","2","2","5","4","4","5","4","4","5","4","5","4","8","8","7","7","8","7","8","7","8","7","7","2","7","5","6","6","1","6","7","1","7","3","5","2","7","7","6","7","2","5","7","7","6","7","7","7","6","5","7","7","7","6","7","6","7","7","7","7","7","6","786950840366800897","黄","294","Female","[""坏我"",""好我"",""好她"",""坏她""]","[""弱我"",""强我"",""强她"",""弱她""]","","","","","","","","8","","","","","","","","","SRET","SRET_math_calculate","","key","8","16.987601769911908","683","380","","","","","1+7= ?","8","1","","","","","","","",""
"1928","","7","psychophysics","130","364326","0.0-7.0-5.0-0.27","7","6","7","6","7","5","2","5","5","5","5","0","-1","2","1","2","1","2","2","5","4","4","5","4","4","5","4","5","4","8","8","7","7","8","7","8","7","8","7","7","2","7","5","6","6","1","6","7","1","7","3","5","2","7","7","6","7","2","5","7","7","6","7","7","7","6","5","7","7","7","6","7","6","7","7","7","7","7","6","786950840366800897","黄","294","Female","[""坏我"",""好我"",""好她"",""坏她""]","[""弱我"",""强我"",""强她"",""弱她""]","","","","","","","","7","","","","","","","","","SRET","SRET_math_calculate","","key","7","17.138205357142787","683","380","","","","","1+6= ?","7","1","","","","","","","",""
"1921","","9","psychophysics","131","366254","0.0-7.0-5.0-0.28","7","6","7","6","7","5","2","5","5","5","5","0","-1","2","1","2","1","2","2","5","4","4","5","4","4","5","4","5","4","8","8","7","7","8","7","8","7","8","7","7","2","7","5","6","6","1","6","7","1","7","3","5","2","7","7","6","7","2","5","7","7","6","7","7","7","6","5","7","7","7","6","7","6","7","7","7","7","7","6","786950840366800897","黄","294","Female","[""坏我"",""好我"",""好她"",""坏她""]","[""弱我"",""强我"",""强她"",""弱她""]","","","","","","","","9","","","","","","","","","SRET","SRET_math_calculate","","key","9","16.83840350877175","683","380","","","","","5+4= ?","9","1","","","","","","","",""
"2251","","0","psychophysics","132","368513","0.0-7.0-5.0-0.29","7","6","7","6","7","5","2","5","5","5","5","0","-1","2","1","2","1","2","2","5","4","4","5","4","4","5","4","5","4","8","8","7","7","8","7","8","7","8","7","7","2","7","5","6","6","1","6","7","1","7","3","5","2","7","7","6","7","2","5","7","7","6","7","7","7","6","5","7","7","7","6","7","6","7","7","7","7","7","6","786950840366800897","黄","294","Female","[""坏我"",""好我"",""好她"",""坏她""]","[""弱我"",""强我"",""强她"",""弱她""]","","","","","","","","0","","","","","","","","","SRET","SRET_math_calculate","","key","0","16.816947368420905","683","380","","","","","22-22= ?","0","1","","","","","","","",""
"2210","","6","psychophysics","133","370762","0.0-7.0-5.0-0.30","7","6","7","6","7","5","2","5","5","5","5","0","-1","2","1","2","1","2","2","5","4","4","5","4","4","5","4","5","4","8","8","7","7","8","7","8","7","8","7","7","2","7","5","6","6","1","6","7","1","7","3","5","2","7","7","6","7","2","5","7","7","6","7","7","7","6","5","7","7","7","6","7","6","7","7","7","7","7","6","786950840366800897","黄","294","Female","[""坏我"",""好我"",""好她"",""坏她""]","[""弱我"",""强我"",""强她"",""弱她""]","","","","","","","","6","","","","","","","","","SRET","SRET_math_calculate","","key","6","16.81666165413519","683","380","","","","","9-3= ?","6","1","","","","","","","",""
"2031","","1","psychophysics","134","372797","0.0-7.0-5.0-0.31","7","6","7","6","7","5","2","5","5","5","5","0","-1","2","1","2","1","2","2","5","4","4","5","4","4","5","4","5","4","8","8","7","7","8","7","8","7","8","7","7","2","7","5","6","6","1","6","7","1","7","3","5","2","7","7","6","7","2","5","7","7","6","7","7","7","6","5","7","7","7","6","7","6","7","7","7","7","7","6","786950840366800897","黄","294","Female","[""坏我"",""好我"",""好她"",""坏她""]","[""弱我"",""强我"",""强她"",""弱她""]","","","","","","","","1","","","","","","","","","SRET","SRET_math_calculate","","key","1","16.69211570247921","683","380","","","","","10-9= ?","1","1","","","","","","","",""
"2129","","5","psychophysics","135","374934","0.0-7.0-5.0-0.32","7","6","7","6","7","5","2","5","5","5","5","0","-1","2","1","2","1","2","2","5","4","4","5","4","4","5","4","5","4","8","8","7","7","8","7","8","7","8","7","7","2","7","5","6","6","1","6","7","1","7","3","5","2","7","7","6","7","2","5","7","7","6","7","7","7","6","5","7","7","7","6","7","6","7","7","7","7","7","6","786950840366800897","黄","294","Female","[""坏我"",""好我"",""好她"",""坏她""]","[""弱我"",""强我"",""强她"",""弱她""]","","","","","","","","5","","","","","","","","","SRET","SRET_math_calculate","","key","5","16.822817460317367","683","380","","","","","12-7= ?","5","1","","","","","","","",""
"1880","","8","psychophysics","136","376820","0.0-7.0-5.0-0.33","7","6","7","6","7","5","2","5","5","5","5","0","-1","2","1","2","1","2","2","5","4","4","5","4","4","5","4","5","4","8","8","7","7","8","7","8","7","8","7","7","2","7","5","6","6","1","6","7","1","7","3","5","2","7","7","6","7","2","5","7","7","6","7","7","7","6","5","7","7","7","6","7","6","7","7","7","7","7","6","786950840366800897","黄","294","Female","[""坏我"",""好我"",""好她"",""坏她""]","[""弱我"",""强我"",""强她"",""弱她""]","","","","","","","","8","","","","","","","","","SRET","SRET_math_calculate","","key","8","16.8426936936936","683","380","","","","","50-42= ?","8","1","","","","","","","",""
"2150","","9","psychophysics","137","378978","0.0-7.0-5.0-0.34","7","6","7","6","7","5","2","5","5","5","5","0","-1","2","1","2","1","2","2","5","4","4","5","4","4","5","4","5","4","8","8","7","7","8","7","8","7","8","7","7","2","7","5","6","6","1","6","7","1","7","3","5","2","7","7","6","7","2","5","7","7","6","7","7","7","6","5","7","7","7","6","7","6","7","7","7","7","7","6","786950840366800897","黄","294","Female","[""坏我"",""好我"",""好她"",""坏她""]","[""弱我"",""强我"",""强她"",""弱她""]","","","","","","","","9","","","","","","","","","SRET","SRET_math_calculate","","key","9","16.822196850393656","683","380","","","","","8+1= ?","9","1","","","","","","","",""
"1942","","7","psychophysics","138","380924","0.0-7.0-5.0-0.35","7","6","7","6","7","5","2","5","5","5","5","0","-1","2","1","2","1","2","2","5","4","4","5","4","4","5","4","5","4","8","8","7","7","8","7","8","7","8","7","7","2","7","5","6","6","1","6","7","1","7","3","5","2","7","7","6","7","2","5","7","7","6","7","7","7","6","5","7","7","7","6","7","6","7","7","7","7","7","6","786950840366800897","黄","294","Female","[""坏我"",""好我"",""好她"",""坏她""]","[""弱我"",""强我"",""强她"",""弱她""]","","","","","","","","7","","","","","","","","","SRET","SRET_math_calculate","","key","7","16.83792173913022","683","380","","","","","4+3= ?","7","1","","","","","","","",""
"1772","","9","psychophysics","139","382701","0.0-7.0-5.0-0.36","7","6","7","6","7","5","2","5","5","5","5","0","-1","2","1","2","1","2","2","5","4","4","5","4","4","5","4","5","4","8","8","7","7","8","7","8","7","8","7","7","2","7","5","6","6","1","6","7","1","7","3","5","2","7","7","6","7","2","5","7","7","6","7","7","7","6","5","7","7","7","6","7","6","7","7","7","7","7","6","786950840366800897","黄","294","Female","[""坏我"",""好我"",""好她"",""坏她""]","[""弱我"",""强我"",""强她"",""弱她""]","","","","","","","","9","","","","","","","","","SRET","SRET_math_calculate","","key","9","17.18090196078422","683","380","","","","","4+5= ?","9","1","","","","","","","",""
"3215","","4","psychophysics","140","385919","0.0-7.0-5.0-0.37","7","6","7","6","7","5","2","5","5","5","5","0","-1","2","1","2","1","2","2","5","4","4","5","4","4","5","4","5","4","8","8","7","7","8","7","8","7","8","7","7","2","7","5","6","6","1","6","7","1","7","3","5","2","7","7","6","7","2","5","7","7","6","7","7","7","6","5","7","7","7","6","7","6","7","7","7","7","7","6","786950840366800897","黄","294","Female","[""坏我"",""好我"",""好她"",""坏她""]","[""弱我"",""强我"",""强她"",""弱她""]","","","","","","","","4","","","","","","","","","SRET","SRET_math_calculate","","key","4","16.779068062827356","683","380","","","","","21/7=  ?","3","0","","","","","","","",""
"2558","","2","psychophysics","141","388516","0.0-7.0-5.0-0.38","7","6","7","6","7","5","2","5","5","5","5","0","-1","2","1","2","1","2","2","5","4","4","5","4","4","5","4","5","4","8","8","7","7","8","7","8","7","8","7","7","2","7","5","6","6","1","6","7","1","7","3","5","2","7","7","6","7","2","5","7","7","6","7","7","7","6","5","7","7","7","6","7","6","7","7","7","7","7","6","786950840366800897","黄","294","Female","[""坏我"",""好我"",""好她"",""坏她""]","[""弱我"",""强我"",""强她"",""弱她""]","","","","","","","","2","","","","","","","","","SRET","SRET_math_calculate","","key","2","16.800973856209144","683","380","","","","","8-6= ?","2","1","","","","","","","",""
"1883","","9","psychophysics","142","390438","0.0-7.0-5.0-0.39","7","6","7","6","7","5","2","5","5","5","5","0","-1","2","1","2","1","2","2","5","4","4","5","4","4","5","4","5","4","8","8","7","7","8","7","8","7","8","7","7","2","7","5","6","6","1","6","7","1","7","3","5","2","7","7","6","7","2","5","7","7","6","7","7","7","6","5","7","7","7","6","7","6","7","7","7","7","7","6","786950840366800897","黄","294","Female","[""坏我"",""好我"",""好她"",""坏她""]","[""弱我"",""强我"",""强她"",""弱她""]","","","","","","","","9","","","","","","","","","SRET","SRET_math_calculate","","key","9","16.83768421052618","683","380","","","","","1+8= ?","9","1","","","","","","","",""
