"rt","stimulus","response","trial_type","trial_index","time_elapsed","internal_node_id","swb_1","swb_2","swb_3","swb_4","swb_5","LOT_1","LOT_2","LOT_3","LOT_4","LOT_5","LOT_6","IPC_1","IPC_2","IPC_3","IPC_4","IPC_5","IPC_6","IPC_7","IPC_8","MorIden_1","MorIden_2","MorIden_3","MorIden_4","MorIden_5","MorIden_6","MorIden_7","MorIden_8","MorIden_9","MorIden_10","moralSeImag_1","moralSeImag_2","moralSeImag_3","moralSeImag_4","moralSeImag_5","moralSeImag_6","moralSeImag_7","moralSeImag_8","moralSeImag_9","sde_1","sde_2","sde_3","sde_4","sde_5","sde_6","sde_7","sde_8","sde_9","sde_10","trap2","sde_11","sde_12","sde_13","sde_14","sde_15","sde_16","sde_17","sde_18","sde_19","sde_20","IM_1","IM_2","IM_3","IM_4","IM_5","IM_6","IM_7","IM_8","IM_9","IM_10","IM_11","IM_12","IM_13","IM_14","IM_15","IM_16","IM_17","IM_18","IM_19","IM_20","subj_idx","friend_name","ParticipantID","Sex","Word","Word2","value","success","timeout","failed_images","failed_audio","failed_video","user_agent","responses","item_order","radio_event_ids","radio_event_times","key_event_times","mouse_event_times","straightlining","zigzagging","honeypot","view_history","response_type","key_press","avg_frame_time","center_x","center_y","correct_response","correct","identity","Image","word","condition","task_id","screen_id","time_stamp","person","valence","domain","math","status","duration","question_order","trap2_item"
"3598","
   <p><div style='color:white; font-size: 25px'>您好，欢迎参加本次实验。</div></p>
   <p><div style='color:white; font-size: 25px'>为充分保障您的权利，请确保您已经知晓并同意《参与实验同意书》以及《数据公开知情同意书》。</div></p>
   <p><div style='color:white; font-size: 25px'>如果您未见过上述内容，请咨询实验员。</div></p>
   <p style='color:white; font-size: 25px'>如果您选择继续实验，则表示您已经清楚两份知情同意书的内容并同意。</p>
   <p><div style = ""color: pink;font-size:30px;"">请确保您记得day0的实验编号，您将在本次实验输入该编号，若您忘记，请咨询实验员后作答。</div></p>
   <p><div style = ""color:lightblue;font-size:25px;"">请您尽可能认真地作答，我们将依据您在各问卷和按键任务中的作答质量发放报酬。</div></p>
   <p> <div style = ""color: green""><按空格键至下页></div> </p>
   "," ","html-keyboard-response","0","3603","0.0-0.0","6","6","6","6","3","5","2","5","5","5","5","2","1","1","1","1","2","1","1","5","5","5","5","5","5","5","5","5","5","6","7","7","8","6","8","6","7","7","6","4","3","5","6","3","3","5","5","4","1","4","3","4","7","5","5","4","5","3","5","3","5","4","6","3","7","6","6","6","6","7","7","7","7","7","7","6","6","7","6","799649291374305282","刘","193","Female","[""好我"",""坏我"",""坏她"",""好她""]","[""强我"",""弱我"",""弱她"",""强她""]","","","","","","","","","","","","","","","","","","","","","","","","","","","","","","","","","","","","","","",""
"","","","call-function","1","3605","0.0-1.0-0.0","6","6","6","6","3","5","2","5","5","5","5","2","1","1","1","1","2","1","1","5","5","5","5","5","5","5","5","5","5","6","7","7","8","6","8","6","7","7","6","4","3","5","6","3","3","5","5","4","1","4","3","4","7","5","5","4","5","3","5","3","5","4","6","3","7","6","6","6","6","7","7","7","7","7","7","6","6","7","6","799649291374305282","刘","193","Female","[""好我"",""坏我"",""坏她"",""好她""]","[""强我"",""弱我"",""弱她"",""强她""]","","","","","","","","","","","","","","","","","","","","","","","","","","","","","","","","","","","","","","",""
"14549","","[{""name"":""Sex"",""value"":""1""},{""name"":""friend_name"",""value"":""刘""},{""name"":""ParticipantID"",""value"":""193""}]","survey-html-form","2","18154","0.0-1.0-1.0","6","6","6","6","3","5","2","5","5","5","5","2","1","1","1","1","2","1","1","5","5","5","5","5","5","5","5","5","5","6","7","7","8","6","8","6","7","7","6","4","3","5","6","3","3","5","5","4","1","4","3","4","7","5","5","4","5","3","5","3","5","4","6","3","7","6","6","6","6","7","7","7","7","7","7","6","6","7","6","799649291374305282","刘","193","Female","[""好我"",""坏我"",""坏她"",""好她""]","[""强我"",""弱我"",""弱她"",""强她""]","","","","","","","","","","","","","","","","","","","","","","","","","","","","","","","","","","","","","","",""
"","","","preload","3","18598","0.0-2.0","6","6","6","6","3","5","2","5","5","5","5","2","1","1","1","1","2","1","1","5","5","5","5","5","5","5","5","5","5","6","7","7","8","6","8","6","7","7","6","4","3","5","6","3","3","5","5","4","1","4","3","4","7","5","5","4","5","3","5","3","5","4","6","3","7","6","6","6","6","7","7","7","7","7","7","6","6","7","6","799649291374305282","刘","193","Female","[""好我"",""坏我"",""坏她"",""好她""]","[""强我"",""弱我"",""弱她"",""强她""]","","true","false","[]","[]","[]","","","","","","","","","","","","","","","","","","","","","","","","","","","","","","","","",""
"","","","fullscreen","4","20691","0.0-3.0","6","6","6","6","3","5","2","5","5","5","5","2","1","1","1","1","2","1","1","5","5","5","5","5","5","5","5","5","5","6","7","7","8","6","8","6","7","7","6","4","3","5","6","3","3","5","5","4","1","4","3","4","7","5","5","4","5","3","5","3","5","4","6","3","7","6","6","6","6","7","7","7","7","7","7","6","6","7","6","799649291374305282","刘","193","Female","[""好我"",""坏我"",""坏她"",""好她""]","[""强我"",""弱我"",""弱她"",""强她""]","","true","","","","","{}","","","","","","","","","","","","","","","","","","","","","","","","","","","","","","","",""
"18043.39999961853","","{""Q01"":""6"",""Q02"":""6"",""Q03"":""6"",""Q04"":""6"",""Q05"":""3""}","survey-template","5","38736","0.0-4.0","6","6","6","6","3","5","2","5","5","5","5","2","1","1","1","1","2","1","1","5","5","5","5","5","5","5","5","5","5","6","7","7","8","6","8","6","7","7","6","4","3","5","6","3","3","5","5","4","1","4","3","4","7","5","5","4","5","3","5","3","5","4","6","3","7","6","6","6","6","7","7","7","7","7","7","6","6","7","6","799649291374305282","刘","193","Female","[""好我"",""坏我"",""坏她"",""好她""]","[""强我"",""弱我"",""弱她"",""强她""]","","","","","","","","{""Q01"":""6"",""Q02"":""6"",""Q03"":""6"",""Q04"":""6"",""Q05"":""3""}","[0,1,2,3,4]","[""Q01"",""Q02"",""Q03"",""Q04"",""Q05""]","[2852.3999996185303,4160.299999713898,8220.799999713898,14352.599999904633,16473.599999904633]","[]","[2852.3999996185303,4160.299999713898,8220.799999713898,12539.599999904633,14352.599999904633,16473.599999904633,18040.599999904633]","0.8","0","0","","","","","","","","","","","","","","","","","","","","","","",""
"21397.699999809265","","{""Q01"":""5"",""Q02"":""2"",""Q03"":""5"",""Q04"":""5"",""Q05"":""5"",""Q06"":""5""}","survey-template","6","60137","0.0-5.0","6","6","6","6","3","5","2","5","5","5","5","2","1","1","1","1","2","1","1","5","5","5","5","5","5","5","5","5","5","6","7","7","8","6","8","6","7","7","6","4","3","5","6","3","3","5","5","4","1","4","3","4","7","5","5","4","5","3","5","3","5","4","6","3","7","6","6","6","6","7","7","7","7","7","7","6","6","7","6","799649291374305282","刘","193","Female","[""好我"",""坏我"",""坏她"",""好她""]","[""强我"",""弱我"",""弱她"",""强她""]","","","","","","","","{""Q01"":""5"",""Q02"":""2"",""Q03"":""5"",""Q04"":""5"",""Q05"":""5"",""Q06"":""5""}","[0,1,2,3,4,5]","[""Q01"",""Q02"",""Q03"",""Q04"",""Q05"",""Q06""]","[2529.0999999046326,7233.799999713898,12231.099999904633,13913.099999904633,16532.199999809265,20149]","[]","[2529.0999999046326,7233.799999713898,9503.5,11255.199999809265,12231.099999904633,13913.099999904633,16532.199999809265,20149,21396]","0.5","0.8","0","","","","","","","","","","","","","","","","","","","","","","",""
"21879.300000190735","","{""Q01"":""2"",""Q02"":""1"",""Q03"":""1"",""Q04"":""1"",""Q05"":""1"",""Q06"":""2"",""Q07"":""1"",""Q08"":""1""}","survey-template","7","82021","0.0-6.0","6","6","6","6","3","5","2","5","5","5","5","2","1","1","1","1","2","1","1","5","5","5","5","5","5","5","5","5","5","6","7","7","8","6","8","6","7","7","6","4","3","5","6","3","3","5","5","4","1","4","3","4","7","5","5","4","5","3","5","3","5","4","6","3","7","6","6","6","6","7","7","7","7","7","7","6","6","7","6","799649291374305282","刘","193","Female","[""好我"",""坏我"",""坏她"",""好她""]","[""强我"",""弱我"",""弱她"",""强她""]","","","","","","","","{""Q01"":""2"",""Q02"":""1"",""Q03"":""1"",""Q04"":""1"",""Q05"":""1"",""Q06"":""2"",""Q07"":""1"",""Q08"":""1""}","[0,1,2,3,4,5,6,7]","[""Q01"",""Q02"",""Q03"",""Q04"",""Q05"",""Q06"",""Q06"",""Q07"",""Q08""]","[2797.2000002861023,5245.099999904633,7186,8702.099999904633,11607.099999904633,12762.5,16496,19264.5,20855.300000190735]","[]","[2797.2000002861023,5245.099999904633,7186,8702.099999904633,11607.099999904633,12762.5,13984.300000190735,15707.900000095367,16496,19264.5,20855.300000190735,21876.800000190735]","0.75","0.42857142857142855","0","","","","","","","","","","","","","","","","","","","","","","",""
"25083","","","instructions","8","107106","0.0-7.0","6","6","6","6","3","5","2","5","5","5","5","2","1","1","1","1","2","1","1","5","5","5","5","5","5","5","5","5","5","6","7","7","8","6","8","6","7","7","6","4","3","5","6","3","3","5","5","4","1","4","3","4","7","5","5","4","5","3","5","3","5","4","6","3","7","6","6","6","6","7","7","7","7","7","7","6","6","7","6","799649291374305282","刘","193","Female","[""好我"",""坏我"",""坏她"",""好她""]","[""强我"",""弱我"",""弱她"",""强她""]","","","","","","","","","","","","","","","","","[{""page_index"":0,""viewing_time"":25083}]","","","","","","","","","","","","","","","","","","","","","",""
"75651","","","instructions","9","182758","0.0-8.0-0.0-0.0","6","6","6","6","3","5","2","5","5","5","5","2","1","1","1","1","2","1","1","5","5","5","5","5","5","5","5","5","5","6","7","7","8","6","8","6","7","7","6","4","3","5","6","3","3","5","5","4","1","4","3","4","7","5","5","4","5","3","5","3","5","4","6","3","7","6","6","6","6","7","7","7","7","7","7","6","6","7","6","799649291374305282","刘","193","Female","[""好我"",""坏我"",""坏她"",""好她""]","[""强我"",""弱我"",""弱她"",""强她""]","","","","","","","","","","","","","","","","","[{""page_index"":0,""viewing_time"":12946},{""page_index"":1,""viewing_time"":48507},{""page_index"":2,""viewing_time"":12265},{""page_index"":3,""viewing_time"":1932}]","","","","","","","","","","","","","","","","","","","","","",""
"1076","","f","psychophysics","10","184840","0.0-8.0-0.0-1.0-0.0-0.0","6","6","6","6","3","5","2","5","5","5","5","2","1","1","1","1","2","1","1","5","5","5","5","5","5","5","5","5","5","6","7","7","8","6","8","6","7","7","6","4","3","5","6","3","3","5","5","4","1","4","3","4","7","5","5","4","5","3","5","3","5","4","6","3","7","6","6","6","6","7","7","7","7","7","7","6","6","7","6","799649291374305282","刘","193","Female","[""好我"",""坏我"",""坏她"",""好她""]","[""强我"",""弱我"",""弱她"",""强她""]","","","","","","","","nonmatch","","","","","","","","","","key","f","16.667479674796795","720.2857142857143","476.2857142857143","f","true","nonmatch","img/triangle.png","好她","好我","prac_ALT2_moral","practice_moral","","","","","","","","",""
"null","<span style='color:GreenYellow; font-size: 70px;'>正确! </span>","null","html-keyboard-response","11","185341","0.0-8.0-0.0-1.0-0.0-1.0","6","6","6","6","3","5","2","5","5","5","5","2","1","1","1","1","2","1","1","5","5","5","5","5","5","5","5","5","5","6","7","7","8","6","8","6","7","7","6","4","3","5","6","3","3","5","5","4","1","4","3","4","7","5","5","4","5","3","5","3","5","4","6","3","7","6","6","6","6","7","7","7","7","7","7","6","6","7","6","799649291374305282","刘","193","Female","[""好我"",""坏我"",""坏她"",""好她""]","[""强我"",""弱我"",""弱她"",""强她""]","","","","","","","","","","","","","","","","","","","","","","","","","","","","","","feedback_test","","","","","","","","",""
"1116","","f","psychophysics","12","187460","0.0-8.0-0.0-1.0-0.0-0.1","6","6","6","6","3","5","2","5","5","5","5","2","1","1","1","1","2","1","1","5","5","5","5","5","5","5","5","5","5","6","7","7","8","6","8","6","7","7","6","4","3","5","6","3","3","5","5","4","1","4","3","4","7","5","5","4","5","3","5","3","5","4","6","3","7","6","6","6","6","7","7","7","7","7","7","6","6","7","6","799649291374305282","刘","193","Female","[""好我"",""坏我"",""坏她"",""好她""]","[""强我"",""弱我"",""弱她"",""强她""]","","","","","","","","nonmatch","","","","","","","","","","key","f","16.716666666666573","720.2857142857143","476.2857142857143","f","true","nonmatch","img/circle.png","好我","好她","prac_ALT2_moral","practice_moral","","","","","","","","",""
"null","<span style='color:GreenYellow; font-size: 70px;'>正确! </span>","null","html-keyboard-response","13","187963","0.0-8.0-0.0-1.0-0.0-1.1","6","6","6","6","3","5","2","5","5","5","5","2","1","1","1","1","2","1","1","5","5","5","5","5","5","5","5","5","5","6","7","7","8","6","8","6","7","7","6","4","3","5","6","3","3","5","5","4","1","4","3","4","7","5","5","4","5","3","5","3","5","4","6","3","7","6","6","6","6","7","7","7","7","7","7","6","6","7","6","799649291374305282","刘","193","Female","[""好我"",""坏我"",""坏她"",""好她""]","[""强我"",""弱我"",""弱她"",""强她""]","","","","","","","","","","","","","","","","","","","","","","","","","","","","","","feedback_test","","","","","","","","",""
"null","","null","psychophysics","14","190179","0.0-8.0-0.0-1.0-0.0-0.2","6","6","6","6","3","5","2","5","5","5","5","2","1","1","1","1","2","1","1","5","5","5","5","5","5","5","5","5","5","6","7","7","8","6","8","6","7","7","6","4","3","5","6","3","3","5","5","4","1","4","3","4","7","5","5","4","5","3","5","3","5","4","6","3","7","6","6","6","6","7","7","7","7","7","7","6","6","7","6","799649291374305282","刘","193","Female","[""好我"",""坏我"",""坏她"",""好她""]","[""强我"",""弱我"",""弱她"",""强她""]","","","","","","","","null","","","","","","","","","","key","null","16.66717557251904","720.2857142857143","476.2857142857143","f","false","nonmatch","img/diamond.png","好她","坏她","prac_ALT2_moral","practice_moral","","","","","","","","",""
"null","<span class='add_' style='color:yellow; font-size: 70px;'> 太慢! </span>","null","html-keyboard-response","15","190681","0.0-8.0-0.0-1.0-0.0-1.2","6","6","6","6","3","5","2","5","5","5","5","2","1","1","1","1","2","1","1","5","5","5","5","5","5","5","5","5","5","6","7","7","8","6","8","6","7","7","6","4","3","5","6","3","3","5","5","4","1","4","3","4","7","5","5","4","5","3","5","3","5","4","6","3","7","6","6","6","6","7","7","7","7","7","7","6","6","7","6","799649291374305282","刘","193","Female","[""好我"",""坏我"",""坏她"",""好她""]","[""强我"",""弱我"",""弱她"",""强她""]","","","","","","","","","","","","","","","","","","","","","","","","","","","","","","feedback_test","","","","","","","","",""
"1096","","f","psychophysics","16","192779","0.0-8.0-0.0-1.0-0.0-0.3","6","6","6","6","3","5","2","5","5","5","5","2","1","1","1","1","2","1","1","5","5","5","5","5","5","5","5","5","5","6","7","7","8","6","8","6","7","7","6","4","3","5","6","3","3","5","5","4","1","4","3","4","7","5","5","4","5","3","5","3","5","4","6","3","7","6","6","6","6","7","7","7","7","7","7","6","6","7","6","799649291374305282","刘","193","Female","[""好我"",""坏我"",""坏她"",""好她""]","[""强我"",""弱我"",""弱她"",""强她""]","","","","","","","","nonmatch","","","","","","","","","","key","f","16.667199999999955","720.2857142857143","476.2857142857143","f","true","nonmatch","img/circle.png","坏她","好她","prac_ALT2_moral","practice_moral","","","","","","","","",""
"null","<span style='color:GreenYellow; font-size: 70px;'>正确! </span>","null","html-keyboard-response","17","193290","0.0-8.0-0.0-1.0-0.0-1.3","6","6","6","6","3","5","2","5","5","5","5","2","1","1","1","1","2","1","1","5","5","5","5","5","5","5","5","5","5","6","7","7","8","6","8","6","7","7","6","4","3","5","6","3","3","5","5","4","1","4","3","4","7","5","5","4","5","3","5","3","5","4","6","3","7","6","6","6","6","7","7","7","7","7","7","6","6","7","6","799649291374305282","刘","193","Female","[""好我"",""坏我"",""坏她"",""好她""]","[""强我"",""弱我"",""弱她"",""强她""]","","","","","","","","","","","","","","","","","","","","","","","","","","","","","","feedback_test","","","","","","","","",""
"1113","","j","psychophysics","18","195406","0.0-8.0-0.0-1.0-0.0-0.4","6","6","6","6","3","5","2","5","5","5","5","2","1","1","1","1","2","1","1","5","5","5","5","5","5","5","5","5","5","6","7","7","8","6","8","6","7","7","6","4","3","5","6","3","3","5","5","4","1","4","3","4","7","5","5","4","5","3","5","3","5","4","6","3","7","6","6","6","6","7","7","7","7","7","7","6","6","7","6","799649291374305282","刘","193","Female","[""好我"",""坏我"",""坏她"",""好她""]","[""强我"",""弱我"",""弱她"",""强她""]","","","","","","","","match","","","","","","","","","","key","j","16.66240000000014","720.2857142857143","476.2857142857143","j","true","match","img/pentagon.png","坏我","坏我","prac_ALT2_moral","practice_moral","","","","","","","","",""
"null","<span style='color:GreenYellow; font-size: 70px;'>正确! </span>","null","html-keyboard-response","19","195908","0.0-8.0-0.0-1.0-0.0-1.4","6","6","6","6","3","5","2","5","5","5","5","2","1","1","1","1","2","1","1","5","5","5","5","5","5","5","5","5","5","6","7","7","8","6","8","6","7","7","6","4","3","5","6","3","3","5","5","4","1","4","3","4","7","5","5","4","5","3","5","3","5","4","6","3","7","6","6","6","6","7","7","7","7","7","7","6","6","7","6","799649291374305282","刘","193","Female","[""好我"",""坏我"",""坏她"",""好她""]","[""强我"",""弱我"",""弱她"",""强她""]","","","","","","","","","","","","","","","","","","","","","","","","","","","","","","feedback_test","","","","","","","","",""
"929","","f","psychophysics","20","197839","0.0-8.0-0.0-1.0-0.0-0.5","6","6","6","6","3","5","2","5","5","5","5","2","1","1","1","1","2","1","1","5","5","5","5","5","5","5","5","5","5","6","7","7","8","6","8","6","7","7","6","4","3","5","6","3","3","5","5","4","1","4","3","4","7","5","5","4","5","3","5","3","5","4","6","3","7","6","6","6","6","7","7","7","7","7","7","6","6","7","6","799649291374305282","刘","193","Female","[""好我"",""坏我"",""坏她"",""好她""]","[""强我"",""弱我"",""弱她"",""强她""]","","","","","","","","nonmatch","","","","","","","","","","key","f","16.70608695652184","720.2857142857143","476.2857142857143","f","true","nonmatch","img/triangle.png","坏她","好我","prac_ALT2_moral","practice_moral","","","","","","","","",""
"null","<span style='color:GreenYellow; font-size: 70px;'>正确! </span>","null","html-keyboard-response","21","198340","0.0-8.0-0.0-1.0-0.0-1.5","6","6","6","6","3","5","2","5","5","5","5","2","1","1","1","1","2","1","1","5","5","5","5","5","5","5","5","5","5","6","7","7","8","6","8","6","7","7","6","4","3","5","6","3","3","5","5","4","1","4","3","4","7","5","5","4","5","3","5","3","5","4","6","3","7","6","6","6","6","7","7","7","7","7","7","6","6","7","6","799649291374305282","刘","193","Female","[""好我"",""坏我"",""坏她"",""好她""]","[""强我"",""弱我"",""弱她"",""强她""]","","","","","","","","","","","","","","","","","","","","","","","","","","","","","","feedback_test","","","","","","","","",""
"1023","","j","psychophysics","22","200365","0.0-8.0-0.0-1.0-0.0-0.6","6","6","6","6","3","5","2","5","5","5","5","2","1","1","1","1","2","1","1","5","5","5","5","5","5","5","5","5","5","6","7","7","8","6","8","6","7","7","6","4","3","5","6","3","3","5","5","4","1","4","3","4","7","5","5","4","5","3","5","3","5","4","6","3","7","6","6","6","6","7","7","7","7","7","7","6","6","7","6","799649291374305282","刘","193","Female","[""好我"",""坏我"",""坏她"",""好她""]","[""强我"",""弱我"",""弱她"",""强她""]","","","","","","","","match","","","","","","","","","","key","j","16.664999999999903","720.2857142857143","476.2857142857143","j","true","match","img/triangle.png","好我","好我","prac_ALT2_moral","practice_moral","","","","","","","","",""
"null","<span style='color:GreenYellow; font-size: 70px;'>正确! </span>","null","html-keyboard-response","23","200867","0.0-8.0-0.0-1.0-0.0-1.6","6","6","6","6","3","5","2","5","5","5","5","2","1","1","1","1","2","1","1","5","5","5","5","5","5","5","5","5","5","6","7","7","8","6","8","6","7","7","6","4","3","5","6","3","3","5","5","4","1","4","3","4","7","5","5","4","5","3","5","3","5","4","6","3","7","6","6","6","6","7","7","7","7","7","7","6","6","7","6","799649291374305282","刘","193","Female","[""好我"",""坏我"",""坏她"",""好她""]","[""强我"",""弱我"",""弱她"",""强她""]","","","","","","","","","","","","","","","","","","","","","","","","","","","","","","feedback_test","","","","","","","","",""
"1072","","f","psychophysics","24","202942","0.0-8.0-0.0-1.0-0.0-0.7","6","6","6","6","3","5","2","5","5","5","5","2","1","1","1","1","2","1","1","5","5","5","5","5","5","5","5","5","5","6","7","7","8","6","8","6","7","7","6","4","3","5","6","3","3","5","5","4","1","4","3","4","7","5","5","4","5","3","5","3","5","4","6","3","7","6","6","6","6","7","7","7","7","7","7","6","6","7","6","799649291374305282","刘","193","Female","[""好我"",""坏我"",""坏她"",""好她""]","[""强我"",""弱我"",""弱她"",""强她""]","","","","","","","","nonmatch","","","","","","","","","","key","f","16.665853658536776","720.2857142857143","476.2857142857143","f","true","nonmatch","img/diamond.png","坏我","坏她","prac_ALT2_moral","practice_moral","","","","","","","","",""
"null","<span style='color:GreenYellow; font-size: 70px;'>正确! </span>","null","html-keyboard-response","25","203443","0.0-8.0-0.0-1.0-0.0-1.7","6","6","6","6","3","5","2","5","5","5","5","2","1","1","1","1","2","1","1","5","5","5","5","5","5","5","5","5","5","6","7","7","8","6","8","6","7","7","6","4","3","5","6","3","3","5","5","4","1","4","3","4","7","5","5","4","5","3","5","3","5","4","6","3","7","6","6","6","6","7","7","7","7","7","7","6","6","7","6","799649291374305282","刘","193","Female","[""好我"",""坏我"",""坏她"",""好她""]","[""强我"",""弱我"",""弱她"",""强她""]","","","","","","","","","","","","","","","","","","","","","","","","","","","","","","feedback_test","","","","","","","","",""
"973","","j","psychophysics","26","205419","0.0-8.0-0.0-1.0-0.0-0.8","6","6","6","6","3","5","2","5","5","5","5","2","1","1","1","1","2","1","1","5","5","5","5","5","5","5","5","5","5","6","7","7","8","6","8","6","7","7","6","4","3","5","6","3","3","5","5","4","1","4","3","4","7","5","5","4","5","3","5","3","5","4","6","3","7","6","6","6","6","7","7","7","7","7","7","6","6","7","6","799649291374305282","刘","193","Female","[""好我"",""坏我"",""坏她"",""好她""]","[""强我"",""弱我"",""弱她"",""强她""]","","","","","","","","match","","","","","","","","","","key","j","16.666666666666668","720.2857142857143","476.2857142857143","j","true","match","img/diamond.png","坏她","坏她","prac_ALT2_moral","practice_moral","","","","","","","","",""
"null","<span style='color:GreenYellow; font-size: 70px;'>正确! </span>","null","html-keyboard-response","27","205920","0.0-8.0-0.0-1.0-0.0-1.8","6","6","6","6","3","5","2","5","5","5","5","2","1","1","1","1","2","1","1","5","5","5","5","5","5","5","5","5","5","6","7","7","8","6","8","6","7","7","6","4","3","5","6","3","3","5","5","4","1","4","3","4","7","5","5","4","5","3","5","3","5","4","6","3","7","6","6","6","6","7","7","7","7","7","7","6","6","7","6","799649291374305282","刘","193","Female","[""好我"",""坏我"",""坏她"",""好她""]","[""强我"",""弱我"",""弱她"",""强她""]","","","","","","","","","","","","","","","","","","","","","","","","","","","","","","feedback_test","","","","","","","","",""
"1113","","j","psychophysics","28","208035","0.0-8.0-0.0-1.0-0.0-0.9","6","6","6","6","3","5","2","5","5","5","5","2","1","1","1","1","2","1","1","5","5","5","5","5","5","5","5","5","5","6","7","7","8","6","8","6","7","7","6","4","3","5","6","3","3","5","5","4","1","4","3","4","7","5","5","4","5","3","5","3","5","4","6","3","7","6","6","6","6","7","7","7","7","7","7","6","6","7","6","799649291374305282","刘","193","Female","[""好我"",""坏我"",""坏她"",""好她""]","[""强我"",""弱我"",""弱她"",""强她""]","","","","","","","","match","","","","","","","","","","key","j","16.667199999999955","720.2857142857143","476.2857142857143","f","false","nonmatch","img/circle.png","坏我","好她","prac_ALT2_moral","practice_moral","","","","","","","","",""
"null","<span style='color:red; font-size: 70px;'>错误! </span>","null","html-keyboard-response","29","208536","0.0-8.0-0.0-1.0-0.0-1.9","6","6","6","6","3","5","2","5","5","5","5","2","1","1","1","1","2","1","1","5","5","5","5","5","5","5","5","5","5","6","7","7","8","6","8","6","7","7","6","4","3","5","6","3","3","5","5","4","1","4","3","4","7","5","5","4","5","3","5","3","5","4","6","3","7","6","6","6","6","7","7","7","7","7","7","6","6","7","6","799649291374305282","刘","193","Female","[""好我"",""坏我"",""坏她"",""好她""]","[""强我"",""弱我"",""弱她"",""强她""]","","","","","","","","","","","","","","","","","","","","","","","","","","","","","","feedback_test","","","","","","","","",""
"1125","","j","psychophysics","30","210665","0.0-8.0-0.0-1.0-0.0-0.10","6","6","6","6","3","5","2","5","5","5","5","2","1","1","1","1","2","1","1","5","5","5","5","5","5","5","5","5","5","6","7","7","8","6","8","6","7","7","6","4","3","5","6","3","3","5","5","4","1","4","3","4","7","5","5","4","5","3","5","3","5","4","6","3","7","6","6","6","6","7","7","7","7","7","7","6","6","7","6","799649291374305282","刘","193","Female","[""好我"",""坏我"",""坏她"",""好她""]","[""强我"",""弱我"",""弱她"",""强她""]","","","","","","","","match","","","","","","","","","","key","j","16.669047619047756","720.2857142857143","476.2857142857143","j","true","match","img/triangle.png","好我","好我","prac_ALT2_moral","practice_moral","","","","","","","","",""
"null","<span style='color:GreenYellow; font-size: 70px;'>正确! </span>","null","html-keyboard-response","31","211166","0.0-8.0-0.0-1.0-0.0-1.10","6","6","6","6","3","5","2","5","5","5","5","2","1","1","1","1","2","1","1","5","5","5","5","5","5","5","5","5","5","6","7","7","8","6","8","6","7","7","6","4","3","5","6","3","3","5","5","4","1","4","3","4","7","5","5","4","5","3","5","3","5","4","6","3","7","6","6","6","6","7","7","7","7","7","7","6","6","7","6","799649291374305282","刘","193","Female","[""好我"",""坏我"",""坏她"",""好她""]","[""强我"",""弱我"",""弱她"",""强她""]","","","","","","","","","","","","","","","","","","","","","","","","","","","","","","feedback_test","","","","","","","","",""
"null","","null","psychophysics","32","213380","0.0-8.0-0.0-1.0-0.0-0.11","6","6","6","6","3","5","2","5","5","5","5","2","1","1","1","1","2","1","1","5","5","5","5","5","5","5","5","5","5","6","7","7","8","6","8","6","7","7","6","4","3","5","6","3","3","5","5","4","1","4","3","4","7","5","5","4","5","3","5","3","5","4","6","3","7","6","6","6","6","7","7","7","7","7","7","6","6","7","6","799649291374305282","刘","193","Female","[""好我"",""坏我"",""坏她"",""好她""]","[""强我"",""弱我"",""弱她"",""强她""]","","","","","","","","null","","","","","","","","","","key","null","16.66060606060593","720.2857142857143","476.2857142857143","f","false","nonmatch","img/diamond.png","好我","坏她","prac_ALT2_moral","practice_moral","","","","","","","","",""
"null","<span class='add_' style='color:yellow; font-size: 70px;'> 太慢! </span>","null","html-keyboard-response","33","213882","0.0-8.0-0.0-1.0-0.0-1.11","6","6","6","6","3","5","2","5","5","5","5","2","1","1","1","1","2","1","1","5","5","5","5","5","5","5","5","5","5","6","7","7","8","6","8","6","7","7","6","4","3","5","6","3","3","5","5","4","1","4","3","4","7","5","5","4","5","3","5","3","5","4","6","3","7","6","6","6","6","7","7","7","7","7","7","6","6","7","6","799649291374305282","刘","193","Female","[""好我"",""坏我"",""坏她"",""好她""]","[""强我"",""弱我"",""弱她"",""强她""]","","","","","","","","","","","","","","","","","","","","","","","","","","","","","","feedback_test","","","","","","","","",""
"939","","f","psychophysics","34","215825","0.0-8.0-0.0-1.0-0.0-0.12","6","6","6","6","3","5","2","5","5","5","5","2","1","1","1","1","2","1","1","5","5","5","5","5","5","5","5","5","5","6","7","7","8","6","8","6","7","7","6","4","3","5","6","3","3","5","5","4","1","4","3","4","7","5","5","4","5","3","5","3","5","4","6","3","7","6","6","6","6","7","7","7","7","7","7","6","6","7","6","799649291374305282","刘","193","Female","[""好我"",""坏我"",""坏她"",""好她""]","[""强我"",""弱我"",""弱她"",""强她""]","","","","","","","","nonmatch","","","","","","","","","","key","f","16.66782608695642","720.2857142857143","476.2857142857143","f","true","nonmatch","img/pentagon.png","好我","坏我","prac_ALT2_moral","practice_moral","","","","","","","","",""
"null","<span style='color:GreenYellow; font-size: 70px;'>正确! </span>","null","html-keyboard-response","35","216326","0.0-8.0-0.0-1.0-0.0-1.12","6","6","6","6","3","5","2","5","5","5","5","2","1","1","1","1","2","1","1","5","5","5","5","5","5","5","5","5","5","6","7","7","8","6","8","6","7","7","6","4","3","5","6","3","3","5","5","4","1","4","3","4","7","5","5","4","5","3","5","3","5","4","6","3","7","6","6","6","6","7","7","7","7","7","7","6","6","7","6","799649291374305282","刘","193","Female","[""好我"",""坏我"",""坏她"",""好她""]","[""强我"",""弱我"",""弱她"",""强她""]","","","","","","","","","","","","","","","","","","","","","","","","","","","","","","feedback_test","","","","","","","","",""
"792","","j","psychophysics","36","218121","0.0-8.0-0.0-1.0-0.0-0.13","6","6","6","6","3","5","2","5","5","5","5","2","1","1","1","1","2","1","1","5","5","5","5","5","5","5","5","5","5","6","7","7","8","6","8","6","7","7","6","4","3","5","6","3","3","5","5","4","1","4","3","4","7","5","5","4","5","3","5","3","5","4","6","3","7","6","6","6","6","7","7","7","7","7","7","6","6","7","6","799649291374305282","刘","193","Female","[""好我"",""坏我"",""坏她"",""好她""]","[""强我"",""弱我"",""弱她"",""强她""]","","","","","","","","match","","","","","","","","","","key","j","16.66698113207558","720.2857142857143","476.2857142857143","j","true","match","img/triangle.png","好我","好我","prac_ALT2_moral","practice_moral","","","","","","","","",""
"null","<span style='color:GreenYellow; font-size: 70px;'>正确! </span>","null","html-keyboard-response","37","218623","0.0-8.0-0.0-1.0-0.0-1.13","6","6","6","6","3","5","2","5","5","5","5","2","1","1","1","1","2","1","1","5","5","5","5","5","5","5","5","5","5","6","7","7","8","6","8","6","7","7","6","4","3","5","6","3","3","5","5","4","1","4","3","4","7","5","5","4","5","3","5","3","5","4","6","3","7","6","6","6","6","7","7","7","7","7","7","6","6","7","6","799649291374305282","刘","193","Female","[""好我"",""坏我"",""坏她"",""好她""]","[""强我"",""弱我"",""弱她"",""强她""]","","","","","","","","","","","","","","","","","","","","","","","","","","","","","","feedback_test","","","","","","","","",""
"916","","j","psychophysics","38","220540","0.0-8.0-0.0-1.0-0.0-0.14","6","6","6","6","3","5","2","5","5","5","5","2","1","1","1","1","2","1","1","5","5","5","5","5","5","5","5","5","5","6","7","7","8","6","8","6","7","7","6","4","3","5","6","3","3","5","5","4","1","4","3","4","7","5","5","4","5","3","5","3","5","4","6","3","7","6","6","6","6","7","7","7","7","7","7","6","6","7","6","799649291374305282","刘","193","Female","[""好我"",""坏我"",""坏她"",""好她""]","[""强我"",""弱我"",""弱她"",""强她""]","","","","","","","","match","","","","","","","","","","key","j","16.668141592920353","720.2857142857143","476.2857142857143","j","true","match","img/circle.png","好她","好她","prac_ALT2_moral","practice_moral","","","","","","","","",""
"null","<span style='color:GreenYellow; font-size: 70px;'>正确! </span>","null","html-keyboard-response","39","221042","0.0-8.0-0.0-1.0-0.0-1.14","6","6","6","6","3","5","2","5","5","5","5","2","1","1","1","1","2","1","1","5","5","5","5","5","5","5","5","5","5","6","7","7","8","6","8","6","7","7","6","4","3","5","6","3","3","5","5","4","1","4","3","4","7","5","5","4","5","3","5","3","5","4","6","3","7","6","6","6","6","7","7","7","7","7","7","6","6","7","6","799649291374305282","刘","193","Female","[""好我"",""坏我"",""坏她"",""好她""]","[""强我"",""弱我"",""弱她"",""强她""]","","","","","","","","","","","","","","","","","","","","","","","","","","","","","","feedback_test","","","","","","","","",""
"760","","j","psychophysics","40","222804","0.0-8.0-0.0-1.0-0.0-0.15","6","6","6","6","3","5","2","5","5","5","5","2","1","1","1","1","2","1","1","5","5","5","5","5","5","5","5","5","5","6","7","7","8","6","8","6","7","7","6","4","3","5","6","3","3","5","5","4","1","4","3","4","7","5","5","4","5","3","5","3","5","4","6","3","7","6","6","6","6","7","7","7","7","7","7","6","6","7","6","799649291374305282","刘","193","Female","[""好我"",""坏我"",""坏她"",""好她""]","[""强我"",""弱我"",""弱她"",""强她""]","","","","","","","","match","","","","","","","","","","key","j","16.667307692307638","720.2857142857143","476.2857142857143","j","true","match","img/circle.png","好她","好她","prac_ALT2_moral","practice_moral","","","","","","","","",""
"null","<span style='color:GreenYellow; font-size: 70px;'>正确! </span>","null","html-keyboard-response","41","223307","0.0-8.0-0.0-1.0-0.0-1.15","6","6","6","6","3","5","2","5","5","5","5","2","1","1","1","1","2","1","1","5","5","5","5","5","5","5","5","5","5","6","7","7","8","6","8","6","7","7","6","4","3","5","6","3","3","5","5","4","1","4","3","4","7","5","5","4","5","3","5","3","5","4","6","3","7","6","6","6","6","7","7","7","7","7","7","6","6","7","6","799649291374305282","刘","193","Female","[""好我"",""坏我"",""坏她"",""好她""]","[""强我"",""弱我"",""弱她"",""强她""]","","","","","","","","","","","","","","","","","","","","","","","","","","","","","","feedback_test","","","","","","","","",""
"1060","","j","psychophysics","42","225371","0.0-8.0-0.0-1.0-0.0-0.16","6","6","6","6","3","5","2","5","5","5","5","2","1","1","1","1","2","1","1","5","5","5","5","5","5","5","5","5","5","6","7","7","8","6","8","6","7","7","6","4","3","5","6","3","3","5","5","4","1","4","3","4","7","5","5","4","5","3","5","3","5","4","6","3","7","6","6","6","6","7","7","7","7","7","7","6","6","7","6","799649291374305282","刘","193","Female","[""好我"",""坏我"",""坏她"",""好她""]","[""强我"",""弱我"",""弱她"",""强她""]","","","","","","","","match","","","","","","","","","","key","j","16.666393442623093","720.2857142857143","476.2857142857143","j","true","match","img/pentagon.png","坏我","坏我","prac_ALT2_moral","practice_moral","","","","","","","","",""
"null","<span style='color:GreenYellow; font-size: 70px;'>正确! </span>","null","html-keyboard-response","43","225874","0.0-8.0-0.0-1.0-0.0-1.16","6","6","6","6","3","5","2","5","5","5","5","2","1","1","1","1","2","1","1","5","5","5","5","5","5","5","5","5","5","6","7","7","8","6","8","6","7","7","6","4","3","5","6","3","3","5","5","4","1","4","3","4","7","5","5","4","5","3","5","3","5","4","6","3","7","6","6","6","6","7","7","7","7","7","7","6","6","7","6","799649291374305282","刘","193","Female","[""好我"",""坏我"",""坏她"",""好她""]","[""强我"",""弱我"",""弱她"",""强她""]","","","","","","","","","","","","","","","","","","","","","","","","","","","","","","feedback_test","","","","","","","","",""
"631","","j","psychophysics","44","227507","0.0-8.0-0.0-1.0-0.0-0.17","6","6","6","6","3","5","2","5","5","5","5","2","1","1","1","1","2","1","1","5","5","5","5","5","5","5","5","5","5","6","7","7","8","6","8","6","7","7","6","4","3","5","6","3","3","5","5","4","1","4","3","4","7","5","5","4","5","3","5","3","5","4","6","3","7","6","6","6","6","7","7","7","7","7","7","6","6","7","6","799649291374305282","刘","193","Female","[""好我"",""坏我"",""坏她"",""好她""]","[""强我"",""弱我"",""弱她"",""强她""]","","","","","","","","match","","","","","","","","","","key","j","16.666666666666668","720.2857142857143","476.2857142857143","j","true","match","img/diamond.png","坏她","坏她","prac_ALT2_moral","practice_moral","","","","","","","","",""
"null","<span style='color:GreenYellow; font-size: 70px;'>正确! </span>","null","html-keyboard-response","45","228009","0.0-8.0-0.0-1.0-0.0-1.17","6","6","6","6","3","5","2","5","5","5","5","2","1","1","1","1","2","1","1","5","5","5","5","5","5","5","5","5","5","6","7","7","8","6","8","6","7","7","6","4","3","5","6","3","3","5","5","4","1","4","3","4","7","5","5","4","5","3","5","3","5","4","6","3","7","6","6","6","6","7","7","7","7","7","7","6","6","7","6","799649291374305282","刘","193","Female","[""好我"",""坏我"",""坏她"",""好她""]","[""强我"",""弱我"",""弱她"",""强她""]","","","","","","","","","","","","","","","","","","","","","","","","","","","","","","feedback_test","","","","","","","","",""
"925","","f","psychophysics","46","229936","0.0-8.0-0.0-1.0-0.0-0.18","6","6","6","6","3","5","2","5","5","5","5","2","1","1","1","1","2","1","1","5","5","5","5","5","5","5","5","5","5","6","7","7","8","6","8","6","7","7","6","4","3","5","6","3","3","5","5","4","1","4","3","4","7","5","5","4","5","3","5","3","5","4","6","3","7","6","6","6","6","7","7","7","7","7","7","6","6","7","6","799649291374305282","刘","193","Female","[""好我"",""坏我"",""坏她"",""好她""]","[""强我"",""弱我"",""弱她"",""强她""]","","","","","","","","nonmatch","","","","","","","","","","key","f","16.666666666666668","720.2857142857143","476.2857142857143","f","true","nonmatch","img/pentagon.png","好她","坏我","prac_ALT2_moral","practice_moral","","","","","","","","",""
"null","<span style='color:GreenYellow; font-size: 70px;'>正确! </span>","null","html-keyboard-response","47","230437","0.0-8.0-0.0-1.0-0.0-1.18","6","6","6","6","3","5","2","5","5","5","5","2","1","1","1","1","2","1","1","5","5","5","5","5","5","5","5","5","5","6","7","7","8","6","8","6","7","7","6","4","3","5","6","3","3","5","5","4","1","4","3","4","7","5","5","4","5","3","5","3","5","4","6","3","7","6","6","6","6","7","7","7","7","7","7","6","6","7","6","799649291374305282","刘","193","Female","[""好我"",""坏我"",""坏她"",""好她""]","[""强我"",""弱我"",""弱她"",""强她""]","","","","","","","","","","","","","","","","","","","","","","","","","","","","","","feedback_test","","","","","","","","",""
"866","","j","psychophysics","48","232305","0.0-8.0-0.0-1.0-0.0-0.19","6","6","6","6","3","5","2","5","5","5","5","2","1","1","1","1","2","1","1","5","5","5","5","5","5","5","5","5","5","6","7","7","8","6","8","6","7","7","6","4","3","5","6","3","3","5","5","4","1","4","3","4","7","5","5","4","5","3","5","3","5","4","6","3","7","6","6","6","6","7","7","7","7","7","7","6","6","7","6","799649291374305282","刘","193","Female","[""好我"",""坏我"",""坏她"",""好她""]","[""强我"",""弱我"",""弱她"",""强她""]","","","","","","","","match","","","","","","","","","","key","j","16.66545454545465","720.2857142857143","476.2857142857143","f","false","nonmatch","img/triangle.png","坏我","好我","prac_ALT2_moral","practice_moral","","","","","","","","",""
"null","<span style='color:red; font-size: 70px;'>错误! </span>","null","html-keyboard-response","49","232807","0.0-8.0-0.0-1.0-0.0-1.19","6","6","6","6","3","5","2","5","5","5","5","2","1","1","1","1","2","1","1","5","5","5","5","5","5","5","5","5","5","6","7","7","8","6","8","6","7","7","6","4","3","5","6","3","3","5","5","4","1","4","3","4","7","5","5","4","5","3","5","3","5","4","6","3","7","6","6","6","6","7","7","7","7","7","7","6","6","7","6","799649291374305282","刘","193","Female","[""好我"",""坏我"",""坏她"",""好她""]","[""强我"",""弱我"",""弱她"",""强她""]","","","","","","","","","","","","","","","","","","","","","","","","","","","","","","feedback_test","","","","","","","","",""
"858","","j","psychophysics","50","234667","0.0-8.0-0.0-1.0-0.0-0.20","6","6","6","6","3","5","2","5","5","5","5","2","1","1","1","1","2","1","1","5","5","5","5","5","5","5","5","5","5","6","7","7","8","6","8","6","7","7","6","4","3","5","6","3","3","5","5","4","1","4","3","4","7","5","5","4","5","3","5","3","5","4","6","3","7","6","6","6","6","7","7","7","7","7","7","6","6","7","6","799649291374305282","刘","193","Female","[""好我"",""坏我"",""坏她"",""好她""]","[""强我"",""弱我"",""弱她"",""强她""]","","","","","","","","match","","","","","","","","","","key","j","16.66636363636353","720.2857142857143","476.2857142857143","j","true","match","img/circle.png","好她","好她","prac_ALT2_moral","practice_moral","","","","","","","","",""
"null","<span style='color:GreenYellow; font-size: 70px;'>正确! </span>","null","html-keyboard-response","51","235169","0.0-8.0-0.0-1.0-0.0-1.20","6","6","6","6","3","5","2","5","5","5","5","2","1","1","1","1","2","1","1","5","5","5","5","5","5","5","5","5","5","6","7","7","8","6","8","6","7","7","6","4","3","5","6","3","3","5","5","4","1","4","3","4","7","5","5","4","5","3","5","3","5","4","6","3","7","6","6","6","6","7","7","7","7","7","7","6","6","7","6","799649291374305282","刘","193","Female","[""好我"",""坏我"",""坏她"",""好她""]","[""强我"",""弱我"",""弱她"",""强她""]","","","","","","","","","","","","","","","","","","","","","","","","","","","","","","feedback_test","","","","","","","","",""
"1030","","f","psychophysics","52","237201","0.0-8.0-0.0-1.0-0.0-0.21","6","6","6","6","3","5","2","5","5","5","5","2","1","1","1","1","2","1","1","5","5","5","5","5","5","5","5","5","5","6","7","7","8","6","8","6","7","7","6","4","3","5","6","3","3","5","5","4","1","4","3","4","7","5","5","4","5","3","5","3","5","4","6","3","7","6","6","6","6","7","7","7","7","7","7","6","6","7","6","799649291374305282","刘","193","Female","[""好我"",""坏我"",""坏她"",""好她""]","[""强我"",""弱我"",""弱她"",""强她""]","","","","","","","","nonmatch","","","","","","","","","","key","f","16.66311475409855","720.2857142857143","476.2857142857143","f","true","nonmatch","img/pentagon.png","坏她","坏我","prac_ALT2_moral","practice_moral","","","","","","","","",""
"null","<span style='color:GreenYellow; font-size: 70px;'>正确! </span>","null","html-keyboard-response","53","237702","0.0-8.0-0.0-1.0-0.0-1.21","6","6","6","6","3","5","2","5","5","5","5","2","1","1","1","1","2","1","1","5","5","5","5","5","5","5","5","5","5","6","7","7","8","6","8","6","7","7","6","4","3","5","6","3","3","5","5","4","1","4","3","4","7","5","5","4","5","3","5","3","5","4","6","3","7","6","6","6","6","7","7","7","7","7","7","6","6","7","6","799649291374305282","刘","193","Female","[""好我"",""坏我"",""坏她"",""好她""]","[""强我"",""弱我"",""弱她"",""强她""]","","","","","","","","","","","","","","","","","","","","","","","","","","","","","","feedback_test","","","","","","","","",""
"1022","","j","psychophysics","54","239726","0.0-8.0-0.0-1.0-0.0-0.22","6","6","6","6","3","5","2","5","5","5","5","2","1","1","1","1","2","1","1","5","5","5","5","5","5","5","5","5","5","6","7","7","8","6","8","6","7","7","6","4","3","5","6","3","3","5","5","4","1","4","3","4","7","5","5","4","5","3","5","3","5","4","6","3","7","6","6","6","6","7","7","7","7","7","7","6","6","7","6","799649291374305282","刘","193","Female","[""好我"",""坏我"",""坏她"",""好她""]","[""强我"",""弱我"",""弱她"",""强她""]","","","","","","","","match","","","","","","","","","","key","j","16.66750000000005","720.2857142857143","476.2857142857143","j","true","match","img/diamond.png","坏她","坏她","prac_ALT2_moral","practice_moral","","","","","","","","",""
"null","<span style='color:GreenYellow; font-size: 70px;'>正确! </span>","null","html-keyboard-response","55","240228","0.0-8.0-0.0-1.0-0.0-1.22","6","6","6","6","3","5","2","5","5","5","5","2","1","1","1","1","2","1","1","5","5","5","5","5","5","5","5","5","5","6","7","7","8","6","8","6","7","7","6","4","3","5","6","3","3","5","5","4","1","4","3","4","7","5","5","4","5","3","5","3","5","4","6","3","7","6","6","6","6","7","7","7","7","7","7","6","6","7","6","799649291374305282","刘","193","Female","[""好我"",""坏我"",""坏她"",""好她""]","[""强我"",""弱我"",""弱她"",""强她""]","","","","","","","","","","","","","","","","","","","","","","","","","","","","","","feedback_test","","","","","","","","",""
"918","","j","psychophysics","56","242148","0.0-8.0-0.0-1.0-0.0-0.23","6","6","6","6","3","5","2","5","5","5","5","2","1","1","1","1","2","1","1","5","5","5","5","5","5","5","5","5","5","6","7","7","8","6","8","6","7","7","6","4","3","5","6","3","3","5","5","4","1","4","3","4","7","5","5","4","5","3","5","3","5","4","6","3","7","6","6","6","6","7","7","7","7","7","7","6","6","7","6","799649291374305282","刘","193","Female","[""好我"",""坏我"",""坏她"",""好她""]","[""强我"",""弱我"",""弱她"",""强她""]","","","","","","","","match","","","","","","","","","","key","j","16.651754385965067","720.2857142857143","476.2857142857143","j","true","match","img/pentagon.png","坏我","坏我","prac_ALT2_moral","practice_moral","","","","","","","","",""
"null","<span style='color:GreenYellow; font-size: 70px;'>正确! </span>","null","html-keyboard-response","57","242651","0.0-8.0-0.0-1.0-0.0-1.23","6","6","6","6","3","5","2","5","5","5","5","2","1","1","1","1","2","1","1","5","5","5","5","5","5","5","5","5","5","6","7","7","8","6","8","6","7","7","6","4","3","5","6","3","3","5","5","4","1","4","3","4","7","5","5","4","5","3","5","3","5","4","6","3","7","6","6","6","6","7","7","7","7","7","7","6","6","7","6","799649291374305282","刘","193","Female","[""好我"",""坏我"",""坏她"",""好她""]","[""强我"",""弱我"",""弱她"",""强她""]","","","","","","","","","","","","","","","","","","","","","","","","","","","","","","feedback_test","","","","","","","","",""
"691","","j","psychophysics","58","244345","0.0-8.0-0.0-1.0-0.0-0.24","6","6","6","6","3","5","2","5","5","5","5","2","1","1","1","1","2","1","1","5","5","5","5","5","5","5","5","5","5","6","7","7","8","6","8","6","7","7","6","4","3","5","6","3","3","5","5","4","1","4","3","4","7","5","5","4","5","3","5","3","5","4","6","3","7","6","6","6","6","7","7","7","7","7","7","6","6","7","6","799649291374305282","刘","193","Female","[""好我"",""坏我"",""坏她"",""好她""]","[""强我"",""弱我"",""弱她"",""强她""]","","","","","","","","match","","","","","","","","","","key","j","16.66732673267321","720.2857142857143","476.2857142857143","j","true","match","img/triangle.png","好我","好我","prac_ALT2_moral","practice_moral","","","","","","","","",""
"null","<span style='color:GreenYellow; font-size: 70px;'>正确! </span>","null","html-keyboard-response","59","244847","0.0-8.0-0.0-1.0-0.0-1.24","6","6","6","6","3","5","2","5","5","5","5","2","1","1","1","1","2","1","1","5","5","5","5","5","5","5","5","5","5","6","7","7","8","6","8","6","7","7","6","4","3","5","6","3","3","5","5","4","1","4","3","4","7","5","5","4","5","3","5","3","5","4","6","3","7","6","6","6","6","7","7","7","7","7","7","6","6","7","6","799649291374305282","刘","193","Female","[""好我"",""坏我"",""坏她"",""好她""]","[""强我"",""弱我"",""弱她"",""强她""]","","","","","","","","","","","","","","","","","","","","","","","","","","","","","","feedback_test","","","","","","","","",""
"777","","j","psychophysics","60","246626","0.0-8.0-0.0-1.0-0.0-0.25","6","6","6","6","3","5","2","5","5","5","5","2","1","1","1","1","2","1","1","5","5","5","5","5","5","5","5","5","5","6","7","7","8","6","8","6","7","7","6","4","3","5","6","3","3","5","5","4","1","4","3","4","7","5","5","4","5","3","5","3","5","4","6","3","7","6","6","6","6","7","7","7","7","7","7","6","6","7","6","799649291374305282","刘","193","Female","[""好我"",""坏我"",""坏她"",""好她""]","[""强我"",""弱我"",""弱她"",""强她""]","","","","","","","","match","","","","","","","","","","key","j","16.665714285714508","720.2857142857143","476.2857142857143","j","true","match","img/diamond.png","坏她","坏她","prac_ALT2_moral","practice_moral","","","","","","","","",""
"null","<span style='color:GreenYellow; font-size: 70px;'>正确! </span>","null","html-keyboard-response","61","247128","0.0-8.0-0.0-1.0-0.0-1.25","6","6","6","6","3","5","2","5","5","5","5","2","1","1","1","1","2","1","1","5","5","5","5","5","5","5","5","5","5","6","7","7","8","6","8","6","7","7","6","4","3","5","6","3","3","5","5","4","1","4","3","4","7","5","5","4","5","3","5","3","5","4","6","3","7","6","6","6","6","7","7","7","7","7","7","6","6","7","6","799649291374305282","刘","193","Female","[""好我"",""坏我"",""坏她"",""好她""]","[""强我"",""弱我"",""弱她"",""强她""]","","","","","","","","","","","","","","","","","","","","","","","","","","","","","","feedback_test","","","","","","","","",""
"556","","j","psychophysics","62","248687","0.0-8.0-0.0-1.0-0.0-0.26","6","6","6","6","3","5","2","5","5","5","5","2","1","1","1","1","2","1","1","5","5","5","5","5","5","5","5","5","5","6","7","7","8","6","8","6","7","7","6","4","3","5","6","3","3","5","5","4","1","4","3","4","7","5","5","4","5","3","5","3","5","4","6","3","7","6","6","6","6","7","7","7","7","7","7","6","6","7","6","799649291374305282","刘","193","Female","[""好我"",""坏我"",""坏她"",""好她""]","[""强我"",""弱我"",""弱她"",""强她""]","","","","","","","","match","","","","","","","","","","key","j","16.665217391304473","720.2857142857143","476.2857142857143","f","false","nonmatch","img/circle.png","好我","好她","prac_ALT2_moral","practice_moral","","","","","","","","",""
"null","<span style='color:red; font-size: 70px;'>错误! </span>","null","html-keyboard-response","63","249188","0.0-8.0-0.0-1.0-0.0-1.26","6","6","6","6","3","5","2","5","5","5","5","2","1","1","1","1","2","1","1","5","5","5","5","5","5","5","5","5","5","6","7","7","8","6","8","6","7","7","6","4","3","5","6","3","3","5","5","4","1","4","3","4","7","5","5","4","5","3","5","3","5","4","6","3","7","6","6","6","6","7","7","7","7","7","7","6","6","7","6","799649291374305282","刘","193","Female","[""好我"",""坏我"",""坏她"",""好她""]","[""强我"",""弱我"",""弱她"",""强她""]","","","","","","","","","","","","","","","","","","","","","","","","","","","","","","feedback_test","","","","","","","","",""
"860","","f","psychophysics","64","251050","0.0-8.0-0.0-1.0-0.0-0.27","6","6","6","6","3","5","2","5","5","5","5","2","1","1","1","1","2","1","1","5","5","5","5","5","5","5","5","5","5","6","7","7","8","6","8","6","7","7","6","4","3","5","6","3","3","5","5","4","1","4","3","4","7","5","5","4","5","3","5","3","5","4","6","3","7","6","6","6","6","7","7","7","7","7","7","6","6","7","6","799649291374305282","刘","193","Female","[""好我"",""坏我"",""坏她"",""好她""]","[""强我"",""弱我"",""弱她"",""强她""]","","","","","","","","nonmatch","","","","","","","","","","key","f","16.659459459459303","720.2857142857143","476.2857142857143","f","true","nonmatch","img/pentagon.png","好我","坏我","prac_ALT2_moral","practice_moral","","","","","","","","",""
"null","<span style='color:GreenYellow; font-size: 70px;'>正确! </span>","null","html-keyboard-response","65","251551","0.0-8.0-0.0-1.0-0.0-1.27","6","6","6","6","3","5","2","5","5","5","5","2","1","1","1","1","2","1","1","5","5","5","5","5","5","5","5","5","5","6","7","7","8","6","8","6","7","7","6","4","3","5","6","3","3","5","5","4","1","4","3","4","7","5","5","4","5","3","5","3","5","4","6","3","7","6","6","6","6","7","7","7","7","7","7","6","6","7","6","799649291374305282","刘","193","Female","[""好我"",""坏我"",""坏她"",""好她""]","[""强我"",""弱我"",""弱她"",""强她""]","","","","","","","","","","","","","","","","","","","","","","","","","","","","","","feedback_test","","","","","","","","",""
"847","","j","psychophysics","66","253401","0.0-8.0-0.0-1.0-0.0-0.28","6","6","6","6","3","5","2","5","5","5","5","2","1","1","1","1","2","1","1","5","5","5","5","5","5","5","5","5","5","6","7","7","8","6","8","6","7","7","6","4","3","5","6","3","3","5","5","4","1","4","3","4","7","5","5","4","5","3","5","3","5","4","6","3","7","6","6","6","6","7","7","7","7","7","7","6","6","7","6","799649291374305282","刘","193","Female","[""好我"",""坏我"",""坏她"",""好她""]","[""强我"",""弱我"",""弱她"",""强她""]","","","","","","","","match","","","","","","","","","","key","j","16.66788990825704","720.2857142857143","476.2857142857143","j","true","match","img/circle.png","好她","好她","prac_ALT2_moral","practice_moral","","","","","","","","",""
"null","<span style='color:GreenYellow; font-size: 70px;'>正确! </span>","null","html-keyboard-response","67","253903","0.0-8.0-0.0-1.0-0.0-1.28","6","6","6","6","3","5","2","5","5","5","5","2","1","1","1","1","2","1","1","5","5","5","5","5","5","5","5","5","5","6","7","7","8","6","8","6","7","7","6","4","3","5","6","3","3","5","5","4","1","4","3","4","7","5","5","4","5","3","5","3","5","4","6","3","7","6","6","6","6","7","7","7","7","7","7","6","6","7","6","799649291374305282","刘","193","Female","[""好我"",""坏我"",""坏她"",""好她""]","[""强我"",""弱我"",""弱她"",""强她""]","","","","","","","","","","","","","","","","","","","","","","","","","","","","","","feedback_test","","","","","","","","",""
"1036","","j","psychophysics","68","255941","0.0-8.0-0.0-1.0-0.0-0.29","6","6","6","6","3","5","2","5","5","5","5","2","1","1","1","1","2","1","1","5","5","5","5","5","5","5","5","5","5","6","7","7","8","6","8","6","7","7","6","4","3","5","6","3","3","5","5","4","1","4","3","4","7","5","5","4","5","3","5","3","5","4","6","3","7","6","6","6","6","7","7","7","7","7","7","6","6","7","6","799649291374305282","刘","193","Female","[""好我"",""坏我"",""坏她"",""好她""]","[""强我"",""弱我"",""弱她"",""强她""]","","","","","","","","match","","","","","","","","","","key","j","16.666942148760427","720.2857142857143","476.2857142857143","j","true","match","img/diamond.png","坏她","坏她","prac_ALT2_moral","practice_moral","","","","","","","","",""
"null","<span style='color:GreenYellow; font-size: 70px;'>正确! </span>","null","html-keyboard-response","69","256442","0.0-8.0-0.0-1.0-0.0-1.29","6","6","6","6","3","5","2","5","5","5","5","2","1","1","1","1","2","1","1","5","5","5","5","5","5","5","5","5","5","6","7","7","8","6","8","6","7","7","6","4","3","5","6","3","3","5","5","4","1","4","3","4","7","5","5","4","5","3","5","3","5","4","6","3","7","6","6","6","6","7","7","7","7","7","7","6","6","7","6","799649291374305282","刘","193","Female","[""好我"",""坏我"",""坏她"",""好她""]","[""强我"",""弱我"",""弱她"",""强她""]","","","","","","","","","","","","","","","","","","","","","","","","","","","","","","feedback_test","","","","","","","","",""
"1034","","j","psychophysics","70","258479","0.0-8.0-0.0-1.0-0.0-0.30","6","6","6","6","3","5","2","5","5","5","5","2","1","1","1","1","2","1","1","5","5","5","5","5","5","5","5","5","5","6","7","7","8","6","8","6","7","7","6","4","3","5","6","3","3","5","5","4","1","4","3","4","7","5","5","4","5","3","5","3","5","4","6","3","7","6","6","6","6","7","7","7","7","7","7","6","6","7","6","799649291374305282","刘","193","Female","[""好我"",""坏我"",""坏她"",""好她""]","[""强我"",""弱我"",""弱她"",""强她""]","","","","","","","","match","","","","","","","","","","key","j","16.66750000000005","720.2857142857143","476.2857142857143","j","true","match","img/circle.png","好她","好她","prac_ALT2_moral","practice_moral","","","","","","","","",""
"null","<span style='color:GreenYellow; font-size: 70px;'>正确! </span>","null","html-keyboard-response","71","258980","0.0-8.0-0.0-1.0-0.0-1.30","6","6","6","6","3","5","2","5","5","5","5","2","1","1","1","1","2","1","1","5","5","5","5","5","5","5","5","5","5","6","7","7","8","6","8","6","7","7","6","4","3","5","6","3","3","5","5","4","1","4","3","4","7","5","5","4","5","3","5","3","5","4","6","3","7","6","6","6","6","7","7","7","7","7","7","6","6","7","6","799649291374305282","刘","193","Female","[""好我"",""坏我"",""坏她"",""好她""]","[""强我"",""弱我"",""弱她"",""强她""]","","","","","","","","","","","","","","","","","","","","","","","","","","","","","","feedback_test","","","","","","","","",""
"1029","","f","psychophysics","72","261012","0.0-8.0-0.0-1.0-0.0-0.31","6","6","6","6","3","5","2","5","5","5","5","2","1","1","1","1","2","1","1","5","5","5","5","5","5","5","5","5","5","6","7","7","8","6","8","6","7","7","6","4","3","5","6","3","3","5","5","4","1","4","3","4","7","5","5","4","5","3","5","3","5","4","6","3","7","6","6","6","6","7","7","7","7","7","7","6","6","7","6","799649291374305282","刘","193","Female","[""好我"",""坏我"",""坏她"",""好她""]","[""强我"",""弱我"",""弱她"",""强她""]","","","","","","","","nonmatch","","","","","","","","","","key","f","16.66750000000005","720.2857142857143","476.2857142857143","f","true","nonmatch","img/pentagon.png","好她","坏我","prac_ALT2_moral","practice_moral","","","","","","","","",""
"null","<span style='color:GreenYellow; font-size: 70px;'>正确! </span>","null","html-keyboard-response","73","261513","0.0-8.0-0.0-1.0-0.0-1.31","6","6","6","6","3","5","2","5","5","5","5","2","1","1","1","1","2","1","1","5","5","5","5","5","5","5","5","5","5","6","7","7","8","6","8","6","7","7","6","4","3","5","6","3","3","5","5","4","1","4","3","4","7","5","5","4","5","3","5","3","5","4","6","3","7","6","6","6","6","7","7","7","7","7","7","6","6","7","6","799649291374305282","刘","193","Female","[""好我"",""坏我"",""坏她"",""好她""]","[""强我"",""弱我"",""弱她"",""强她""]","","","","","","","","","","","","","","","","","","","","","","","","","","","","","","feedback_test","","","","","","","","",""
"null","","null","psychophysics","74","263731","0.0-8.0-0.0-1.0-0.0-0.32","6","6","6","6","3","5","2","5","5","5","5","2","1","1","1","1","2","1","1","5","5","5","5","5","5","5","5","5","5","6","7","7","8","6","8","6","7","7","6","4","3","5","6","3","3","5","5","4","1","4","3","4","7","5","5","4","5","3","5","3","5","4","6","3","7","6","6","6","6","7","7","7","7","7","7","6","6","7","6","799649291374305282","刘","193","Female","[""好我"",""坏我"",""坏她"",""好她""]","[""强我"",""弱我"",""弱她"",""强她""]","","","","","","","","null","","","","","","","","","","key","null","16.667175572519263","720.2857142857143","476.2857142857143","j","false","match","img/pentagon.png","坏我","坏我","prac_ALT2_moral","practice_moral","","","","","","","","",""
"null","<span class='add_' style='color:yellow; font-size: 70px;'> 太慢! </span>","null","html-keyboard-response","75","264233","0.0-8.0-0.0-1.0-0.0-1.32","6","6","6","6","3","5","2","5","5","5","5","2","1","1","1","1","2","1","1","5","5","5","5","5","5","5","5","5","5","6","7","7","8","6","8","6","7","7","6","4","3","5","6","3","3","5","5","4","1","4","3","4","7","5","5","4","5","3","5","3","5","4","6","3","7","6","6","6","6","7","7","7","7","7","7","6","6","7","6","799649291374305282","刘","193","Female","[""好我"",""坏我"",""坏她"",""好她""]","[""强我"",""弱我"",""弱她"",""强她""]","","","","","","","","","","","","","","","","","","","","","","","","","","","","","","feedback_test","","","","","","","","",""
"587","","j","psychophysics","76","265822","0.0-8.0-0.0-1.0-0.0-0.33","6","6","6","6","3","5","2","5","5","5","5","2","1","1","1","1","2","1","1","5","5","5","5","5","5","5","5","5","5","6","7","7","8","6","8","6","7","7","6","4","3","5","6","3","3","5","5","4","1","4","3","4","7","5","5","4","5","3","5","3","5","4","6","3","7","6","6","6","6","7","7","7","7","7","7","6","6","7","6","799649291374305282","刘","193","Female","[""好我"",""坏我"",""坏她"",""好她""]","[""强我"",""弱我"",""弱她"",""强她""]","","","","","","","","match","","","","","","","","","","key","j","16.665957446808882","720.2857142857143","476.2857142857143","j","true","match","img/triangle.png","好我","好我","prac_ALT2_moral","practice_moral","","","","","","","","",""
"null","<span style='color:GreenYellow; font-size: 70px;'>正确! </span>","null","html-keyboard-response","77","266324","0.0-8.0-0.0-1.0-0.0-1.33","6","6","6","6","3","5","2","5","5","5","5","2","1","1","1","1","2","1","1","5","5","5","5","5","5","5","5","5","5","6","7","7","8","6","8","6","7","7","6","4","3","5","6","3","3","5","5","4","1","4","3","4","7","5","5","4","5","3","5","3","5","4","6","3","7","6","6","6","6","7","7","7","7","7","7","6","6","7","6","799649291374305282","刘","193","Female","[""好我"",""坏我"",""坏她"",""好她""]","[""强我"",""弱我"",""弱她"",""强她""]","","","","","","","","","","","","","","","","","","","","","","","","","","","","","","feedback_test","","","","","","","","",""
"887","","f","psychophysics","78","268213","0.0-8.0-0.0-1.0-0.0-0.34","6","6","6","6","3","5","2","5","5","5","5","2","1","1","1","1","2","1","1","5","5","5","5","5","5","5","5","5","5","6","7","7","8","6","8","6","7","7","6","4","3","5","6","3","3","5","5","4","1","4","3","4","7","5","5","4","5","3","5","3","5","4","6","3","7","6","6","6","6","7","7","7","7","7","7","6","6","7","6","799649291374305282","刘","193","Female","[""好我"",""坏我"",""坏她"",""好她""]","[""强我"",""弱我"",""弱她"",""强她""]","","","","","","","","nonmatch","","","","","","","","","","key","f","16.66607142857122","720.2857142857143","476.2857142857143","f","true","nonmatch","img/diamond.png","坏我","坏她","prac_ALT2_moral","practice_moral","","","","","","","","",""
"null","<span style='color:GreenYellow; font-size: 70px;'>正确! </span>","null","html-keyboard-response","79","268715","0.0-8.0-0.0-1.0-0.0-1.34","6","6","6","6","3","5","2","5","5","5","5","2","1","1","1","1","2","1","1","5","5","5","5","5","5","5","5","5","5","6","7","7","8","6","8","6","7","7","6","4","3","5","6","3","3","5","5","4","1","4","3","4","7","5","5","4","5","3","5","3","5","4","6","3","7","6","6","6","6","7","7","7","7","7","7","6","6","7","6","799649291374305282","刘","193","Female","[""好我"",""坏我"",""坏她"",""好她""]","[""强我"",""弱我"",""弱她"",""强她""]","","","","","","","","","","","","","","","","","","","","","","","","","","","","","","feedback_test","","","","","","","","",""
"1111","","f","psychophysics","80","270829","0.0-8.0-0.0-1.0-0.0-0.35","6","6","6","6","3","5","2","5","5","5","5","2","1","1","1","1","2","1","1","5","5","5","5","5","5","5","5","5","5","6","7","7","8","6","8","6","7","7","6","4","3","5","6","3","3","5","5","4","1","4","3","4","7","5","5","4","5","3","5","3","5","4","6","3","7","6","6","6","6","7","7","7","7","7","7","6","6","7","6","799649291374305282","刘","193","Female","[""好我"",""坏我"",""坏她"",""好她""]","[""强我"",""弱我"",""弱她"",""强她""]","","","","","","","","nonmatch","","","","","","","","","","key","f","16.658730158730158","720.2857142857143","476.2857142857143","j","false","match","img/diamond.png","坏她","坏她","prac_ALT2_moral","practice_moral","","","","","","","","",""
"null","<span style='color:red; font-size: 70px;'>错误! </span>","null","html-keyboard-response","81","271331","0.0-8.0-0.0-1.0-0.0-1.35","6","6","6","6","3","5","2","5","5","5","5","2","1","1","1","1","2","1","1","5","5","5","5","5","5","5","5","5","5","6","7","7","8","6","8","6","7","7","6","4","3","5","6","3","3","5","5","4","1","4","3","4","7","5","5","4","5","3","5","3","5","4","6","3","7","6","6","6","6","7","7","7","7","7","7","6","6","7","6","799649291374305282","刘","193","Female","[""好我"",""坏我"",""坏她"",""好她""]","[""强我"",""弱我"",""弱她"",""强她""]","","","","","","","","","","","","","","","","","","","","","","","","","","","","","","feedback_test","","","","","","","","",""
"873","","f","psychophysics","82","273207","0.0-8.0-0.0-1.0-0.0-0.36","6","6","6","6","3","5","2","5","5","5","5","2","1","1","1","1","2","1","1","5","5","5","5","5","5","5","5","5","5","6","7","7","8","6","8","6","7","7","6","4","3","5","6","3","3","5","5","4","1","4","3","4","7","5","5","4","5","3","5","3","5","4","6","3","7","6","6","6","6","7","7","7","7","7","7","6","6","7","6","799649291374305282","刘","193","Female","[""好我"",""坏我"",""坏她"",""好她""]","[""强我"",""弱我"",""弱她"",""强她""]","","","","","","","","nonmatch","","","","","","","","","","key","f","16.665765765765975","720.2857142857143","476.2857142857143","f","true","nonmatch","img/triangle.png","好她","好我","prac_ALT2_moral","practice_moral","","","","","","","","",""
"null","<span style='color:GreenYellow; font-size: 70px;'>正确! </span>","null","html-keyboard-response","83","273709","0.0-8.0-0.0-1.0-0.0-1.36","6","6","6","6","3","5","2","5","5","5","5","2","1","1","1","1","2","1","1","5","5","5","5","5","5","5","5","5","5","6","7","7","8","6","8","6","7","7","6","4","3","5","6","3","3","5","5","4","1","4","3","4","7","5","5","4","5","3","5","3","5","4","6","3","7","6","6","6","6","7","7","7","7","7","7","6","6","7","6","799649291374305282","刘","193","Female","[""好我"",""坏我"",""坏她"",""好她""]","[""强我"",""弱我"",""弱她"",""强她""]","","","","","","","","","","","","","","","","","","","","","","","","","","","","","","feedback_test","","","","","","","","",""
"1212","","j","psychophysics","84","275923","0.0-8.0-0.0-1.0-0.0-0.37","6","6","6","6","3","5","2","5","5","5","5","2","1","1","1","1","2","1","1","5","5","5","5","5","5","5","5","5","5","6","7","7","8","6","8","6","7","7","6","4","3","5","6","3","3","5","5","4","1","4","3","4","7","5","5","4","5","3","5","3","5","4","6","3","7","6","6","6","6","7","7","7","7","7","7","6","6","7","6","799649291374305282","刘","193","Female","[""好我"",""坏我"",""坏她"",""好她""]","[""强我"",""弱我"",""弱她"",""强她""]","","","","","","","","match","","","","","","","","","","key","j","16.630303030303118","720.2857142857143","476.2857142857143","j","true","match","img/pentagon.png","坏我","坏我","prac_ALT2_moral","practice_moral","","","","","","","","",""
"null","<span class='add_' style='color:yellow; font-size: 70px;'> 太慢! </span>","null","html-keyboard-response","85","276424","0.0-8.0-0.0-1.0-0.0-1.37","6","6","6","6","3","5","2","5","5","5","5","2","1","1","1","1","2","1","1","5","5","5","5","5","5","5","5","5","5","6","7","7","8","6","8","6","7","7","6","4","3","5","6","3","3","5","5","4","1","4","3","4","7","5","5","4","5","3","5","3","5","4","6","3","7","6","6","6","6","7","7","7","7","7","7","6","6","7","6","799649291374305282","刘","193","Female","[""好我"",""坏我"",""坏她"",""好她""]","[""强我"",""弱我"",""弱她"",""强她""]","","","","","","","","","","","","","","","","","","","","","","","","","","","","","","feedback_test","","","","","","","","",""
"1099","","f","psychophysics","86","278526","0.0-8.0-0.0-1.0-0.0-0.38","6","6","6","6","3","5","2","5","5","5","5","2","1","1","1","1","2","1","1","5","5","5","5","5","5","5","5","5","5","6","7","7","8","6","8","6","7","7","6","4","3","5","6","3","3","5","5","4","1","4","3","4","7","5","5","4","5","3","5","3","5","4","6","3","7","6","6","6","6","7","7","7","7","7","7","6","6","7","6","799649291374305282","刘","193","Female","[""好我"",""坏我"",""坏她"",""好她""]","[""强我"",""弱我"",""弱她"",""强她""]","","","","","","","","nonmatch","","","","","","","","","","key","f","16.789600000000092","720.2857142857143","476.2857142857143","f","true","nonmatch","img/circle.png","坏她","好她","prac_ALT2_moral","practice_moral","","","","","","","","",""
"null","<span style='color:GreenYellow; font-size: 70px;'>正确! </span>","null","html-keyboard-response","87","279028","0.0-8.0-0.0-1.0-0.0-1.38","6","6","6","6","3","5","2","5","5","5","5","2","1","1","1","1","2","1","1","5","5","5","5","5","5","5","5","5","5","6","7","7","8","6","8","6","7","7","6","4","3","5","6","3","3","5","5","4","1","4","3","4","7","5","5","4","5","3","5","3","5","4","6","3","7","6","6","6","6","7","7","7","7","7","7","6","6","7","6","799649291374305282","刘","193","Female","[""好我"",""坏我"",""坏她"",""好她""]","[""强我"",""弱我"",""弱她"",""强她""]","","","","","","","","","","","","","","","","","","","","","","","","","","","","","","feedback_test","","","","","","","","",""
"924","","f","psychophysics","88","280954","0.0-8.0-0.0-1.0-0.0-0.39","6","6","6","6","3","5","2","5","5","5","5","2","1","1","1","1","2","1","1","5","5","5","5","5","5","5","5","5","5","6","7","7","8","6","8","6","7","7","6","4","3","5","6","3","3","5","5","4","1","4","3","4","7","5","5","4","5","3","5","3","5","4","6","3","7","6","6","6","6","7","7","7","7","7","7","6","6","7","6","799649291374305282","刘","193","Female","[""好我"",""坏我"",""坏她"",""好她""]","[""强我"",""弱我"",""弱她"",""强她""]","","","","","","","","nonmatch","","","","","","","","","","key","f","16.666666666666668","720.2857142857143","476.2857142857143","f","true","nonmatch","img/triangle.png","坏她","好我","prac_ALT2_moral","practice_moral","","","","","","","","",""
"null","<span style='color:GreenYellow; font-size: 70px;'>正确! </span>","null","html-keyboard-response","89","281456","0.0-8.0-0.0-1.0-0.0-1.39","6","6","6","6","3","5","2","5","5","5","5","2","1","1","1","1","2","1","1","5","5","5","5","5","5","5","5","5","5","6","7","7","8","6","8","6","7","7","6","4","3","5","6","3","3","5","5","4","1","4","3","4","7","5","5","4","5","3","5","3","5","4","6","3","7","6","6","6","6","7","7","7","7","7","7","6","6","7","6","799649291374305282","刘","193","Female","[""好我"",""坏我"",""坏她"",""好她""]","[""强我"",""弱我"",""弱她"",""强她""]","","","","","","","","","","","","","","","","","","","","","","","","","","","","","","feedback_test","","","","","","","","",""
"919","","j","psychophysics","90","283377","0.0-8.0-0.0-1.0-0.0-0.40","6","6","6","6","3","5","2","5","5","5","5","2","1","1","1","1","2","1","1","5","5","5","5","5","5","5","5","5","5","6","7","7","8","6","8","6","7","7","6","4","3","5","6","3","3","5","5","4","1","4","3","4","7","5","5","4","5","3","5","3","5","4","6","3","7","6","6","6","6","7","7","7","7","7","7","6","6","7","6","799649291374305282","刘","193","Female","[""好我"",""坏我"",""坏她"",""好她""]","[""强我"",""弱我"",""弱她"",""强她""]","","","","","","","","match","","","","","","","","","","key","j","16.66637168141634","720.2857142857143","476.2857142857143","f","false","nonmatch","img/pentagon.png","坏她","坏我","prac_ALT2_moral","practice_moral","","","","","","","","",""
"null","<span style='color:red; font-size: 70px;'>错误! </span>","null","html-keyboard-response","91","283878","0.0-8.0-0.0-1.0-0.0-1.40","6","6","6","6","3","5","2","5","5","5","5","2","1","1","1","1","2","1","1","5","5","5","5","5","5","5","5","5","5","6","7","7","8","6","8","6","7","7","6","4","3","5","6","3","3","5","5","4","1","4","3","4","7","5","5","4","5","3","5","3","5","4","6","3","7","6","6","6","6","7","7","7","7","7","7","6","6","7","6","799649291374305282","刘","193","Female","[""好我"",""坏我"",""坏她"",""好她""]","[""强我"",""弱我"",""弱她"",""强她""]","","","","","","","","","","","","","","","","","","","","","","","","","","","","","","feedback_test","","","","","","","","",""
"1078","","f","psychophysics","92","285958","0.0-8.0-0.0-1.0-0.0-0.41","6","6","6","6","3","5","2","5","5","5","5","2","1","1","1","1","2","1","1","5","5","5","5","5","5","5","5","5","5","6","7","7","8","6","8","6","7","7","6","4","3","5","6","3","3","5","5","4","1","4","3","4","7","5","5","4","5","3","5","3","5","4","6","3","7","6","6","6","6","7","7","7","7","7","7","6","6","7","6","799649291374305282","刘","193","Female","[""好我"",""坏我"",""坏她"",""好她""]","[""强我"",""弱我"",""弱她"",""强她""]","","","","","","","","nonmatch","","","","","","","","","","key","f","16.66504065040641","720.2857142857143","476.2857142857143","f","true","nonmatch","img/circle.png","坏我","好她","prac_ALT2_moral","practice_moral","","","","","","","","",""
"null","<span style='color:GreenYellow; font-size: 70px;'>正确! </span>","null","html-keyboard-response","93","286459","0.0-8.0-0.0-1.0-0.0-1.41","6","6","6","6","3","5","2","5","5","5","5","2","1","1","1","1","2","1","1","5","5","5","5","5","5","5","5","5","5","6","7","7","8","6","8","6","7","7","6","4","3","5","6","3","3","5","5","4","1","4","3","4","7","5","5","4","5","3","5","3","5","4","6","3","7","6","6","6","6","7","7","7","7","7","7","6","6","7","6","799649291374305282","刘","193","Female","[""好我"",""坏我"",""坏她"",""好她""]","[""强我"",""弱我"",""弱她"",""强她""]","","","","","","","","","","","","","","","","","","","","","","","","","","","","","","feedback_test","","","","","","","","",""
"646","","j","psychophysics","94","288108","0.0-8.0-0.0-1.0-0.0-0.42","6","6","6","6","3","5","2","5","5","5","5","2","1","1","1","1","2","1","1","5","5","5","5","5","5","5","5","5","5","6","7","7","8","6","8","6","7","7","6","4","3","5","6","3","3","5","5","4","1","4","3","4","7","5","5","4","5","3","5","3","5","4","6","3","7","6","6","6","6","7","7","7","7","7","7","6","6","7","6","799649291374305282","刘","193","Female","[""好我"",""坏我"",""坏她"",""好她""]","[""强我"",""弱我"",""弱她"",""强她""]","","","","","","","","match","","","","","","","","","","key","j","16.66701030927847","720.2857142857143","476.2857142857143","j","true","match","img/triangle.png","好我","好我","prac_ALT2_moral","practice_moral","","","","","","","","",""
"null","<span style='color:GreenYellow; font-size: 70px;'>正确! </span>","null","html-keyboard-response","95","288610","0.0-8.0-0.0-1.0-0.0-1.42","6","6","6","6","3","5","2","5","5","5","5","2","1","1","1","1","2","1","1","5","5","5","5","5","5","5","5","5","5","6","7","7","8","6","8","6","7","7","6","4","3","5","6","3","3","5","5","4","1","4","3","4","7","5","5","4","5","3","5","3","5","4","6","3","7","6","6","6","6","7","7","7","7","7","7","6","6","7","6","799649291374305282","刘","193","Female","[""好我"",""坏我"",""坏她"",""好她""]","[""强我"",""弱我"",""弱她"",""强她""]","","","","","","","","","","","","","","","","","","","","","","","","","","","","","","feedback_test","","","","","","","","",""
"1028","","f","psychophysics","96","290641","0.0-8.0-0.0-1.0-0.0-0.43","6","6","6","6","3","5","2","5","5","5","5","2","1","1","1","1","2","1","1","5","5","5","5","5","5","5","5","5","5","6","7","7","8","6","8","6","7","7","6","4","3","5","6","3","3","5","5","4","1","4","3","4","7","5","5","4","5","3","5","3","5","4","6","3","7","6","6","6","6","7","7","7","7","7","7","6","6","7","6","799649291374305282","刘","193","Female","[""好我"",""坏我"",""坏她"",""好她""]","[""强我"",""弱我"",""弱她"",""强她""]","","","","","","","","nonmatch","","","","","","","","","","key","f","16.665833333333044","720.2857142857143","476.2857142857143","f","true","nonmatch","img/diamond.png","好她","坏她","prac_ALT2_moral","practice_moral","","","","","","","","",""
"null","<span style='color:GreenYellow; font-size: 70px;'>正确! </span>","null","html-keyboard-response","97","291142","0.0-8.0-0.0-1.0-0.0-1.43","6","6","6","6","3","5","2","5","5","5","5","2","1","1","1","1","2","1","1","5","5","5","5","5","5","5","5","5","5","6","7","7","8","6","8","6","7","7","6","4","3","5","6","3","3","5","5","4","1","4","3","4","7","5","5","4","5","3","5","3","5","4","6","3","7","6","6","6","6","7","7","7","7","7","7","6","6","7","6","799649291374305282","刘","193","Female","[""好我"",""坏我"",""坏她"",""好她""]","[""强我"",""弱我"",""弱她"",""强她""]","","","","","","","","","","","","","","","","","","","","","","","","","","","","","","feedback_test","","","","","","","","",""
"1026","","j","psychophysics","98","293172","0.0-8.0-0.0-1.0-0.0-0.44","6","6","6","6","3","5","2","5","5","5","5","2","1","1","1","1","2","1","1","5","5","5","5","5","5","5","5","5","5","6","7","7","8","6","8","6","7","7","6","4","3","5","6","3","3","5","5","4","1","4","3","4","7","5","5","4","5","3","5","3","5","4","6","3","7","6","6","6","6","7","7","7","7","7","7","6","6","7","6","799649291374305282","刘","193","Female","[""好我"",""坏我"",""坏她"",""好她""]","[""强我"",""弱我"",""弱她"",""强她""]","","","","","","","","match","","","","","","","","","","key","j","16.665833333333044","720.2857142857143","476.2857142857143","j","true","match","img/pentagon.png","坏我","坏我","prac_ALT2_moral","practice_moral","","","","","","","","",""
"null","<span style='color:GreenYellow; font-size: 70px;'>正确! </span>","null","html-keyboard-response","99","293673","0.0-8.0-0.0-1.0-0.0-1.44","6","6","6","6","3","5","2","5","5","5","5","2","1","1","1","1","2","1","1","5","5","5","5","5","5","5","5","5","5","6","7","7","8","6","8","6","7","7","6","4","3","5","6","3","3","5","5","4","1","4","3","4","7","5","5","4","5","3","5","3","5","4","6","3","7","6","6","6","6","7","7","7","7","7","7","6","6","7","6","799649291374305282","刘","193","Female","[""好我"",""坏我"",""坏她"",""好她""]","[""强我"",""弱我"",""弱她"",""强她""]","","","","","","","","","","","","","","","","","","","","","","","","","","","","","","feedback_test","","","","","","","","",""
"938","","f","psychophysics","100","295613","0.0-8.0-0.0-1.0-0.0-0.45","6","6","6","6","3","5","2","5","5","5","5","2","1","1","1","1","2","1","1","5","5","5","5","5","5","5","5","5","5","6","7","7","8","6","8","6","7","7","6","4","3","5","6","3","3","5","5","4","1","4","3","4","7","5","5","4","5","3","5","3","5","4","6","3","7","6","6","6","6","7","7","7","7","7","7","6","6","7","6","799649291374305282","刘","193","Female","[""好我"",""坏我"",""坏她"",""好她""]","[""强我"",""弱我"",""弱她"",""强她""]","","","","","","","","nonmatch","","","","","","","","","","key","f","16.635652173913346","720.2857142857143","476.2857142857143","f","true","nonmatch","img/diamond.png","好我","坏她","prac_ALT2_moral","practice_moral","","","","","","","","",""
"null","<span style='color:GreenYellow; font-size: 70px;'>正确! </span>","null","html-keyboard-response","101","296115","0.0-8.0-0.0-1.0-0.0-1.45","6","6","6","6","3","5","2","5","5","5","5","2","1","1","1","1","2","1","1","5","5","5","5","5","5","5","5","5","5","6","7","7","8","6","8","6","7","7","6","4","3","5","6","3","3","5","5","4","1","4","3","4","7","5","5","4","5","3","5","3","5","4","6","3","7","6","6","6","6","7","7","7","7","7","7","6","6","7","6","799649291374305282","刘","193","Female","[""好我"",""坏我"",""坏她"",""好她""]","[""强我"",""弱我"",""弱她"",""强她""]","","","","","","","","","","","","","","","","","","","","","","","","","","","","","","feedback_test","","","","","","","","",""
"1145","","f","psychophysics","102","298263","0.0-8.0-0.0-1.0-0.0-0.46","6","6","6","6","3","5","2","5","5","5","5","2","1","1","1","1","2","1","1","5","5","5","5","5","5","5","5","5","5","6","7","7","8","6","8","6","7","7","6","4","3","5","6","3","3","5","5","4","1","4","3","4","7","5","5","4","5","3","5","3","5","4","6","3","7","6","6","6","6","7","7","7","7","7","7","6","6","7","6","799649291374305282","刘","193","Female","[""好我"",""坏我"",""坏她"",""好她""]","[""强我"",""弱我"",""弱她"",""强她""]","","","","","","","","nonmatch","","","","","","","","","","key","f","16.661417322834644","720.2857142857143","476.2857142857143","f","true","nonmatch","img/triangle.png","坏我","好我","prac_ALT2_moral","practice_moral","","","","","","","","",""
"null","<span style='color:GreenYellow; font-size: 70px;'>正确! </span>","null","html-keyboard-response","103","298765","0.0-8.0-0.0-1.0-0.0-1.46","6","6","6","6","3","5","2","5","5","5","5","2","1","1","1","1","2","1","1","5","5","5","5","5","5","5","5","5","5","6","7","7","8","6","8","6","7","7","6","4","3","5","6","3","3","5","5","4","1","4","3","4","7","5","5","4","5","3","5","3","5","4","6","3","7","6","6","6","6","7","7","7","7","7","7","6","6","7","6","799649291374305282","刘","193","Female","[""好我"",""坏我"",""坏她"",""好她""]","[""强我"",""弱我"",""弱她"",""强她""]","","","","","","","","","","","","","","","","","","","","","","","","","","","","","","feedback_test","","","","","","","","",""
"814","","j","psychophysics","104","300581","0.0-8.0-0.0-1.0-0.0-0.47","6","6","6","6","3","5","2","5","5","5","5","2","1","1","1","1","2","1","1","5","5","5","5","5","5","5","5","5","5","6","7","7","8","6","8","6","7","7","6","4","3","5","6","3","3","5","5","4","1","4","3","4","7","5","5","4","5","3","5","3","5","4","6","3","7","6","6","6","6","7","7","7","7","7","7","6","6","7","6","799649291374305282","刘","193","Female","[""好我"",""坏我"",""坏她"",""好她""]","[""强我"",""弱我"",""弱她"",""强她""]","","","","","","","","match","","","","","","","","","","key","j","16.666666666666668","720.2857142857143","476.2857142857143","j","true","match","img/circle.png","好她","好她","prac_ALT2_moral","practice_moral","","","","","","","","",""
"null","<span style='color:GreenYellow; font-size: 70px;'>正确! </span>","null","html-keyboard-response","105","301083","0.0-8.0-0.0-1.0-0.0-1.47","6","6","6","6","3","5","2","5","5","5","5","2","1","1","1","1","2","1","1","5","5","5","5","5","5","5","5","5","5","6","7","7","8","6","8","6","7","7","6","4","3","5","6","3","3","5","5","4","1","4","3","4","7","5","5","4","5","3","5","3","5","4","6","3","7","6","6","6","6","7","7","7","7","7","7","6","6","7","6","799649291374305282","刘","193","Female","[""好我"",""坏我"",""坏她"",""好她""]","[""强我"",""弱我"",""弱她"",""强她""]","","","","","","","","","","","","","","","","","","","","","","","","","","","","","","feedback_test","","","","","","","","",""
"5729","<style>.context{color:white; font-size: 35px; line-height:40px}</style>                            <div><p class='context'>您正确回答了83% 的试次。</p><p class='context'>您的平均反应时为948毫秒。</p><p class='context'>恭喜您完成练习。按空格键进入正式实验。</p><p class='footer' style='font-size: 35px; line-height:40px;'>请在进入正式实验实验之前将您的<span style='color: lightgreen;'>食指</span>放在电脑键盘的相应键位上进行按键。</p>"," ","html-keyboard-response","106","306814","0.0-8.0-0.0-2.0","6","6","6","6","3","5","2","5","5","5","5","2","1","1","1","1","2","1","1","5","5","5","5","5","5","5","5","5","5","6","7","7","8","6","8","6","7","7","6","4","3","5","6","3","3","5","5","4","1","4","3","4","7","5","5","4","5","3","5","3","5","4","6","3","7","6","6","6","6","7","7","7","7","7","7","6","6","7","6","799649291374305282","刘","193","Female","[""好我"",""坏我"",""坏她"",""好她""]","[""强我"",""弱我"",""弱她"",""强她""]","","","","","","","","","","","","","","","","","","","","","","","","","","","","","","","","","","","","","","",""
"1280","
    <p style='color: white; font-size: 22px'>请您将手指放在按键上，准备进入正式的匹配任务。</p>
    <p> <div style = ""color: green""><按空格键进入下一阶段的匹配任务></div></p>
    "," ","html-keyboard-response","107","308096","0.0-8.0-0.0-3.0","6","6","6","6","3","5","2","5","5","5","5","2","1","1","1","1","2","1","1","5","5","5","5","5","5","5","5","5","5","6","7","7","8","6","8","6","7","7","6","4","3","5","6","3","3","5","5","4","1","4","3","4","7","5","5","4","5","3","5","3","5","4","6","3","7","6","6","6","6","7","7","7","7","7","7","6","6","7","6","799649291374305282","刘","193","Female","[""好我"",""坏我"",""坏她"",""好她""]","[""强我"",""弱我"",""弱她"",""强她""]","","","","","","","","","","","","","","","","","","","","","","","","","","","","","","","","","","","","","","",""
"749","","j","psychophysics","108","309848","0.0-8.0-0.0-4.0-0.0-0.0","6","6","6","6","3","5","2","5","5","5","5","2","1","1","1","1","2","1","1","5","5","5","5","5","5","5","5","5","5","6","7","7","8","6","8","6","7","7","6","4","3","5","6","3","3","5","5","4","1","4","3","4","7","5","5","4","5","3","5","3","5","4","6","3","7","6","6","6","6","7","7","7","7","7","7","6","6","7","6","799649291374305282","刘","193","Female","[""好我"",""坏我"",""坏她"",""好她""]","[""强我"",""弱我"",""弱她"",""强她""]","","","","","","","","match","","","","","","","","","","key","j","16.666346153846042","720.2857142857143","476.2857142857143","j","true","match","img/circle.png","好她","好她","ALT2","moral","","","","","","","","",""
"null","<span style='color:GreenYellow; font-size: 70px;'>正确! </span>","null","html-keyboard-response","109","310349","0.0-8.0-0.0-4.0-0.0-1.0","6","6","6","6","3","5","2","5","5","5","5","2","1","1","1","1","2","1","1","5","5","5","5","5","5","5","5","5","5","6","7","7","8","6","8","6","7","7","6","4","3","5","6","3","3","5","5","4","1","4","3","4","7","5","5","4","5","3","5","3","5","4","6","3","7","6","6","6","6","7","7","7","7","7","7","6","6","7","6","799649291374305282","刘","193","Female","[""好我"",""坏我"",""坏她"",""好她""]","[""强我"",""弱我"",""弱她"",""强她""]","","","","","","","","","","","","","","","","","","","","","","","","","","","","","","feedback_test","","","","","","","","",""
"763","","f","psychophysics","110","312115","0.0-8.0-0.0-4.0-0.0-0.1","6","6","6","6","3","5","2","5","5","5","5","2","1","1","1","1","2","1","1","5","5","5","5","5","5","5","5","5","5","6","7","7","8","6","8","6","7","7","6","4","3","5","6","3","3","5","5","4","1","4","3","4","7","5","5","4","5","3","5","3","5","4","6","3","7","6","6","6","6","7","7","7","7","7","7","6","6","7","6","799649291374305282","刘","193","Female","[""好我"",""坏我"",""坏她"",""好她""]","[""强我"",""弱我"",""弱她"",""强她""]","","","","","","","","nonmatch","","","","","","","","","","key","f","16.667307692307357","720.2857142857143","476.2857142857143","f","true","nonmatch","img/circle.png","好我","好她","ALT2","moral","","","","","","","","",""
"null","<span style='color:GreenYellow; font-size: 70px;'>正确! </span>","null","html-keyboard-response","111","312617","0.0-8.0-0.0-4.0-0.0-1.1","6","6","6","6","3","5","2","5","5","5","5","2","1","1","1","1","2","1","1","5","5","5","5","5","5","5","5","5","5","6","7","7","8","6","8","6","7","7","6","4","3","5","6","3","3","5","5","4","1","4","3","4","7","5","5","4","5","3","5","3","5","4","6","3","7","6","6","6","6","7","7","7","7","7","7","6","6","7","6","799649291374305282","刘","193","Female","[""好我"",""坏我"",""坏她"",""好她""]","[""强我"",""弱我"",""弱她"",""强她""]","","","","","","","","","","","","","","","","","","","","","","","","","","","","","","feedback_test","","","","","","","","",""
"993","","f","psychophysics","112","314613","0.0-8.0-0.0-4.0-0.0-0.2","6","6","6","6","3","5","2","5","5","5","5","2","1","1","1","1","2","1","1","5","5","5","5","5","5","5","5","5","5","6","7","7","8","6","8","6","7","7","6","4","3","5","6","3","3","5","5","4","1","4","3","4","7","5","5","4","5","3","5","3","5","4","6","3","7","6","6","6","6","7","7","7","7","7","7","6","6","7","6","799649291374305282","刘","193","Female","[""好我"",""坏我"",""坏她"",""好她""]","[""强我"",""弱我"",""弱她"",""强她""]","","","","","","","","nonmatch","","","","","","","","","","key","f","16.645762711864506","720.2857142857143","476.2857142857143","f","true","nonmatch","img/circle.png","坏她","好她","ALT2","moral","","","","","","","","",""
"null","<span style='color:GreenYellow; font-size: 70px;'>正确! </span>","null","html-keyboard-response","113","315114","0.0-8.0-0.0-4.0-0.0-1.2","6","6","6","6","3","5","2","5","5","5","5","2","1","1","1","1","2","1","1","5","5","5","5","5","5","5","5","5","5","6","7","7","8","6","8","6","7","7","6","4","3","5","6","3","3","5","5","4","1","4","3","4","7","5","5","4","5","3","5","3","5","4","6","3","7","6","6","6","6","7","7","7","7","7","7","6","6","7","6","799649291374305282","刘","193","Female","[""好我"",""坏我"",""坏她"",""好她""]","[""强我"",""弱我"",""弱她"",""强她""]","","","","","","","","","","","","","","","","","","","","","","","","","","","","","","feedback_test","","","","","","","","",""
"850","","j","psychophysics","114","316968","0.0-8.0-0.0-4.0-0.0-0.3","6","6","6","6","3","5","2","5","5","5","5","2","1","1","1","1","2","1","1","5","5","5","5","5","5","5","5","5","5","6","7","7","8","6","8","6","7","7","6","4","3","5","6","3","3","5","5","4","1","4","3","4","7","5","5","4","5","3","5","3","5","4","6","3","7","6","6","6","6","7","7","7","7","7","7","6","6","7","6","799649291374305282","刘","193","Female","[""好我"",""坏我"",""坏她"",""好她""]","[""强我"",""弱我"",""弱她"",""强她""]","","","","","","","","match","","","","","","","","","","key","j","16.59090909090909","720.2857142857143","476.2857142857143","j","true","match","img/circle.png","好她","好她","ALT2","moral","","","","","","","","",""
"null","<span style='color:GreenYellow; font-size: 70px;'>正确! </span>","null","html-keyboard-response","115","317469","0.0-8.0-0.0-4.0-0.0-1.3","6","6","6","6","3","5","2","5","5","5","5","2","1","1","1","1","2","1","1","5","5","5","5","5","5","5","5","5","5","6","7","7","8","6","8","6","7","7","6","4","3","5","6","3","3","5","5","4","1","4","3","4","7","5","5","4","5","3","5","3","5","4","6","3","7","6","6","6","6","7","7","7","7","7","7","6","6","7","6","799649291374305282","刘","193","Female","[""好我"",""坏我"",""坏她"",""好她""]","[""强我"",""弱我"",""弱她"",""强她""]","","","","","","","","","","","","","","","","","","","","","","","","","","","","","","feedback_test","","","","","","","","",""
"695","","f","psychophysics","116","319166","0.0-8.0-0.0-4.0-0.0-0.4","6","6","6","6","3","5","2","5","5","5","5","2","1","1","1","1","2","1","1","5","5","5","5","5","5","5","5","5","5","6","7","7","8","6","8","6","7","7","6","4","3","5","6","3","3","5","5","4","1","4","3","4","7","5","5","4","5","3","5","3","5","4","6","3","7","6","6","6","6","7","7","7","7","7","7","6","6","7","6","799649291374305282","刘","193","Female","[""好我"",""坏我"",""坏她"",""好她""]","[""强我"",""弱我"",""弱她"",""强她""]","","","","","","","","nonmatch","","","","","","","","","","key","f","16.66600000000035","720.2857142857143","476.2857142857143","f","true","nonmatch","img/triangle.png","坏她","好我","ALT2","moral","","","","","","","","",""
"null","<span style='color:GreenYellow; font-size: 70px;'>正确! </span>","null","html-keyboard-response","117","319669","0.0-8.0-0.0-4.0-0.0-1.4","6","6","6","6","3","5","2","5","5","5","5","2","1","1","1","1","2","1","1","5","5","5","5","5","5","5","5","5","5","6","7","7","8","6","8","6","7","7","6","4","3","5","6","3","3","5","5","4","1","4","3","4","7","5","5","4","5","3","5","3","5","4","6","3","7","6","6","6","6","7","7","7","7","7","7","6","6","7","6","799649291374305282","刘","193","Female","[""好我"",""坏我"",""坏她"",""好她""]","[""强我"",""弱我"",""弱她"",""强她""]","","","","","","","","","","","","","","","","","","","","","","","","","","","","","","feedback_test","","","","","","","","",""
"1159","","f","psychophysics","118","321839","0.0-8.0-0.0-4.0-0.0-0.5","6","6","6","6","3","5","2","5","5","5","5","2","1","1","1","1","2","1","1","5","5","5","5","5","5","5","5","5","5","6","7","7","8","6","8","6","7","7","6","4","3","5","6","3","3","5","5","4","1","4","3","4","7","5","5","4","5","3","5","3","5","4","6","3","7","6","6","6","6","7","7","7","7","7","7","6","6","7","6","799649291374305282","刘","193","Female","[""好我"",""坏我"",""坏她"",""好她""]","[""强我"",""弱我"",""弱她"",""强她""]","","","","","","","","nonmatch","","","","","","","","","","key","f","16.667441860464937","720.2857142857143","476.2857142857143","j","false","match","img/diamond.png","坏她","坏她","ALT2","moral","","","","","","","","",""
"null","<span style='color:red; font-size: 70px;'>错误! </span>","null","html-keyboard-response","119","322340","0.0-8.0-0.0-4.0-0.0-1.5","6","6","6","6","3","5","2","5","5","5","5","2","1","1","1","1","2","1","1","5","5","5","5","5","5","5","5","5","5","6","7","7","8","6","8","6","7","7","6","4","3","5","6","3","3","5","5","4","1","4","3","4","7","5","5","4","5","3","5","3","5","4","6","3","7","6","6","6","6","7","7","7","7","7","7","6","6","7","6","799649291374305282","刘","193","Female","[""好我"",""坏我"",""坏她"",""好她""]","[""强我"",""弱我"",""弱她"",""强她""]","","","","","","","","","","","","","","","","","","","","","","","","","","","","","","feedback_test","","","","","","","","",""
"757","","f","psychophysics","120","324101","0.0-8.0-0.0-4.0-0.0-0.6","6","6","6","6","3","5","2","5","5","5","5","2","1","1","1","1","2","1","1","5","5","5","5","5","5","5","5","5","5","6","7","7","8","6","8","6","7","7","6","4","3","5","6","3","3","5","5","4","1","4","3","4","7","5","5","4","5","3","5","3","5","4","6","3","7","6","6","6","6","7","7","7","7","7","7","6","6","7","6","799649291374305282","刘","193","Female","[""好我"",""坏我"",""坏她"",""好她""]","[""强我"",""弱我"",""弱她"",""强她""]","","","","","","","","nonmatch","","","","","","","","","","key","f","16.665384615384728","720.2857142857143","476.2857142857143","f","true","nonmatch","img/pentagon.png","坏她","坏我","ALT2","moral","","","","","","","","",""
"null","<span style='color:GreenYellow; font-size: 70px;'>正确! </span>","null","html-keyboard-response","121","324601","0.0-8.0-0.0-4.0-0.0-1.6","6","6","6","6","3","5","2","5","5","5","5","2","1","1","1","1","2","1","1","5","5","5","5","5","5","5","5","5","5","6","7","7","8","6","8","6","7","7","6","4","3","5","6","3","3","5","5","4","1","4","3","4","7","5","5","4","5","3","5","3","5","4","6","3","7","6","6","6","6","7","7","7","7","7","7","6","6","7","6","799649291374305282","刘","193","Female","[""好我"",""坏我"",""坏她"",""好她""]","[""强我"",""弱我"",""弱她"",""强她""]","","","","","","","","","","","","","","","","","","","","","","","","","","","","","","feedback_test","","","","","","","","",""
"865","","j","psychophysics","122","326470","0.0-8.0-0.0-4.0-0.0-0.7","6","6","6","6","3","5","2","5","5","5","5","2","1","1","1","1","2","1","1","5","5","5","5","5","5","5","5","5","5","6","7","7","8","6","8","6","7","7","6","4","3","5","6","3","3","5","5","4","1","4","3","4","7","5","5","4","5","3","5","3","5","4","6","3","7","6","6","6","6","7","7","7","7","7","7","6","6","7","6","799649291374305282","刘","193","Female","[""好我"",""坏我"",""坏她"",""好她""]","[""强我"",""弱我"",""弱她"",""强她""]","","","","","","","","match","","","","","","","","","","key","j","16.66636363636353","720.2857142857143","476.2857142857143","j","true","match","img/circle.png","好她","好她","ALT2","moral","","","","","","","","",""
"null","<span style='color:GreenYellow; font-size: 70px;'>正确! </span>","null","html-keyboard-response","123","326971","0.0-8.0-0.0-4.0-0.0-1.7","6","6","6","6","3","5","2","5","5","5","5","2","1","1","1","1","2","1","1","5","5","5","5","5","5","5","5","5","5","6","7","7","8","6","8","6","7","7","6","4","3","5","6","3","3","5","5","4","1","4","3","4","7","5","5","4","5","3","5","3","5","4","6","3","7","6","6","6","6","7","7","7","7","7","7","6","6","7","6","799649291374305282","刘","193","Female","[""好我"",""坏我"",""坏她"",""好她""]","[""强我"",""弱我"",""弱她"",""强她""]","","","","","","","","","","","","","","","","","","","","","","","","","","","","","","feedback_test","","","","","","","","",""
"914","","j","psychophysics","124","328888","0.0-8.0-0.0-4.0-0.0-0.8","6","6","6","6","3","5","2","5","5","5","5","2","1","1","1","1","2","1","1","5","5","5","5","5","5","5","5","5","5","6","7","7","8","6","8","6","7","7","6","4","3","5","6","3","3","5","5","4","1","4","3","4","7","5","5","4","5","3","5","3","5","4","6","3","7","6","6","6","6","7","7","7","7","7","7","6","6","7","6","799649291374305282","刘","193","Female","[""好我"",""坏我"",""坏她"",""好她""]","[""强我"",""弱我"",""弱她"",""强她""]","","","","","","","","match","","","","","","","","","","key","j","16.666371681415825","720.2857142857143","476.2857142857143","j","true","match","img/pentagon.png","坏我","坏我","ALT2","moral","","","","","","","","",""
"null","<span style='color:GreenYellow; font-size: 70px;'>正确! </span>","null","html-keyboard-response","125","329390","0.0-8.0-0.0-4.0-0.0-1.8","6","6","6","6","3","5","2","5","5","5","5","2","1","1","1","1","2","1","1","5","5","5","5","5","5","5","5","5","5","6","7","7","8","6","8","6","7","7","6","4","3","5","6","3","3","5","5","4","1","4","3","4","7","5","5","4","5","3","5","3","5","4","6","3","7","6","6","6","6","7","7","7","7","7","7","6","6","7","6","799649291374305282","刘","193","Female","[""好我"",""坏我"",""坏她"",""好她""]","[""强我"",""弱我"",""弱她"",""强她""]","","","","","","","","","","","","","","","","","","","","","","","","","","","","","","feedback_test","","","","","","","","",""
"854","","j","psychophysics","126","331259","0.0-8.0-0.0-4.0-0.0-0.9","6","6","6","6","3","5","2","5","5","5","5","2","1","1","1","1","2","1","1","5","5","5","5","5","5","5","5","5","5","6","7","7","8","6","8","6","7","7","6","4","3","5","6","3","3","5","5","4","1","4","3","4","7","5","5","4","5","3","5","3","5","4","6","3","7","6","6","6","6","7","7","7","7","7","7","6","6","7","6","799649291374305282","刘","193","Female","[""好我"",""坏我"",""坏她"",""好她""]","[""强我"",""弱我"",""弱她"",""强她""]","","","","","","","","match","","","","","","","","","","key","j","16.667272727272408","720.2857142857143","476.2857142857143","j","true","match","img/diamond.png","坏她","坏她","ALT2","moral","","","","","","","","",""
"null","<span style='color:GreenYellow; font-size: 70px;'>正确! </span>","null","html-keyboard-response","127","331760","0.0-8.0-0.0-4.0-0.0-1.9","6","6","6","6","3","5","2","5","5","5","5","2","1","1","1","1","2","1","1","5","5","5","5","5","5","5","5","5","5","6","7","7","8","6","8","6","7","7","6","4","3","5","6","3","3","5","5","4","1","4","3","4","7","5","5","4","5","3","5","3","5","4","6","3","7","6","6","6","6","7","7","7","7","7","7","6","6","7","6","799649291374305282","刘","193","Female","[""好我"",""坏我"",""坏她"",""好她""]","[""强我"",""弱我"",""弱她"",""强她""]","","","","","","","","","","","","","","","","","","","","","","","","","","","","","","feedback_test","","","","","","","","",""
"823","","f","psychophysics","128","333586","0.0-8.0-0.0-4.0-0.0-0.10","6","6","6","6","3","5","2","5","5","5","5","2","1","1","1","1","2","1","1","5","5","5","5","5","5","5","5","5","5","6","7","7","8","6","8","6","7","7","6","4","3","5","6","3","3","5","5","4","1","4","3","4","7","5","5","4","5","3","5","3","5","4","6","3","7","6","6","6","6","7","7","7","7","7","7","6","6","7","6","799649291374305282","刘","193","Female","[""好我"",""坏我"",""坏她"",""好她""]","[""强我"",""弱我"",""弱她"",""强她""]","","","","","","","","nonmatch","","","","","","","","","","key","f","16.64629629629619","720.2857142857143","476.2857142857143","f","true","nonmatch","img/triangle.png","坏我","好我","ALT2","moral","","","","","","","","",""
"null","<span style='color:GreenYellow; font-size: 70px;'>正确! </span>","null","html-keyboard-response","129","334088","0.0-8.0-0.0-4.0-0.0-1.10","6","6","6","6","3","5","2","5","5","5","5","2","1","1","1","1","2","1","1","5","5","5","5","5","5","5","5","5","5","6","7","7","8","6","8","6","7","7","6","4","3","5","6","3","3","5","5","4","1","4","3","4","7","5","5","4","5","3","5","3","5","4","6","3","7","6","6","6","6","7","7","7","7","7","7","6","6","7","6","799649291374305282","刘","193","Female","[""好我"",""坏我"",""坏她"",""好她""]","[""强我"",""弱我"",""弱她"",""强她""]","","","","","","","","","","","","","","","","","","","","","","","","","","","","","","feedback_test","","","","","","","","",""
"978","","j","psychophysics","130","336067","0.0-8.0-0.0-4.0-0.0-0.11","6","6","6","6","3","5","2","5","5","5","5","2","1","1","1","1","2","1","1","5","5","5","5","5","5","5","5","5","5","6","7","7","8","6","8","6","7","7","6","4","3","5","6","3","3","5","5","4","1","4","3","4","7","5","5","4","5","3","5","3","5","4","6","3","7","6","6","6","6","7","7","7","7","7","7","6","6","7","6","799649291374305282","刘","193","Female","[""好我"",""坏我"",""坏她"",""好她""]","[""强我"",""弱我"",""弱她"",""强她""]","","","","","","","","match","","","","","","","","","","key","j","16.667521367521665","720.2857142857143","476.2857142857143","j","true","match","img/triangle.png","好我","好我","ALT2","moral","","","","","","","","",""
"null","<span style='color:GreenYellow; font-size: 70px;'>正确! </span>","null","html-keyboard-response","131","336568","0.0-8.0-0.0-4.0-0.0-1.11","6","6","6","6","3","5","2","5","5","5","5","2","1","1","1","1","2","1","1","5","5","5","5","5","5","5","5","5","5","6","7","7","8","6","8","6","7","7","6","4","3","5","6","3","3","5","5","4","1","4","3","4","7","5","5","4","5","3","5","3","5","4","6","3","7","6","6","6","6","7","7","7","7","7","7","6","6","7","6","799649291374305282","刘","193","Female","[""好我"",""坏我"",""坏她"",""好她""]","[""强我"",""弱我"",""弱她"",""强她""]","","","","","","","","","","","","","","","","","","","","","","","","","","","","","","feedback_test","","","","","","","","",""
"878","","f","psychophysics","132","338450","0.0-8.0-0.0-4.0-0.0-0.12","6","6","6","6","3","5","2","5","5","5","5","2","1","1","1","1","2","1","1","5","5","5","5","5","5","5","5","5","5","6","7","7","8","6","8","6","7","7","6","4","3","5","6","3","3","5","5","4","1","4","3","4","7","5","5","4","5","3","5","3","5","4","6","3","7","6","6","6","6","7","7","7","7","7","7","6","6","7","6","799649291374305282","刘","193","Female","[""好我"",""坏我"",""坏她"",""好她""]","[""强我"",""弱我"",""弱她"",""强她""]","","","","","","","","nonmatch","","","","","","","","","","key","f","16.666666666666668","720.2857142857143","476.2857142857143","f","true","nonmatch","img/triangle.png","好她","好我","ALT2","moral","","","","","","","","",""
"null","<span style='color:GreenYellow; font-size: 70px;'>正确! </span>","null","html-keyboard-response","133","338951","0.0-8.0-0.0-4.0-0.0-1.12","6","6","6","6","3","5","2","5","5","5","5","2","1","1","1","1","2","1","1","5","5","5","5","5","5","5","5","5","5","6","7","7","8","6","8","6","7","7","6","4","3","5","6","3","3","5","5","4","1","4","3","4","7","5","5","4","5","3","5","3","5","4","6","3","7","6","6","6","6","7","7","7","7","7","7","6","6","7","6","799649291374305282","刘","193","Female","[""好我"",""坏我"",""坏她"",""好她""]","[""强我"",""弱我"",""弱她"",""强她""]","","","","","","","","","","","","","","","","","","","","","","","","","","","","","","feedback_test","","","","","","","","",""
"691","","j","psychophysics","134","340644","0.0-8.0-0.0-4.0-0.0-0.13","6","6","6","6","3","5","2","5","5","5","5","2","1","1","1","1","2","1","1","5","5","5","5","5","5","5","5","5","5","6","7","7","8","6","8","6","7","7","6","4","3","5","6","3","3","5","5","4","1","4","3","4","7","5","5","4","5","3","5","3","5","4","6","3","7","6","6","6","6","7","7","7","7","7","7","6","6","7","6","799649291374305282","刘","193","Female","[""好我"",""坏我"",""坏她"",""好她""]","[""强我"",""弱我"",""弱她"",""强她""]","","","","","","","","match","","","","","","","","","","key","j","16.667000000000115","720.2857142857143","476.2857142857143","j","true","match","img/triangle.png","好我","好我","ALT2","moral","","","","","","","","",""
"null","<span style='color:GreenYellow; font-size: 70px;'>正确! </span>","null","html-keyboard-response","135","341146","0.0-8.0-0.0-4.0-0.0-1.13","6","6","6","6","3","5","2","5","5","5","5","2","1","1","1","1","2","1","1","5","5","5","5","5","5","5","5","5","5","6","7","7","8","6","8","6","7","7","6","4","3","5","6","3","3","5","5","4","1","4","3","4","7","5","5","4","5","3","5","3","5","4","6","3","7","6","6","6","6","7","7","7","7","7","7","6","6","7","6","799649291374305282","刘","193","Female","[""好我"",""坏我"",""坏她"",""好她""]","[""强我"",""弱我"",""弱她"",""强她""]","","","","","","","","","","","","","","","","","","","","","","","","","","","","","","feedback_test","","","","","","","","",""
