"rt","stimulus","response","trial_type","trial_index","time_elapsed","internal_node_id","swb_1","swb_2","swb_3","swb_4","swb_5","LOT_1","LOT_2","LOT_3","LOT_4","LOT_5","LOT_6","IPC_1","IPC_2","IPC_3","IPC_4","IPC_5","IPC_6","IPC_7","IPC_8","MorIden_1","MorIden_2","MorIden_3","MorIden_4","MorIden_5","MorIden_6","MorIden_7","MorIden_8","MorIden_9","MorIden_10","moralSeImag_1","moralSeImag_2","moralSeImag_3","moralSeImag_4","moralSeImag_5","moralSeImag_6","moralSeImag_7","moralSeImag_8","moralSeImag_9","sde_1","sde_2","sde_3","sde_4","sde_5","sde_6","sde_7","sde_8","sde_9","sde_10","trap2","sde_11","sde_12","sde_13","sde_14","sde_15","sde_16","sde_17","sde_18","sde_19","sde_20","IM_1","IM_2","IM_3","IM_4","IM_5","IM_6","IM_7","IM_8","IM_9","IM_10","IM_11","IM_12","IM_13","IM_14","IM_15","IM_16","IM_17","IM_18","IM_19","IM_20","subj_idx","friend_name","ParticipantID","Sex","Word","Word2","value","success","timeout","failed_images","failed_audio","failed_video","user_agent","responses","item_order","radio_event_ids","radio_event_times","key_event_times","mouse_event_times","straightlining","zigzagging","honeypot","task_id","screen_id","time_stamp","response_type","key_press","avg_frame_time","center_x","center_y","person","word","valence","domain","math","correct_response","correct","status","view_history","identity","duration","Image","condition","question_order","trap2_item"
"2069","
   <p><div style='color:white; font-size: 25px'>您好，欢迎参加本次实验。</div></p>
   <p><div style='color:white; font-size: 25px'>为充分保障您的权利，请确保您已经知晓并同意《参与实验同意书》以及《数据公开知情同意书》。</div></p>
   <p><div style='color:white; font-size: 25px'>如果您未见过上述内容，请咨询实验员。</div></p>
   <p style='color:white; font-size: 25px'>如果您选择继续实验，则表示您已经清楚两份知情同意书的内容并同意。</p>
   <p><div style = ""color: pink;font-size:30px;"">请确保您记得day0的实验编号，您将在本次实验输入该编号，若您忘记，请咨询实验员后作答。</div></p>
   <p><div style = ""color:lightblue;font-size:25px;"">请您尽可能认真地作答，我们将依据您在各问卷和按键任务中的作答质量发放报酬。</div></p>
   <p> <div style = ""color: green""><按空格键至下页></div> </p>
   "," ","html-keyboard-response","0","2071","0.0-0.0","6","5","5","4","2","4","3","4","5","5","5","-1","-1","0","-1","-1","0","1","0","5","4","5","1","4","4","3","4","4","4","6","4","7","8","4","8","6","8","8","4","5","5","3","3","3","2","3","4","3","1","2","2","5","3","6","5","4","4","6","5","3","4","3","7","3","7","7","6","7","7","4","7","7","3","7","6","3","6","3","6","799043796162715650","李","133","Female","[""好她"",""好我"",""坏她"",""坏我""]","[""强她"",""强我"",""弱她"",""弱我""]","","","","","","","","","","","","","","","","","","","","","","","","","","","","","","","","","","","","","","",""
"","","","call-function","1","2072","0.0-1.0-0.0","6","5","5","4","2","4","3","4","5","5","5","-1","-1","0","-1","-1","0","1","0","5","4","5","1","4","4","3","4","4","4","6","4","7","8","4","8","6","8","8","4","5","5","3","3","3","2","3","4","3","1","2","2","5","3","6","5","4","4","6","5","3","4","3","7","3","7","7","6","7","7","4","7","7","3","7","6","3","6","3","6","799043796162715650","李","133","Female","[""好她"",""好我"",""坏她"",""坏我""]","[""强她"",""强我"",""弱她"",""弱我""]","","","","","","","","","","","","","","","","","","","","","","","","","","","","","","","","","","","","","","",""
"11543","","[{""name"":""Sex"",""value"":""1""},{""name"":""friend_name"",""value"":""李""},{""name"":""ParticipantID"",""value"":""133""}]","survey-html-form","2","13616","0.0-1.0-1.0","6","5","5","4","2","4","3","4","5","5","5","-1","-1","0","-1","-1","0","1","0","5","4","5","1","4","4","3","4","4","4","6","4","7","8","4","8","6","8","8","4","5","5","3","3","3","2","3","4","3","1","2","2","5","3","6","5","4","4","6","5","3","4","3","7","3","7","7","6","7","7","4","7","7","3","7","6","3","6","3","6","799043796162715650","李","133","Female","[""好她"",""好我"",""坏她"",""坏我""]","[""强她"",""强我"",""弱她"",""弱我""]","","","","","","","","","","","","","","","","","","","","","","","","","","","","","","","","","","","","","","",""
"","","","preload","3","14082","0.0-2.0","6","5","5","4","2","4","3","4","5","5","5","-1","-1","0","-1","-1","0","1","0","5","4","5","1","4","4","3","4","4","4","6","4","7","8","4","8","6","8","8","4","5","5","3","3","3","2","3","4","3","1","2","2","5","3","6","5","4","4","6","5","3","4","3","7","3","7","7","6","7","7","4","7","7","3","7","6","3","6","3","6","799043796162715650","李","133","Female","[""好她"",""好我"",""坏她"",""坏我""]","[""强她"",""强我"",""弱她"",""弱我""]","","true","false","[]","[]","[]","","","","","","","","","","","","","","","","","","","","","","","","","","","","","","","","",""
"","","","fullscreen","4","23592","0.0-3.0","6","5","5","4","2","4","3","4","5","5","5","-1","-1","0","-1","-1","0","1","0","5","4","5","1","4","4","3","4","4","4","6","4","7","8","4","8","6","8","8","4","5","5","3","3","3","2","3","4","3","1","2","2","5","3","6","5","4","4","6","5","3","4","3","7","3","7","7","6","7","7","4","7","7","3","7","6","3","6","3","6","799043796162715650","李","133","Female","[""好她"",""好我"",""坏她"",""坏我""]","[""强她"",""强我"",""弱她"",""弱我""]","","true","","","","","{}","","","","","","","","","","","","","","","","","","","","","","","","","","","","","","","",""
"14362","","{""Q01"":""6"",""Q02"":""5"",""Q03"":""5"",""Q04"":""4"",""Q05"":""2""}","survey-template","5","37962","0.0-4.0","6","5","5","4","2","4","3","4","5","5","5","-1","-1","0","-1","-1","0","1","0","5","4","5","1","4","4","3","4","4","4","6","4","7","8","4","8","6","8","8","4","5","5","3","3","3","2","3","4","3","1","2","2","5","3","6","5","4","4","6","5","3","4","3","7","3","7","7","6","7","7","4","7","7","3","7","6","3","6","3","6","799043796162715650","李","133","Female","[""好她"",""好我"",""坏她"",""坏我""]","[""强她"",""强我"",""弱她"",""弱我""]","","","","","","","","{""Q01"":""6"",""Q02"":""5"",""Q03"":""5"",""Q04"":""4"",""Q05"":""2""}","[0,1,2,3,4]","[""Q01"",""Q02"",""Q03"",""Q04"",""Q03"",""Q05""]","[1722.6000000238419,2580.600000023842,3752.5,6588.799999952316,11748.299999952316,13660.700000047684]","[]","[1722.6000000238419,2580.600000023842,3752.5,6588.799999952316,11748.299999952316,13660.700000047684,14360.700000047684]","0.4","0.5","0","","","","","","","","","","","","","","","","","","","","","","",""
"10147.300000071526","","{""Q01"":""4"",""Q02"":""3"",""Q03"":""4"",""Q04"":""5"",""Q05"":""5"",""Q06"":""5""}","survey-template","6","48114","0.0-5.0","6","5","5","4","2","4","3","4","5","5","5","-1","-1","0","-1","-1","0","1","0","5","4","5","1","4","4","3","4","4","4","6","4","7","8","4","8","6","8","8","4","5","5","3","3","3","2","3","4","3","1","2","2","5","3","6","5","4","4","6","5","3","4","3","7","3","7","7","6","7","7","4","7","7","3","7","6","3","6","3","6","799043796162715650","李","133","Female","[""好她"",""好我"",""坏她"",""坏我""]","[""强她"",""强我"",""弱她"",""弱我""]","","","","","","","","{""Q01"":""4"",""Q02"":""3"",""Q03"":""4"",""Q04"":""5"",""Q05"":""5"",""Q06"":""5""}","[0,1,2,3,4,5]","[""Q01"",""Q02"",""Q03"",""Q04"",""Q05"",""Q06""]","[2234.2000000476837,4474.600000023842,5762.700000047684,7390.399999976158,8284.200000047684,9536.399999976158]","[]","[2234.2000000476837,4474.600000023842,5762.700000047684,7390.399999976158,8284.200000047684,9536.399999976158,10146.300000071526]","0.3333333333333333","0.6","0","","","","","","","","","","","","","","","","","","","","","","",""
"14863.200000047684","","{""Q01"":""-1"",""Q02"":""-1"",""Q03"":""0"",""Q04"":""-1"",""Q05"":""-1"",""Q06"":""0"",""Q07"":""1"",""Q08"":""0""}","survey-template","7","62980","0.0-6.0","6","5","5","4","2","4","3","4","5","5","5","-1","-1","0","-1","-1","0","1","0","5","4","5","1","4","4","3","4","4","4","6","4","7","8","4","8","6","8","8","4","5","5","3","3","3","2","3","4","3","1","2","2","5","3","6","5","4","4","6","5","3","4","3","7","3","7","7","6","7","7","4","7","7","3","7","6","3","6","3","6","799043796162715650","李","133","Female","[""好她"",""好我"",""坏她"",""坏我""]","[""强她"",""强我"",""弱她"",""弱我""]","","","","","","","","{""Q01"":""-1"",""Q02"":""-1"",""Q03"":""0"",""Q04"":""-1"",""Q05"":""-1"",""Q06"":""0"",""Q07"":""1"",""Q08"":""0""}","[0,1,2,3,4,5,6,7]","[""Q01"",""Q02"",""Q03"",""Q04"",""Q05"",""Q06"",""Q07"",""Q08""]","[2361.8000000715256,4091.899999976158,6019.800000071526,7581.800000071526,9413.800000071526,10921.700000047684,12737.600000023842,14045.700000047684]","[]","[1913.8999999761581,2361.8000000715256,4091.899999976158,6019.800000071526,7581.800000071526,9413.800000071526,10921.700000047684,12737.600000023842,14045.700000047684,14861.899999976158]","0.5","0.7142857142857143","0","","","","","","","","","","","","","","","","","","","","","","",""
"3061","
    <p><div style='color:white;font-size:35px; line-height:20px;'>词汇评估任务</div></p><br>
    <p><div style='color:white;font-size:25px; line-height:20px;'>请再次回忆该亲密的朋友，你们至少2年前就认识了，并且最近2年经常见面。</div></p>
    <p><div style='color:white;font-size:25px; line-height:20px;'>在本实验中，您将会看到一些形容词。</div></p>
    <p><div style='color:yellow;font-size:25px; line-height:20px;'>您的任务是判断这些形容词是否符合对您自己或您的朋友的描述。</div></p><p style='font-size:35px'>符合按<span style=""color:lightgreen""> j 键</span>，不符合按<span style=""color:red""> f 键</span></p>","0","html-button-response","8","66045","0.0-7.0-0.0","6","5","5","4","2","4","3","4","5","5","5","-1","-1","0","-1","-1","0","1","0","5","4","5","1","4","4","3","4","4","4","6","4","7","8","4","8","6","8","8","4","5","5","3","3","3","2","3","4","3","1","2","2","5","3","6","5","4","4","6","5","3","4","3","7","3","7","7","6","7","7","4","7","7","3","7","6","3","6","3","6","799043796162715650","李","133","Female","[""好她"",""好我"",""坏她"",""坏我""]","[""强她"",""强我"",""弱她"",""弱我""]","","","","","","","","","","","","","","","","","SRET_EW","EW_instructions","Sun Jan 21 2024 21:01:14 GMT+0800 (中国标准时间)","","","","","","","","","","","","","","","","","","","",""
"1107","","f","psychophysics","9","68156","0.0-7.0-1.0-0.0","6","5","5","4","2","4","3","4","5","5","5","-1","-1","0","-1","-1","0","1","0","5","4","5","1","4","4","3","4","4","4","6","4","7","8","4","8","6","8","8","4","5","5","3","3","3","2","3","4","3","1","2","2","5","3","6","5","4","4","6","5","3","4","3","7","3","7","7","6","7","7","4","7","7","3","7","6","3","6","3","6","799043796162715650","李","133","Female","[""好她"",""好我"",""坏她"",""坏我""]","[""强她"",""强我"",""弱她"",""弱我""]","","","","","","","","no","","","","","","","","","SRET_EW","EW_practice","","key","f","16.66299212598423","768","428","自己","刻板","Negative","ability","","","","","","","","","","",""
"780","","j","psychophysics","10","69938","0.0-7.0-1.0-0.1","6","5","5","4","2","4","3","4","5","5","5","-1","-1","0","-1","-1","0","1","0","5","4","5","1","4","4","3","4","4","4","6","4","7","8","4","8","6","8","8","4","5","5","3","3","3","2","3","4","3","1","2","2","5","3","6","5","4","4","6","5","3","4","3","7","3","7","7","6","7","7","4","7","7","3","7","6","3","6","3","6","799043796162715650","李","133","Female","[""好她"",""好我"",""坏她"",""坏我""]","[""强她"",""强我"",""弱她"",""弱我""]","","","","","","","","yes","","","","","","","","","SRET_EW","EW_practice","","key","j","16.66320754716984","768","428","自己","严谨","Positive","ability","","","","","","","","","","",""
"1540","","f","psychophysics","11","72479","0.0-7.0-1.0-0.2","6","5","5","4","2","4","3","4","5","5","5","-1","-1","0","-1","-1","0","1","0","5","4","5","1","4","4","3","4","4","4","6","4","7","8","4","8","6","8","8","4","5","5","3","3","3","2","3","4","3","1","2","2","5","3","6","5","4","4","6","5","3","4","3","7","3","7","7","6","7","7","4","7","7","3","7","6","3","6","3","6","799043796162715650","李","133","Female","[""好她"",""好我"",""坏她"",""坏我""]","[""强她"",""强我"",""弱她"",""弱我""]","","","","","","","","no","","","","","","","","","SRET_EW","EW_practice","","key","f","16.663576158940476","768","428","朋友","徇私","Negative","morality","","","","","","","","","","",""
"1173","","j","psychophysics","12","74654","0.0-7.0-1.0-0.3","6","5","5","4","2","4","3","4","5","5","5","-1","-1","0","-1","-1","0","1","0","5","4","5","1","4","4","3","4","4","4","6","4","7","8","4","8","6","8","8","4","5","5","3","3","3","2","3","4","3","1","2","2","5","3","6","5","4","4","6","5","3","4","3","7","3","7","7","6","7","7","4","7","7","3","7","6","3","6","3","6","799043796162715650","李","133","Female","[""好她"",""好我"",""坏她"",""坏我""]","[""强她"",""强我"",""弱她"",""弱我""]","","","","","","","","yes","","","","","","","","","SRET_EW","EW_practice","","key","j","16.663846153846066","768","428","朋友","忠实","Positive","morality","","","","","","","","","","",""
"2448","
    <p><div style='color:white;font-size:35px; line-height:20px;'>请您再次阅读实验要求</div></p><br>
    <p><div style='color:white;font-size:25px; line-height:20px;'>请回忆某一个亲密的朋友，你们至少2年前就认识了，并且最近2年经常见面。</div></p>
    <p><div style='color:white;font-size:25px; line-height:20px;'>在本实验中，您将会看到一些形容词。</div></p>
    <p><div style='color:yellow;font-size:25px; line-height:20px;'>您的任务是判断这些形容词是否符合对您自己或您的朋友的描述。</div></p>
    <p><div class='footer' style='font-size:25px; line-height:20px;'>如果对本实验还有不清楚之处，请立即向实验员咨询。</p><p style='font-size:25px; line-height:20px;'>如果您明白了规则：</p><p style='font-size:22px; line-height:20px;'>请按 继续 进入正式实验</p>
    </div>
    <p style='font-size:35px'>符合按<span style=""color:lightgreen""> j 键</span>，不符合按<span style=""color:red""> f 键</span></p>","0","html-button-response","13","77103","0.0-7.0-2.0","6","5","5","4","2","4","3","4","5","5","5","-1","-1","0","-1","-1","0","1","0","5","4","5","1","4","4","3","4","4","4","6","4","7","8","4","8","6","8","8","4","5","5","3","3","3","2","3","4","3","1","2","2","5","3","6","5","4","4","6","5","3","4","3","7","3","7","7","6","7","7","4","7","7","3","7","6","3","6","3","6","799043796162715650","李","133","Female","[""好她"",""好我"",""坏她"",""坏我""]","[""强她"",""强我"",""弱她"",""弱我""]","","","","","","","","","","","","","","","","","SRET_EW","prac_instructions","Sun Jan 21 2024 21:01:14 GMT+0800 (中国标准时间)","","","","","","","","","","","","","","","","","","","",""
"768","","f","psychophysics","14","78872","0.0-7.0-3.0-0.0","6","5","5","4","2","4","3","4","5","5","5","-1","-1","0","-1","-1","0","1","0","5","4","5","1","4","4","3","4","4","4","6","4","7","8","4","8","6","8","8","4","5","5","3","3","3","2","3","4","3","1","2","2","5","3","6","5","4","4","6","5","3","4","3","7","3","7","7","6","7","7","4","7","7","3","7","6","3","6","3","6","799043796162715650","李","133","Female","[""好她"",""好我"",""坏她"",""坏我""]","[""强她"",""强我"",""弱她"",""弱我""]","","","","","","","","no","","","","","","","","","SRET","EW_formal","","key","f","16.66226415094337","768","428","朋友","迷糊","Negative","ability","","","","","","","","","","",""
"898","","j","psychophysics","15","80772","0.0-7.0-3.0-0.1","6","5","5","4","2","4","3","4","5","5","5","-1","-1","0","-1","-1","0","1","0","5","4","5","1","4","4","3","4","4","4","6","4","7","8","4","8","6","8","8","4","5","5","3","3","3","2","3","4","3","1","2","2","5","3","6","5","4","4","6","5","3","4","3","7","3","7","7","6","7","7","4","7","7","3","7","6","3","6","3","6","799043796162715650","李","133","Female","[""好她"",""好我"",""坏她"",""坏我""]","[""强她"",""强我"",""弱她"",""弱我""]","","","","","","","","yes","","","","","","","","","SRET","EW_formal","","key","j","16.663716814159294","768","428","朋友","务实","Positive","ability","","","","","","","","","","",""
"720","","j","psychophysics","16","82494","0.0-7.0-3.0-0.2","6","5","5","4","2","4","3","4","5","5","5","-1","-1","0","-1","-1","0","1","0","5","4","5","1","4","4","3","4","4","4","6","4","7","8","4","8","6","8","8","4","5","5","3","3","3","2","3","4","3","1","2","2","5","3","6","5","4","4","6","5","3","4","3","7","3","7","7","6","7","7","4","7","7","3","7","6","3","6","3","6","799043796162715650","李","133","Female","[""好她"",""好我"",""坏她"",""坏我""]","[""强她"",""强我"",""弱她"",""弱我""]","","","","","","","","yes","","","","","","","","","SRET","EW_formal","","key","j","16.66470588235297","768","428","自己","坚贞","Positive","morality","","","","","","","","","","",""
"694","","f","psychophysics","17","84189","0.0-7.0-3.0-0.3","6","5","5","4","2","4","3","4","5","5","5","-1","-1","0","-1","-1","0","1","0","5","4","5","1","4","4","3","4","4","4","6","4","7","8","4","8","6","8","8","4","5","5","3","3","3","2","3","4","3","1","2","2","5","3","6","5","4","4","6","5","3","4","3","7","3","7","7","6","7","7","4","7","7","3","7","6","3","6","3","6","799043796162715650","李","133","Female","[""好她"",""好我"",""坏她"",""坏我""]","[""强她"",""强我"",""弱她"",""弱我""]","","","","","","","","no","","","","","","","","","SRET","EW_formal","","key","f","16.664356435643622","768","428","自己","说谎","Negative","morality","","","","","","","","","","",""
"848","","f","psychophysics","18","86039","0.0-7.0-3.0-0.4","6","5","5","4","2","4","3","4","5","5","5","-1","-1","0","-1","-1","0","1","0","5","4","5","1","4","4","3","4","4","4","6","4","7","8","4","8","6","8","8","4","5","5","3","3","3","2","3","4","3","1","2","2","5","3","6","5","4","4","6","5","3","4","3","7","3","7","7","6","7","7","4","7","7","3","7","6","3","6","3","6","799043796162715650","李","133","Female","[""好她"",""好我"",""坏她"",""坏我""]","[""强她"",""强我"",""弱她"",""弱我""]","","","","","","","","no","","","","","","","","","SRET","EW_formal","","key","f","16.663636363636364","768","428","朋友","淫乱","Negative","morality","","","","","","","","","","",""
"814","","j","psychophysics","19","87854","0.0-7.0-3.0-0.5","6","5","5","4","2","4","3","4","5","5","5","-1","-1","0","-1","-1","0","1","0","5","4","5","1","4","4","3","4","4","4","6","4","7","8","4","8","6","8","8","4","5","5","3","3","3","2","3","4","3","1","2","2","5","3","6","5","4","4","6","5","3","4","3","7","3","7","7","6","7","7","4","7","7","3","7","6","3","6","3","6","799043796162715650","李","133","Female","[""好她"",""好我"",""坏她"",""坏我""]","[""强她"",""强我"",""弱她"",""弱我""]","","","","","","","","yes","","","","","","","","","SRET","EW_formal","","key","j","16.664814814814708","768","428","自己","扎实","Positive","ability","","","","","","","","","","",""
"1290","","f","psychophysics","20","90146","0.0-7.0-3.0-0.6","6","5","5","4","2","4","3","4","5","5","5","-1","-1","0","-1","-1","0","1","0","5","4","5","1","4","4","3","4","4","4","6","4","7","8","4","8","6","8","8","4","5","5","3","3","3","2","3","4","3","1","2","2","5","3","6","5","4","4","6","5","3","4","3","7","3","7","7","6","7","7","4","7","7","3","7","6","3","6","3","6","799043796162715650","李","133","Female","[""好她"",""好我"",""坏她"",""坏我""]","[""强她"",""强我"",""弱她"",""弱我""]","","","","","","","","no","","","","","","","","","SRET","EW_formal","","key","f","16.664705882353005","768","428","自己","草率","Negative","ability","","","","","","","","","","",""
"834","","f","psychophysics","21","91981","0.0-7.0-3.0-0.7","6","5","5","4","2","4","3","4","5","5","5","-1","-1","0","-1","-1","0","1","0","5","4","5","1","4","4","3","4","4","4","6","4","7","8","4","8","6","8","8","4","5","5","3","3","3","2","3","4","3","1","2","2","5","3","6","5","4","4","6","5","3","4","3","7","3","7","7","6","7","7","4","7","7","3","7","6","3","6","3","6","799043796162715650","李","133","Female","[""好她"",""好我"",""坏她"",""坏我""]","[""强她"",""强我"",""弱她"",""弱我""]","","","","","","","","no","","","","","","","","","SRET","EW_formal","","key","f","16.662727272727352","768","428","朋友","混账","Negative","morality","","","","","","","","","","",""
"713","","f","psychophysics","22","93696","0.0-7.0-3.0-0.8","6","5","5","4","2","4","3","4","5","5","5","-1","-1","0","-1","-1","0","1","0","5","4","5","1","4","4","3","4","4","4","6","4","7","8","4","8","6","8","8","4","5","5","3","3","3","2","3","4","3","1","2","2","5","3","6","5","4","4","6","5","3","4","3","7","3","7","7","6","7","7","4","7","7","3","7","6","3","6","3","6","799043796162715650","李","133","Female","[""好她"",""好我"",""坏她"",""坏我""]","[""强她"",""强我"",""弱她"",""弱我""]","","","","","","","","no","","","","","","","","","SRET","EW_formal","","key","f","16.664356435643477","768","428","朋友","阴毒","Negative","morality","","","","","","","","","","",""
"1093","","f","psychophysics","23","95791","0.0-7.0-3.0-0.9","6","5","5","4","2","4","3","4","5","5","5","-1","-1","0","-1","-1","0","1","0","5","4","5","1","4","4","3","4","4","4","6","4","7","8","4","8","6","8","8","4","5","5","3","3","3","2","3","4","3","1","2","2","5","3","6","5","4","4","6","5","3","4","3","7","3","7","7","6","7","7","4","7","7","3","7","6","3","6","3","6","799043796162715650","李","133","Female","[""好她"",""好我"",""坏她"",""坏我""]","[""强她"",""强我"",""弱她"",""弱我""]","","","","","","","","no","","","","","","","","","SRET","EW_formal","","key","f","16.664","768","428","自己","诡诈","Negative","morality","","","","","","","","","","",""
"842","","j","psychophysics","24","97635","0.0-7.0-3.0-0.10","6","5","5","4","2","4","3","4","5","5","5","-1","-1","0","-1","-1","0","1","0","5","4","5","1","4","4","3","4","4","4","6","4","7","8","4","8","6","8","8","4","5","5","3","3","3","2","3","4","3","1","2","2","5","3","6","5","4","4","6","5","3","4","3","7","3","7","7","6","7","7","4","7","7","3","7","6","3","6","3","6","799043796162715650","李","133","Female","[""好她"",""好我"",""坏她"",""坏我""]","[""强她"",""强我"",""弱她"",""弱我""]","","","","","","","","yes","","","","","","","","","SRET","EW_formal","","key","j","16.664545454545376","768","428","朋友","孝顺","Positive","morality","","","","","","","","","","",""
"988","","j","psychophysics","25","99624","0.0-7.0-3.0-0.11","6","5","5","4","2","4","3","4","5","5","5","-1","-1","0","-1","-1","0","1","0","5","4","5","1","4","4","3","4","4","4","6","4","7","8","4","8","6","8","8","4","5","5","3","3","3","2","3","4","3","1","2","2","5","3","6","5","4","4","6","5","3","4","3","7","3","7","7","6","7","7","4","7","7","3","7","6","3","6","3","6","799043796162715650","李","133","Female","[""好她"",""好我"",""坏她"",""坏我""]","[""强她"",""强我"",""弱她"",""弱我""]","","","","","","","","yes","","","","","","","","","SRET","EW_formal","","key","j","16.663559322033922","768","428","自己","学霸","Positive","ability","","","","","","","","","","",""
"701","","j","psychophysics","26","101326","0.0-7.0-3.0-0.12","6","5","5","4","2","4","3","4","5","5","5","-1","-1","0","-1","-1","0","1","0","5","4","5","1","4","4","3","4","4","4","6","4","7","8","4","8","6","8","8","4","5","5","3","3","3","2","3","4","3","1","2","2","5","3","6","5","4","4","6","5","3","4","3","7","3","7","7","6","7","7","4","7","7","3","7","6","3","6","3","6","799043796162715650","李","133","Female","[""好她"",""好我"",""坏她"",""坏我""]","[""强她"",""强我"",""弱她"",""弱我""]","","","","","","","","yes","","","","","","","","","SRET","EW_formal","","key","j","16.664356435643477","768","428","自己","文明","Positive","morality","","","","","","","","","","",""
"913","","f","psychophysics","27","103240","0.0-7.0-3.0-0.13","6","5","5","4","2","4","3","4","5","5","5","-1","-1","0","-1","-1","0","1","0","5","4","5","1","4","4","3","4","4","4","6","4","7","8","4","8","6","8","8","4","5","5","3","3","3","2","3","4","3","1","2","2","5","3","6","5","4","4","6","5","3","4","3","7","3","7","7","6","7","7","4","7","7","3","7","6","3","6","3","6","799043796162715650","李","133","Female","[""好她"",""好我"",""坏她"",""坏我""]","[""强她"",""强我"",""弱她"",""弱我""]","","","","","","","","no","","","","","","","","","SRET","EW_formal","","key","f","16.66491228070178","768","428","朋友","不良","Negative","morality","","","","","","","","","","",""
"1373","","j","psychophysics","28","105616","0.0-7.0-3.0-0.14","6","5","5","4","2","4","3","4","5","5","5","-1","-1","0","-1","-1","0","1","0","5","4","5","1","4","4","3","4","4","4","6","4","7","8","4","8","6","8","8","4","5","5","3","3","3","2","3","4","3","1","2","2","5","3","6","5","4","4","6","5","3","4","3","7","3","7","7","6","7","7","4","7","7","3","7","6","3","6","3","6","799043796162715650","李","133","Female","[""好她"",""好我"",""坏她"",""坏我""]","[""强她"",""强我"",""弱她"",""弱我""]","","","","","","","","yes","","","","","","","","","SRET","EW_formal","","key","j","16.664788732394427","768","428","朋友","利落","Positive","ability","","","","","","","","","","",""
"1471","","f","psychophysics","29","108089","0.0-7.0-3.0-0.15","6","5","5","4","2","4","3","4","5","5","5","-1","-1","0","-1","-1","0","1","0","5","4","5","1","4","4","3","4","4","4","6","4","7","8","4","8","6","8","8","4","5","5","3","3","3","2","3","4","3","1","2","2","5","3","6","5","4","4","6","5","3","4","3","7","3","7","7","6","7","7","4","7","7","3","7","6","3","6","3","6","799043796162715650","李","133","Female","[""好她"",""好我"",""坏她"",""坏我""]","[""强她"",""强我"",""弱她"",""弱我""]","","","","","","","","no","","","","","","","","","SRET","EW_formal","","key","f","16.663265306122447","768","428","朋友","无敌","Positive","ability","","","","","","","","","","",""
"1751","","f","psychophysics","30","110842","0.0-7.0-3.0-0.16","6","5","5","4","2","4","3","4","5","5","5","-1","-1","0","-1","-1","0","1","0","5","4","5","1","4","4","3","4","4","4","6","4","7","8","4","8","6","8","8","4","5","5","3","3","3","2","3","4","3","1","2","2","5","3","6","5","4","4","6","5","3","4","3","7","3","7","7","6","7","7","4","7","7","3","7","6","3","6","3","6","799043796162715650","李","133","Female","[""好她"",""好我"",""坏她"",""坏我""]","[""强她"",""强我"",""弱她"",""弱我""]","","","","","","","","no","","","","","","","","","SRET","EW_formal","","key","f","16.664634146341463","768","428","朋友","新手","Negative","ability","","","","","","","","","","",""
"821","","j","psychophysics","31","112664","0.0-7.0-3.0-0.17","6","5","5","4","2","4","3","4","5","5","5","-1","-1","0","-1","-1","0","1","0","5","4","5","1","4","4","3","4","4","4","6","4","7","8","4","8","6","8","8","4","5","5","3","3","3","2","3","4","3","1","2","2","5","3","6","5","4","4","6","5","3","4","3","7","3","7","7","6","7","7","4","7","7","3","7","6","3","6","3","6","799043796162715650","李","133","Female","[""好她"",""好我"",""坏她"",""坏我""]","[""强她"",""强我"",""弱她"",""弱我""]","","","","","","","","yes","","","","","","","","","SRET","EW_formal","","key","j","16.666055045871612","768","428","自己","思辨","Positive","ability","","","","","","","","","","",""
"982","","j","psychophysics","32","114647","0.0-7.0-3.0-0.18","6","5","5","4","2","4","3","4","5","5","5","-1","-1","0","-1","-1","0","1","0","5","4","5","1","4","4","3","4","4","4","6","4","7","8","4","8","6","8","8","4","5","5","3","3","3","2","3","4","3","1","2","2","5","3","6","5","4","4","6","5","3","4","3","7","3","7","7","6","7","7","4","7","7","3","7","6","3","6","3","6","799043796162715650","李","133","Female","[""好她"",""好我"",""坏她"",""坏我""]","[""强她"",""强我"",""弱她"",""弱我""]","","","","","","","","yes","","","","","","","","","SRET","EW_formal","","key","j","16.662711864406877","768","428","朋友","侠义","Positive","morality","","","","","","","","","","",""
"715","","f","psychophysics","33","116363","0.0-7.0-3.0-0.19","6","5","5","4","2","4","3","4","5","5","5","-1","-1","0","-1","-1","0","1","0","5","4","5","1","4","4","3","4","4","4","6","4","7","8","4","8","6","8","8","4","5","5","3","3","3","2","3","4","3","1","2","2","5","3","6","5","4","4","6","5","3","4","3","7","3","7","7","6","7","7","4","7","7","3","7","6","3","6","3","6","799043796162715650","李","133","Female","[""好她"",""好我"",""坏她"",""坏我""]","[""强她"",""强我"",""弱她"",""弱我""]","","","","","","","","no","","","","","","","","","SRET","EW_formal","","key","f","16.66274509803913","768","428","朋友","腐败","Negative","morality","","","","","","","","","","",""
"720","","f","psychophysics","34","118084","0.0-7.0-3.0-0.20","6","5","5","4","2","4","3","4","5","5","5","-1","-1","0","-1","-1","0","1","0","5","4","5","1","4","4","3","4","4","4","6","4","7","8","4","8","6","8","8","4","5","5","3","3","3","2","3","4","3","1","2","2","5","3","6","5","4","4","6","5","3","4","3","7","3","7","7","6","7","7","4","7","7","3","7","6","3","6","3","6","799043796162715650","李","133","Female","[""好她"",""好我"",""坏她"",""坏我""]","[""强她"",""强我"",""弱她"",""弱我""]","","","","","","","","no","","","","","","","","","SRET","EW_formal","","key","f","16.66372549019605","768","428","朋友","低劣","Negative","morality","","","","","","","","","","",""
"903","","j","psychophysics","35","119989","0.0-7.0-3.0-0.21","6","5","5","4","2","4","3","4","5","5","5","-1","-1","0","-1","-1","0","1","0","5","4","5","1","4","4","3","4","4","4","6","4","7","8","4","8","6","8","8","4","5","5","3","3","3","2","3","4","3","1","2","2","5","3","6","5","4","4","6","5","3","4","3","7","3","7","7","6","7","7","4","7","7","3","7","6","3","6","3","6","799043796162715650","李","133","Female","[""好她"",""好我"",""坏她"",""坏我""]","[""强她"",""强我"",""弱她"",""弱我""]","","","","","","","","yes","","","","","","","","","SRET","EW_formal","","key","j","16.663716814159294","768","428","自己","专注","Positive","ability","","","","","","","","","","",""
"727","","f","psychophysics","36","121718","0.0-7.0-3.0-0.22","6","5","5","4","2","4","3","4","5","5","5","-1","-1","0","-1","-1","0","1","0","5","4","5","1","4","4","3","4","4","4","6","4","7","8","4","8","6","8","8","4","5","5","3","3","3","2","3","4","3","1","2","2","5","3","6","5","4","4","6","5","3","4","3","7","3","7","7","6","7","7","4","7","7","3","7","6","3","6","3","6","799043796162715650","李","133","Female","[""好她"",""好我"",""坏她"",""坏我""]","[""强她"",""强我"",""弱她"",""弱我""]","","","","","","","","no","","","","","","","","","SRET","EW_formal","","key","f","16.664077669902856","768","428","朋友","无助","Negative","ability","","","","","","","","","","",""
"642","","j","psychophysics","37","123362","0.0-7.0-3.0-0.23","6","5","5","4","2","4","3","4","5","5","5","-1","-1","0","-1","-1","0","1","0","5","4","5","1","4","4","3","4","4","4","6","4","7","8","4","8","6","8","8","4","5","5","3","3","3","2","3","4","3","1","2","2","5","3","6","5","4","4","6","5","3","4","3","7","3","7","7","6","7","7","4","7","7","3","7","6","3","6","3","6","799043796162715650","李","133","Female","[""好她"",""好我"",""坏她"",""坏我""]","[""强她"",""强我"",""弱她"",""弱我""]","","","","","","","","yes","","","","","","","","","SRET","EW_formal","","key","j","16.6653061224491","768","428","自己","坦荡","Positive","morality","","","","","","","","","","",""
"649","","f","psychophysics","38","125012","0.0-7.0-3.0-0.24","6","5","5","4","2","4","3","4","5","5","5","-1","-1","0","-1","-1","0","1","0","5","4","5","1","4","4","3","4","4","4","6","4","7","8","4","8","6","8","8","4","5","5","3","3","3","2","3","4","3","1","2","2","5","3","6","5","4","4","6","5","3","4","3","7","3","7","7","6","7","7","4","7","7","3","7","6","3","6","3","6","799043796162715650","李","133","Female","[""好她"",""好我"",""坏她"",""坏我""]","[""强她"",""强我"",""弱她"",""弱我""]","","","","","","","","no","","","","","","","","","SRET","EW_formal","","key","f","16.663265306122447","768","428","朋友","奸诈","Negative","morality","","","","","","","","","","",""
"663","","j","psychophysics","39","126676","0.0-7.0-3.0-0.25","6","5","5","4","2","4","3","4","5","5","5","-1","-1","0","-1","-1","0","1","0","5","4","5","1","4","4","3","4","4","4","6","4","7","8","4","8","6","8","8","4","5","5","3","3","3","2","3","4","3","1","2","2","5","3","6","5","4","4","6","5","3","4","3","7","3","7","7","6","7","7","4","7","7","3","7","6","3","6","3","6","799043796162715650","李","133","Female","[""好她"",""好我"",""坏她"",""坏我""]","[""强她"",""强我"",""弱她"",""弱我""]","","","","","","","","yes","","","","","","","","","SRET","EW_formal","","key","j","16.66363636363648","768","428","自己","毅力","Positive","ability","","","","","","","","","","",""
"770","","f","psychophysics","40","128448","0.0-7.0-3.0-0.26","6","5","5","4","2","4","3","4","5","5","5","-1","-1","0","-1","-1","0","1","0","5","4","5","1","4","4","3","4","4","4","6","4","7","8","4","8","6","8","8","4","5","5","3","3","3","2","3","4","3","1","2","2","5","3","6","5","4","4","6","5","3","4","3","7","3","7","7","6","7","7","4","7","7","3","7","6","3","6","3","6","799043796162715650","李","133","Female","[""好她"",""好我"",""坏她"",""坏我""]","[""强她"",""强我"",""弱她"",""弱我""]","","","","","","","","no","","","","","","","","","SRET","EW_formal","","key","f","16.66476190476193","768","428","自己","无赖","Negative","morality","","","","","","","","","","",""
"749","","j","psychophysics","41","130200","0.0-7.0-3.0-0.27","6","5","5","4","2","4","3","4","5","5","5","-1","-1","0","-1","-1","0","1","0","5","4","5","1","4","4","3","4","4","4","6","4","7","8","4","8","6","8","8","4","5","5","3","3","3","2","3","4","3","1","2","2","5","3","6","5","4","4","6","5","3","4","3","7","3","7","7","6","7","7","4","7","7","3","7","6","3","6","3","6","799043796162715650","李","133","Female","[""好她"",""好我"",""坏她"",""坏我""]","[""强她"",""强我"",""弱她"",""弱我""]","","","","","","","","yes","","","","","","","","","SRET","EW_formal","","key","j","16.66538461538459","768","428","朋友","努力","Positive","ability","","","","","","","","","","",""
"1111","","j","psychophysics","42","132313","0.0-7.0-3.0-0.28","6","5","5","4","2","4","3","4","5","5","5","-1","-1","0","-1","-1","0","1","0","5","4","5","1","4","4","3","4","4","4","6","4","7","8","4","8","6","8","8","4","5","5","3","3","3","2","3","4","3","1","2","2","5","3","6","5","4","4","6","5","3","4","3","7","3","7","7","6","7","7","4","7","7","3","7","6","3","6","3","6","799043796162715650","李","133","Female","[""好她"",""好我"",""坏她"",""坏我""]","[""强她"",""强我"",""弱她"",""弱我""]","","","","","","","","yes","","","","","","","","","SRET","EW_formal","","key","j","16.665079365079272","768","428","朋友","高明","Positive","ability","","","","","","","","","","",""
"807","","f","psychophysics","43","134120","0.0-7.0-3.0-0.29","6","5","5","4","2","4","3","4","5","5","5","-1","-1","0","-1","-1","0","1","0","5","4","5","1","4","4","3","4","4","4","6","4","7","8","4","8","6","8","8","4","5","5","3","3","3","2","3","4","3","1","2","2","5","3","6","5","4","4","6","5","3","4","3","7","3","7","7","6","7","7","4","7","7","3","7","6","3","6","3","6","799043796162715650","李","133","Female","[""好她"",""好我"",""坏她"",""坏我""]","[""强她"",""强我"",""弱她"",""弱我""]","","","","","","","","no","","","","","","","","","SRET","EW_formal","","key","f","16.66355140186916","768","428","自己","愚蠢","Negative","ability","","","","","","","","","","",""
"758","","j","psychophysics","44","135879","0.0-7.0-3.0-0.30","6","5","5","4","2","4","3","4","5","5","5","-1","-1","0","-1","-1","0","1","0","5","4","5","1","4","4","3","4","4","4","6","4","7","8","4","8","6","8","8","4","5","5","3","3","3","2","3","4","3","1","2","2","5","3","6","5","4","4","6","5","3","4","3","7","3","7","7","6","7","7","4","7","7","3","7","6","3","6","3","6","799043796162715650","李","133","Female","[""好她"",""好我"",""坏她"",""坏我""]","[""强她"",""强我"",""弱她"",""弱我""]","","","","","","","","yes","","","","","","","","","SRET","EW_formal","","key","j","16.664761904761793","768","428","朋友","刻苦","Positive","ability","","","","","","","","","","",""
"778","","f","psychophysics","45","137659","0.0-7.0-3.0-0.31","6","5","5","4","2","4","3","4","5","5","5","-1","-1","0","-1","-1","0","1","0","5","4","5","1","4","4","3","4","4","4","6","4","7","8","4","8","6","8","8","4","5","5","3","3","3","2","3","4","3","1","2","2","5","3","6","5","4","4","6","5","3","4","3","7","3","7","7","6","7","7","4","7","7","3","7","6","3","6","3","6","799043796162715650","李","133","Female","[""好她"",""好我"",""坏她"",""坏我""]","[""强她"",""强我"",""弱她"",""弱我""]","","","","","","","","no","","","","","","","","","SRET","EW_formal","","key","f","16.66509433962264","768","428","自己","拖拉","Negative","ability","","","","","","","","","","",""
"734","","f","psychophysics","46","139395","0.0-7.0-3.0-0.32","6","5","5","4","2","4","3","4","5","5","5","-1","-1","0","-1","-1","0","1","0","5","4","5","1","4","4","3","4","4","4","6","4","7","8","4","8","6","8","8","4","5","5","3","3","3","2","3","4","3","1","2","2","5","3","6","5","4","4","6","5","3","4","3","7","3","7","7","6","7","7","4","7","7","3","7","6","3","6","3","6","799043796162715650","李","133","Female","[""好她"",""好我"",""坏她"",""坏我""]","[""强她"",""强我"",""弱她"",""弱我""]","","","","","","","","no","","","","","","","","","SRET","EW_formal","","key","f","16.66310679611639","768","428","朋友","迟钝","Negative","ability","","","","","","","","","","",""
"722","","f","psychophysics","47","141118","0.0-7.0-3.0-0.33","6","5","5","4","2","4","3","4","5","5","5","-1","-1","0","-1","-1","0","1","0","5","4","5","1","4","4","3","4","4","4","6","4","7","8","4","8","6","8","8","4","5","5","3","3","3","2","3","4","3","1","2","2","5","3","6","5","4","4","6","5","3","4","3","7","3","7","7","6","7","7","4","7","7","3","7","6","3","6","3","6","799043796162715650","李","133","Female","[""好她"",""好我"",""坏她"",""坏我""]","[""强她"",""强我"",""弱她"",""弱我""]","","","","","","","","no","","","","","","","","","SRET","EW_formal","","key","f","16.66470588235311","768","428","朋友","小人","Negative","morality","","","","","","","","","","",""
"1021","","j","psychophysics","48","143141","0.0-7.0-3.0-0.34","6","5","5","4","2","4","3","4","5","5","5","-1","-1","0","-1","-1","0","1","0","5","4","5","1","4","4","3","4","4","4","6","4","7","8","4","8","6","8","8","4","5","5","3","3","3","2","3","4","3","1","2","2","5","3","6","5","4","4","6","5","3","4","3","7","3","7","7","6","7","7","4","7","7","3","7","6","3","6","3","6","799043796162715650","李","133","Female","[""好她"",""好我"",""坏她"",""坏我""]","[""强她"",""强我"",""弱她"",""弱我""]","","","","","","","","yes","","","","","","","","","SRET","EW_formal","","key","j","16.665289256198346","768","428","朋友","正气","Positive","morality","","","","","","","","","","",""
"615","","j","psychophysics","49","144757","0.0-7.0-3.0-0.35","6","5","5","4","2","4","3","4","5","5","5","-1","-1","0","-1","-1","0","1","0","5","4","5","1","4","4","3","4","4","4","6","4","7","8","4","8","6","8","8","4","5","5","3","3","3","2","3","4","3","1","2","2","5","3","6","5","4","4","6","5","3","4","3","7","3","7","7","6","7","7","4","7","7","3","7","6","3","6","3","6","799043796162715650","李","133","Female","[""好她"",""好我"",""坏她"",""坏我""]","[""强她"",""强我"",""弱她"",""弱我""]","","","","","","","","yes","","","","","","","","","SRET","EW_formal","","key","j","16.663541666666486","768","428","朋友","勤奋","Positive","ability","","","","","","","","","","",""
"697","","j","psychophysics","50","146458","0.0-7.0-3.0-0.36","6","5","5","4","2","4","3","4","5","5","5","-1","-1","0","-1","-1","0","1","0","5","4","5","1","4","4","3","4","4","4","6","4","7","8","4","8","6","8","8","4","5","5","3","3","3","2","3","4","3","1","2","2","5","3","6","5","4","4","6","5","3","4","3","7","3","7","7","6","7","7","4","7","7","3","7","6","3","6","3","6","799043796162715650","李","133","Female","[""好她"",""好我"",""坏她"",""坏我""]","[""强她"",""强我"",""弱她"",""弱我""]","","","","","","","","yes","","","","","","","","","SRET","EW_formal","","key","j","16.663366336633665","768","428","朋友","沉着","Positive","ability","","","","","","","","","","",""
"697","","j","psychophysics","51","148156","0.0-7.0-3.0-0.37","6","5","5","4","2","4","3","4","5","5","5","-1","-1","0","-1","-1","0","1","0","5","4","5","1","4","4","3","4","4","4","6","4","7","8","4","8","6","8","8","4","5","5","3","3","3","2","3","4","3","1","2","2","5","3","6","5","4","4","6","5","3","4","3","7","3","7","7","6","7","7","4","7","7","3","7","6","3","6","3","6","799043796162715650","李","133","Female","[""好她"",""好我"",""坏她"",""坏我""]","[""强她"",""强我"",""弱她"",""弱我""]","","","","","","","","yes","","","","","","","","","SRET","EW_formal","","key","j","16.664356435643334","768","428","自己","坚持","Positive","ability","","","","","","","","","","",""
"870","","f","psychophysics","52","150028","0.0-7.0-3.0-0.38","6","5","5","4","2","4","3","4","5","5","5","-1","-1","0","-1","-1","0","1","0","5","4","5","1","4","4","3","4","4","4","6","4","7","8","4","8","6","8","8","4","5","5","3","3","3","2","3","4","3","1","2","2","5","3","6","5","4","4","6","5","3","4","3","7","3","7","7","6","7","7","4","7","7","3","7","6","3","6","3","6","799043796162715650","李","133","Female","[""好她"",""好我"",""坏她"",""坏我""]","[""强她"",""强我"",""弱她"",""弱我""]","","","","","","","","no","","","","","","","","","SRET","EW_formal","","key","f","16.66396396396407","768","428","朋友","怠惰","Negative","ability","","","","","","","","","","",""
"811","","f","psychophysics","53","151839","0.0-7.0-3.0-0.39","6","5","5","4","2","4","3","4","5","5","5","-1","-1","0","-1","-1","0","1","0","5","4","5","1","4","4","3","4","4","4","6","4","7","8","4","8","6","8","8","4","5","5","3","3","3","2","3","4","3","1","2","2","5","3","6","5","4","4","6","5","3","4","3","7","3","7","7","6","7","7","4","7","7","3","7","6","3","6","3","6","799043796162715650","李","133","Female","[""好她"",""好我"",""坏她"",""坏我""]","[""强她"",""强我"",""弱她"",""弱我""]","","","","","","","","no","","","","","","","","","SRET","EW_formal","","key","f","16.663888888888728","768","428","自己","笨蛋","Negative","ability","","","","","","","","","","",""
"732","","f","psychophysics","54","153573","0.0-7.0-3.0-0.40","6","5","5","4","2","4","3","4","5","5","5","-1","-1","0","-1","-1","0","1","0","5","4","5","1","4","4","3","4","4","4","6","4","7","8","4","8","6","8","8","4","5","5","3","3","3","2","3","4","3","1","2","2","5","3","6","5","4","4","6","5","3","4","3","7","3","7","7","6","7","7","4","7","7","3","7","6","3","6","3","6","799043796162715650","李","133","Female","[""好她"",""好我"",""坏她"",""坏我""]","[""强她"",""强我"",""弱她"",""弱我""]","","","","","","","","no","","","","","","","","","SRET","EW_formal","","key","f","16.66310679611639","768","428","自己","贪腐","Negative","morality","","","","","","","","","","",""
"721","","j","psychophysics","55","155300","0.0-7.0-3.0-0.41","6","5","5","4","2","4","3","4","5","5","5","-1","-1","0","-1","-1","0","1","0","5","4","5","1","4","4","3","4","4","4","6","4","7","8","4","8","6","8","8","4","5","5","3","3","3","2","3","4","3","1","2","2","5","3","6","5","4","4","6","5","3","4","3","7","3","7","7","6","7","7","4","7","7","3","7","6","3","6","3","6","799043796162715650","李","133","Female","[""好她"",""好我"",""坏她"",""坏我""]","[""强她"",""强我"",""弱她"",""弱我""]","","","","","","","","yes","","","","","","","","","SRET","EW_formal","","key","j","16.66470588235311","768","428","自己","君子","Positive","morality","","","","","","","","","","",""
"958","","j","psychophysics","56","157260","0.0-7.0-3.0-0.42","6","5","5","4","2","4","3","4","5","5","5","-1","-1","0","-1","-1","0","1","0","5","4","5","1","4","4","3","4","4","4","6","4","7","8","4","8","6","8","8","4","5","5","3","3","3","2","3","4","3","1","2","2","5","3","6","5","4","4","6","5","3","4","3","7","3","7","7","6","7","7","4","7","7","3","7","6","3","6","3","6","799043796162715650","李","133","Female","[""好她"",""好我"",""坏她"",""坏我""]","[""强她"",""强我"",""弱她"",""弱我""]","","","","","","","","yes","","","","","","","","","SRET","EW_formal","","key","j","16.663247863247914","768","428","朋友","礼貌","Positive","morality","","","","","","","","","","",""
"660","","j","psychophysics","57","158921","0.0-7.0-3.0-0.43","6","5","5","4","2","4","3","4","5","5","5","-1","-1","0","-1","-1","0","1","0","5","4","5","1","4","4","3","4","4","4","6","4","7","8","4","8","6","8","8","4","5","5","3","3","3","2","3","4","3","1","2","2","5","3","6","5","4","4","6","5","3","4","3","7","3","7","7","6","7","7","4","7","7","3","7","6","3","6","3","6","799043796162715650","李","133","Female","[""好她"",""好我"",""坏她"",""坏我""]","[""强她"",""强我"",""弱她"",""弱我""]","","","","","","","","yes","","","","","","","","","SRET","EW_formal","","key","j","16.664646464646346","768","428","自己","善心","Positive","morality","","","","","","","","","","",""
"674","","f","psychophysics","58","160597","0.0-7.0-3.0-0.44","6","5","5","4","2","4","3","4","5","5","5","-1","-1","0","-1","-1","0","1","0","5","4","5","1","4","4","3","4","4","4","6","4","7","8","4","8","6","8","8","4","5","5","3","3","3","2","3","4","3","1","2","2","5","3","6","5","4","4","6","5","3","4","3","7","3","7","7","6","7","7","4","7","7","3","7","6","3","6","3","6","799043796162715650","李","133","Female","[""好她"",""好我"",""坏她"",""坏我""]","[""强她"",""强我"",""弱她"",""弱我""]","","","","","","","","no","","","","","","","","","SRET","EW_formal","","key","f","16.66464646464664","768","428","自己","奸险","Negative","morality","","","","","","","","","","",""
"1260","","f","psychophysics","59","162858","0.0-7.0-3.0-0.45","6","5","5","4","2","4","3","4","5","5","5","-1","-1","0","-1","-1","0","1","0","5","4","5","1","4","4","3","4","4","4","6","4","7","8","4","8","6","8","8","4","5","5","3","3","3","2","3","4","3","1","2","2","5","3","6","5","4","4","6","5","3","4","3","7","3","7","7","6","7","7","4","7","7","3","7","6","3","6","3","6","799043796162715650","李","133","Female","[""好她"",""好我"",""坏她"",""坏我""]","[""强她"",""强我"",""弱她"",""弱我""]","","","","","","","","no","","","","","","","","","SRET","EW_formal","","key","f","16.664444444444314","768","428","朋友","才尽","Negative","ability","","","","","","","","","","",""
"711","","j","psychophysics","60","164570","0.0-7.0-3.0-0.46","6","5","5","4","2","4","3","4","5","5","5","-1","-1","0","-1","-1","0","1","0","5","4","5","1","4","4","3","4","4","4","6","4","7","8","4","8","6","8","8","4","5","5","3","3","3","2","3","4","3","1","2","2","5","3","6","5","4","4","6","5","3","4","3","7","3","7","7","6","7","7","4","7","7","3","7","6","3","6","3","6","799043796162715650","李","133","Female","[""好她"",""好我"",""坏她"",""坏我""]","[""强她"",""强我"",""弱她"",""弱我""]","","","","","","","","yes","","","","","","","","","SRET","EW_formal","","key","j","16.66470588235311","768","428","朋友","忠诚","Positive","morality","","","","","","","","","","",""
"968","","f","psychophysics","61","166539","0.0-7.0-3.0-0.47","6","5","5","4","2","4","3","4","5","5","5","-1","-1","0","-1","-1","0","1","0","5","4","5","1","4","4","3","4","4","4","6","4","7","8","4","8","6","8","8","4","5","5","3","3","3","2","3","4","3","1","2","2","5","3","6","5","4","4","6","5","3","4","3","7","3","7","7","6","7","7","4","7","7","3","7","6","3","6","3","6","799043796162715650","李","133","Female","[""好她"",""好我"",""坏她"",""坏我""]","[""强她"",""强我"",""弱她"",""弱我""]","","","","","","","","no","","","","","","","","","SRET","EW_formal","","key","f","16.663247863247914","768","428","自己","迂拙","Negative","ability","","","","","","","","","","",""
"711","","f","psychophysics","62","168252","0.0-7.0-3.0-0.48","6","5","5","4","2","4","3","4","5","5","5","-1","-1","0","-1","-1","0","1","0","5","4","5","1","4","4","3","4","4","4","6","4","7","8","4","8","6","8","8","4","5","5","3","3","3","2","3","4","3","1","2","2","5","3","6","5","4","4","6","5","3","4","3","7","3","7","7","6","7","7","4","7","7","3","7","6","3","6","3","6","799043796162715650","李","133","Female","[""好她"",""好我"",""坏她"",""坏我""]","[""强她"",""强我"",""弱她"",""弱我""]","","","","","","","","no","","","","","","","","","SRET","EW_formal","","key","f","16.664705882352827","768","428","朋友","弱智","Negative","ability","","","","","","","","","","",""
"731","","j","psychophysics","63","169984","0.0-7.0-3.0-0.49","6","5","5","4","2","4","3","4","5","5","5","-1","-1","0","-1","-1","0","1","0","5","4","5","1","4","4","3","4","4","4","6","4","7","8","4","8","6","8","8","4","5","5","3","3","3","2","3","4","3","1","2","2","5","3","6","5","4","4","6","5","3","4","3","7","3","7","7","6","7","7","4","7","7","3","7","6","3","6","3","6","799043796162715650","李","133","Female","[""好她"",""好我"",""坏她"",""坏我""]","[""强她"",""强我"",""弱她"",""弱我""]","","","","","","","","yes","","","","","","","","","SRET","EW_formal","","key","j","16.661165048543747","768","428","朋友","细心","Positive","ability","","","","","","","","","","",""
"820","","j","psychophysics","64","171806","0.0-7.0-3.0-0.50","6","5","5","4","2","4","3","4","5","5","5","-1","-1","0","-1","-1","0","1","0","5","4","5","1","4","4","3","4","4","4","6","4","7","8","4","8","6","8","8","4","5","5","3","3","3","2","3","4","3","1","2","2","5","3","6","5","4","4","6","5","3","4","3","7","3","7","7","6","7","7","4","7","7","3","7","6","3","6","3","6","799043796162715650","李","133","Female","[""好她"",""好我"",""坏她"",""坏我""]","[""强她"",""强我"",""弱她"",""弱我""]","","","","","","","","yes","","","","","","","","","SRET","EW_formal","","key","j","16.663888888888998","768","428","自己","干练","Positive","ability","","","","","","","","","","",""
"670","","j","psychophysics","65","173484","0.0-7.0-3.0-0.51","6","5","5","4","2","4","3","4","5","5","5","-1","-1","0","-1","-1","0","1","0","5","4","5","1","4","4","3","4","4","4","6","4","7","8","4","8","6","8","8","4","5","5","3","3","3","2","3","4","3","1","2","2","5","3","6","5","4","4","6","5","3","4","3","7","3","7","7","6","7","7","4","7","7","3","7","6","3","6","3","6","799043796162715650","李","133","Female","[""好她"",""好我"",""坏她"",""坏我""]","[""强她"",""强我"",""弱她"",""弱我""]","","","","","","","","yes","","","","","","","","","SRET","EW_formal","","key","j","16.665","768","428","朋友","忠良","Positive","morality","","","","","","","","","","",""
"674","","j","psychophysics","66","175159","0.0-7.0-3.0-0.52","6","5","5","4","2","4","3","4","5","5","5","-1","-1","0","-1","-1","0","1","0","5","4","5","1","4","4","3","4","4","4","6","4","7","8","4","8","6","8","8","4","5","5","3","3","3","2","3","4","3","1","2","2","5","3","6","5","4","4","6","5","3","4","3","7","3","7","7","6","7","7","4","7","7","3","7","6","3","6","3","6","799043796162715650","李","133","Female","[""好她"",""好我"",""坏她"",""坏我""]","[""强她"",""强我"",""弱她"",""弱我""]","","","","","","","","yes","","","","","","","","","SRET","EW_formal","","key","j","16.663636363636186","768","428","朋友","依靠","Negative","ability","","","","","","","","","","",""
"657","","f","psychophysics","67","176820","0.0-7.0-3.0-0.53","6","5","5","4","2","4","3","4","5","5","5","-1","-1","0","-1","-1","0","1","0","5","4","5","1","4","4","3","4","4","4","6","4","7","8","4","8","6","8","8","4","5","5","3","3","3","2","3","4","3","1","2","2","5","3","6","5","4","4","6","5","3","4","3","7","3","7","7","6","7","7","4","7","7","3","7","6","3","6","3","6","799043796162715650","李","133","Female","[""好她"",""好我"",""坏她"",""坏我""]","[""强她"",""强我"",""弱她"",""弱我""]","","","","","","","","no","","","","","","","","","SRET","EW_formal","","key","f","16.664646464646346","768","428","自己","昏庸","Negative","ability","","","","","","","","","","",""
"898","","f","psychophysics","68","178720","0.0-7.0-3.0-0.54","6","5","5","4","2","4","3","4","5","5","5","-1","-1","0","-1","-1","0","1","0","5","4","5","1","4","4","3","4","4","4","6","4","7","8","4","8","6","8","8","4","5","5","3","3","3","2","3","4","3","1","2","2","5","3","6","5","4","4","6","5","3","4","3","7","3","7","7","6","7","7","4","7","7","3","7","6","3","6","3","6","799043796162715650","李","133","Female","[""好她"",""好我"",""坏她"",""坏我""]","[""强她"",""强我"",""弱她"",""弱我""]","","","","","","","","no","","","","","","","","","SRET","EW_formal","","key","f","16.662831858407028","768","428","自己","差生","Negative","ability","","","","","","","","","","",""
"823","","j","psychophysics","69","180545","0.0-7.0-3.0-0.55","6","5","5","4","2","4","3","4","5","5","5","-1","-1","0","-1","-1","0","1","0","5","4","5","1","4","4","3","4","4","4","6","4","7","8","4","8","6","8","8","4","5","5","3","3","3","2","3","4","3","1","2","2","5","3","6","5","4","4","6","5","3","4","3","7","3","7","7","6","7","7","4","7","7","3","7","6","3","6","3","6","799043796162715650","李","133","Female","[""好她"",""好我"",""坏她"",""坏我""]","[""强她"",""强我"",""弱她"",""弱我""]","","","","","","","","yes","","","","","","","","","SRET","EW_formal","","key","j","16.665740740740688","768","428","自己","守法","Positive","morality","","","","","","","","","","",""
"669","","j","psychophysics","70","182217","0.0-7.0-3.0-0.56","6","5","5","4","2","4","3","4","5","5","5","-1","-1","0","-1","-1","0","1","0","5","4","5","1","4","4","3","4","4","4","6","4","7","8","4","8","6","8","8","4","5","5","3","3","3","2","3","4","3","1","2","2","5","3","6","5","4","4","6","5","3","4","3","7","3","7","7","6","7","7","4","7","7","3","7","6","3","6","3","6","799043796162715650","李","133","Female","[""好她"",""好我"",""坏她"",""坏我""]","[""强她"",""强我"",""弱她"",""弱我""]","","","","","","","","yes","","","","","","","","","SRET","EW_formal","","key","j","16.665","768","428","朋友","智慧","Positive","ability","","","","","","","","","","",""
"605","","f","psychophysics","71","183823","0.0-7.0-3.0-0.57","6","5","5","4","2","4","3","4","5","5","5","-1","-1","0","-1","-1","0","1","0","5","4","5","1","4","4","3","4","4","4","6","4","7","8","4","8","6","8","8","4","5","5","3","3","3","2","3","4","3","1","2","2","5","3","6","5","4","4","6","5","3","4","3","7","3","7","7","6","7","7","4","7","7","3","7","6","3","6","3","6","799043796162715650","李","133","Female","[""好她"",""好我"",""坏她"",""坏我""]","[""强她"",""强我"",""弱她"",""弱我""]","","","","","","","","no","","","","","","","","","SRET","EW_formal","","key","f","16.664210526315852","768","428","朋友","歹毒","Negative","morality","","","","","","","","","","",""
"646","","j","psychophysics","72","185471","0.0-7.0-3.0-0.58","6","5","5","4","2","4","3","4","5","5","5","-1","-1","0","-1","-1","0","1","0","5","4","5","1","4","4","3","4","4","4","6","4","7","8","4","8","6","8","8","4","5","5","3","3","3","2","3","4","3","1","2","2","5","3","6","5","4","4","6","5","3","4","3","7","3","7","7","6","7","7","4","7","7","3","7","6","3","6","3","6","799043796162715650","李","133","Female","[""好她"",""好我"",""坏她"",""坏我""]","[""强她"",""强我"",""弱她"",""弱我""]","","","","","","","","yes","","","","","","","","","SRET","EW_formal","","key","j","16.666326530612423","768","428","自己","忠勇","Positive","morality","","","","","","","","","","",""
"658","","f","psychophysics","73","187131","0.0-7.0-3.0-0.59","6","5","5","4","2","4","3","4","5","5","5","-1","-1","0","-1","-1","0","1","0","5","4","5","1","4","4","3","4","4","4","6","4","7","8","4","8","6","8","8","4","5","5","3","3","3","2","3","4","3","1","2","2","5","3","6","5","4","4","6","5","3","4","3","7","3","7","7","6","7","7","4","7","7","3","7","6","3","6","3","6","799043796162715650","李","133","Female","[""好她"",""好我"",""坏她"",""坏我""]","[""强她"",""强我"",""弱她"",""弱我""]","","","","","","","","no","","","","","","","","","SRET","EW_formal","","key","f","16.663636363636186","768","428","自己","无耻","Negative","morality","","","","","","","","","","",""
"616","","j","psychophysics","74","188749","0.0-7.0-3.0-0.60","6","5","5","4","2","4","3","4","5","5","5","-1","-1","0","-1","-1","0","1","0","5","4","5","1","4","4","3","4","4","4","6","4","7","8","4","8","6","8","8","4","5","5","3","3","3","2","3","4","3","1","2","2","5","3","6","5","4","4","6","5","3","4","3","7","3","7","7","6","7","7","4","7","7","3","7","6","3","6","3","6","799043796162715650","李","133","Female","[""好她"",""好我"",""坏她"",""坏我""]","[""强她"",""强我"",""弱她"",""弱我""]","","","","","","","","yes","","","","","","","","","SRET","EW_formal","","key","j","16.663541666666486","768","428","自己","仗义","Positive","morality","","","","","","","","","","",""
"616","","j","psychophysics","75","190366","0.0-7.0-3.0-0.61","6","5","5","4","2","4","3","4","5","5","5","-1","-1","0","-1","-1","0","1","0","5","4","5","1","4","4","3","4","4","4","6","4","7","8","4","8","6","8","8","4","5","5","3","3","3","2","3","4","3","1","2","2","5","3","6","5","4","4","6","5","3","4","3","7","3","7","7","6","7","7","4","7","7","3","7","6","3","6","3","6","799043796162715650","李","133","Female","[""好她"",""好我"",""坏她"",""坏我""]","[""强她"",""强我"",""弱她"",""弱我""]","","","","","","","","yes","","","","","","","","","SRET","EW_formal","","key","j","16.664583333333514","768","428","自己","善良","Positive","morality","","","","","","","","","","",""
"718","","j","psychophysics","76","192086","0.0-7.0-3.0-0.62","6","5","5","4","2","4","3","4","5","5","5","-1","-1","0","-1","-1","0","1","0","5","4","5","1","4","4","3","4","4","4","6","4","7","8","4","8","6","8","8","4","5","5","3","3","3","2","3","4","3","1","2","2","5","3","6","5","4","4","6","5","3","4","3","7","3","7","7","6","7","7","4","7","7","3","7","6","3","6","3","6","799043796162715650","李","133","Female","[""好她"",""好我"",""坏她"",""坏我""]","[""强她"",""强我"",""弱她"",""弱我""]","","","","","","","","yes","","","","","","","","","SRET","EW_formal","","key","j","16.662745098039274","768","428","朋友","淡泊","Positive","morality","","","","","","","","","","",""
"609","","j","psychophysics","77","193696","0.0-7.0-3.0-0.63","6","5","5","4","2","4","3","4","5","5","5","-1","-1","0","-1","-1","0","1","0","5","4","5","1","4","4","3","4","4","4","6","4","7","8","4","8","6","8","8","4","5","5","3","3","3","2","3","4","3","1","2","2","5","3","6","5","4","4","6","5","3","4","3","7","3","7","7","6","7","7","4","7","7","3","7","6","3","6","3","6","799043796162715650","李","133","Female","[""好她"",""好我"",""坏她"",""坏我""]","[""强她"",""强我"",""弱她"",""弱我""]","","","","","","","","yes","","","","","","","","","SRET","EW_formal","","key","j","16.661458333333332","768","428","自己","周到","Positive","ability","","","","","","","","","","",""
"764","","j","psychophysics","78","195463","0.0-7.0-3.0-0.64","6","5","5","4","2","4","3","4","5","5","5","-1","-1","0","-1","-1","0","1","0","5","4","5","1","4","4","3","4","4","4","6","4","7","8","4","8","6","8","8","4","5","5","3","3","3","2","3","4","3","1","2","2","5","3","6","5","4","4","6","5","3","4","3","7","3","7","7","6","7","7","4","7","7","3","7","6","3","6","3","6","799043796162715650","李","133","Female","[""好她"",""好我"",""坏她"",""坏我""]","[""强她"",""强我"",""弱她"",""弱我""]","","","","","","","","yes","","","","","","","","","SRET","EW_formal","","key","j","16.66476190476207","768","428","朋友","清廉","Positive","morality","","","","","","","","","","",""
"631","","j","psychophysics","79","197097","0.0-7.0-3.0-0.65","6","5","5","4","2","4","3","4","5","5","5","-1","-1","0","-1","-1","0","1","0","5","4","5","1","4","4","3","4","4","4","6","4","7","8","4","8","6","8","8","4","5","5","3","3","3","2","3","4","3","1","2","2","5","3","6","5","4","4","6","5","3","4","3","7","3","7","7","6","7","7","4","7","7","3","7","6","3","6","3","6","799043796162715650","李","133","Female","[""好她"",""好我"",""坏她"",""坏我""]","[""强她"",""强我"",""弱她"",""弱我""]","","","","","","","","yes","","","","","","","","","SRET","EW_formal","","key","j","16.663917525773435","768","428","自己","勤恳","Positive","morality","","","","","","","","","","",""
"654","","f","psychophysics","80","198752","0.0-7.0-3.0-0.66","6","5","5","4","2","4","3","4","5","5","5","-1","-1","0","-1","-1","0","1","0","5","4","5","1","4","4","3","4","4","4","6","4","7","8","4","8","6","8","8","4","5","5","3","3","3","2","3","4","3","1","2","2","5","3","6","5","4","4","6","5","3","4","3","7","3","7","7","6","7","7","4","7","7","3","7","6","3","6","3","6","799043796162715650","李","133","Female","[""好她"",""好我"",""坏她"",""坏我""]","[""强她"",""强我"",""弱她"",""弱我""]","","","","","","","","no","","","","","","","","","SRET","EW_formal","","key","f","16.663265306122447","768","428","朋友","粗心","Negative","ability","","","","","","","","","","",""
"793","","j","psychophysics","81","200548","0.0-7.0-3.0-0.67","6","5","5","4","2","4","3","4","5","5","5","-1","-1","0","-1","-1","0","1","0","5","4","5","1","4","4","3","4","4","4","6","4","7","8","4","8","6","8","8","4","5","5","3","3","3","2","3","4","3","1","2","2","5","3","6","5","4","4","6","5","3","4","3","7","3","7","7","6","7","7","4","7","7","3","7","6","3","6","3","6","799043796162715650","李","133","Female","[""好她"",""好我"",""坏她"",""坏我""]","[""强她"",""强我"",""弱她"",""弱我""]","","","","","","","","yes","","","","","","","","","SRET","EW_formal","","key","j","16.665420560747773","768","428","自己","娴熟","Positive","ability","","","","","","","","","","",""
"684","","f","psychophysics","82","202234","0.0-7.0-3.0-0.68","6","5","5","4","2","4","3","4","5","5","5","-1","-1","0","-1","-1","0","1","0","5","4","5","1","4","4","3","4","4","4","6","4","7","8","4","8","6","8","8","4","5","5","3","3","3","2","3","4","3","1","2","2","5","3","6","5","4","4","6","5","3","4","3","7","3","7","7","6","7","7","4","7","7","3","7","6","3","6","3","6","799043796162715650","李","133","Female","[""好她"",""好我"",""坏她"",""坏我""]","[""强她"",""强我"",""弱她"",""弱我""]","","","","","","","","no","","","","","","","","","SRET","EW_formal","","key","f","16.66399999999994","768","428","自己","毛糙","Negative","ability","","","","","","","","","","",""
"714","","j","psychophysics","83","203950","0.0-7.0-3.0-0.69","6","5","5","4","2","4","3","4","5","5","5","-1","-1","0","-1","-1","0","1","0","5","4","5","1","4","4","3","4","4","4","6","4","7","8","4","8","6","8","8","4","5","5","3","3","3","2","3","4","3","1","2","2","5","3","6","5","4","4","6","5","3","4","3","7","3","7","7","6","7","7","4","7","7","3","7","6","3","6","3","6","799043796162715650","李","133","Female","[""好她"",""好我"",""坏她"",""坏我""]","[""强她"",""强我"",""弱她"",""弱我""]","","","","","","","","yes","","","","","","","","","SRET","EW_formal","","key","j","16.664705882352827","768","428","朋友","敏捷","Positive","ability","","","","","","","","","","",""
"627","","f","psychophysics","84","205578","0.0-7.0-3.0-0.70","6","5","5","4","2","4","3","4","5","5","5","-1","-1","0","-1","-1","0","1","0","5","4","5","1","4","4","3","4","4","4","6","4","7","8","4","8","6","8","8","4","5","5","3","3","3","2","3","4","3","1","2","2","5","3","6","5","4","4","6","5","3","4","3","7","3","7","7","6","7","7","4","7","7","3","7","6","3","6","3","6","799043796162715650","李","133","Female","[""好她"",""好我"",""坏她"",""坏我""]","[""强她"",""强我"",""弱她"",""弱我""]","","","","","","","","no","","","","","","","","","SRET","EW_formal","","key","f","16.662886597938023","768","428","朋友","龌龊","Negative","morality","","","","","","","","","","",""
"674","","j","psychophysics","85","207253","0.0-7.0-3.0-0.71","6","5","5","4","2","4","3","4","5","5","5","-1","-1","0","-1","-1","0","1","0","5","4","5","1","4","4","3","4","4","4","6","4","7","8","4","8","6","8","8","4","5","5","3","3","3","2","3","4","3","1","2","2","5","3","6","5","4","4","6","5","3","4","3","7","3","7","7","6","7","7","4","7","7","3","7","6","3","6","3","6","799043796162715650","李","133","Female","[""好她"",""好我"",""坏她"",""坏我""]","[""强她"",""强我"",""弱她"",""弱我""]","","","","","","","","yes","","","","","","","","","SRET","EW_formal","","key","j","16.66464646464664","768","428","自己","厚道","Positive","morality","","","","","","","","","","",""
"582","","j","psychophysics","86","208836","0.0-7.0-3.0-0.72","6","5","5","4","2","4","3","4","5","5","5","-1","-1","0","-1","-1","0","1","0","5","4","5","1","4","4","3","4","4","4","6","4","7","8","4","8","6","8","8","4","5","5","3","3","3","2","3","4","3","1","2","2","5","3","6","5","4","4","6","5","3","4","3","7","3","7","7","6","7","7","4","7","7","3","7","6","3","6","3","6","799043796162715650","李","133","Female","[""好她"",""好我"",""坏她"",""坏我""]","[""强她"",""强我"",""弱她"",""弱我""]","","","","","","","","yes","","","","","","","","","SRET","EW_formal","","key","j","16.665957446808573","768","428","朋友","守信","Positive","morality","","","","","","","","","","",""
"981","","j","psychophysics","87","210819","0.0-7.0-3.0-0.73","6","5","5","4","2","4","3","4","5","5","5","-1","-1","0","-1","-1","0","1","0","5","4","5","1","4","4","3","4","4","4","6","4","7","8","4","8","6","8","8","4","5","5","3","3","3","2","3","4","3","1","2","2","5","3","6","5","4","4","6","5","3","4","3","7","3","7","7","6","7","7","4","7","7","3","7","6","3","6","3","6","799043796162715650","李","133","Female","[""好她"",""好我"",""坏她"",""坏我""]","[""强她"",""强我"",""弱她"",""弱我""]","","","","","","","","yes","","","","","","","","","SRET","EW_formal","","key","j","16.665254237288135","768","428","朋友","爱国","Positive","morality","","","","","","","","","","",""
"819","","f","psychophysics","88","212639","0.0-7.0-3.0-0.74","6","5","5","4","2","4","3","4","5","5","5","-1","-1","0","-1","-1","0","1","0","5","4","5","1","4","4","3","4","4","4","6","4","7","8","4","8","6","8","8","4","5","5","3","3","3","2","3","4","3","1","2","2","5","3","6","5","4","4","6","5","3","4","3","7","3","7","7","6","7","7","4","7","7","3","7","6","3","6","3","6","799043796162715650","李","133","Female","[""好她"",""好我"",""坏她"",""坏我""]","[""强她"",""强我"",""弱她"",""弱我""]","","","","","","","","no","","","","","","","","","SRET","EW_formal","","key","f","16.664814814814708","768","428","自己","拙笨","Negative","ability","","","","","","","","","","",""
"1143","","f","psychophysics","89","214786","0.0-7.0-3.0-0.75","6","5","5","4","2","4","3","4","5","5","5","-1","-1","0","-1","-1","0","1","0","5","4","5","1","4","4","3","4","4","4","6","4","7","8","4","8","6","8","8","4","5","5","3","3","3","2","3","4","3","1","2","2","5","3","6","5","4","4","6","5","3","4","3","7","3","7","7","6","7","7","4","7","7","3","7","6","3","6","3","6","799043796162715650","李","133","Female","[""好她"",""好我"",""坏她"",""坏我""]","[""强她"",""强我"",""弱她"",""弱我""]","","","","","","","","no","","","","","","","","","SRET","EW_formal","","key","f","16.6640625","768","428","自己","自私","Negative","morality","","","","","","","","","","",""
"1054","","f","psychophysics","90","216842","0.0-7.0-3.0-0.76","6","5","5","4","2","4","3","4","5","5","5","-1","-1","0","-1","-1","0","1","0","5","4","5","1","4","4","3","4","4","4","6","4","7","8","4","8","6","8","8","4","5","5","3","3","3","2","3","4","3","1","2","2","5","3","6","5","4","4","6","5","3","4","3","7","3","7","7","6","7","7","4","7","7","3","7","6","3","6","3","6","799043796162715650","李","133","Female","[""好她"",""好我"",""坏她"",""坏我""]","[""强她"",""强我"",""弱她"",""弱我""]","","","","","","","","no","","","","","","","","","SRET","EW_formal","","key","f","16.66341463414639","768","428","自己","盲目","Negative","ability","","","","","","","","","","",""
"814","","f","psychophysics","91","218657","0.0-7.0-3.0-0.77","6","5","5","4","2","4","3","4","5","5","5","-1","-1","0","-1","-1","0","1","0","5","4","5","1","4","4","3","4","4","4","6","4","7","8","4","8","6","8","8","4","5","5","3","3","3","2","3","4","3","1","2","2","5","3","6","5","4","4","6","5","3","4","3","7","3","7","7","6","7","7","4","7","7","3","7","6","3","6","3","6","799043796162715650","李","133","Female","[""好她"",""好我"",""坏她"",""坏我""]","[""强她"",""强我"",""弱她"",""弱我""]","","","","","","","","no","","","","","","","","","SRET","EW_formal","","key","f","16.662037037037038","768","428","朋友","驽钝","Negative","ability","","","","","","","","","","",""
"965","","f","psychophysics","92","220625","0.0-7.0-3.0-0.78","6","5","5","4","2","4","3","4","5","5","5","-1","-1","0","-1","-1","0","1","0","5","4","5","1","4","4","3","4","4","4","6","4","7","8","4","8","6","8","8","4","5","5","3","3","3","2","3","4","3","1","2","2","5","3","6","5","4","4","6","5","3","4","3","7","3","7","7","6","7","7","4","7","7","3","7","6","3","6","3","6","799043796162715650","李","133","Female","[""好她"",""好我"",""坏她"",""坏我""]","[""强她"",""强我"",""弱她"",""弱我""]","","","","","","","","no","","","","","","","","","SRET","EW_formal","","key","f","16.663247863247914","768","428","自己","不孝","Negative","morality","","","","","","","","","","",""
"833","","f","psychophysics","93","222460","0.0-7.0-3.0-0.79","6","5","5","4","2","4","3","4","5","5","5","-1","-1","0","-1","-1","0","1","0","5","4","5","1","4","4","3","4","4","4","6","4","7","8","4","8","6","8","8","4","5","5","3","3","3","2","3","4","3","1","2","2","5","3","6","5","4","4","6","5","3","4","3","7","3","7","7","6","7","7","4","7","7","3","7","6","3","6","3","6","799043796162715650","李","133","Female","[""好她"",""好我"",""坏她"",""坏我""]","[""强她"",""强我"",""弱她"",""弱我""]","","","","","","","","no","","","","","","","","","SRET","EW_formal","","key","f","16.66146788990831","768","428","朋友","逞能","Negative","ability","","","","","","","","","","",""
"709","","f","psychophysics","94","224171","0.0-7.0-3.0-0.80","6","5","5","4","2","4","3","4","5","5","5","-1","-1","0","-1","-1","0","1","0","5","4","5","1","4","4","3","4","4","4","6","4","7","8","4","8","6","8","8","4","5","5","3","3","3","2","3","4","3","1","2","2","5","3","6","5","4","4","6","5","3","4","3","7","3","7","7","6","7","7","4","7","7","3","7","6","3","6","3","6","799043796162715650","李","133","Female","[""好她"",""好我"",""坏她"",""坏我""]","[""强她"",""强我"",""弱她"",""弱我""]","","","","","","","","no","","","","","","","","","SRET","EW_formal","","key","f","16.664356435643622","768","428","自己","邪恶","Negative","morality","","","","","","","","","","",""
"734","","j","psychophysics","95","225907","0.0-7.0-3.0-0.81","6","5","5","4","2","4","3","4","5","5","5","-1","-1","0","-1","-1","0","1","0","5","4","5","1","4","4","3","4","4","4","6","4","7","8","4","8","6","8","8","4","5","5","3","3","3","2","3","4","3","1","2","2","5","3","6","5","4","4","6","5","3","4","3","7","3","7","7","6","7","7","4","7","7","3","7","6","3","6","3","6","799043796162715650","李","133","Female","[""好她"",""好我"",""坏她"",""坏我""]","[""强她"",""强我"",""弱她"",""弱我""]","","","","","","","","yes","","","","","","","","","SRET","EW_formal","","key","j","16.664423076923132","768","428","自己","能干","Positive","ability","","","","","","","","","","",""
"681","","f","psychophysics","96","227589","0.0-7.0-3.0-0.82","6","5","5","4","2","4","3","4","5","5","5","-1","-1","0","-1","-1","0","1","0","5","4","5","1","4","4","3","4","4","4","6","4","7","8","4","8","6","8","8","4","5","5","3","3","3","2","3","4","3","1","2","2","5","3","6","5","4","4","6","5","3","4","3","7","3","7","7","6","7","7","4","7","7","3","7","6","3","6","3","6","799043796162715650","李","133","Female","[""好她"",""好我"",""坏她"",""坏我""]","[""强她"",""强我"",""弱她"",""弱我""]","","","","","","","","no","","","","","","","","","SRET","EW_formal","","key","f","16.66399999999994","768","428","自己","拜金","Negative","morality","","","","","","","","","","",""
"603","","f","psychophysics","97","229194","0.0-7.0-3.0-0.83","6","5","5","4","2","4","3","4","5","5","5","-1","-1","0","-1","-1","0","1","0","5","4","5","1","4","4","3","4","4","4","6","4","7","8","4","8","6","8","8","4","5","5","3","3","3","2","3","4","3","1","2","2","5","3","6","5","4","4","6","5","3","4","3","7","3","7","7","6","7","7","4","7","7","3","7","6","3","6","3","6","799043796162715650","李","133","Female","[""好她"",""好我"",""坏她"",""坏我""]","[""强她"",""强我"",""弱她"",""弱我""]","","","","","","","","no","","","","","","","","","SRET","EW_formal","","key","f","16.664210526315852","768","428","自己","下流","Negative","morality","","","","","","","","","","",""
"596","","f","psychophysics","98","230792","0.0-7.0-3.0-0.84","6","5","5","4","2","4","3","4","5","5","5","-1","-1","0","-1","-1","0","1","0","5","4","5","1","4","4","3","4","4","4","6","4","7","8","4","8","6","8","8","4","5","5","3","3","3","2","3","4","3","1","2","2","5","3","6","5","4","4","6","5","3","4","3","7","3","7","7","6","7","7","4","7","7","3","7","6","3","6","3","6","799043796162715650","李","133","Female","[""好她"",""好我"",""坏她"",""坏我""]","[""强她"",""强我"",""弱她"",""弱我""]","","","","","","","","no","","","","","","","","","SRET","EW_formal","","key","f","16.66315789473684","768","428","朋友","低俗","Negative","morality","","","","","","","","","","",""
"740","","f","psychophysics","99","232533","0.0-7.0-3.0-0.85","6","5","5","4","2","4","3","4","5","5","5","-1","-1","0","-1","-1","0","1","0","5","4","5","1","4","4","3","4","4","4","6","4","7","8","4","8","6","8","8","4","5","5","3","3","3","2","3","4","3","1","2","2","5","3","6","5","4","4","6","5","3","4","3","7","3","7","7","6","7","7","4","7","7","3","7","6","3","6","3","6","799043796162715650","李","133","Female","[""好她"",""好我"",""坏她"",""坏我""]","[""强她"",""强我"",""弱她"",""弱我""]","","","","","","","","no","","","","","","","","","SRET","EW_formal","","key","f","16.66504854368932","768","428","自己","缓慢","Negative","ability","","","","","","","","","","",""
"691","","j","psychophysics","100","234224","0.0-7.0-3.0-0.86","6","5","5","4","2","4","3","4","5","5","5","-1","-1","0","-1","-1","0","1","0","5","4","5","1","4","4","3","4","4","4","6","4","7","8","4","8","6","8","8","4","5","5","3","3","3","2","3","4","3","1","2","2","5","3","6","5","4","4","6","5","3","4","3","7","3","7","7","6","7","7","4","7","7","3","7","6","3","6","3","6","799043796162715650","李","133","Female","[""好她"",""好我"",""坏她"",""坏我""]","[""强她"",""强我"",""弱她"",""弱我""]","","","","","","","","yes","","","","","","","","","SRET","EW_formal","","key","j","16.664356435643622","768","428","自己","主见","Positive","ability","","","","","","","","","","",""
"719","","j","psychophysics","101","235945","0.0-7.0-3.0-0.87","6","5","5","4","2","4","3","4","5","5","5","-1","-1","0","-1","-1","0","1","0","5","4","5","1","4","4","3","4","4","4","6","4","7","8","4","8","6","8","8","4","5","5","3","3","3","2","3","4","3","1","2","2","5","3","6","5","4","4","6","5","3","4","3","7","3","7","7","6","7","7","4","7","7","3","7","6","3","6","3","6","799043796162715650","李","133","Female","[""好她"",""好我"",""坏她"",""坏我""]","[""强她"",""强我"",""弱她"",""弱我""]","","","","","","","","yes","","","","","","","","","SRET","EW_formal","","key","j","16.664705882352827","768","428","朋友","素养","Positive","morality","","","","","","","","","","",""
"3194","
    <p><div style='color:white;font-size:35px; line-height:20px;'>计算任务</div></p><br>
    <p><div style='color:red;font-size:25px; line-height:20px;'>接下来，您将看到一些四则运算题，<b>请从键盘选择 0-9 进行反应。</b></div></p>
    <p><div style='color:red;font-size:25px; line-height:20px;'>请尽可能快地进行计算，计算的速度和正确率将影响报酬的发放。</div></p>
    <p><div class='footer' style='color:white;font-size:25px; line-height:20px;'>如果对本实验还有不清楚之处，请立即向实验员咨询。</p><p style='color:white;font-size:25px; line-height:20px;'>如果您明白了规则：</p><p style='color:white;font-size:22px; line-height:20px;'>请按 继续 进入练习</p>
    </div>
    ","0","html-button-response","102","239140","0.0-7.0-4.0","6","5","5","4","2","4","3","4","5","5","5","-1","-1","0","-1","-1","0","1","0","5","4","5","1","4","4","3","4","4","4","6","4","7","8","4","8","6","8","8","4","5","5","3","3","3","2","3","4","3","1","2","2","5","3","6","5","4","4","6","5","3","4","3","7","3","7","7","6","7","7","4","7","7","3","7","6","3","6","3","6","799043796162715650","李","133","Female","[""好她"",""好我"",""坏她"",""坏我""]","[""强她"",""强我"",""弱她"",""弱我""]","","","","","","","","","","","","","","","","","SRET_math","math_instructions","Sun Jan 21 2024 21:01:14 GMT+0800 (中国标准时间)","","","","","","","","","","","","","","","","","","","",""
"1697","","7","psychophysics","103","240840","0.0-7.0-5.0-0.0","6","5","5","4","2","4","3","4","5","5","5","-1","-1","0","-1","-1","0","1","0","5","4","5","1","4","4","3","4","4","4","6","4","7","8","4","8","6","8","8","4","5","5","3","3","3","2","3","4","3","1","2","2","5","3","6","5","4","4","6","5","3","4","3","7","3","7","7","6","7","7","4","7","7","3","7","6","3","6","3","6","799043796162715650","李","133","Female","[""好她"",""好我"",""坏她"",""坏我""]","[""强她"",""强我"",""弱她"",""弱我""]","","","","","","","","7","","","","","","","","","SRET","SRET_math_calculate","","key","7","16.662745098039274","768","428","","","","","2+5= ?","7","1","","","","","","","",""
"1805","","9","psychophysics","104","242646","0.0-7.0-5.0-0.1","6","5","5","4","2","4","3","4","5","5","5","-1","-1","0","-1","-1","0","1","0","5","4","5","1","4","4","3","4","4","4","6","4","7","8","4","8","6","8","8","4","5","5","3","3","3","2","3","4","3","1","2","2","5","3","6","5","4","4","6","5","3","4","3","7","3","7","7","6","7","7","4","7","7","3","7","6","3","6","3","6","799043796162715650","李","133","Female","[""好她"",""好我"",""坏她"",""坏我""]","[""强她"",""强我"",""弱她"",""弱我""]","","","","","","","","9","","","","","","","","","SRET","SRET_math_calculate","","key","9","16.664485981308466","768","428","","","","","81/9= ?","9","1","","","","","","","",""
"1690","","5","psychophysics","105","244338","0.0-7.0-5.0-0.2","6","5","5","4","2","4","3","4","5","5","5","-1","-1","0","-1","-1","0","1","0","5","4","5","1","4","4","3","4","4","4","6","4","7","8","4","8","6","8","8","4","5","5","3","3","3","2","3","4","3","1","2","2","5","3","6","5","4","4","6","5","3","4","3","7","3","7","7","6","7","7","4","7","7","3","7","6","3","6","3","6","799043796162715650","李","133","Female","[""好她"",""好我"",""坏她"",""坏我""]","[""强她"",""强我"",""弱她"",""弱我""]","","","","","","","","5","","","","","","","","","SRET","SRET_math_calculate","","key","5","16.664356435643334","768","428","","","","","17-12= ? ","5","1","","","","","","","",""
"1684","","3","psychophysics","106","246023","0.0-7.0-5.0-0.3","6","5","5","4","2","4","3","4","5","5","5","-1","-1","0","-1","-1","0","1","0","5","4","5","1","4","4","3","4","4","4","6","4","7","8","4","8","6","8","8","4","5","5","3","3","3","2","3","4","3","1","2","2","5","3","6","5","4","4","6","5","3","4","3","7","3","7","7","6","7","7","4","7","7","3","7","6","3","6","3","6","799043796162715650","李","133","Female","[""好她"",""好我"",""坏她"",""坏我""]","[""强她"",""强我"",""弱她"",""弱我""]","","","","","","","","3","","","","","","","","","SRET","SRET_math_calculate","","key","3","16.665","768","428","","","","","3+0= ?","3","1","","","","","","","",""
"1625","","9","psychophysics","107","247650","0.0-7.0-5.0-0.4","6","5","5","4","2","4","3","4","5","5","5","-1","-1","0","-1","-1","0","1","0","5","4","5","1","4","4","3","4","4","4","6","4","7","8","4","8","6","8","8","4","5","5","3","3","3","2","3","4","3","1","2","2","5","3","6","5","4","4","6","5","3","4","3","7","3","7","7","6","7","7","4","7","7","3","7","6","3","6","3","6","799043796162715650","李","133","Female","[""好她"",""好我"",""坏她"",""坏我""]","[""强她"",""强我"",""弱她"",""弱我""]","","","","","","","","9","","","","","","","","","SRET","SRET_math_calculate","","key","9","16.664948453608247","768","428","","","","","7+2= ?","9","1","","","","","","","",""
"1622","","8","psychophysics","108","249276","0.0-7.0-5.0-0.5","6","5","5","4","2","4","3","4","5","5","5","-1","-1","0","-1","-1","0","1","0","5","4","5","1","4","4","3","4","4","4","6","4","7","8","4","8","6","8","8","4","5","5","3","3","3","2","3","4","3","1","2","2","5","3","6","5","4","4","6","5","3","4","3","7","3","7","7","6","7","7","4","7","7","3","7","6","3","6","3","6","799043796162715650","李","133","Female","[""好她"",""好我"",""坏她"",""坏我""]","[""强她"",""强我"",""弱她"",""弱我""]","","","","","","","","8","","","","","","","","","SRET","SRET_math_calculate","","key","8","16.662500000000062","768","428","","","","","7+1= ?","8","1","","","","","","","",""
"1582","","8","psychophysics","109","250860","0.0-7.0-5.0-0.6","6","5","5","4","2","4","3","4","5","5","5","-1","-1","0","-1","-1","0","1","0","5","4","5","1","4","4","3","4","4","4","6","4","7","8","4","8","6","8","8","4","5","5","3","3","3","2","3","4","3","1","2","2","5","3","6","5","4","4","6","5","3","4","3","7","3","7","7","6","7","7","4","7","7","3","7","6","3","6","3","6","799043796162715650","李","133","Female","[""好她"",""好我"",""坏她"",""坏我""]","[""强她"",""强我"",""弱她"",""弱我""]","","","","","","","","8","","","","","","","","","SRET","SRET_math_calculate","","key","8","16.664893617021278","768","428","","","","","8*1= ?","8","1","","","","","","","",""
"1679","","7","psychophysics","110","252540","0.0-7.0-5.0-0.7","6","5","5","4","2","4","3","4","5","5","5","-1","-1","0","-1","-1","0","1","0","5","4","5","1","4","4","3","4","4","4","6","4","7","8","4","8","6","8","8","4","5","5","3","3","3","2","3","4","3","1","2","2","5","3","6","5","4","4","6","5","3","4","3","7","3","7","7","6","7","7","4","7","7","3","7","6","3","6","3","6","799043796162715650","李","133","Female","[""好她"",""好我"",""坏她"",""坏我""]","[""强她"",""强我"",""弱她"",""弱我""]","","","","","","","","7","","","","","","","","","SRET","SRET_math_calculate","","key","7","16.665","768","428","","","","","8-1= ?","7","1","","","","","","","",""
"1784","","7","psychophysics","111","254325","0.0-7.0-5.0-0.8","6","5","5","4","2","4","3","4","5","5","5","-1","-1","0","-1","-1","0","1","0","5","4","5","1","4","4","3","4","4","4","6","4","7","8","4","8","6","8","8","4","5","5","3","3","3","2","3","4","3","1","2","2","5","3","6","5","4","4","6","5","3","4","3","7","3","7","7","6","7","7","4","7","7","3","7","6","3","6","3","6","799043796162715650","李","133","Female","[""好她"",""好我"",""坏她"",""坏我""]","[""强她"",""强我"",""弱她"",""弱我""]","","","","","","","","7","","","","","","","","","SRET","SRET_math_calculate","","key","7","16.664150943396447","768","428","","","","","13-6= ?","7","1","","","","","","","",""
"1784","","6","psychophysics","112","256111","0.0-7.0-5.0-0.9","6","5","5","4","2","4","3","4","5","5","5","-1","-1","0","-1","-1","0","1","0","5","4","5","1","4","4","3","4","4","4","6","4","7","8","4","8","6","8","8","4","5","5","3","3","3","2","3","4","3","1","2","2","5","3","6","5","4","4","6","5","3","4","3","7","3","7","7","6","7","7","4","7","7","3","7","6","3","6","3","6","799043796162715650","李","133","Female","[""好她"",""好我"",""坏她"",""坏我""]","[""强她"",""强我"",""弱她"",""弱我""]","","","","","","","","6","","","","","","","","","SRET","SRET_math_calculate","","key","6","16.664150943396447","768","428","","","","","9-3= ?","6","1","","","","","","","",""
"1849","","9","psychophysics","113","257960","0.0-7.0-5.0-0.10","6","5","5","4","2","4","3","4","5","5","5","-1","-1","0","-1","-1","0","1","0","5","4","5","1","4","4","3","4","4","4","6","4","7","8","4","8","6","8","8","4","5","5","3","3","3","2","3","4","3","1","2","2","5","3","6","5","4","4","6","5","3","4","3","7","3","7","7","6","7","7","4","7","7","3","7","6","3","6","3","6","799043796162715650","李","133","Female","[""好她"",""好我"",""坏她"",""坏我""]","[""强她"",""强我"",""弱她"",""弱我""]","","","","","","","","9","","","","","","","","","SRET","SRET_math_calculate","","key","9","16.663636363636364","768","428","","","","","18/2= ?","9","1","","","","","","","",""
"1785","","3","psychophysics","114","259746","0.0-7.0-5.0-0.11","6","5","5","4","2","4","3","4","5","5","5","-1","-1","0","-1","-1","0","1","0","5","4","5","1","4","4","3","4","4","4","6","4","7","8","4","8","6","8","8","4","5","5","3","3","3","2","3","4","3","1","2","2","5","3","6","5","4","4","6","5","3","4","3","7","3","7","7","6","7","7","4","7","7","3","7","6","3","6","3","6","799043796162715650","李","133","Female","[""好她"",""好我"",""坏她"",""坏我""]","[""强她"",""强我"",""弱她"",""弱我""]","","","","","","","","3","","","","","","","","","SRET","SRET_math_calculate","","key","3","16.664150943396173","768","428","","","","","3*1= ?","3","1","","","","","","","",""
"1636","","3","psychophysics","115","261385","0.0-7.0-5.0-0.12","6","5","5","4","2","4","3","4","5","5","5","-1","-1","0","-1","-1","0","1","0","5","4","5","1","4","4","3","4","4","4","6","4","7","8","4","8","6","8","8","4","5","5","3","3","3","2","3","4","3","1","2","2","5","3","6","5","4","4","6","5","3","4","3","7","3","7","7","6","7","7","4","7","7","3","7","6","3","6","3","6","799043796162715650","李","133","Female","[""好她"",""好我"",""坏她"",""坏我""]","[""强她"",""强我"",""弱她"",""弱我""]","","","","","","","","3","","","","","","","","","SRET","SRET_math_calculate","","key","3","16.663265306122447","768","428","","","","","1+2= ?","3","1","","","","","","","",""
"1673","","7","psychophysics","116","263060","0.0-7.0-5.0-0.13","6","5","5","4","2","4","3","4","5","5","5","-1","-1","0","-1","-1","0","1","0","5","4","5","1","4","4","3","4","4","4","6","4","7","8","4","8","6","8","8","4","5","5","3","3","3","2","3","4","3","1","2","2","5","3","6","5","4","4","6","5","3","4","3","7","3","7","7","6","7","7","4","7","7","3","7","6","3","6","3","6","799043796162715650","李","133","Female","[""好她"",""好我"",""坏她"",""坏我""]","[""强她"",""强我"",""弱她"",""弱我""]","","","","","","","","7","","","","","","","","","SRET","SRET_math_calculate","","key","7","16.664646464646935","768","428","","","","","6+1= ?","7","1","","","","","","","",""
"1963","","6","psychophysics","117","265024","0.0-7.0-5.0-0.14","6","5","5","4","2","4","3","4","5","5","5","-1","-1","0","-1","-1","0","1","0","5","4","5","1","4","4","3","4","4","4","6","4","7","8","4","8","6","8","8","4","5","5","3","3","3","2","3","4","3","1","2","2","5","3","6","5","4","4","6","5","3","4","3","7","3","7","7","6","7","7","4","7","7","3","7","6","3","6","3","6","799043796162715650","李","133","Female","[""好她"",""好我"",""坏她"",""坏我""]","[""强她"",""强我"",""弱她"",""弱我""]","","","","","","","","6","","","","","","","","","SRET","SRET_math_calculate","","key","6","16.664957264957167","768","428","","","","","14-9= ?","5","0","","","","","","","",""
"1764","","0","psychophysics","118","266789","0.0-7.0-5.0-0.15","6","5","5","4","2","4","3","4","5","5","5","-1","-1","0","-1","-1","0","1","0","5","4","5","1","4","4","3","4","4","4","6","4","7","8","4","8","6","8","8","4","5","5","3","3","3","2","3","4","3","1","2","2","5","3","6","5","4","4","6","5","3","4","3","7","3","7","7","6","7","7","4","7","7","3","7","6","3","6","3","6","799043796162715650","李","133","Female","[""好她"",""好我"",""坏她"",""坏我""]","[""强她"",""强我"",""弱她"",""弱我""]","","","","","","","","0","","","","","","","","","SRET","SRET_math_calculate","","key","0","16.664761904761793","768","428","","","","","22-22= ?","0","1","","","","","","","",""
"1811","","7","psychophysics","119","268601","0.0-7.0-5.0-0.16","6","5","5","4","2","4","3","4","5","5","5","-1","-1","0","-1","-1","0","1","0","5","4","5","1","4","4","3","4","4","4","6","4","7","8","4","8","6","8","8","4","5","5","3","3","3","2","3","4","3","1","2","2","5","3","6","5","4","4","6","5","3","4","3","7","3","7","7","6","7","7","4","7","7","3","7","6","3","6","3","6","799043796162715650","李","133","Female","[""好她"",""好我"",""坏她"",""坏我""]","[""强她"",""强我"",""弱她"",""弱我""]","","","","","","","","7","","","","","","","","","SRET","SRET_math_calculate","","key","7","16.662962962963288","768","428","","","","","21/3= ? ","7","1","","","","","","","",""
"1681","","2","psychophysics","120","270283","0.0-7.0-5.0-0.17","6","5","5","4","2","4","3","4","5","5","5","-1","-1","0","-1","-1","0","1","0","5","4","5","1","4","4","3","4","4","4","6","4","7","8","4","8","6","8","8","4","5","5","3","3","3","2","3","4","3","1","2","2","5","3","6","5","4","4","6","5","3","4","3","7","3","7","7","6","7","7","4","7","7","3","7","6","3","6","3","6","799043796162715650","李","133","Female","[""好她"",""好我"",""坏她"",""坏我""]","[""强她"",""强我"",""弱她"",""弱我""]","","","","","","","","2","","","","","","","","","SRET","SRET_math_calculate","","key","2","16.662999999999883","768","428","","","","","1+1= ?","2","1","","","","","","","",""
"1668","","6","psychophysics","121","271952","0.0-7.0-5.0-0.18","6","5","5","4","2","4","3","4","5","5","5","-1","-1","0","-1","-1","0","1","0","5","4","5","1","4","4","3","4","4","4","6","4","7","8","4","8","6","8","8","4","5","5","3","3","3","2","3","4","3","1","2","2","5","3","6","5","4","4","6","5","3","4","3","7","3","7","7","6","7","7","4","7","7","3","7","6","3","6","3","6","799043796162715650","李","133","Female","[""好她"",""好我"",""坏她"",""坏我""]","[""强她"",""强我"",""弱她"",""弱我""]","","","","","","","","6","","","","","","","","","SRET","SRET_math_calculate","","key","6","16.66363636363589","768","428","","","","","3*2= ?","6","1","","","","","","","",""
"1705","","1","psychophysics","122","273659","0.0-7.0-5.0-0.19","6","5","5","4","2","4","3","4","5","5","5","-1","-1","0","-1","-1","0","1","0","5","4","5","1","4","4","3","4","4","4","6","4","7","8","4","8","6","8","8","4","5","5","3","3","3","2","3","4","3","1","2","2","5","3","6","5","4","4","6","5","3","4","3","7","3","7","7","6","7","7","4","7","7","3","7","6","3","6","3","6","799043796162715650","李","133","Female","[""好她"",""好我"",""坏她"",""坏我""]","[""强她"",""强我"",""弱她"",""弱我""]","","","","","","","","1","","","","","","","","","SRET","SRET_math_calculate","","key","1","16.66435643564391","768","428","","","","","12/12= ?","1","1","","","","","","","",""
"1684","","8","psychophysics","123","275346","0.0-7.0-5.0-0.20","6","5","5","4","2","4","3","4","5","5","5","-1","-1","0","-1","-1","0","1","0","5","4","5","1","4","4","3","4","4","4","6","4","7","8","4","8","6","8","8","4","5","5","3","3","3","2","3","4","3","1","2","2","5","3","6","5","4","4","6","5","3","4","3","7","3","7","7","6","7","7","4","7","7","3","7","6","3","6","3","6","799043796162715650","李","133","Female","[""好她"",""好我"",""坏她"",""坏我""]","[""强她"",""强我"",""弱她"",""弱我""]","","","","","","","","8","","","","","","","","","SRET","SRET_math_calculate","","key","8","16.66534653465358","768","428","","","","","9-1= ?","8","1","","","","","","","",""
"1649","","0","psychophysics","124","276999","0.0-7.0-5.0-0.21","6","5","5","4","2","4","3","4","5","5","5","-1","-1","0","-1","-1","0","1","0","5","4","5","1","4","4","3","4","4","4","6","4","7","8","4","8","6","8","8","4","5","5","3","3","3","2","3","4","3","1","2","2","5","3","6","5","4","4","6","5","3","4","3","7","3","7","7","6","7","7","4","7","7","3","7","6","3","6","3","6","799043796162715650","李","133","Female","[""好她"",""好我"",""坏她"",""坏我""]","[""强她"",""强我"",""弱她"",""弱我""]","","","","","","","","0","","","","","","","","","SRET","SRET_math_calculate","","key","0","16.664285714285477","768","428","","","","","1-1= ?","0","1","","","","","","","",""
"1648","","3","psychophysics","125","278648","0.0-7.0-5.0-0.22","6","5","5","4","2","4","3","4","5","5","5","-1","-1","0","-1","-1","0","1","0","5","4","5","1","4","4","3","4","4","4","6","4","7","8","4","8","6","8","8","4","5","5","3","3","3","2","3","4","3","1","2","2","5","3","6","5","4","4","6","5","3","4","3","7","3","7","7","6","7","7","4","7","7","3","7","6","3","6","3","6","799043796162715650","李","133","Female","[""好她"",""好我"",""坏她"",""坏我""]","[""强她"",""强我"",""弱她"",""弱我""]","","","","","","","","3","","","","","","","","","SRET","SRET_math_calculate","","key","3","16.664285714285477","768","428","","","","","9/3= ?","3","1","","","","","","","",""
"1665","","9","psychophysics","126","280315","0.0-7.0-5.0-0.23","6","5","5","4","2","4","3","4","5","5","5","-1","-1","0","-1","-1","0","1","0","5","4","5","1","4","4","3","4","4","4","6","4","7","8","4","8","6","8","8","4","5","5","3","3","3","2","3","4","3","1","2","2","5","3","6","5","4","4","6","5","3","4","3","7","3","7","7","6","7","7","4","7","7","3","7","6","3","6","3","6","799043796162715650","李","133","Female","[""好她"",""好我"",""坏她"",""坏我""]","[""强她"",""强我"",""弱她"",""弱我""]","","","","","","","","9","","","","","","","","","SRET","SRET_math_calculate","","key","9","16.66363636363589","768","428","","","","","5+4= ?","9","1","","","","","","","",""
"1810","","1","psychophysics","127","282127","0.0-7.0-5.0-0.24","6","5","5","4","2","4","3","4","5","5","5","-1","-1","0","-1","-1","0","1","0","5","4","5","1","4","4","3","4","4","4","6","4","7","8","4","8","6","8","8","4","5","5","3","3","3","2","3","4","3","1","2","2","5","3","6","5","4","4","6","5","3","4","3","7","3","7","7","6","7","7","4","7","7","3","7","6","3","6","3","6","799043796162715650","李","133","Female","[""好她"",""好我"",""坏她"",""坏我""]","[""强她"",""强我"",""弱她"",""弱我""]","","","","","","","","1","","","","","","","","","SRET","SRET_math_calculate","","key","1","16.662962962963288","768","428","","","","","10-9= ?","1","1","","","","","","","",""
"1721","","6","psychophysics","128","283851","0.0-7.0-5.0-0.25","6","5","5","4","2","4","3","4","5","5","5","-1","-1","0","-1","-1","0","1","0","5","4","5","1","4","4","3","4","4","4","6","4","7","8","4","8","6","8","8","4","5","5","3","3","3","2","3","4","3","1","2","2","5","3","6","5","4","4","6","5","3","4","3","7","3","7","7","6","7","7","4","7","7","3","7","6","3","6","3","6","799043796162715650","李","133","Female","[""好她"",""好我"",""坏她"",""坏我""]","[""强她"",""强我"",""弱她"",""弱我""]","","","","","","","","6","","","","","","","","","SRET","SRET_math_calculate","","key","6","16.663725490196192","768","428","","","","","11-5= ?","6","1","","","","","","","",""
"1695","","0","psychophysics","129","285547","0.0-7.0-5.0-0.26","6","5","5","4","2","4","3","4","5","5","5","-1","-1","0","-1","-1","0","1","0","5","4","5","1","4","4","3","4","4","4","6","4","7","8","4","8","6","8","8","4","5","5","3","3","3","2","3","4","3","1","2","2","5","3","6","5","4","4","6","5","3","4","3","7","3","7","7","6","7","7","4","7","7","3","7","6","3","6","3","6","799043796162715650","李","133","Female","[""好她"",""好我"",""坏她"",""坏我""]","[""强她"",""强我"",""弱她"",""弱我""]","","","","","","","","0","","","","","","","","","SRET","SRET_math_calculate","","key","0","16.66534653465358","768","428","","","","","7*0= ?","0","1","","","","","","","",""
"1681","","7","psychophysics","130","287230","0.0-7.0-5.0-0.27","6","5","5","4","2","4","3","4","5","5","5","-1","-1","0","-1","-1","0","1","0","5","4","5","1","4","4","3","4","4","4","6","4","7","8","4","8","6","8","8","4","5","5","3","3","3","2","3","4","3","1","2","2","5","3","6","5","4","4","6","5","3","4","3","7","3","7","7","6","7","7","4","7","7","3","7","6","3","6","3","6","799043796162715650","李","133","Female","[""好她"",""好我"",""坏她"",""坏我""]","[""强她"",""强我"",""弱她"",""弱我""]","","","","","","","","7","","","","","","","","","SRET","SRET_math_calculate","","key","7","16.665","768","428","","","","","12-5= ?","7","1","","","","","","","",""
"1665","","2","psychophysics","131","288896","0.0-7.0-5.0-0.28","6","5","5","4","2","4","3","4","5","5","5","-1","-1","0","-1","-1","0","1","0","5","4","5","1","4","4","3","4","4","4","6","4","7","8","4","8","6","8","8","4","5","5","3","3","3","2","3","4","3","1","2","2","5","3","6","5","4","4","6","5","3","4","3","7","3","7","7","6","7","7","4","7","7","3","7","6","3","6","3","6","799043796162715650","李","133","Female","[""好她"",""好我"",""坏她"",""坏我""]","[""强她"",""强我"",""弱她"",""弱我""]","","","","","","","","2","","","","","","","","","SRET","SRET_math_calculate","","key","2","16.664646464646346","768","428","","","","","12/6= ?","2","1","","","","","","","",""
"1653","","3","psychophysics","132","290551","0.0-7.0-5.0-0.29","6","5","5","4","2","4","3","4","5","5","5","-1","-1","0","-1","-1","0","1","0","5","4","5","1","4","4","3","4","4","4","6","4","7","8","4","8","6","8","8","4","5","5","3","3","3","2","3","4","3","1","2","2","5","3","6","5","4","4","6","5","3","4","3","7","3","7","7","6","7","7","4","7","7","3","7","6","3","6","3","6","799043796162715650","李","133","Female","[""好她"",""好我"",""坏她"",""坏我""]","[""强她"",""强我"",""弱她"",""弱我""]","","","","","","","","3","","","","","","","","","SRET","SRET_math_calculate","","key","3","16.663265306122447","768","428","","","","","6/2= ?","3","1","","","","","","","",""
"1701","","5","psychophysics","133","292253","0.0-7.0-5.0-0.30","6","5","5","4","2","4","3","4","5","5","5","-1","-1","0","-1","-1","0","1","0","5","4","5","1","4","4","3","4","4","4","6","4","7","8","4","8","6","8","8","4","5","5","3","3","3","2","3","4","3","1","2","2","5","3","6","5","4","4","6","5","3","4","3","7","3","7","7","6","7","7","4","7","7","3","7","6","3","6","3","6","799043796162715650","李","133","Female","[""好她"",""好我"",""坏她"",""坏我""]","[""强她"",""强我"",""弱她"",""弱我""]","","","","","","","","5","","","","","","","","","SRET","SRET_math_calculate","","key","5","16.663366336633665","768","428","","","","","16-11= ?","5","1","","","","","","","",""
"1610","","4","psychophysics","134","293865","0.0-7.0-5.0-0.31","6","5","5","4","2","4","3","4","5","5","5","-1","-1","0","-1","-1","0","1","0","5","4","5","1","4","4","3","4","4","4","6","4","7","8","4","8","6","8","8","4","5","5","3","3","3","2","3","4","3","1","2","2","5","3","6","5","4","4","6","5","3","4","3","7","3","7","7","6","7","7","4","7","7","3","7","6","3","6","3","6","799043796162715650","李","133","Female","[""好她"",""好我"",""坏她"",""坏我""]","[""强她"",""强我"",""弱她"",""弱我""]","","","","","","","","4","","","","","","","","","SRET","SRET_math_calculate","","key","4","16.66458333333382","768","428","","","","","2+2= ?","4","1","","","","","","","",""
"1674","","9","psychophysics","135","295542","0.0-7.0-5.0-0.32","6","5","5","4","2","4","3","4","5","5","5","-1","-1","0","-1","-1","0","1","0","5","4","5","1","4","4","3","4","4","4","6","4","7","8","4","8","6","8","8","4","5","5","3","3","3","2","3","4","3","1","2","2","5","3","6","5","4","4","6","5","3","4","3","7","3","7","7","6","7","7","4","7","7","3","7","6","3","6","3","6","799043796162715650","李","133","Female","[""好她"",""好我"",""坏她"",""坏我""]","[""强她"",""强我"",""弱她"",""弱我""]","","","","","","","","9","","","","","","","","","SRET","SRET_math_calculate","","key","9","16.664000000000232","768","428","","","","","8+1= ?","9","1","","","","","","","",""
"1827","","7","psychophysics","136","297373","0.0-7.0-5.0-0.33","6","5","5","4","2","4","3","4","5","5","5","-1","-1","0","-1","-1","0","1","0","5","4","5","1","4","4","3","4","4","4","6","4","7","8","4","8","6","8","8","4","5","5","3","3","3","2","3","4","3","1","2","2","5","3","6","5","4","4","6","5","3","4","3","7","3","7","7","6","7","7","4","7","7","3","7","6","3","6","3","6","799043796162715650","李","133","Female","[""好她"",""好我"",""坏她"",""坏我""]","[""强她"",""强我"",""弱她"",""弱我""]","","","","","","","","7","","","","","","","","","SRET","SRET_math_calculate","","key","7","16.662037037037038","768","428","","","","","49/7 = ?","7","1","","","","","","","",""
"1663","","5","psychophysics","137","299038","0.0-7.0-5.0-0.34","6","5","5","4","2","4","3","4","5","5","5","-1","-1","0","-1","-1","0","1","0","5","4","5","1","4","4","3","4","4","4","6","4","7","8","4","8","6","8","8","4","5","5","3","3","3","2","3","4","3","1","2","2","5","3","6","5","4","4","6","5","3","4","3","7","3","7","7","6","7","7","4","7","7","3","7","6","3","6","3","6","799043796162715650","李","133","Female","[""好她"",""好我"",""坏她"",""坏我""]","[""强她"",""强我"",""弱她"",""弱我""]","","","","","","","","5","","","","","","","","","SRET","SRET_math_calculate","","key","5","16.66363636363589","768","428","","","","","2+3= ?","5","1","","","","","","","",""
"1714","","8","psychophysics","138","300755","0.0-7.0-5.0-0.35","6","5","5","4","2","4","3","4","5","5","5","-1","-1","0","-1","-1","0","1","0","5","4","5","1","4","4","3","4","4","4","6","4","7","8","4","8","6","8","8","4","5","5","3","3","3","2","3","4","3","1","2","2","5","3","6","5","4","4","6","5","3","4","3","7","3","7","7","6","7","7","4","7","7","3","7","6","3","6","3","6","799043796162715650","李","133","Female","[""好她"",""好我"",""坏她"",""坏我""]","[""强她"",""强我"",""弱她"",""弱我""]","","","","","","","","8","","","","","","","","","SRET","SRET_math_calculate","","key","8","16.664705882352827","768","428","","","","","4*2= ?","8","1","","","","","","","",""
"1655","","7","psychophysics","139","302412","0.0-7.0-5.0-0.36","6","5","5","4","2","4","3","4","5","5","5","-1","-1","0","-1","-1","0","1","0","5","4","5","1","4","4","3","4","4","4","6","4","7","8","4","8","6","8","8","4","5","5","3","3","3","2","3","4","3","1","2","2","5","3","6","5","4","4","6","5","3","4","3","7","3","7","7","6","7","7","4","7","7","3","7","6","3","6","3","6","799043796162715650","李","133","Female","[""好她"",""好我"",""坏她"",""坏我""]","[""强她"",""强我"",""弱她"",""弱我""]","","","","","","","","7","","","","","","","","","SRET","SRET_math_calculate","","key","7","16.664646464646346","768","428","","","","","9-2= ?","7","1","","","","","","","",""
"1659","","7","psychophysics","140","304073","0.0-7.0-5.0-0.37","6","5","5","4","2","4","3","4","5","5","5","-1","-1","0","-1","-1","0","1","0","5","4","5","1","4","4","3","4","4","4","6","4","7","8","4","8","6","8","8","4","5","5","3","3","3","2","3","4","3","1","2","2","5","3","6","5","4","4","6","5","3","4","3","7","3","7","7","6","7","7","4","7","7","3","7","6","3","6","3","6","799043796162715650","李","133","Female","[""好她"",""好我"",""坏她"",""坏我""]","[""强她"",""强我"",""弱她"",""弱我""]","","","","","","","","7","","","","","","","","","SRET","SRET_math_calculate","","key","7","16.664646464646346","768","428","","","","","5+2= ?","7","1","","","","","","","",""
"1826","","2","psychophysics","141","305903","0.0-7.0-5.0-0.38","6","5","5","4","2","4","3","4","5","5","5","-1","-1","0","-1","-1","0","1","0","5","4","5","1","4","4","3","4","4","4","6","4","7","8","4","8","6","8","8","4","5","5","3","3","3","2","3","4","3","1","2","2","5","3","6","5","4","4","6","5","3","4","3","7","3","7","7","6","7","7","4","7","7","3","7","6","3","6","3","6","799043796162715650","李","133","Female","[""好她"",""好我"",""坏她"",""坏我""]","[""强她"",""强我"",""弱她"",""弱我""]","","","","","","","","2","","","","","","","","","SRET","SRET_math_calculate","","key","2","16.662962962963288","768","428","","","","","29-27= ?","2","1","","","","","","","",""
