"rt","stimulus","response","trial_type","trial_index","time_elapsed","internal_node_id","swb_1","swb_2","swb_3","swb_4","swb_5","LOT_1","LOT_2","LOT_3","LOT_4","LOT_5","LOT_6","IPC_1","IPC_2","IPC_3","IPC_4","IPC_5","IPC_6","IPC_7","IPC_8","MorIden_1","MorIden_2","MorIden_3","MorIden_4","MorIden_5","MorIden_6","MorIden_7","MorIden_8","MorIden_9","MorIden_10","moralSeImag_1","moralSeImag_2","moralSeImag_3","moralSeImag_4","moralSeImag_5","moralSeImag_6","moralSeImag_7","moralSeImag_8","moralSeImag_9","sde_1","sde_2","sde_3","sde_4","sde_5","sde_6","sde_7","sde_8","sde_9","sde_10","trap2","sde_11","sde_12","sde_13","sde_14","sde_15","sde_16","sde_17","sde_18","sde_19","sde_20","IM_1","IM_2","IM_3","IM_4","IM_5","IM_6","IM_7","IM_8","IM_9","IM_10","IM_11","IM_12","IM_13","IM_14","IM_15","IM_16","IM_17","IM_18","IM_19","IM_20","subj_idx","friend_name","ParticipantID","Sex","Word","Word2","value","success","timeout","failed_images","failed_audio","failed_video","user_agent","responses","item_order","radio_event_ids","radio_event_times","key_event_times","mouse_event_times","straightlining","zigzagging","honeypot","task_id","screen_id","time_stamp","response_type","key_press","avg_frame_time","center_x","center_y","person","word","valence","domain","math","correct_response","correct","status","view_history","identity","duration","Image","condition","question_order","trap2_item"
"6664","
   <p><div style='color:white; font-size: 25px'>您好，欢迎参加本次实验。</div></p>
   <p><div style='color:white; font-size: 25px'>为充分保障您的权利，请确保您已经知晓并同意《参与实验同意书》以及《数据公开知情同意书》。</div></p>
   <p><div style='color:white; font-size: 25px'>如果您未见过上述内容，请咨询实验员。</div></p>
   <p style='color:white; font-size: 25px'>如果您选择继续实验，则表示您已经清楚两份知情同意书的内容并同意。</p>
   <p><div style = ""color: pink;font-size:30px;"">请确保您记得day0的实验编号，您将在本次实验输入该编号，若您忘记，请咨询实验员后作答。</div></p>
   <p><div style = ""color:lightblue;font-size:25px;"">请您尽可能认真地作答，我们将依据您在各问卷和按键任务中的作答质量发放报酬。</div></p>
   <p> <div style = ""color: green""><按空格键至下页></div> </p>
   "," ","html-keyboard-response","0","6667","0.0-0.0","6","6","6","3","1","4","3","5","4","4","5","1","-2","1","0","1","1","2","1","5","4","5","5","5","4","4","4","5","4","7","9","7","7","6","8","7","6","5","5","5","1","7","6","3","6","1","6","3","1","5","3","5","2","6","5","5","3","1","5","3","3","3","2","3","7","3","5","5","7","3","3","7","3","5","7","3","7","5","5","730803699089412097","吴","356","Male","[""坏他"",""坏我"",""好我"",""好他""]","[""弱他"",""弱我"",""强我"",""强他""]","","","","","","","","","","","","","","","","","","","","","","","","","","","","","","","","","","","","","","",""
"","","","call-function","1","6670","0.0-1.0-0.0","6","6","6","3","1","4","3","5","4","4","5","1","-2","1","0","1","1","2","1","5","4","5","5","5","4","4","4","5","4","7","9","7","7","6","8","7","6","5","5","5","1","7","6","3","6","1","6","3","1","5","3","5","2","6","5","5","3","1","5","3","3","3","2","3","7","3","5","5","7","3","3","7","3","5","7","3","7","5","5","730803699089412097","吴","356","Male","[""坏他"",""坏我"",""好我"",""好他""]","[""弱他"",""弱我"",""强我"",""强他""]","","","","","","","","","","","","","","","","","","","","","","","","","","","","","","","","","","","","","","",""
"32864","","[{""name"":""Sex"",""value"":""0""},{""name"":""friend_name"",""value"":""吴""},{""name"":""ParticipantID"",""value"":""356""}]","survey-html-form","2","39535","0.0-1.0-1.0","6","6","6","3","1","4","3","5","4","4","5","1","-2","1","0","1","1","2","1","5","4","5","5","5","4","4","4","5","4","7","9","7","7","6","8","7","6","5","5","5","1","7","6","3","6","1","6","3","1","5","3","5","2","6","5","5","3","1","5","3","3","3","2","3","7","3","5","5","7","3","3","7","3","5","7","3","7","5","5","730803699089412097","吴","356","Male","[""坏他"",""坏我"",""好我"",""好他""]","[""弱他"",""弱我"",""强我"",""强他""]","","","","","","","","","","","","","","","","","","","","","","","","","","","","","","","","","","","","","","",""
"","","","preload","3","40247","0.0-2.0","6","6","6","3","1","4","3","5","4","4","5","1","-2","1","0","1","1","2","1","5","4","5","5","5","4","4","4","5","4","7","9","7","7","6","8","7","6","5","5","5","1","7","6","3","6","1","6","3","1","5","3","5","2","6","5","5","3","1","5","3","3","3","2","3","7","3","5","5","7","3","3","7","3","5","7","3","7","5","5","730803699089412097","吴","356","Male","[""坏他"",""坏我"",""好我"",""好他""]","[""弱他"",""弱我"",""强我"",""强他""]","","true","false","[]","[]","[]","","","","","","","","","","","","","","","","","","","","","","","","","","","","","","","","",""
"","","","fullscreen","4","50500","0.0-3.0","6","6","6","3","1","4","3","5","4","4","5","1","-2","1","0","1","1","2","1","5","4","5","5","5","4","4","4","5","4","7","9","7","7","6","8","7","6","5","5","5","1","7","6","3","6","1","6","3","1","5","3","5","2","6","5","5","3","1","5","3","3","3","2","3","7","3","5","5","7","3","3","7","3","5","7","3","7","5","5","730803699089412097","吴","356","Male","[""坏他"",""坏我"",""好我"",""好他""]","[""弱他"",""弱我"",""强我"",""强他""]","","true","","","","","{}","","","","","","","","","","","","","","","","","","","","","","","","","","","","","","","",""
"9531.899999999965","","{""Q01"":""6"",""Q02"":""6"",""Q03"":""6"",""Q04"":""3"",""Q05"":""1""}","survey-template","5","60035","0.0-4.0","6","6","6","3","1","4","3","5","4","4","5","1","-2","1","0","1","1","2","1","5","4","5","5","5","4","4","4","5","4","7","9","7","7","6","8","7","6","5","5","5","1","7","6","3","6","1","6","3","1","5","3","5","2","6","5","5","3","1","5","3","3","3","2","3","7","3","5","5","7","3","3","7","3","5","7","3","7","5","5","730803699089412097","吴","356","Male","[""坏他"",""坏我"",""好我"",""好他""]","[""弱他"",""弱我"",""强我"",""强他""]","","","","","","","","{""Q01"":""6"",""Q02"":""6"",""Q03"":""6"",""Q04"":""3"",""Q05"":""1""}","[0,1,2,3,4]","[""Q01"",""Q02"",""Q03"",""Q04"",""Q05""]","[2186.0999999999767,3308.7999999999884,4518.599999999977,6662.699999999953,8382.799999999988]","[]","[2186.0999999999767,3308.7999999999884,4518.599999999977,6662.699999999953,8382.799999999988,9530.799999999988]","0.6","0","0","","","","","","","","","","","","","","","","","","","","","","",""
"18216.70000000001","","{""Q01"":""4"",""Q02"":""3"",""Q03"":""5"",""Q04"":""4"",""Q05"":""4"",""Q06"":""5""}","survey-template","6","78256","0.0-5.0","6","6","6","3","1","4","3","5","4","4","5","1","-2","1","0","1","1","2","1","5","4","5","5","5","4","4","4","5","4","7","9","7","7","6","8","7","6","5","5","5","1","7","6","3","6","1","6","3","1","5","3","5","2","6","5","5","3","1","5","3","3","3","2","3","7","3","5","5","7","3","3","7","3","5","7","3","7","5","5","730803699089412097","吴","356","Male","[""坏他"",""坏我"",""好我"",""好他""]","[""弱他"",""弱我"",""强我"",""强他""]","","","","","","","","{""Q01"":""4"",""Q02"":""3"",""Q03"":""5"",""Q04"":""4"",""Q05"":""4"",""Q06"":""5""}","[0,1,2,3,4,5]","[""Q01"",""Q02"",""Q03"",""Q04"",""Q05"",""Q06""]","[2102.2000000000116,6087.799999999988,7603.600000000035,9933.799999999988,11460,17027.70000000001]","[]","[2102.2000000000116,6087.799999999988,7603.600000000035,9933.799999999988,11460,17027.70000000001,18215.79999999999]","0.3333333333333333","0.2","0","","","","","","","","","","","","","","","","","","","","","","",""
"34834.899999999965","","{""Q01"":""1"",""Q02"":""-2"",""Q03"":""1"",""Q04"":""0"",""Q05"":""1"",""Q06"":""1"",""Q07"":""2"",""Q08"":""1""}","survey-template","7","113095","0.0-6.0","6","6","6","3","1","4","3","5","4","4","5","1","-2","1","0","1","1","2","1","5","4","5","5","5","4","4","4","5","4","7","9","7","7","6","8","7","6","5","5","5","1","7","6","3","6","1","6","3","1","5","3","5","2","6","5","5","3","1","5","3","3","3","2","3","7","3","5","5","7","3","3","7","3","5","7","3","7","5","5","730803699089412097","吴","356","Male","[""坏他"",""坏我"",""好我"",""好他""]","[""弱他"",""弱我"",""强我"",""强他""]","","","","","","","","{""Q01"":""1"",""Q02"":""-2"",""Q03"":""1"",""Q04"":""0"",""Q05"":""1"",""Q06"":""1"",""Q07"":""2"",""Q08"":""1""}","[0,1,2,3,4,5,6,7]","[""Q01"",""Q02"",""Q01"",""Q03"",""Q04"",""Q04"",""Q05"",""Q06"",""Q07"",""Q08""]","[3175.399999999965,6975.099999999977,9326,11947.5,25179.599999999977,26479.5,28255.599999999977,30423.5,32781.399999999965,34225]","[]","[3175.399999999965,6975.099999999977,9326,11947.5,25179.599999999977,26479.5,28255.599999999977,30423.5,32781.399999999965,34225,34833.59999999998]","0.625","0.5714285714285714","0","","","","","","","","","","","","","","","","","","","","","","",""
"9772","
    <p><div style='color:white;font-size:35px; line-height:20px;'>词汇评估任务</div></p><br>
    <p><div style='color:white;font-size:25px; line-height:20px;'>请再次回忆该亲密的朋友，你们至少2年前就认识了，并且最近2年经常见面。</div></p>
    <p><div style='color:white;font-size:25px; line-height:20px;'>在本实验中，您将会看到一些形容词。</div></p>
    <p><div style='color:yellow;font-size:25px; line-height:20px;'>您的任务是判断这些形容词是否符合对您自己或您的朋友的描述。</div></p><p style='font-size:35px'>符合按<span style=""color:lightgreen""> f 键</span>，不符合按<span style=""color:red""> j 键</span></p>","0","html-button-response","8","122871","0.0-7.0-0.0","6","6","6","3","1","4","3","5","4","4","5","1","-2","1","0","1","1","2","1","5","4","5","5","5","4","4","4","5","4","7","9","7","7","6","8","7","6","5","5","5","1","7","6","3","6","1","6","3","1","5","3","5","2","6","5","5","3","1","5","3","3","3","2","3","7","3","5","5","7","3","3","7","3","5","7","3","7","5","5","730803699089412097","吴","356","Male","[""坏他"",""坏我"",""好我"",""好他""]","[""弱他"",""弱我"",""强我"",""强他""]","","","","","","","","","","","","","","","","","SRET_EW","EW_instructions","Fri Jan 19 2024 18:11:25 GMT+0800 (中国标准时间)","","","","","","","","","","","","","","","","","","","",""
"634","","f","psychophysics","9","124508","0.0-7.0-1.0-0.0","6","6","6","3","1","4","3","5","4","4","5","1","-2","1","0","1","1","2","1","5","4","5","5","5","4","4","4","5","4","7","9","7","7","6","8","7","6","5","5","5","1","7","6","3","6","1","6","3","1","5","3","5","2","6","5","5","3","1","5","3","3","3","2","3","7","3","5","5","7","3","3","7","3","5","7","3","7","5","5","730803699089412097","吴","356","Male","[""坏他"",""坏我"",""好我"",""好他""]","[""弱他"",""弱我"",""强我"",""强他""]","","","","","","","","yes","","","","","","","","","SRET_EW","EW_practice","","key","f","16.652040816326473","768","428","朋友","忠实","Positive","morality","","","","","","","","","","",""
"646","","j","psychophysics","10","126155","0.0-7.0-1.0-0.1","6","6","6","3","1","4","3","5","4","4","5","1","-2","1","0","1","1","2","1","5","4","5","5","5","4","4","4","5","4","7","9","7","7","6","8","7","6","5","5","5","1","7","6","3","6","1","6","3","1","5","3","5","2","6","5","5","3","1","5","3","3","3","2","3","7","3","5","5","7","3","3","7","3","5","7","3","7","5","5","730803699089412097","吴","356","Male","[""坏他"",""坏我"",""好我"",""好他""]","[""弱他"",""弱我"",""强我"",""强他""]","","","","","","","","no","","","","","","","","","SRET_EW","EW_practice","","key","j","16.656122448979623","768","428","自己","刻板","Negative","ability","","","","","","","","","","",""
"524","","f","psychophysics","11","127682","0.0-7.0-1.0-0.2","6","6","6","3","1","4","3","5","4","4","5","1","-2","1","0","1","1","2","1","5","4","5","5","5","4","4","4","5","4","7","9","7","7","6","8","7","6","5","5","5","1","7","6","3","6","1","6","3","1","5","3","5","2","6","5","5","3","1","5","3","3","3","2","3","7","3","5","5","7","3","3","7","3","5","7","3","7","5","5","730803699089412097","吴","356","Male","[""坏他"",""坏我"",""好我"",""好他""]","[""弱他"",""弱我"",""强我"",""强他""]","","","","","","","","yes","","","","","","","","","SRET_EW","EW_practice","","key","f","16.656043956043924","768","428","自己","严谨","Positive","ability","","","","","","","","","","",""
"597","","j","psychophysics","12","129280","0.0-7.0-1.0-0.3","6","6","6","3","1","4","3","5","4","4","5","1","-2","1","0","1","1","2","1","5","4","5","5","5","4","4","4","5","4","7","9","7","7","6","8","7","6","5","5","5","1","7","6","3","6","1","6","3","1","5","3","5","2","6","5","5","3","1","5","3","3","3","2","3","7","3","5","5","7","3","3","7","3","5","7","3","7","5","5","730803699089412097","吴","356","Male","[""坏他"",""坏我"",""好我"",""好他""]","[""弱他"",""弱我"",""强我"",""强他""]","","","","","","","","no","","","","","","","","","SRET_EW","EW_practice","","key","j","16.654736842105233","768","428","朋友","徇私","Negative","morality","","","","","","","","","","",""
"7594","
    <p><div style='color:white;font-size:35px; line-height:20px;'>请您再次阅读实验要求</div></p><br>
    <p><div style='color:white;font-size:25px; line-height:20px;'>请回忆某一个亲密的朋友，你们至少2年前就认识了，并且最近2年经常见面。</div></p>
    <p><div style='color:white;font-size:25px; line-height:20px;'>在本实验中，您将会看到一些形容词。</div></p>
    <p><div style='color:yellow;font-size:25px; line-height:20px;'>您的任务是判断这些形容词是否符合对您自己或您的朋友的描述。</div></p>
    <p><div class='footer' style='font-size:25px; line-height:20px;'>如果对本实验还有不清楚之处，请立即向实验员咨询。</p><p style='font-size:25px; line-height:20px;'>如果您明白了规则：</p><p style='font-size:22px; line-height:20px;'>请按 继续 进入正式实验</p>
    </div>
    <p style='font-size:35px'>符合按<span style=""color:lightgreen""> f 键</span>，不符合按<span style=""color:red""> j 键</span></p>","0","html-button-response","13","136875","0.0-7.0-2.0","6","6","6","3","1","4","3","5","4","4","5","1","-2","1","0","1","1","2","1","5","4","5","5","5","4","4","4","5","4","7","9","7","7","6","8","7","6","5","5","5","1","7","6","3","6","1","6","3","1","5","3","5","2","6","5","5","3","1","5","3","3","3","2","3","7","3","5","5","7","3","3","7","3","5","7","3","7","5","5","730803699089412097","吴","356","Male","[""坏他"",""坏我"",""好我"",""好他""]","[""弱他"",""弱我"",""强我"",""强他""]","","","","","","","","","","","","","","","","","SRET_EW","prac_instructions","Fri Jan 19 2024 18:11:25 GMT+0800 (中国标准时间)","","","","","","","","","","","","","","","","","","","",""
"600","","j","psychophysics","14","138475","0.0-7.0-3.0-0.0","6","6","6","3","1","4","3","5","4","4","5","1","-2","1","0","1","1","2","1","5","4","5","5","5","4","4","4","5","4","7","9","7","7","6","8","7","6","5","5","5","1","7","6","3","6","1","6","3","1","5","3","5","2","6","5","5","3","1","5","3","3","3","2","3","7","3","5","5","7","3","3","7","3","5","7","3","7","5","5","730803699089412097","吴","356","Male","[""坏他"",""坏我"",""好我"",""好他""]","[""弱他"",""弱我"",""强我"",""强他""]","","","","","","","","no","","","","","","","","","SRET","EW_formal","","key","j","16.65416666666685","768","428","自己","说谎","Negative","morality","","","","","","","","","","",""
"1485","","f","psychophysics","15","140963","0.0-7.0-3.0-0.1","6","6","6","3","1","4","3","5","4","4","5","1","-2","1","0","1","1","2","1","5","4","5","5","5","4","4","4","5","4","7","9","7","7","6","8","7","6","5","5","5","1","7","6","3","6","1","6","3","1","5","3","5","2","6","5","5","3","1","5","3","3","3","2","3","7","3","5","5","7","3","3","7","3","5","7","3","7","5","5","730803699089412097","吴","356","Male","[""坏他"",""坏我"",""好我"",""好他""]","[""弱他"",""弱我"",""强我"",""强他""]","","","","","","","","yes","","","","","","","","","SRET","EW_formal","","key","f","16.654054054053976","768","428","朋友","务实","Positive","ability","","","","","","","","","","",""
"1110","","j","psychophysics","16","143076","0.0-7.0-3.0-0.2","6","6","6","3","1","4","3","5","4","4","5","1","-2","1","0","1","1","2","1","5","4","5","5","5","4","4","4","5","4","7","9","7","7","6","8","7","6","5","5","5","1","7","6","3","6","1","6","3","1","5","3","5","2","6","5","5","3","1","5","3","3","3","2","3","7","3","5","5","7","3","3","7","3","5","7","3","7","5","5","730803699089412097","吴","356","Male","[""坏他"",""坏我"",""好我"",""好他""]","[""弱他"",""弱我"",""强我"",""强他""]","","","","","","","","no","","","","","","","","","SRET","EW_formal","","key","j","16.65396825396821","768","428","朋友","迷糊","Negative","ability","","","","","","","","","","",""
"695","","f","psychophysics","17","144773","0.0-7.0-3.0-0.3","6","6","6","3","1","4","3","5","4","4","5","1","-2","1","0","1","1","2","1","5","4","5","5","5","4","4","4","5","4","7","9","7","7","6","8","7","6","5","5","5","1","7","6","3","6","1","6","3","1","5","3","5","2","6","5","5","3","1","5","3","3","3","2","3","7","3","5","5","7","3","3","7","3","5","7","3","7","5","5","730803699089412097","吴","356","Male","[""坏他"",""坏我"",""好我"",""好他""]","[""弱他"",""弱我"",""强我"",""强他""]","","","","","","","","yes","","","","","","","","","SRET","EW_formal","","key","f","16.654455445544325","768","428","自己","坚贞","Positive","morality","","","","","","","","","","",""
"936","","j","psychophysics","18","146711","0.0-7.0-3.0-0.4","6","6","6","3","1","4","3","5","4","4","5","1","-2","1","0","1","1","2","1","5","4","5","5","5","4","4","4","5","4","7","9","7","7","6","8","7","6","5","5","5","1","7","6","3","6","1","6","3","1","5","3","5","2","6","5","5","3","1","5","3","3","3","2","3","7","3","5","5","7","3","3","7","3","5","7","3","7","5","5","730803699089412097","吴","356","Male","[""坏他"",""坏我"",""好我"",""好他""]","[""弱他"",""弱我"",""强我"",""强他""]","","","","","","","","no","","","","","","","","","SRET","EW_formal","","key","j","16.655652173912994","768","428","朋友","愚蠢","Negative","ability","","","","","","","","","","",""
"730","","f","psychophysics","19","148444","0.0-7.0-3.0-0.5","6","6","6","3","1","4","3","5","4","4","5","1","-2","1","0","1","1","2","1","5","4","5","5","5","4","4","4","5","4","7","9","7","7","6","8","7","6","5","5","5","1","7","6","3","6","1","6","3","1","5","3","5","2","6","5","5","3","1","5","3","3","3","2","3","7","3","5","5","7","3","3","7","3","5","7","3","7","5","5","730803699089412097","吴","356","Male","[""坏他"",""坏我"",""好我"",""好他""]","[""弱他"",""弱我"",""强我"",""强他""]","","","","","","","","yes","","","","","","","","","SRET","EW_formal","","key","f","16.651923076922966","768","428","自己","文明","Positive","morality","","","","","","","","","","",""
"556","","f","psychophysics","20","150000","0.0-7.0-3.0-0.6","6","6","6","3","1","4","3","5","4","4","5","1","-2","1","0","1","1","2","1","5","4","5","5","5","4","4","4","5","4","7","9","7","7","6","8","7","6","5","5","5","1","7","6","3","6","1","6","3","1","5","3","5","2","6","5","5","3","1","5","3","3","3","2","3","7","3","5","5","7","3","3","7","3","5","7","3","7","5","5","730803699089412097","吴","356","Male","[""坏他"",""坏我"",""好我"",""好他""]","[""弱他"",""弱我"",""强我"",""强他""]","","","","","","","","yes","","","","","","","","","SRET","EW_formal","","key","f","16.651086956521677","768","428","朋友","守法","Positive","morality","","","","","","","","","","",""
"534","","f","psychophysics","21","151536","0.0-7.0-3.0-0.7","6","6","6","3","1","4","3","5","4","4","5","1","-2","1","0","1","1","2","1","5","4","5","5","5","4","4","4","5","4","7","9","7","7","6","8","7","6","5","5","5","1","7","6","3","6","1","6","3","1","5","3","5","2","6","5","5","3","1","5","3","3","3","2","3","7","3","5","5","7","3","3","7","3","5","7","3","7","5","5","730803699089412097","吴","356","Male","[""坏他"",""坏我"",""好我"",""好他""]","[""弱他"",""弱我"",""强我"",""强他""]","","","","","","","","yes","","","","","","","","","SRET","EW_formal","","key","f","16.656043956044083","768","428","自己","有力","Positive","ability","","","","","","","","","","",""
"931","","j","psychophysics","22","153469","0.0-7.0-3.0-0.8","6","6","6","3","1","4","3","5","4","4","5","1","-2","1","0","1","1","2","1","5","4","5","5","5","4","4","4","5","4","7","9","7","7","6","8","7","6","5","5","5","1","7","6","3","6","1","6","3","1","5","3","5","2","6","5","5","3","1","5","3","3","3","2","3","7","3","5","5","7","3","3","7","3","5","7","3","7","5","5","730803699089412097","吴","356","Male","[""坏他"",""坏我"",""好我"",""好他""]","[""弱他"",""弱我"",""强我"",""强他""]","","","","","","","","no","","","","","","","","","SRET","EW_formal","","key","j","16.65478260869555","768","428","朋友","马虎","Negative","ability","","","","","","","","","","",""
"931","","j","psychophysics","23","155402","0.0-7.0-3.0-0.9","6","6","6","3","1","4","3","5","4","4","5","1","-2","1","0","1","1","2","1","5","4","5","5","5","4","4","4","5","4","7","9","7","7","6","8","7","6","5","5","5","1","7","6","3","6","1","6","3","1","5","3","5","2","6","5","5","3","1","5","3","3","3","2","3","7","3","5","5","7","3","3","7","3","5","7","3","7","5","5","730803699089412097","吴","356","Male","[""坏他"",""坏我"",""好我"",""好他""]","[""弱他"",""弱我"",""强我"",""强他""]","","","","","","","","no","","","","","","","","","SRET","EW_formal","","key","j","16.65304347826092","768","428","自己","缺德","Negative","morality","","","","","","","","","","",""
"857","","j","psychophysics","24","157260","0.0-7.0-3.0-0.10","6","6","6","3","1","4","3","5","4","4","5","1","-2","1","0","1","1","2","1","5","4","5","5","5","4","4","4","5","4","7","9","7","7","6","8","7","6","5","5","5","1","7","6","3","6","1","6","3","1","5","3","5","2","6","5","5","3","1","5","3","3","3","2","3","7","3","5","5","7","3","3","7","3","5","7","3","7","5","5","730803699089412097","吴","356","Male","[""坏他"",""坏我"",""好我"",""好他""]","[""弱他"",""弱我"",""强我"",""强他""]","","","","","","","","no","","","","","","","","","SRET","EW_formal","","key","j","16.656756756756703","768","428","自己","浅薄","Negative","ability","","","","","","","","","","",""
"547","","f","psychophysics","25","158808","0.0-7.0-3.0-0.11","6","6","6","3","1","4","3","5","4","4","5","1","-2","1","0","1","1","2","1","5","4","5","5","5","4","4","4","5","4","7","9","7","7","6","8","7","6","5","5","5","1","7","6","3","6","1","6","3","1","5","3","5","2","6","5","5","3","1","5","3","3","3","2","3","7","3","5","5","7","3","3","7","3","5","7","3","7","5","5","730803699089412097","吴","356","Male","[""坏他"",""坏我"",""好我"",""好他""]","[""弱他"",""弱我"",""强我"",""强他""]","","","","","","","","yes","","","","","","","","","SRET","EW_formal","","key","f","16.652173913043477","768","428","自己","宽容","Positive","morality","","","","","","","","","","",""
"1026","","f","psychophysics","26","160836","0.0-7.0-3.0-0.12","6","6","6","3","1","4","3","5","4","4","5","1","-2","1","0","1","1","2","1","5","4","5","5","5","4","4","4","5","4","7","9","7","7","6","8","7","6","5","5","5","1","7","6","3","6","1","6","3","1","5","3","5","2","6","5","5","3","1","5","3","3","3","2","3","7","3","5","5","7","3","3","7","3","5","7","3","7","5","5","730803699089412097","吴","356","Male","[""坏他"",""坏我"",""好我"",""好他""]","[""弱他"",""弱我"",""强我"",""强他""]","","","","","","","","yes","","","","","","","","","SRET","EW_formal","","key","f","16.65289256198347","768","428","朋友","沉着","Positive","ability","","","","","","","","","","",""
"686","","f","psychophysics","27","162522","0.0-7.0-3.0-0.13","6","6","6","3","1","4","3","5","4","4","5","1","-2","1","0","1","1","2","1","5","4","5","5","5","4","4","4","5","4","7","9","7","7","6","8","7","6","5","5","5","1","7","6","3","6","1","6","3","1","5","3","5","2","6","5","5","3","1","5","3","3","3","2","3","7","3","5","5","7","3","3","7","3","5","7","3","7","5","5","730803699089412097","吴","356","Male","[""坏他"",""坏我"",""好我"",""好他""]","[""弱他"",""弱我"",""强我"",""强他""]","","","","","","","","yes","","","","","","","","","SRET","EW_formal","","key","f","16.652999999999885","768","428","朋友","专注","Positive","ability","","","","","","","","","","",""
"713","","j","psychophysics","28","164237","0.0-7.0-3.0-0.14","6","6","6","3","1","4","3","5","4","4","5","1","-2","1","0","1","1","2","1","5","4","5","5","5","4","4","4","5","4","7","9","7","7","6","8","7","6","5","5","5","1","7","6","3","6","1","6","3","1","5","3","5","2","6","5","5","3","1","5","3","3","3","2","3","7","3","5","5","7","3","3","7","3","5","7","3","7","5","5","730803699089412097","吴","356","Male","[""坏他"",""坏我"",""好我"",""好他""]","[""弱他"",""弱我"",""强我"",""强他""]","","","","","","","","no","","","","","","","","","SRET","EW_formal","","key","j","16.652941176470645","768","428","朋友","不孝","Negative","morality","","","","","","","","","","",""
"535","","f","psychophysics","29","165774","0.0-7.0-3.0-0.15","6","6","6","3","1","4","3","5","4","4","5","1","-2","1","0","1","1","2","1","5","4","5","5","5","4","4","4","5","4","7","9","7","7","6","8","7","6","5","5","5","1","7","6","3","6","1","6","3","1","5","3","5","2","6","5","5","3","1","5","3","3","3","2","3","7","3","5","5","7","3","3","7","3","5","7","3","7","5","5","730803699089412097","吴","356","Male","[""坏他"",""坏我"",""好我"",""好他""]","[""弱他"",""弱我"",""强我"",""强他""]","","","","","","","","yes","","","","","","","","","SRET","EW_formal","","key","f","16.65274725274751","768","428","朋友","仁爱","Positive","morality","","","","","","","","","","",""
"549","","f","psychophysics","30","167324","0.0-7.0-3.0-0.16","6","6","6","3","1","4","3","5","4","4","5","1","-2","1","0","1","1","2","1","5","4","5","5","5","4","4","4","5","4","7","9","7","7","6","8","7","6","5","5","5","1","7","6","3","6","1","6","3","1","5","3","5","2","6","5","5","3","1","5","3","3","3","2","3","7","3","5","5","7","3","3","7","3","5","7","3","7","5","5","730803699089412097","吴","356","Male","[""坏他"",""坏我"",""好我"",""好他""]","[""弱他"",""弱我"",""强我"",""强他""]","","","","","","","","yes","","","","","","","","","SRET","EW_formal","","key","f","16.654347826087083","768","428","朋友","厚道","Positive","morality","","","","","","","","","","",""
"506","","f","psychophysics","31","168831","0.0-7.0-3.0-0.17","6","6","6","3","1","4","3","5","4","4","5","1","-2","1","0","1","1","2","1","5","4","5","5","5","4","4","4","5","4","7","9","7","7","6","8","7","6","5","5","5","1","7","6","3","6","1","6","3","1","5","3","5","2","6","5","5","3","1","5","3","3","3","2","3","7","3","5","5","7","3","3","7","3","5","7","3","7","5","5","730803699089412097","吴","356","Male","[""坏他"",""坏我"",""好我"",""好他""]","[""弱他"",""弱我"",""强我"",""强他""]","","","","","","","","yes","","","","","","","","","SRET","EW_formal","","key","f","16.655555555555555","768","428","自己","毅力","Positive","ability","","","","","","","","","","",""
"739","","f","psychophysics","32","170571","0.0-7.0-3.0-0.18","6","6","6","3","1","4","3","5","4","4","5","1","-2","1","0","1","1","2","1","5","4","5","5","5","4","4","4","5","4","7","9","7","7","6","8","7","6","5","5","5","1","7","6","3","6","1","6","3","1","5","3","5","2","6","5","5","3","1","5","3","3","3","2","3","7","3","5","5","7","3","3","7","3","5","7","3","7","5","5","730803699089412097","吴","356","Male","[""坏他"",""坏我"",""好我"",""好他""]","[""弱他"",""弱我"",""强我"",""强他""]","","","","","","","","yes","","","","","","","","","SRET","EW_formal","","key","f","16.65436893203878","768","428","朋友","好心","Positive","morality","","","","","","","","","","",""
"704","","j","psychophysics","33","172277","0.0-7.0-3.0-0.19","6","6","6","3","1","4","3","5","4","4","5","1","-2","1","0","1","1","2","1","5","4","5","5","5","4","4","4","5","4","7","9","7","7","6","8","7","6","5","5","5","1","7","6","3","6","1","6","3","1","5","3","5","2","6","5","5","3","1","5","3","3","3","2","3","7","3","5","5","7","3","3","7","3","5","7","3","7","5","5","730803699089412097","吴","356","Male","[""坏他"",""坏我"",""好我"",""好他""]","[""弱他"",""弱我"",""强我"",""强他""]","","","","","","","","no","","","","","","","","","SRET","EW_formal","","key","j","16.654901960784485","768","428","朋友","外行","Negative","ability","","","","","","","","","","",""
"557","","j","psychophysics","34","173835","0.0-7.0-3.0-0.20","6","6","6","3","1","4","3","5","4","4","5","1","-2","1","0","1","1","2","1","5","4","5","5","5","4","4","4","5","4","7","9","7","7","6","8","7","6","5","5","5","1","7","6","3","6","1","6","3","1","5","3","5","2","6","5","5","3","1","5","3","3","3","2","3","7","3","5","5","7","3","3","7","3","5","7","3","7","5","5","730803699089412097","吴","356","Male","[""坏他"",""坏我"",""好我"",""好他""]","[""弱他"",""弱我"",""强我"",""强他""]","","","","","","","","no","","","","","","","","","SRET","EW_formal","","key","j","16.654347826086767","768","428","自己","歹毒","Negative","morality","","","","","","","","","","",""
"483","","f","psychophysics","35","175319","0.0-7.0-3.0-0.21","6","6","6","3","1","4","3","5","4","4","5","1","-2","1","0","1","1","2","1","5","4","5","5","5","4","4","4","5","4","7","9","7","7","6","8","7","6","5","5","5","1","7","6","3","6","1","6","3","1","5","3","5","2","6","5","5","3","1","5","3","3","3","2","3","7","3","5","5","7","3","3","7","3","5","7","3","7","5","5","730803699089412097","吴","356","Male","[""坏他"",""坏我"",""好我"",""好他""]","[""弱他"",""弱我"",""强我"",""强他""]","","","","","","","","yes","","","","","","","","","SRET","EW_formal","","key","f","16.65568181818195","768","428","自己","爱国","Positive","morality","","","","","","","","","","",""
"473","","f","psychophysics","36","176795","0.0-7.0-3.0-0.22","6","6","6","3","1","4","3","5","4","4","5","1","-2","1","0","1","1","2","1","5","4","5","5","5","4","4","4","5","4","7","9","7","7","6","8","7","6","5","5","5","1","7","6","3","6","1","6","3","1","5","3","5","2","6","5","5","3","1","5","3","3","3","2","3","7","3","5","5","7","3","3","7","3","5","7","3","7","5","5","730803699089412097","吴","356","Male","[""坏他"",""坏我"",""好我"",""好他""]","[""弱他"",""弱我"",""强我"",""强他""]","","","","","","","","yes","","","","","","","","","SRET","EW_formal","","key","f","16.65681818181838","768","428","自己","仗义","Positive","morality","","","","","","","","","","",""
"452","","f","psychophysics","37","178252","0.0-7.0-3.0-0.23","6","6","6","3","1","4","3","5","4","4","5","1","-2","1","0","1","1","2","1","5","4","5","5","5","4","4","4","5","4","7","9","7","7","6","8","7","6","5","5","5","1","7","6","3","6","1","6","3","1","5","3","5","2","6","5","5","3","1","5","3","3","3","2","3","7","3","5","5","7","3","3","7","3","5","7","3","7","5","5","730803699089412097","吴","356","Male","[""坏他"",""坏我"",""好我"",""好他""]","[""弱他"",""弱我"",""强我"",""强他""]","","","","","","","","yes","","","","","","","","","SRET","EW_formal","","key","f","16.65465116279056","768","428","朋友","敏捷","Positive","ability","","","","","","","","","","",""
"604","","j","psychophysics","38","179857","0.0-7.0-3.0-0.24","6","6","6","3","1","4","3","5","4","4","5","1","-2","1","0","1","1","2","1","5","4","5","5","5","4","4","4","5","4","7","9","7","7","6","8","7","6","5","5","5","1","7","6","3","6","1","6","3","1","5","3","5","2","6","5","5","3","1","5","3","3","3","2","3","7","3","5","5","7","3","3","7","3","5","7","3","7","5","5","730803699089412097","吴","356","Male","[""坏他"",""坏我"",""好我"",""好他""]","[""弱他"",""弱我"",""强我"",""强他""]","","","","","","","","no","","","","","","","","","SRET","EW_formal","","key","j","16.65312500000012","768","428","自己","背叛","Negative","morality","","","","","","","","","","",""
"518","","j","psychophysics","39","181376","0.0-7.0-3.0-0.25","6","6","6","3","1","4","3","5","4","4","5","1","-2","1","0","1","1","2","1","5","4","5","5","5","4","4","4","5","4","7","9","7","7","6","8","7","6","5","5","5","1","7","6","3","6","1","6","3","1","5","3","5","2","6","5","5","3","1","5","3","3","3","2","3","7","3","5","5","7","3","3","7","3","5","7","3","7","5","5","730803699089412097","吴","356","Male","[""坏他"",""坏我"",""好我"",""好他""]","[""弱他"",""弱我"",""强我"",""强他""]","","","","","","","","no","","","","","","","","","SRET","EW_formal","","key","j","16.651111111111177","768","428","自己","愚痴","Negative","ability","","","","","","","","","","",""
"568","","j","psychophysics","40","182945","0.0-7.0-3.0-0.26","6","6","6","3","1","4","3","5","4","4","5","1","-2","1","0","1","1","2","1","5","4","5","5","5","4","4","4","5","4","7","9","7","7","6","8","7","6","5","5","5","1","7","6","3","6","1","6","3","1","5","3","5","2","6","5","5","3","1","5","3","3","3","2","3","7","3","5","5","7","3","3","7","3","5","7","3","7","5","5","730803699089412097","吴","356","Male","[""坏他"",""坏我"",""好我"",""好他""]","[""弱他"",""弱我"",""强我"",""强他""]","","","","","","","","no","","","","","","","","","SRET","EW_formal","","key","j","16.65376344086009","768","428","朋友","短浅","Negative","ability","","","","","","","","","","",""
"928","","j","psychophysics","41","184876","0.0-7.0-3.0-0.27","6","6","6","3","1","4","3","5","4","4","5","1","-2","1","0","1","1","2","1","5","4","5","5","5","4","4","4","5","4","7","9","7","7","6","8","7","6","5","5","5","1","7","6","3","6","1","6","3","1","5","3","5","2","6","5","5","3","1","5","3","3","3","2","3","7","3","5","5","7","3","3","7","3","5","7","3","7","5","5","730803699089412097","吴","356","Male","[""坏他"",""坏我"",""好我"",""好他""]","[""弱他"",""弱我"",""强我"",""强他""]","","","","","","","","no","","","","","","","","","SRET","EW_formal","","key","j","16.655652173912994","768","428","朋友","失信","Negative","morality","","","","","","","","","","",""
"605","","f","psychophysics","42","186483","0.0-7.0-3.0-0.28","6","6","6","3","1","4","3","5","4","4","5","1","-2","1","0","1","1","2","1","5","4","5","5","5","4","4","4","5","4","7","9","7","7","6","8","7","6","5","5","5","1","7","6","3","6","1","6","3","1","5","3","5","2","6","5","5","3","1","5","3","3","3","2","3","7","3","5","5","7","3","3","7","3","5","7","3","7","5","5","730803699089412097","吴","356","Male","[""坏他"",""坏我"",""好我"",""好他""]","[""弱他"",""弱我"",""强我"",""强他""]","","","","","","","","yes","","","","","","","","","SRET","EW_formal","","key","f","16.65312500000012","768","428","自己","扎实","Positive","ability","","","","","","","","","","",""
"891","","f","psychophysics","43","188386","0.0-7.0-3.0-0.29","6","6","6","3","1","4","3","5","4","4","5","1","-2","1","0","1","1","2","1","5","4","5","5","5","4","4","4","5","4","7","9","7","7","6","8","7","6","5","5","5","1","7","6","3","6","1","6","3","1","5","3","5","2","6","5","5","3","1","5","3","3","3","2","3","7","3","5","5","7","3","3","7","3","5","7","3","7","5","5","730803699089412097","吴","356","Male","[""坏他"",""坏我"",""好我"",""好他""]","[""弱他"",""弱我"",""强我"",""强他""]","","","","","","","","yes","","","","","","","","","SRET","EW_formal","","key","f","16.652212389380633","768","428","自己","高明","Positive","ability","","","","","","","","","","",""
"577","","f","psychophysics","44","189964","0.0-7.0-3.0-0.30","6","6","6","3","1","4","3","5","4","4","5","1","-2","1","0","1","1","2","1","5","4","5","5","5","4","4","4","5","4","7","9","7","7","6","8","7","6","5","5","5","1","7","6","3","6","1","6","3","1","5","3","5","2","6","5","5","3","1","5","3","3","3","2","3","7","3","5","5","7","3","3","7","3","5","7","3","7","5","5","730803699089412097","吴","356","Male","[""坏他"",""坏我"",""好我"",""好他""]","[""弱他"",""弱我"",""强我"",""强他""]","","","","","","","","yes","","","","","","","","","SRET","EW_formal","","key","f","16.652127659574344","768","428","朋友","思辨","Positive","ability","","","","","","","","","","",""
"583","","j","psychophysics","45","191549","0.0-7.0-3.0-0.31","6","6","6","3","1","4","3","5","4","4","5","1","-2","1","0","1","1","2","1","5","4","5","5","5","4","4","4","5","4","7","9","7","7","6","8","7","6","5","5","5","1","7","6","3","6","1","6","3","1","5","3","5","2","6","5","5","3","1","5","3","3","3","2","3","7","3","5","5","7","3","3","7","3","5","7","3","7","5","5","730803699089412097","吴","356","Male","[""坏他"",""坏我"",""好我"",""好他""]","[""弱他"",""弱我"",""强我"",""强他""]","","","","","","","","no","","","","","","","","","SRET","EW_formal","","key","j","16.652127659574653","768","428","自己","毛糙","Negative","ability","","","","","","","","","","",""
"498","","f","psychophysics","46","193049","0.0-7.0-3.0-0.32","6","6","6","3","1","4","3","5","4","4","5","1","-2","1","0","1","1","2","1","5","4","5","5","5","4","4","4","5","4","7","9","7","7","6","8","7","6","5","5","5","1","7","6","3","6","1","6","3","1","5","3","5","2","6","5","5","3","1","5","3","3","3","2","3","7","3","5","5","7","3","3","7","3","5","7","3","7","5","5","730803699089412097","吴","356","Male","[""坏他"",""坏我"",""好我"",""好他""]","[""弱他"",""弱我"",""强我"",""强他""]","","","","","","","","yes","","","","","","","","","SRET","EW_formal","","key","f","16.653932584269466","768","428","自己","热心","Positive","morality","","","","","","","","","","",""
"500","","f","psychophysics","47","194549","0.0-7.0-3.0-0.33","6","6","6","3","1","4","3","5","4","4","5","1","-2","1","0","1","1","2","1","5","4","5","5","5","4","4","4","5","4","7","9","7","7","6","8","7","6","5","5","5","1","7","6","3","6","1","6","3","1","5","3","5","2","6","5","5","3","1","5","3","3","3","2","3","7","3","5","5","7","3","3","7","3","5","7","3","7","5","5","730803699089412097","吴","356","Male","[""坏他"",""坏我"",""好我"",""好他""]","[""弱他"",""弱我"",""强我"",""强他""]","","","","","","","","yes","","","","","","","","","SRET","EW_formal","","key","f","16.656179775280833","768","428","朋友","无私","Positive","morality","","","","","","","","","","",""
"619","","j","psychophysics","48","196169","0.0-7.0-3.0-0.34","6","6","6","3","1","4","3","5","4","4","5","1","-2","1","0","1","1","2","1","5","4","5","5","5","4","4","4","5","4","7","9","7","7","6","8","7","6","5","5","5","1","7","6","3","6","1","6","3","1","5","3","5","2","6","5","5","3","1","5","3","3","3","2","3","7","3","5","5","7","3","3","7","3","5","7","3","7","5","5","730803699089412097","吴","356","Male","[""坏他"",""坏我"",""好我"",""好他""]","[""弱他"",""弱我"",""强我"",""强他""]","","","","","","","","no","","","","","","","","","SRET","EW_formal","","key","j","16.653124999999818","768","428","自己","草率","Negative","ability","","","","","","","","","","",""
"598","","j","psychophysics","49","197768","0.0-7.0-3.0-0.35","6","6","6","3","1","4","3","5","4","4","5","1","-2","1","0","1","1","2","1","5","4","5","5","5","4","4","4","5","4","7","9","7","7","6","8","7","6","5","5","5","1","7","6","3","6","1","6","3","1","5","3","5","2","6","5","5","3","1","5","3","3","3","2","3","7","3","5","5","7","3","3","7","3","5","7","3","7","5","5","730803699089412097","吴","356","Male","[""坏他"",""坏我"",""好我"",""好他""]","[""弱他"",""弱我"",""强我"",""强他""]","","","","","","","","no","","","","","","","","","SRET","EW_formal","","key","j","16.65368421052638","768","428","自己","盲目","Negative","ability","","","","","","","","","","",""
"552","","j","psychophysics","50","199321","0.0-7.0-3.0-0.36","6","6","6","3","1","4","3","5","4","4","5","1","-2","1","0","1","1","2","1","5","4","5","5","5","4","4","4","5","4","7","9","7","7","6","8","7","6","5","5","5","1","7","6","3","6","1","6","3","1","5","3","5","2","6","5","5","3","1","5","3","3","3","2","3","7","3","5","5","7","3","3","7","3","5","7","3","7","5","5","730803699089412097","吴","356","Male","[""坏他"",""坏我"",""好我"",""好他""]","[""弱他"",""弱我"",""强我"",""强他""]","","","","","","","","no","","","","","","","","","SRET","EW_formal","","key","j","16.65376344086009","768","428","朋友","迂拙","Negative","ability","","","","","","","","","","",""
"500","","f","psychophysics","51","200825","0.0-7.0-3.0-0.37","6","6","6","3","1","4","3","5","4","4","5","1","-2","1","0","1","1","2","1","5","4","5","5","5","4","4","4","5","4","7","9","7","7","6","8","7","6","5","5","5","1","7","6","3","6","1","6","3","1","5","3","5","2","6","5","5","3","1","5","3","3","3","2","3","7","3","5","5","7","3","3","7","3","5","7","3","7","5","5","730803699089412097","吴","356","Male","[""坏他"",""坏我"",""好我"",""好他""]","[""弱他"",""弱我"",""强我"",""强他""]","","","","","","","","yes","","","","","","","","","SRET","EW_formal","","key","f","16.656179775280833","768","428","自己","奉献","Positive","morality","","","","","","","","","","",""
"665","","j","psychophysics","52","202491","0.0-7.0-3.0-0.38","6","6","6","3","1","4","3","5","4","4","5","1","-2","1","0","1","1","2","1","5","4","5","5","5","4","4","4","5","4","7","9","7","7","6","8","7","6","5","5","5","1","7","6","3","6","1","6","3","1","5","3","5","2","6","5","5","3","1","5","3","3","3","2","3","7","3","5","5","7","3","3","7","3","5","7","3","7","5","5","730803699089412097","吴","356","Male","[""坏他"",""坏我"",""好我"",""好他""]","[""弱他"",""弱我"",""强我"",""强他""]","","","","","","","","no","","","","","","","","","SRET","EW_formal","","key","j","16.65353535353547","768","428","朋友","小人","Negative","morality","","","","","","","","","","",""
"617","","j","psychophysics","53","204110","0.0-7.0-3.0-0.39","6","6","6","3","1","4","3","5","4","4","5","1","-2","1","0","1","1","2","1","5","4","5","5","5","4","4","4","5","4","7","9","7","7","6","8","7","6","5","5","5","1","7","6","3","6","1","6","3","1","5","3","5","2","6","5","5","3","1","5","3","3","3","2","3","7","3","5","5","7","3","3","7","3","5","7","3","7","5","5","730803699089412097","吴","356","Male","[""坏他"",""坏我"",""好我"",""好他""]","[""弱他"",""弱我"",""强我"",""强他""]","","","","","","","","no","","","","","","","","","SRET","EW_formal","","key","j","16.652083333333394","768","428","朋友","窝囊","Negative","ability","","","","","","","","","","",""
"1067","","j","psychophysics","54","206178","0.0-7.0-3.0-0.40","6","6","6","3","1","4","3","5","4","4","5","1","-2","1","0","1","1","2","1","5","4","5","5","5","4","4","4","5","4","7","9","7","7","6","8","7","6","5","5","5","1","7","6","3","6","1","6","3","1","5","3","5","2","6","5","5","3","1","5","3","3","3","2","3","7","3","5","5","7","3","3","7","3","5","7","3","7","5","5","730803699089412097","吴","356","Male","[""坏他"",""坏我"",""好我"",""好他""]","[""弱他"",""弱我"",""强我"",""强他""]","","","","","","","","no","","","","","","","","","SRET","EW_formal","","key","j","16.655284552845576","768","428","朋友","无助","Negative","ability","","","","","","","","","","",""
"489","","f","psychophysics","55","207669","0.0-7.0-3.0-0.41","6","6","6","3","1","4","3","5","4","4","5","1","-2","1","0","1","1","2","1","5","4","5","5","5","4","4","4","5","4","7","9","7","7","6","8","7","6","5","5","5","1","7","6","3","6","1","6","3","1","5","3","5","2","6","5","5","3","1","5","3","3","3","2","3","7","3","5","5","7","3","3","7","3","5","7","3","7","5","5","730803699089412097","吴","356","Male","[""坏他"",""坏我"",""好我"",""好他""]","[""弱他"",""弱我"",""强我"",""强他""]","","","","","","","","yes","","","","","","","","","SRET","EW_formal","","key","f","16.656179775280833","768","428","朋友","坚持","Positive","ability","","","","","","","","","","",""
"1029","","f","psychophysics","56","209699","0.0-7.0-3.0-0.42","6","6","6","3","1","4","3","5","4","4","5","1","-2","1","0","1","1","2","1","5","4","5","5","5","4","4","4","5","4","7","9","7","7","6","8","7","6","5","5","5","1","7","6","3","6","1","6","3","1","5","3","5","2","6","5","5","3","1","5","3","3","3","2","3","7","3","5","5","7","3","3","7","3","5","7","3","7","5","5","730803699089412097","吴","356","Male","[""坏他"",""坏我"",""好我"",""好他""]","[""弱他"",""弱我"",""强我"",""强他""]","","","","","","","","yes","","","","","","","","","SRET","EW_formal","","key","f","16.65289256198347","768","428","自己","骁勇","Positive","ability","","","","","","","","","","",""
"953","","j","psychophysics","57","211656","0.0-7.0-3.0-0.43","6","6","6","3","1","4","3","5","4","4","5","1","-2","1","0","1","1","2","1","5","4","5","5","5","4","4","4","5","4","7","9","7","7","6","8","7","6","5","5","5","1","7","6","3","6","1","6","3","1","5","3","5","2","6","5","5","3","1","5","3","3","3","2","3","7","3","5","5","7","3","3","7","3","5","7","3","7","5","5","730803699089412097","吴","356","Male","[""坏他"",""坏我"",""好我"",""好他""]","[""弱他"",""弱我"",""强我"",""强他""]","","","","","","","","no","","","","","","","","","SRET","EW_formal","","key","j","16.6525862068964","768","428","自己","驽钝","Negative","ability","","","","","","","","","","",""
"1152","","f","psychophysics","58","213809","0.0-7.0-3.0-0.44","6","6","6","3","1","4","3","5","4","4","5","1","-2","1","0","1","1","2","1","5","4","5","5","5","4","4","4","5","4","7","9","7","7","6","8","7","6","5","5","5","1","7","6","3","6","1","6","3","1","5","3","5","2","6","5","5","3","1","5","3","3","3","2","3","7","3","5","5","7","3","3","7","3","5","7","3","7","5","5","730803699089412097","吴","356","Male","[""坏他"",""坏我"",""好我"",""好他""]","[""弱他"",""弱我"",""强我"",""强他""]","","","","","","","","yes","","","","","","","","","SRET","EW_formal","","key","f","16.654263565891426","768","428","朋友","远见","Positive","ability","","","","","","","","","","",""
"503","","j","psychophysics","59","215314","0.0-7.0-3.0-0.45","6","6","6","3","1","4","3","5","4","4","5","1","-2","1","0","1","1","2","1","5","4","5","5","5","4","4","4","5","4","7","9","7","7","6","8","7","6","5","5","5","1","7","6","3","6","1","6","3","1","5","3","5","2","6","5","5","3","1","5","3","3","3","2","3","7","3","5","5","7","3","3","7","3","5","7","3","7","5","5","730803699089412097","吴","356","Male","[""坏他"",""坏我"",""好我"",""好他""]","[""弱他"",""弱我"",""强我"",""强他""]","","","","","","","","no","","","","","","","","","SRET","EW_formal","","key","j","16.652808988763784","768","428","自己","邪恶","Negative","morality","","","","","","","","","","",""
"881","","j","psychophysics","60","217196","0.0-7.0-3.0-0.46","6","6","6","3","1","4","3","5","4","4","5","1","-2","1","0","1","1","2","1","5","4","5","5","5","4","4","4","5","4","7","9","7","7","6","8","7","6","5","5","5","1","7","6","3","6","1","6","3","1","5","3","5","2","6","5","5","3","1","5","3","3","3","2","3","7","3","5","5","7","3","3","7","3","5","7","3","7","5","5","730803699089412097","吴","356","Male","[""坏他"",""坏我"",""好我"",""好他""]","[""弱他"",""弱我"",""强我"",""强他""]","","","","","","","","no","","","","","","","","","SRET","EW_formal","","key","j","16.654464285714443","768","428","朋友","龌龊","Negative","morality","","","","","","","","","","",""
"629","","f","psychophysics","61","218827","0.0-7.0-3.0-0.47","6","6","6","3","1","4","3","5","4","4","5","1","-2","1","0","1","1","2","1","5","4","5","5","5","4","4","4","5","4","7","9","7","7","6","8","7","6","5","5","5","1","7","6","3","6","1","6","3","1","5","3","5","2","6","5","5","3","1","5","3","3","3","2","3","7","3","5","5","7","3","3","7","3","5","7","3","7","5","5","730803699089412097","吴","356","Male","[""坏他"",""坏我"",""好我"",""好他""]","[""弱他"",""弱我"",""强我"",""强他""]","","","","","","","","yes","","","","","","","","","SRET","EW_formal","","key","f","16.65360824742292","768","428","朋友","善良","Positive","morality","","","","","","","","","","",""
"576","","j","psychophysics","62","220404","0.0-7.0-3.0-0.48","6","6","6","3","1","4","3","5","4","4","5","1","-2","1","0","1","1","2","1","5","4","5","5","5","4","4","4","5","4","7","9","7","7","6","8","7","6","5","5","5","1","7","6","3","6","1","6","3","1","5","3","5","2","6","5","5","3","1","5","3","3","3","2","3","7","3","5","5","7","3","3","7","3","5","7","3","7","5","5","730803699089412097","吴","356","Male","[""坏他"",""坏我"",""好我"",""好他""]","[""弱他"",""弱我"",""强我"",""强他""]","","","","","","","","no","","","","","","","","","SRET","EW_formal","","key","j","16.652127659574344","768","428","自己","无耻","Negative","morality","","","","","","","","","","",""
"1258","","f","psychophysics","63","222664","0.0-7.0-3.0-0.49","6","6","6","3","1","4","3","5","4","4","5","1","-2","1","0","1","1","2","1","5","4","5","5","5","4","4","4","5","4","7","9","7","7","6","8","7","6","5","5","5","1","7","6","3","6","1","6","3","1","5","3","5","2","6","5","5","3","1","5","3","3","3","2","3","7","3","5","5","7","3","3","7","3","5","7","3","7","5","5","730803699089412097","吴","356","Male","[""坏他"",""坏我"",""好我"",""好他""]","[""弱他"",""弱我"",""强我"",""强他""]","","","","","","","","yes","","","","","","","","","SRET","EW_formal","","key","f","16.655223880596928","768","428","朋友","廉明","Positive","morality","","","","","","","","","","",""
"723","","j","psychophysics","64","224388","0.0-7.0-3.0-0.50","6","6","6","3","1","4","3","5","4","4","5","1","-2","1","0","1","1","2","1","5","4","5","5","5","4","4","4","5","4","7","9","7","7","6","8","7","6","5","5","5","1","7","6","3","6","1","6","3","1","5","3","5","2","6","5","5","3","1","5","3","3","3","2","3","7","3","5","5","7","3","3","7","3","5","7","3","7","5","5","730803699089412097","吴","356","Male","[""坏他"",""坏我"",""好我"",""好他""]","[""弱他"",""弱我"",""强我"",""强他""]","","","","","","","","no","","","","","","","","","SRET","EW_formal","","key","j","16.654368932039063","768","428","自己","淫乱","Negative","morality","","","","","","","","","","",""
"659","","f","psychophysics","65","226048","0.0-7.0-3.0-0.51","6","6","6","3","1","4","3","5","4","4","5","1","-2","1","0","1","1","2","1","5","4","5","5","5","4","4","4","5","4","7","9","7","7","6","8","7","6","5","5","5","1","7","6","3","6","1","6","3","1","5","3","5","2","6","5","5","3","1","5","3","3","3","2","3","7","3","5","5","7","3","3","7","3","5","7","3","7","5","5","730803699089412097","吴","356","Male","[""坏他"",""坏我"",""好我"",""好他""]","[""弱他"",""弱我"",""强我"",""强他""]","","","","","","","","yes","","","","","","","","","SRET","EW_formal","","key","f","16.65353535353547","768","428","自己","守信","Positive","morality","","","","","","","","","","",""
"748","","f","psychophysics","66","227797","0.0-7.0-3.0-0.52","6","6","6","3","1","4","3","5","4","4","5","1","-2","1","0","1","1","2","1","5","4","5","5","5","4","4","4","5","4","7","9","7","7","6","8","7","6","5","5","5","1","7","6","3","6","1","6","3","1","5","3","5","2","6","5","5","3","1","5","3","3","3","2","3","7","3","5","5","7","3","3","7","3","5","7","3","7","5","5","730803699089412097","吴","356","Male","[""坏他"",""坏我"",""好我"",""好他""]","[""弱他"",""弱我"",""强我"",""强他""]","","","","","","","","yes","","","","","","","","","SRET","EW_formal","","key","f","16.65480769230775","768","428","自己","坦荡","Positive","morality","","","","","","","","","","",""
"726","","j","psychophysics","67","229524","0.0-7.0-3.0-0.53","6","6","6","3","1","4","3","5","4","4","5","1","-2","1","0","1","1","2","1","5","4","5","5","5","4","4","4","5","4","7","9","7","7","6","8","7","6","5","5","5","1","7","6","3","6","1","6","3","1","5","3","5","2","6","5","5","3","1","5","3","3","3","2","3","7","3","5","5","7","3","3","7","3","5","7","3","7","5","5","730803699089412097","吴","356","Male","[""坏他"",""坏我"",""好我"",""好他""]","[""弱他"",""弱我"",""强我"",""强他""]","","","","","","","","no","","","","","","","","","SRET","EW_formal","","key","j","16.652941176470645","768","428","自己","利己","Negative","morality","","","","","","","","","","",""
"566","","f","psychophysics","68","231092","0.0-7.0-3.0-0.54","6","6","6","3","1","4","3","5","4","4","5","1","-2","1","0","1","1","2","1","5","4","5","5","5","4","4","4","5","4","7","9","7","7","6","8","7","6","5","5","5","1","7","6","3","6","1","6","3","1","5","3","5","2","6","5","5","3","1","5","3","3","3","2","3","7","3","5","5","7","3","3","7","3","5","7","3","7","5","5","730803699089412097","吴","356","Male","[""坏他"",""坏我"",""好我"",""好他""]","[""弱他"",""弱我"",""强我"",""强他""]","","","","","","","","yes","","","","","","","","","SRET","EW_formal","","key","f","16.655913978494624","768","428","自己","懂行","Positive","ability","","","","","","","","","","",""
"501","","f","psychophysics","69","232595","0.0-7.0-3.0-0.55","6","6","6","3","1","4","3","5","4","4","5","1","-2","1","0","1","1","2","1","5","4","5","5","5","4","4","4","5","4","7","9","7","7","6","8","7","6","5","5","5","1","7","6","3","6","1","6","3","1","5","3","5","2","6","5","5","3","1","5","3","3","3","2","3","7","3","5","5","7","3","3","7","3","5","7","3","7","5","5","730803699089412097","吴","356","Male","[""坏他"",""坏我"",""好我"",""好他""]","[""弱他"",""弱我"",""强我"",""强他""]","","","","","","","","yes","","","","","","","","","SRET","EW_formal","","key","f","16.652222222222353","768","428","自己","清廉","Positive","morality","","","","","","","","","","",""
"405","","f","psychophysics","70","234001","0.0-7.0-3.0-0.56","6","6","6","3","1","4","3","5","4","4","5","1","-2","1","0","1","1","2","1","5","4","5","5","5","4","4","4","5","4","7","9","7","7","6","8","7","6","5","5","5","1","7","6","3","6","1","6","3","1","5","3","5","2","6","5","5","3","1","5","3","3","3","2","3","7","3","5","5","7","3","3","7","3","5","7","3","7","5","5","730803699089412097","吴","356","Male","[""坏他"",""坏我"",""好我"",""好他""]","[""弱他"",""弱我"",""强我"",""强他""]","","","","","","","","yes","","","","","","","","","SRET","EW_formal","","key","f","16.651807228915732","768","428","朋友","干练","Positive","ability","","","","","","","","","","",""
"573","","j","psychophysics","71","235575","0.0-7.0-3.0-0.57","6","6","6","3","1","4","3","5","4","4","5","1","-2","1","0","1","1","2","1","5","4","5","5","5","4","4","4","5","4","7","9","7","7","6","8","7","6","5","5","5","1","7","6","3","6","1","6","3","1","5","3","5","2","6","5","5","3","1","5","3","3","3","2","3","7","3","5","5","7","3","3","7","3","5","7","3","7","5","5","730803699089412097","吴","356","Male","[""坏他"",""坏我"",""好我"",""好他""]","[""弱他"",""弱我"",""强我"",""强他""]","","","","","","","","no","","","","","","","","","SRET","EW_formal","","key","j","16.65319148936164","768","428","自己","贪腐","Negative","morality","","","","","","","","","","",""
"584","","j","psychophysics","72","237161","0.0-7.0-3.0-0.58","6","6","6","3","1","4","3","5","4","4","5","1","-2","1","0","1","1","2","1","5","4","5","5","5","4","4","4","5","4","7","9","7","7","6","8","7","6","5","5","5","1","7","6","3","6","1","6","3","1","5","3","5","2","6","5","5","3","1","5","3","3","3","2","3","7","3","5","5","7","3","3","7","3","5","7","3","7","5","5","730803699089412097","吴","356","Male","[""坏他"",""坏我"",""好我"",""好他""]","[""弱他"",""弱我"",""强我"",""强他""]","","","","","","","","no","","","","","","","","","SRET","EW_formal","","key","j","16.655319148935924","768","428","朋友","黑心","Negative","morality","","","","","","","","","","",""
"574","","f","psychophysics","73","238736","0.0-7.0-3.0-0.59","6","6","6","3","1","4","3","5","4","4","5","1","-2","1","0","1","1","2","1","5","4","5","5","5","4","4","4","5","4","7","9","7","7","6","8","7","6","5","5","5","1","7","6","3","6","1","6","3","1","5","3","5","2","6","5","5","3","1","5","3","3","3","2","3","7","3","5","5","7","3","3","7","3","5","7","3","7","5","5","730803699089412097","吴","356","Male","[""坏他"",""坏我"",""好我"",""好他""]","[""弱他"",""弱我"",""强我"",""强他""]","","","","","","","","yes","","","","","","","","","SRET","EW_formal","","key","f","16.654838709677357","768","428","自己","利落","Positive","ability","","","","","","","","","","",""
"694","","j","psychophysics","74","240430","0.0-7.0-3.0-0.60","6","6","6","3","1","4","3","5","4","4","5","1","-2","1","0","1","1","2","1","5","4","5","5","5","4","4","4","5","4","7","9","7","7","6","8","7","6","5","5","5","1","7","6","3","6","1","6","3","1","5","3","5","2","6","5","5","3","1","5","3","3","3","2","3","7","3","5","5","7","3","3","7","3","5","7","3","7","5","5","730803699089412097","吴","356","Male","[""坏他"",""坏我"",""好我"",""好他""]","[""弱他"",""弱我"",""强我"",""强他""]","","","","","","","","no","","","","","","","","","SRET","EW_formal","","key","j","16.652475247524695","768","428","自己","拖延","Negative","ability","","","","","","","","","","",""
"455","","f","psychophysics","75","241886","0.0-7.0-3.0-0.61","6","6","6","3","1","4","3","5","4","4","5","1","-2","1","0","1","1","2","1","5","4","5","5","5","4","4","4","5","4","7","9","7","7","6","8","7","6","5","5","5","1","7","6","3","6","1","6","3","1","5","3","5","2","6","5","5","3","1","5","3","3","3","2","3","7","3","5","5","7","3","3","7","3","5","7","3","7","5","5","730803699089412097","吴","356","Male","[""坏他"",""坏我"",""好我"",""好他""]","[""弱他"",""弱我"",""强我"",""强他""]","","","","","","","","yes","","","","","","","","","SRET","EW_formal","","key","f","16.652873563218257","768","428","自己","礼貌","Positive","morality","","","","","","","","","","",""
"596","","j","psychophysics","76","243483","0.0-7.0-3.0-0.62","6","6","6","3","1","4","3","5","4","4","5","1","-2","1","0","1","1","2","1","5","4","5","5","5","4","4","4","5","4","7","9","7","7","6","8","7","6","5","5","5","1","7","6","3","6","1","6","3","1","5","3","5","2","6","5","5","3","1","5","3","3","3","2","3","7","3","5","5","7","3","3","7","3","5","7","3","7","5","5","730803699089412097","吴","356","Male","[""坏他"",""坏我"",""好我"",""好他""]","[""弱他"",""弱我"",""强我"",""强他""]","","","","","","","","no","","","","","","","","","SRET","EW_formal","","key","j","16.65368421052638","768","428","朋友","狡诈","Negative","morality","","","","","","","","","","",""
"556","","f","psychophysics","77","245040","0.0-7.0-3.0-0.63","6","6","6","3","1","4","3","5","4","4","5","1","-2","1","0","1","1","2","1","5","4","5","5","5","4","4","4","5","4","7","9","7","7","6","8","7","6","5","5","5","1","7","6","3","6","1","6","3","1","5","3","5","2","6","5","5","3","1","5","3","3","3","2","3","7","3","5","5","7","3","3","7","3","5","7","3","7","5","5","730803699089412097","吴","356","Male","[""坏他"",""坏我"",""好我"",""好他""]","[""弱他"",""弱我"",""强我"",""强他""]","","","","","","","","yes","","","","","","","","","SRET","EW_formal","","key","f","16.65543478260857","768","428","自己","娴熟","Positive","ability","","","","","","","","","","",""
"1391","","j","psychophysics","78","247433","0.0-7.0-3.0-0.64","6","6","6","3","1","4","3","5","4","4","5","1","-2","1","0","1","1","2","1","5","4","5","5","5","4","4","4","5","4","7","9","7","7","6","8","7","6","5","5","5","1","7","6","3","6","1","6","3","1","5","3","5","2","6","5","5","3","1","5","3","3","3","2","3","7","3","5","5","7","3","3","7","3","5","7","3","7","5","5","730803699089412097","吴","356","Male","[""坏他"",""坏我"",""好我"",""好他""]","[""弱他"",""弱我"",""强我"",""强他""]","","","","","","","","no","","","","","","","","","SRET","EW_formal","","key","j","16.65314685314681","768","428","朋友","畏难","Negative","ability","","","","","","","","","","",""
"525","","f","psychophysics","79","248959","0.0-7.0-3.0-0.65","6","6","6","3","1","4","3","5","4","4","5","1","-2","1","0","1","1","2","1","5","4","5","5","5","4","4","4","5","4","7","9","7","7","6","8","7","6","5","5","5","1","7","6","3","6","1","6","3","1","5","3","5","2","6","5","5","3","1","5","3","3","3","2","3","7","3","5","5","7","3","3","7","3","5","7","3","7","5","5","730803699089412097","吴","356","Male","[""坏他"",""坏我"",""好我"",""好他""]","[""弱他"",""弱我"",""强我"",""强他""]","","","","","","","","yes","","","","","","","","","SRET","EW_formal","","key","f","16.651111111110854","768","428","朋友","诚信","Positive","morality","","","","","","","","","","",""
"678","","j","psychophysics","80","250639","0.0-7.0-3.0-0.66","6","6","6","3","1","4","3","5","4","4","5","1","-2","1","0","1","1","2","1","5","4","5","5","5","4","4","4","5","4","7","9","7","7","6","8","7","6","5","5","5","1","7","6","3","6","1","6","3","1","5","3","5","2","6","5","5","3","1","5","3","3","3","2","3","7","3","5","5","7","3","3","7","3","5","7","3","7","5","5","730803699089412097","吴","356","Male","[""坏他"",""坏我"",""好我"",""好他""]","[""弱他"",""弱我"",""强我"",""强他""]","","","","","","","","no","","","","","","","","","SRET","EW_formal","","key","j","16.653000000000176","768","428","朋友","拜金","Negative","morality","","","","","","","","","","",""
"548","","j","psychophysics","81","252188","0.0-7.0-3.0-0.67","6","6","6","3","1","4","3","5","4","4","5","1","-2","1","0","1","1","2","1","5","4","5","5","5","4","4","4","5","4","7","9","7","7","6","8","7","6","5","5","5","1","7","6","3","6","1","6","3","1","5","3","5","2","6","5","5","3","1","5","3","3","3","2","3","7","3","5","5","7","3","3","7","3","5","7","3","7","5","5","730803699089412097","吴","356","Male","[""坏他"",""坏我"",""好我"",""好他""]","[""弱他"",""弱我"",""强我"",""强他""]","","","","","","","","no","","","","","","","","","SRET","EW_formal","","key","j","16.654347826087083","768","428","朋友","不良","Negative","morality","","","","","","","","","","",""
"695","","j","psychophysics","82","253884","0.0-7.0-3.0-0.68","6","6","6","3","1","4","3","5","4","4","5","1","-2","1","0","1","1","2","1","5","4","5","5","5","4","4","4","5","4","7","9","7","7","6","8","7","6","5","5","5","1","7","6","3","6","1","6","3","1","5","3","5","2","6","5","5","3","1","5","3","3","3","2","3","7","3","5","5","7","3","3","7","3","5","7","3","7","5","5","730803699089412097","吴","356","Male","[""坏他"",""坏我"",""好我"",""好他""]","[""弱他"",""弱我"",""强我"",""强他""]","","","","","","","","no","","","","","","","","","SRET","EW_formal","","key","j","16.65544554455457","768","428","朋友","业余","Negative","ability","","","","","","","","","","",""
"640","","j","psychophysics","83","255525","0.0-7.0-3.0-0.69","6","6","6","3","1","4","3","5","4","4","5","1","-2","1","0","1","1","2","1","5","4","5","5","5","4","4","4","5","4","7","9","7","7","6","8","7","6","5","5","5","1","7","6","3","6","1","6","3","1","5","3","5","2","6","5","5","3","1","5","3","3","3","2","3","7","3","5","5","7","3","3","7","3","5","7","3","7","5","5","730803699089412097","吴","356","Male","[""坏他"",""坏我"",""好我"",""好他""]","[""弱他"",""弱我"",""强我"",""强他""]","","","","","","","","no","","","","","","","","","SRET","EW_formal","","key","j","16.651020408163443","768","428","朋友","犹豫","Negative","ability","","","","","","","","","","",""
"706","","j","psychophysics","84","257232","0.0-7.0-3.0-0.70","6","6","6","3","1","4","3","5","4","4","5","1","-2","1","0","1","1","2","1","5","4","5","5","5","4","4","4","5","4","7","9","7","7","6","8","7","6","5","5","5","1","7","6","3","6","1","6","3","1","5","3","5","2","6","5","5","3","1","5","3","3","3","2","3","7","3","5","5","7","3","3","7","3","5","7","3","7","5","5","730803699089412097","吴","356","Male","[""坏他"",""坏我"",""好我"",""好他""]","[""弱他"",""弱我"",""强我"",""强他""]","","","","","","","","no","","","","","","","","","SRET","EW_formal","","key","j","16.653465346534652","768","428","自己","逞能","Negative","ability","","","","","","","","","","",""
"472","","f","psychophysics","85","258708","0.0-7.0-3.0-0.71","6","6","6","3","1","4","3","5","4","4","5","1","-2","1","0","1","1","2","1","5","4","5","5","5","4","4","4","5","4","7","9","7","7","6","8","7","6","5","5","5","1","7","6","3","6","1","6","3","1","5","3","5","2","6","5","5","3","1","5","3","3","3","2","3","7","3","5","5","7","3","3","7","3","5","7","3","7","5","5","730803699089412097","吴","356","Male","[""坏他"",""坏我"",""好我"",""好他""]","[""弱他"",""弱我"",""强我"",""强他""]","","","","","","","","yes","","","","","","","","","SRET","EW_formal","","key","f","16.65340909090909","768","428","朋友","细心","Positive","ability","","","","","","","","","","",""
"488","","j","psychophysics","86","260197","0.0-7.0-3.0-0.72","6","6","6","3","1","4","3","5","4","4","5","1","-2","1","0","1","1","2","1","5","4","5","5","5","4","4","4","5","4","7","9","7","7","6","8","7","6","5","5","5","1","7","6","3","6","1","6","3","1","5","3","5","2","6","5","5","3","1","5","3","3","3","2","3","7","3","5","5","7","3","3","7","3","5","7","3","7","5","5","730803699089412097","吴","356","Male","[""坏他"",""坏我"",""好我"",""好他""]","[""弱他"",""弱我"",""强我"",""强他""]","","","","","","","","no","","","","","","","","","SRET","EW_formal","","key","j","16.65340909090909","768","428","自己","粗心","Negative","ability","","","","","","","","","","",""
"584","","f","psychophysics","87","261782","0.0-7.0-3.0-0.73","6","6","6","3","1","4","3","5","4","4","5","1","-2","1","0","1","1","2","1","5","4","5","5","5","4","4","4","5","4","7","9","7","7","6","8","7","6","5","5","5","1","7","6","3","6","1","6","3","1","5","3","5","2","6","5","5","3","1","5","3","3","3","2","3","7","3","5","5","7","3","3","7","3","5","7","3","7","5","5","730803699089412097","吴","356","Male","[""坏他"",""坏我"",""好我"",""好他""]","[""弱他"",""弱我"",""强我"",""强他""]","","","","","","","","yes","","","","","","","","","SRET","EW_formal","","key","f","16.654255319148625","768","428","朋友","博学","Positive","ability","","","","","","","","","","",""
"448","","f","psychophysics","88","263231","0.0-7.0-3.0-0.74","6","6","6","3","1","4","3","5","4","4","5","1","-2","1","0","1","1","2","1","5","4","5","5","5","4","4","4","5","4","7","9","7","7","6","8","7","6","5","5","5","1","7","6","3","6","1","6","3","1","5","3","5","2","6","5","5","3","1","5","3","3","3","2","3","7","3","5","5","7","3","3","7","3","5","7","3","7","5","5","730803699089412097","吴","356","Male","[""坏他"",""坏我"",""好我"",""好他""]","[""弱他"",""弱我"",""强我"",""强他""]","","","","","","","","yes","","","","","","","","","SRET","EW_formal","","key","f","16.653488372093157","768","428","朋友","义气","Positive","morality","","","","","","","","","","",""
"615","","j","psychophysics","89","264847","0.0-7.0-3.0-0.75","6","6","6","3","1","4","3","5","4","4","5","1","-2","1","0","1","1","2","1","5","4","5","5","5","4","4","4","5","4","7","9","7","7","6","8","7","6","5","5","5","1","7","6","3","6","1","6","3","1","5","3","5","2","6","5","5","3","1","5","3","3","3","2","3","7","3","5","5","7","3","3","7","3","5","7","3","7","5","5","730803699089412097","吴","356","Male","[""坏他"",""坏我"",""好我"",""好他""]","[""弱他"",""弱我"",""强我"",""强他""]","","","","","","","","no","","","","","","","","","SRET","EW_formal","","key","j","16.65312500000012","768","428","朋友","不端","Negative","morality","","","","","","","","","","",""
"628","","j","psychophysics","90","266477","0.0-7.0-3.0-0.76","6","6","6","3","1","4","3","5","4","4","5","1","-2","1","0","1","1","2","1","5","4","5","5","5","4","4","4","5","4","7","9","7","7","6","8","7","6","5","5","5","1","7","6","3","6","1","6","3","1","5","3","5","2","6","5","5","3","1","5","3","3","3","2","3","7","3","5","5","7","3","3","7","3","5","7","3","7","5","5","730803699089412097","吴","356","Male","[""坏他"",""坏我"",""好我"",""好他""]","[""弱他"",""弱我"",""强我"",""强他""]","","","","","","","","no","","","","","","","","","SRET","EW_formal","","key","j","16.65463917525773","768","428","朋友","低劣","Negative","morality","","","","","","","","","","",""
"673","","j","psychophysics","91","268151","0.0-7.0-3.0-0.77","6","6","6","3","1","4","3","5","4","4","5","1","-2","1","0","1","1","2","1","5","4","5","5","5","4","4","4","5","4","7","9","7","7","6","8","7","6","5","5","5","1","7","6","3","6","1","6","3","1","5","3","5","2","6","5","5","3","1","5","3","3","3","2","3","7","3","5","5","7","3","3","7","3","5","7","3","7","5","5","730803699089412097","吴","356","Male","[""坏他"",""坏我"",""好我"",""好他""]","[""弱他"",""弱我"",""强我"",""强他""]","","","","","","","","no","","","","","","","","","SRET","EW_formal","","key","j","16.652999999999885","768","428","自己","卑鄙","Negative","morality","","","","","","","","","","",""
"562","","f","psychophysics","92","269715","0.0-7.0-3.0-0.78","6","6","6","3","1","4","3","5","4","4","5","1","-2","1","0","1","1","2","1","5","4","5","5","5","4","4","4","5","4","7","9","7","7","6","8","7","6","5","5","5","1","7","6","3","6","1","6","3","1","5","3","5","2","6","5","5","3","1","5","3","3","3","2","3","7","3","5","5","7","3","3","7","3","5","7","3","7","5","5","730803699089412097","吴","356","Male","[""坏他"",""坏我"",""好我"",""好他""]","[""弱他"",""弱我"",""强我"",""强他""]","","","","","","","","yes","","","","","","","","","SRET","EW_formal","","key","f","16.652688172043135","768","428","自己","学霸","Positive","ability","","","","","","","","","","",""
"525","","f","psychophysics","93","271242","0.0-7.0-3.0-0.79","6","6","6","3","1","4","3","5","4","4","5","1","-2","1","0","1","1","2","1","5","4","5","5","5","4","4","4","5","4","7","9","7","7","6","8","7","6","5","5","5","1","7","6","3","6","1","6","3","1","5","3","5","2","6","5","5","3","1","5","3","3","3","2","3","7","3","5","5","7","3","3","7","3","5","7","3","7","5","5","730803699089412097","吴","356","Male","[""坏他"",""坏我"",""好我"",""好他""]","[""弱他"",""弱我"",""强我"",""强他""]","","","","","","","","yes","","","","","","","","","SRET","EW_formal","","key","f","16.653333333333205","768","428","朋友","敬业","Positive","morality","","","","","","","","","","",""
"504","","j","psychophysics","94","272748","0.0-7.0-3.0-0.80","6","6","6","3","1","4","3","5","4","4","5","1","-2","1","0","1","1","2","1","5","4","5","5","5","4","4","4","5","4","7","9","7","7","6","8","7","6","5","5","5","1","7","6","3","6","1","6","3","1","5","3","5","2","6","5","5","3","1","5","3","3","3","2","3","7","3","5","5","7","3","3","7","3","5","7","3","7","5","5","730803699089412097","吴","356","Male","[""坏他"",""坏我"",""好我"",""好他""]","[""弱他"",""弱我"",""强我"",""强他""]","","","","","","","","no","","","","","","","","","SRET","EW_formal","","key","j","16.654444444444703","768","428","自己","腐败","Negative","morality","","","","","","","","","","",""
"607","","f","psychophysics","95","274355","0.0-7.0-3.0-0.81","6","6","6","3","1","4","3","5","4","4","5","1","-2","1","0","1","1","2","1","5","4","5","5","5","4","4","4","5","4","7","9","7","7","6","8","7","6","5","5","5","1","7","6","3","6","1","6","3","1","5","3","5","2","6","5","5","3","1","5","3","3","3","2","3","7","3","5","5","7","3","3","7","3","5","7","3","7","5","5","730803699089412097","吴","356","Male","[""坏他"",""坏我"",""好我"",""好他""]","[""弱他"",""弱我"",""强我"",""强他""]","","","","","","","","yes","","","","","","","","","SRET","EW_formal","","key","f","16.651578947368666","768","428","朋友","顶事","Positive","ability","","","","","","","","","","",""
"453","","f","psychophysics","96","275809","0.0-7.0-3.0-0.82","6","6","6","3","1","4","3","5","4","4","5","1","-2","1","0","1","1","2","1","5","4","5","5","5","4","4","4","5","4","7","9","7","7","6","8","7","6","5","5","5","1","7","6","3","6","1","6","3","1","5","3","5","2","6","5","5","3","1","5","3","3","3","2","3","7","3","5","5","7","3","3","7","3","5","7","3","7","5","5","730803699089412097","吴","356","Male","[""坏他"",""坏我"",""好我"",""好他""]","[""弱他"",""弱我"",""强我"",""强他""]","","","","","","","","yes","","","","","","","","","SRET","EW_formal","","key","f","16.652873563218257","768","428","自己","上进","Positive","ability","","","","","","","","","","",""
"652","","j","psychophysics","97","277463","0.0-7.0-3.0-0.83","6","6","6","3","1","4","3","5","4","4","5","1","-2","1","0","1","1","2","1","5","4","5","5","5","4","4","4","5","4","7","9","7","7","6","8","7","6","5","5","5","1","7","6","3","6","1","6","3","1","5","3","5","2","6","5","5","3","1","5","3","3","3","2","3","7","3","5","5","7","3","3","7","3","5","7","3","7","5","5","730803699089412097","吴","356","Male","[""坏他"",""坏我"",""好我"",""好他""]","[""弱他"",""弱我"",""强我"",""强他""]","","","","","","","","no","","","","","","","","","SRET","EW_formal","","key","j","16.653061224489797","768","428","自己","差生","Negative","ability","","","","","","","","","","",""
"543","","f","psychophysics","98","279008","0.0-7.0-3.0-0.84","6","6","6","3","1","4","3","5","4","4","5","1","-2","1","0","1","1","2","1","5","4","5","5","5","4","4","4","5","4","7","9","7","7","6","8","7","6","5","5","5","1","7","6","3","6","1","6","3","1","5","3","5","2","6","5","5","3","1","5","3","3","3","2","3","7","3","5","5","7","3","3","7","3","5","7","3","7","5","5","730803699089412097","吴","356","Male","[""坏他"",""坏我"",""好我"",""好他""]","[""弱他"",""弱我"",""强我"",""强他""]","","","","","","","","yes","","","","","","","","","SRET","EW_formal","","key","f","16.653260869564964","768","428","自己","主见","Positive","ability","","","","","","","","","","",""
"525","","j","psychophysics","99","280533","0.0-7.0-3.0-0.85","6","6","6","3","1","4","3","5","4","4","5","1","-2","1","0","1","1","2","1","5","4","5","5","5","4","4","4","5","4","7","9","7","7","6","8","7","6","5","5","5","1","7","6","3","6","1","6","3","1","5","3","5","2","6","5","5","3","1","5","3","3","3","2","3","7","3","5","5","7","3","3","7","3","5","7","3","7","5","5","730803699089412097","吴","356","Male","[""坏他"",""坏我"",""好我"",""好他""]","[""弱他"",""弱我"",""强我"",""强他""]","","","","","","","","no","","","","","","","","","SRET","EW_formal","","key","j","16.652222222222353","768","428","朋友","低俗","Negative","morality","","","","","","","","","","",""
"660","","f","psychophysics","100","282194","0.0-7.0-3.0-0.86","6","6","6","3","1","4","3","5","4","4","5","1","-2","1","0","1","1","2","1","5","4","5","5","5","4","4","4","5","4","7","9","7","7","6","8","7","6","5","5","5","1","7","6","3","6","1","6","3","1","5","3","5","2","6","5","5","3","1","5","3","3","3","2","3","7","3","5","5","7","3","3","7","3","5","7","3","7","5","5","730803699089412097","吴","356","Male","[""坏他"",""坏我"",""好我"",""好他""]","[""弱他"",""弱我"",""强我"",""强他""]","","","","","","","","yes","","","","","","","","","SRET","EW_formal","","key","f","16.653535353534885","768","428","朋友","素养","Positive","morality","","","","","","","","","","",""
"499","","f","psychophysics","101","283695","0.0-7.0-3.0-0.87","6","6","6","3","1","4","3","5","4","4","5","1","-2","1","0","1","1","2","1","5","4","5","5","5","4","4","4","5","4","7","9","7","7","6","8","7","6","5","5","5","1","7","6","3","6","1","6","3","1","5","3","5","2","6","5","5","3","1","5","3","3","3","2","3","7","3","5","5","7","3","3","7","3","5","7","3","7","5","5","730803699089412097","吴","356","Male","[""坏他"",""坏我"",""好我"",""好他""]","[""弱他"",""弱我"",""强我"",""强他""]","","","","","","","","yes","","","","","","","","","SRET","EW_formal","","key","f","16.653932584269793","768","428","自己","缓慢","Negative","ability","","","","","","","","","","",""
"10590","
    <p><div style='color:white;font-size:35px; line-height:20px;'>计算任务</div></p><br>
    <p><div style='color:red;font-size:25px; line-height:20px;'>接下来，您将看到一些四则运算题，<b>请从键盘选择 0-9 进行反应。</b></div></p>
    <p><div style='color:red;font-size:25px; line-height:20px;'>请尽可能快地进行计算，计算的速度和正确率将影响报酬的发放。</div></p>
    <p><div class='footer' style='color:white;font-size:25px; line-height:20px;'>如果对本实验还有不清楚之处，请立即向实验员咨询。</p><p style='color:white;font-size:25px; line-height:20px;'>如果您明白了规则：</p><p style='color:white;font-size:22px; line-height:20px;'>请按 继续 进入练习</p>
    </div>
    ","0","html-button-response","102","294285","0.0-7.0-4.0","6","6","6","3","1","4","3","5","4","4","5","1","-2","1","0","1","1","2","1","5","4","5","5","5","4","4","4","5","4","7","9","7","7","6","8","7","6","5","5","5","1","7","6","3","6","1","6","3","1","5","3","5","2","6","5","5","3","1","5","3","3","3","2","3","7","3","5","5","7","3","3","7","3","5","7","3","7","5","5","730803699089412097","吴","356","Male","[""坏他"",""坏我"",""好我"",""好他""]","[""弱他"",""弱我"",""强我"",""强他""]","","","","","","","","","","","","","","","","","SRET_math","math_instructions","Fri Jan 19 2024 18:11:25 GMT+0800 (中国标准时间)","","","","","","","","","","","","","","","","","","","",""
"2293","","3","psychophysics","103","296583","0.0-7.0-5.0-0.0","6","6","6","3","1","4","3","5","4","4","5","1","-2","1","0","1","1","2","1","5","4","5","5","5","4","4","4","5","4","7","9","7","7","6","8","7","6","5","5","5","1","7","6","3","6","1","6","3","1","5","3","5","2","6","5","5","3","1","5","3","3","3","2","3","7","3","5","5","7","3","3","7","3","5","7","3","7","5","5","730803699089412097","吴","356","Male","[""坏他"",""坏我"",""好我"",""好他""]","[""弱他"",""弱我"",""强我"",""强他""]","","","","","","","","3","","","","","","","","","SRET","SRET_math_calculate","","key","3","16.532608695652176","768","428","","","","","12/4= ?","3","1","","","","","","","",""
"2181","","4","psychophysics","104","298767","0.0-7.0-5.0-0.1","6","6","6","3","1","4","3","5","4","4","5","1","-2","1","0","1","1","2","1","5","4","5","5","5","4","4","4","5","4","7","9","7","7","6","8","7","6","5","5","5","1","7","6","3","6","1","6","3","1","5","3","5","2","6","5","5","3","1","5","3","3","3","2","3","7","3","5","5","7","3","3","7","3","5","7","3","7","5","5","730803699089412097","吴","356","Male","[""坏他"",""坏我"",""好我"",""好他""]","[""弱他"",""弱我"",""强我"",""强他""]","","","","","","","","4","","","","","","","","","SRET","SRET_math_calculate","","key","4","16.653435114504084","768","428","","","","","9-5= ?","4","1","","","","","","","",""
"4836","","8","psychophysics","105","303604","0.0-7.0-5.0-0.2","6","6","6","3","1","4","3","5","4","4","5","1","-2","1","0","1","1","2","1","5","4","5","5","5","4","4","4","5","4","7","9","7","7","6","8","7","6","5","5","5","1","7","6","3","6","1","6","3","1","5","3","5","2","6","5","5","3","1","5","3","3","3","2","3","7","3","5","5","7","3","3","7","3","5","7","3","7","5","5","730803699089412097","吴","356","Male","[""坏他"",""坏我"",""好我"",""好他""]","[""弱他"",""弱我"",""强我"",""强他""]","","","","","","","","8","","","","","","","","","SRET","SRET_math_calculate","","key","8","16.653979238754324","768","428","","","","","72/9= ?","8","1","","","","","","","",""
"3174","","8","psychophysics","106","306780","0.0-7.0-5.0-0.3","6","6","6","3","1","4","3","5","4","4","5","1","-2","1","0","1","1","2","1","5","4","5","5","5","4","4","4","5","4","7","9","7","7","6","8","7","6","5","5","5","1","7","6","3","6","1","6","3","1","5","3","5","2","6","5","5","3","1","5","3","3","3","2","3","7","3","5","5","7","3","3","7","3","5","7","3","7","5","5","730803699089412097","吴","356","Male","[""坏他"",""坏我"",""好我"",""好他""]","[""弱他"",""弱我"",""强我"",""强他""]","","","","","","","","8","","","","","","","","","SRET","SRET_math_calculate","","key","8","16.652105263158017","768","428","","","","","6+2= ?","8","1","","","","","","","",""
"2171","","9","psychophysics","107","308952","0.0-7.0-5.0-0.4","6","6","6","3","1","4","3","5","4","4","5","1","-2","1","0","1","1","2","1","5","4","5","5","5","4","4","4","5","4","7","9","7","7","6","8","7","6","5","5","5","1","7","6","3","6","1","6","3","1","5","3","5","2","6","5","5","3","1","5","3","3","3","2","3","7","3","5","5","7","3","3","7","3","5","7","3","7","5","5","730803699089412097","吴","356","Male","[""坏他"",""坏我"",""好我"",""好他""]","[""弱他"",""弱我"",""强我"",""强他""]","","","","","","","","9","","","","","","","","","SRET","SRET_math_calculate","","key","9","16.652713178294665","768","428","","","","","7+2= ?","9","1","","","","","","","",""
"1998","","7","psychophysics","108","310952","0.0-7.0-5.0-0.5","6","6","6","3","1","4","3","5","4","4","5","1","-2","1","0","1","1","2","1","5","4","5","5","5","4","4","4","5","4","7","9","7","7","6","8","7","6","5","5","5","1","7","6","3","6","1","6","3","1","5","3","5","2","6","5","5","3","1","5","3","3","3","2","3","7","3","5","5","7","3","3","7","3","5","7","3","7","5","5","730803699089412097","吴","356","Male","[""坏他"",""坏我"",""好我"",""好他""]","[""弱他"",""弱我"",""强我"",""强他""]","","","","","","","","7","","","","","","","","","SRET","SRET_math_calculate","","key","7","16.653781512604944","768","428","","","","","1+6= ?","7","1","","","","","","","",""
"2961","","2","psychophysics","109","313914","0.0-7.0-5.0-0.6","6","6","6","3","1","4","3","5","4","4","5","1","-2","1","0","1","1","2","1","5","4","5","5","5","4","4","4","5","4","7","9","7","7","6","8","7","6","5","5","5","1","7","6","3","6","1","6","3","1","5","3","5","2","6","5","5","3","1","5","3","3","3","2","3","7","3","5","5","7","3","3","7","3","5","7","3","7","5","5","730803699089412097","吴","356","Male","[""坏他"",""坏我"",""好我"",""好他""]","[""弱他"",""弱我"",""强我"",""强他""]","","","","","","","","2","","","","","","","","","SRET","SRET_math_calculate","","key","2","16.65988700564965","768","428","","","","","29-27= ?","2","1","","","","","","","",""
"2219","","9","psychophysics","110","316134","0.0-7.0-5.0-0.7","6","6","6","3","1","4","3","5","4","4","5","1","-2","1","0","1","1","2","1","5","4","5","5","5","4","4","4","5","4","7","9","7","7","6","8","7","6","5","5","5","1","7","6","3","6","1","6","3","1","5","3","5","2","6","5","5","3","1","5","3","3","3","2","3","7","3","5","5","7","3","3","7","3","5","7","3","7","5","5","730803699089412097","吴","356","Male","[""坏他"",""坏我"",""好我"",""好他""]","[""弱他"",""弱我"",""强我"",""强他""]","","","","","","","","9","","","","","","","","","SRET","SRET_math_calculate","","key","9","16.65454545454563","768","428","","","","","3*3= ?","9","1","","","","","","","",""
"2136","","4","psychophysics","111","318272","0.0-7.0-5.0-0.8","6","6","6","3","1","4","3","5","4","4","5","1","-2","1","0","1","1","2","1","5","4","5","5","5","4","4","4","5","4","7","9","7","7","6","8","7","6","5","5","5","1","7","6","3","6","1","6","3","1","5","3","5","2","6","5","5","3","1","5","3","3","3","2","3","7","3","5","5","7","3","3","7","3","5","7","3","7","5","5","730803699089412097","吴","356","Male","[""坏他"",""坏我"",""好我"",""好他""]","[""弱他"",""弱我"",""强我"",""强他""]","","","","","","","","4","","","","","","","","","SRET","SRET_math_calculate","","key","4","16.653125000000273","768","428","","","","","20/5= ?","4","1","","","","","","","",""
"2280","","9","psychophysics","112","320553","0.0-7.0-5.0-0.9","6","6","6","3","1","4","3","5","4","4","5","1","-2","1","0","1","1","2","1","5","4","5","5","5","4","4","4","5","4","7","9","7","7","6","8","7","6","5","5","5","1","7","6","3","6","1","6","3","1","5","3","5","2","6","5","5","3","1","5","3","3","3","2","3","7","3","5","5","7","3","3","7","3","5","7","3","7","5","5","730803699089412097","吴","356","Male","[""坏他"",""坏我"",""好我"",""好他""]","[""弱他"",""弱我"",""强我"",""强他""]","","","","","","","","9","","","","","","","","","SRET","SRET_math_calculate","","key","9","16.652941176470502","768","428","","","","","18/2= ?","9","1","","","","","","","",""
"5580","","8","psychophysics","113","326135","0.0-7.0-5.0-0.10","6","6","6","3","1","4","3","5","4","4","5","1","-2","1","0","1","1","2","1","5","4","5","5","5","4","4","4","5","4","7","9","7","7","6","8","7","6","5","5","5","1","7","6","3","6","1","6","3","1","5","3","5","2","6","5","5","3","1","5","3","3","3","2","3","7","3","5","5","7","3","3","7","3","5","7","3","7","5","5","730803699089412097","吴","356","Male","[""坏他"",""坏我"",""好我"",""好他""]","[""弱他"",""弱我"",""强我"",""强他""]","","","","","","","","8","","","","","","","","","SRET","SRET_math_calculate","","key","8","16.653293413173515","768","428","","","","","56/7= ?","8","1","","","","","","","",""
"1870","","9","psychophysics","114","328005","0.0-7.0-5.0-0.11","6","6","6","3","1","4","3","5","4","4","5","1","-2","1","0","1","1","2","1","5","4","5","5","5","4","4","4","5","4","7","9","7","7","6","8","7","6","5","5","5","1","7","6","3","6","1","6","3","1","5","3","5","2","6","5","5","3","1","5","3","3","3","2","3","7","3","5","5","7","3","3","7","3","5","7","3","7","5","5","730803699089412097","吴","356","Male","[""坏他"",""坏我"",""好我"",""好他""]","[""弱他"",""弱我"",""强我"",""强他""]","","","","","","","","9","","","","","","","","","SRET","SRET_math_calculate","","key","9","16.65135135135177","768","428","","","","","4+5= ?","9","1","","","","","","","",""
"2157","","5","psychophysics","115","330163","0.0-7.0-5.0-0.12","6","6","6","3","1","4","3","5","4","4","5","1","-2","1","0","1","1","2","1","5","4","5","5","5","4","4","4","5","4","7","9","7","7","6","8","7","6","5","5","5","1","7","6","3","6","1","6","3","1","5","3","5","2","6","5","5","3","1","5","3","3","3","2","3","7","3","5","5","7","3","3","7","3","5","7","3","7","5","5","730803699089412097","吴","356","Male","[""坏他"",""坏我"",""好我"",""好他""]","[""弱他"",""弱我"",""强我"",""强他""]","","","","","","","","5","","","","","","","","","SRET","SRET_math_calculate","","key","5","16.655038759689923","768","428","","","","","15-10= ?","5","1","","","","","","","",""
"1903","","5","psychophysics","116","332068","0.0-7.0-5.0-0.13","6","6","6","3","1","4","3","5","4","4","5","1","-2","1","0","1","1","2","1","5","4","5","5","5","4","4","4","5","4","7","9","7","7","6","8","7","6","5","5","5","1","7","6","3","6","1","6","3","1","5","3","5","2","6","5","5","3","1","5","3","3","3","2","3","7","3","5","5","7","3","3","7","3","5","7","3","7","5","5","730803699089412097","吴","356","Male","[""坏他"",""坏我"",""好我"",""好他""]","[""弱他"",""弱我"",""强我"",""强他""]","","","","","","","","5","","","","","","","","","SRET","SRET_math_calculate","","key","5","16.65309734513264","768","428","","","","","4+1= ?","5","1","","","","","","","",""
"1804","","5","psychophysics","117","333873","0.0-7.0-5.0-0.14","6","6","6","3","1","4","3","5","4","4","5","1","-2","1","0","1","1","2","1","5","4","5","5","5","4","4","4","5","4","7","9","7","7","6","8","7","6","5","5","5","1","7","6","3","6","1","6","3","1","5","3","5","2","6","5","5","3","1","5","3","3","3","2","3","7","3","5","5","7","3","3","7","3","5","7","3","7","5","5","730803699089412097","吴","356","Male","[""坏他"",""坏我"",""好我"",""好他""]","[""弱他"",""弱我"",""强我"",""强他""]","","","","","","","","5","","","","","","","","","SRET","SRET_math_calculate","","key","5","16.65370370370349","768","428","","","","","3+2= ?","5","1","","","","","","","",""
"1812","","4","psychophysics","118","335685","0.0-7.0-5.0-0.15","6","6","6","3","1","4","3","5","4","4","5","1","-2","1","0","1","1","2","1","5","4","5","5","5","4","4","4","5","4","7","9","7","7","6","8","7","6","5","5","5","1","7","6","3","6","1","6","3","1","5","3","5","2","6","5","5","3","1","5","3","3","3","2","3","7","3","5","5","7","3","3","7","3","5","7","3","7","5","5","730803699089412097","吴","356","Male","[""坏他"",""坏我"",""好我"",""好他""]","[""弱他"",""弱我"",""强我"",""强他""]","","","","","","","","4","","","","","","","","","SRET","SRET_math_calculate","","key","4","16.654205607476637","768","428","","","","","3+1= ?","4","1","","","","","","","",""
"2028","","9","psychophysics","119","337716","0.0-7.0-5.0-0.16","6","6","6","3","1","4","3","5","4","4","5","1","-2","1","0","1","1","2","1","5","4","5","5","5","4","4","4","5","4","7","9","7","7","6","8","7","6","5","5","5","1","7","6","3","6","1","6","3","1","5","3","5","2","6","5","5","3","1","5","3","3","3","2","3","7","3","5","5","7","3","3","7","3","5","7","3","7","5","5","730803699089412097","吴","356","Male","[""坏他"",""坏我"",""好我"",""好他""]","[""弱他"",""弱我"",""强我"",""强他""]","","","","","","","","9","","","","","","","","","SRET","SRET_math_calculate","","key","9","16.65371900826427","768","428","","","","","3+6= ?","9","1","","","","","","","",""
"1953","","5","psychophysics","120","339670","0.0-7.0-5.0-0.17","6","6","6","3","1","4","3","5","4","4","5","1","-2","1","0","1","1","2","1","5","4","5","5","5","4","4","4","5","4","7","9","7","7","6","8","7","6","5","5","5","1","7","6","3","6","1","6","3","1","5","3","5","2","6","5","5","3","1","5","3","3","3","2","3","7","3","5","5","7","3","3","7","3","5","7","3","7","5","5","730803699089412097","吴","356","Male","[""坏他"",""坏我"",""好我"",""好他""]","[""弱他"",""弱我"",""强我"",""强他""]","","","","","","","","5","","","","","","","","","SRET","SRET_math_calculate","","key","5","16.652136752136652","768","428","","","","","2+3= ?","5","1","","","","","","","",""
"1922","","6","psychophysics","121","341593","0.0-7.0-5.0-0.18","6","6","6","3","1","4","3","5","4","4","5","1","-2","1","0","1","1","2","1","5","4","5","5","5","4","4","4","5","4","7","9","7","7","6","8","7","6","5","5","5","1","7","6","3","6","1","6","3","1","5","3","5","2","6","5","5","3","1","5","3","3","3","2","3","7","3","5","5","7","3","3","7","3","5","7","3","7","5","5","730803699089412097","吴","356","Male","[""坏他"",""坏我"",""好我"",""好他""]","[""弱他"",""弱我"",""强我"",""强他""]","","","","","","","","6","","","","","","","","","SRET","SRET_math_calculate","","key","6","16.653508771929825","768","428","","","","","3+3= ?","6","1","","","","","","","",""
"1944","","3","psychophysics","122","343538","0.0-7.0-5.0-0.19","6","6","6","3","1","4","3","5","4","4","5","1","-2","1","0","1","1","2","1","5","4","5","5","5","4","4","4","5","4","7","9","7","7","6","8","7","6","5","5","5","1","7","6","3","6","1","6","3","1","5","3","5","2","6","5","5","3","1","5","3","3","3","2","3","7","3","5","5","7","3","3","7","3","5","7","3","7","5","5","730803699089412097","吴","356","Male","[""坏他"",""坏我"",""好我"",""好他""]","[""弱他"",""弱我"",""强我"",""强他""]","","","","","","","","3","","","","","","","","","SRET","SRET_math_calculate","","key","3","16.655172413793103","768","428","","","","","3*1= ?","3","1","","","","","","","",""
"1797","","6","psychophysics","123","345336","0.0-7.0-5.0-0.20","6","6","6","3","1","4","3","5","4","4","5","1","-2","1","0","1","1","2","1","5","4","5","5","5","4","4","4","5","4","7","9","7","7","6","8","7","6","5","5","5","1","7","6","3","6","1","6","3","1","5","3","5","2","6","5","5","3","1","5","3","3","3","2","3","7","3","5","5","7","3","3","7","3","5","7","3","7","5","5","730803699089412097","吴","356","Male","[""坏他"",""坏我"",""好我"",""好他""]","[""弱他"",""弱我"",""强我"",""强他""]","","","","","","","","6","","","","","","","","","SRET","SRET_math_calculate","","key","6","16.654205607476637","768","428","","","","","4+2= ?","6","1","","","","","","","",""
"1890","","8","psychophysics","124","347227","0.0-7.0-5.0-0.21","6","6","6","3","1","4","3","5","4","4","5","1","-2","1","0","1","1","2","1","5","4","5","5","5","4","4","4","5","4","7","9","7","7","6","8","7","6","5","5","5","1","7","6","3","6","1","6","3","1","5","3","5","2","6","5","5","3","1","5","3","3","3","2","3","7","3","5","5","7","3","3","7","3","5","7","3","7","5","5","730803699089412097","吴","356","Male","[""坏他"",""坏我"",""好我"",""好他""]","[""弱他"",""弱我"",""强我"",""强他""]","","","","","","","","8","","","","","","","","","SRET","SRET_math_calculate","","key","8","16.65309734513264","768","428","","","","","5+3= ?","8","1","","","","","","","",""
"2879","","2","psychophysics","125","350108","0.0-7.0-5.0-0.22","6","6","6","3","1","4","3","5","4","4","5","1","-2","1","0","1","1","2","1","5","4","5","5","5","4","4","4","5","4","7","9","7","7","6","8","7","6","5","5","5","1","7","6","3","6","1","6","3","1","5","3","5","2","6","5","5","3","1","5","3","3","3","2","3","7","3","5","5","7","3","3","7","3","5","7","3","7","5","5","730803699089412097","吴","356","Male","[""坏他"",""坏我"",""好我"",""好他""]","[""弱他"",""弱我"",""强我"",""强他""]","","","","","","","","2","","","","","","","","","SRET","SRET_math_calculate","","key","2","16.653801169590576","768","428","","","","","8-6= ?","2","1","","","","","","","",""
"2166","","0","psychophysics","126","352277","0.0-7.0-5.0-0.23","6","6","6","3","1","4","3","5","4","4","5","1","-2","1","0","1","1","2","1","5","4","5","5","5","4","4","4","5","4","7","9","7","7","6","8","7","6","5","5","5","1","7","6","3","6","1","6","3","1","5","3","5","2","6","5","5","3","1","5","3","3","3","2","3","7","3","5","5","7","3","3","7","3","5","7","3","7","5","5","730803699089412097","吴","356","Male","[""坏他"",""坏我"",""好我"",""好他""]","[""弱他"",""弱我"",""强我"",""强他""]","","","","","","","","0","","","","","","","","","SRET","SRET_math_calculate","","key","0","16.654615384615653","768","428","","","","","1-1= ?","0","1","","","","","","","",""
"1752","","7","psychophysics","127","354030","0.0-7.0-5.0-0.24","6","6","6","3","1","4","3","5","4","4","5","1","-2","1","0","1","1","2","1","5","4","5","5","5","4","4","4","5","4","7","9","7","7","6","8","7","6","5","5","5","1","7","6","3","6","1","6","3","1","5","3","5","2","6","5","5","3","1","5","3","3","3","2","3","7","3","5","5","7","3","3","7","3","5","7","3","7","5","5","730803699089412097","吴","356","Male","[""坏他"",""坏我"",""好我"",""好他""]","[""弱他"",""弱我"",""强我"",""强他""]","","","","","","","","7","","","","","","","","","SRET","SRET_math_calculate","","key","7","16.656730769231217","768","428","","","","","6+1= ?","7","1","","","","","","","",""
"1857","","9","psychophysics","128","355889","0.0-7.0-5.0-0.25","6","6","6","3","1","4","3","5","4","4","5","1","-2","1","0","1","1","2","1","5","4","5","5","5","4","4","4","5","4","7","9","7","7","6","8","7","6","5","5","5","1","7","6","3","6","1","6","3","1","5","3","5","2","6","5","5","3","1","5","3","3","3","2","3","7","3","5","5","7","3","3","7","3","5","7","3","7","5","5","730803699089412097","吴","356","Male","[""坏他"",""坏我"",""好我"",""好他""]","[""弱他"",""弱我"",""强我"",""强他""]","","","","","","","","9","","","","","","","","","SRET","SRET_math_calculate","","key","9","16.653153153153152","768","428","","","","","1+8= ?","9","1","","","","","","","",""
"2167","","2","psychophysics","129","358059","0.0-7.0-5.0-0.26","6","6","6","3","1","4","3","5","4","4","5","1","-2","1","0","1","1","2","1","5","4","5","5","5","4","4","4","5","4","7","9","7","7","6","8","7","6","5","5","5","1","7","6","3","6","1","6","3","1","5","3","5","2","6","5","5","3","1","5","3","3","3","2","3","7","3","5","5","7","3","3","7","3","5","7","3","7","5","5","730803699089412097","吴","356","Male","[""坏他"",""坏我"",""好我"",""好他""]","[""弱他"",""弱我"",""强我"",""强他""]","","","","","","","","2","","","","","","","","","SRET","SRET_math_calculate","","key","2","16.653488372092934","768","428","","","","","8/4= ?","2","1","","","","","","","",""
"1909","","9","psychophysics","130","359968","0.0-7.0-5.0-0.27","6","6","6","3","1","4","3","5","4","4","5","1","-2","1","0","1","1","2","1","5","4","5","5","5","4","4","4","5","4","7","9","7","7","6","8","7","6","5","5","5","1","7","6","3","6","1","6","3","1","5","3","5","2","6","5","5","3","1","5","3","3","3","2","3","7","3","5","5","7","3","3","7","3","5","7","3","7","5","5","730803699089412097","吴","356","Male","[""坏他"",""坏我"",""好我"",""好他""]","[""弱他"",""弱我"",""强我"",""强他""]","","","","","","","","9","","","","","","","","","SRET","SRET_math_calculate","","key","9","16.653508771929825","768","428","","","","","6+3= ?","9","1","","","","","","","",""
"2052","","3","psychophysics","131","362022","0.0-7.0-5.0-0.28","6","6","6","3","1","4","3","5","4","4","5","1","-2","1","0","1","1","2","1","5","4","5","5","5","4","4","4","5","4","7","9","7","7","6","8","7","6","5","5","5","1","7","6","3","6","1","6","3","1","5","3","5","2","6","5","5","3","1","5","3","3","3","2","3","7","3","5","5","7","3","3","7","3","5","7","3","7","5","5","730803699089412097","吴","356","Male","[""坏他"",""坏我"",""好我"",""好他""]","[""弱他"",""弱我"",""强我"",""强他""]","","","","","","","","3","","","","","","","","","SRET","SRET_math_calculate","","key","3","16.65409836065564","768","428","","","","","6/2= ?","3","1","","","","","","","",""
"1797","","2","psychophysics","132","363820","0.0-7.0-5.0-0.29","6","6","6","3","1","4","3","5","4","4","5","1","-2","1","0","1","1","2","1","5","4","5","5","5","4","4","4","5","4","7","9","7","7","6","8","7","6","5","5","5","1","7","6","3","6","1","6","3","1","5","3","5","2","6","5","5","3","1","5","3","3","3","2","3","7","3","5","5","7","3","3","7","3","5","7","3","7","5","5","730803699089412097","吴","356","Male","[""坏他"",""坏我"",""好我"",""好他""]","[""弱他"",""弱我"",""强我"",""强他""]","","","","","","","","2","","","","","","","","","SRET","SRET_math_calculate","","key","2","16.65140186915899","768","428","","","","","1+1= ?","2","1","","","","","","","",""
"2021","","0","psychophysics","133","365842","0.0-7.0-5.0-0.30","6","6","6","3","1","4","3","5","4","4","5","1","-2","1","0","1","1","2","1","5","4","5","5","5","4","4","4","5","4","7","9","7","7","6","8","7","6","5","5","5","1","7","6","3","6","1","6","3","1","5","3","5","2","6","5","5","3","1","5","3","3","3","2","3","7","3","5","5","7","3","3","7","3","5","7","3","7","5","5","730803699089412097","吴","356","Male","[""坏他"",""坏我"",""好我"",""好他""]","[""弱他"",""弱我"",""强我"",""强他""]","","","","","","","","0","","","","","","","","","SRET","SRET_math_calculate","","key","0","16.655000000000292","768","428","","","","","7*0= ?","0","1","","","","","","","",""
"2070","","2","psychophysics","134","367913","0.0-7.0-5.0-0.31","6","6","6","3","1","4","3","5","4","4","5","1","-2","1","0","1","1","2","1","5","4","5","5","5","4","4","4","5","4","7","9","7","7","6","8","7","6","5","5","5","1","7","6","3","6","1","6","3","1","5","3","5","2","6","5","5","3","1","5","3","3","3","2","3","7","3","5","5","7","3","3","7","3","5","7","3","7","5","5","730803699089412097","吴","356","Male","[""坏他"",""坏我"",""好我"",""好他""]","[""弱他"",""弱我"",""强我"",""强他""]","","","","","","","","2","","","","","","","","","SRET","SRET_math_calculate","","key","2","16.655645161290227","768","428","","","","","12/6= ?","2","1","","","","","","","",""
"2430","","5","psychophysics","135","370344","0.0-7.0-5.0-0.32","6","6","6","3","1","4","3","5","4","4","5","1","-2","1","0","1","1","2","1","5","4","5","5","5","4","4","4","5","4","7","9","7","7","6","8","7","6","5","5","5","1","7","6","3","6","1","6","3","1","5","3","5","2","6","5","5","3","1","5","3","3","3","2","3","7","3","5","5","7","3","3","7","3","5","7","3","7","5","5","730803699089412097","吴","356","Male","[""坏他"",""坏我"",""好我"",""好他""]","[""弱他"",""弱我"",""强我"",""强他""]","","","","","","","","5","","","","","","","","","SRET","SRET_math_calculate","","key","5","16.65103448275838","768","428","","","","","16-11= ?","5","1","","","","","","","",""
"1917","","3","psychophysics","136","372264","0.0-7.0-5.0-0.33","6","6","6","3","1","4","3","5","4","4","5","1","-2","1","0","1","1","2","1","5","4","5","5","5","4","4","4","5","4","7","9","7","7","6","8","7","6","5","5","5","1","7","6","3","6","1","6","3","1","5","3","5","2","6","5","5","3","1","5","3","3","3","2","3","7","3","5","5","7","3","3","7","3","5","7","3","7","5","5","730803699089412097","吴","356","Male","[""坏他"",""坏我"",""好我"",""好他""]","[""弱他"",""弱我"",""强我"",""强他""]","","","","","","","","3","","","","","","","","","SRET","SRET_math_calculate","","key","3","16.654385964912077","768","428","","","","","9/3= ?","3","1","","","","","","","",""
"2167","","5","psychophysics","137","374431","0.0-7.0-5.0-0.34","6","6","6","3","1","4","3","5","4","4","5","1","-2","1","0","1","1","2","1","5","4","5","5","5","4","4","4","5","4","7","9","7","7","6","8","7","6","5","5","5","1","7","6","3","6","1","6","3","1","5","3","5","2","6","5","5","3","1","5","3","3","3","2","3","7","3","5","5","7","3","3","7","3","5","7","3","7","5","5","730803699089412097","吴","356","Male","[""坏他"",""坏我"",""好我"",""好他""]","[""弱他"",""弱我"",""强我"",""强他""]","","","","","","","","5","","","","","","","","","SRET","SRET_math_calculate","","key","5","16.651937984495945","768","428","","","","","17-12= ? ","5","1","","","","","","","",""
"2066","","0","psychophysics","138","376499","0.0-7.0-5.0-0.35","6","6","6","3","1","4","3","5","4","4","5","1","-2","1","0","1","1","2","1","5","4","5","5","5","4","4","4","5","4","7","9","7","7","6","8","7","6","5","5","5","1","7","6","3","6","1","6","3","1","5","3","5","2","6","5","5","3","1","5","3","3","3","2","3","7","3","5","5","7","3","3","7","3","5","7","3","7","5","5","730803699089412097","吴","356","Male","[""坏他"",""坏我"",""好我"",""好他""]","[""弱他"",""弱我"",""强我"",""强他""]","","","","","","","","0","","","","","","","","","SRET","SRET_math_calculate","","key","0","16.653658536585557","768","428","","","","","22-22= ?","0","1","","","","","","","",""
"4355","","7","psychophysics","139","380855","0.0-7.0-5.0-0.36","6","6","6","3","1","4","3","5","4","4","5","1","-2","1","0","1","1","2","1","5","4","5","5","5","4","4","4","5","4","7","9","7","7","6","8","7","6","5","5","5","1","7","6","3","6","1","6","3","1","5","3","5","2","6","5","5","3","1","5","3","3","3","2","3","7","3","5","5","7","3","3","7","3","5","7","3","7","5","5","730803699089412097","吴","356","Male","[""坏他"",""坏我"",""好我"",""好他""]","[""弱他"",""弱我"",""强我"",""强他""]","","","","","","","","7","","","","","","","","","SRET","SRET_math_calculate","","key","7","16.653256704980844","768","428","","","","","13-6= ?","7","1","","","","","","","",""
"2115","","8","psychophysics","140","382972","0.0-7.0-5.0-0.37","6","6","6","3","1","4","3","5","4","4","5","1","-2","1","0","1","1","2","1","5","4","5","5","5","4","4","4","5","4","7","9","7","7","6","8","7","6","5","5","5","1","7","6","3","6","1","6","3","1","5","3","5","2","6","5","5","3","1","5","3","3","3","2","3","7","3","5","5","7","3","3","7","3","5","7","3","7","5","5","730803699089412097","吴","356","Male","[""坏他"",""坏我"",""好我"",""好他""]","[""弱他"",""弱我"",""强我"",""强他""]","","","","","","","","8","","","","","","","","","SRET","SRET_math_calculate","","key","8","16.652380952381044","768","428","","","","","2*4= ?","8","1","","","","","","","",""
"1878","","3","psychophysics","141","384852","0.0-7.0-5.0-0.38","6","6","6","3","1","4","3","5","4","4","5","1","-2","1","0","1","1","2","1","5","4","5","5","5","4","4","4","5","4","7","9","7","7","6","8","7","6","5","5","5","1","7","6","3","6","1","6","3","1","5","3","5","2","6","5","5","3","1","5","3","3","3","2","3","7","3","5","5","7","3","3","7","3","5","7","3","7","5","5","730803699089412097","吴","356","Male","[""坏他"",""坏我"",""好我"",""好他""]","[""弱他"",""弱我"",""强我"",""强他""]","","","","","","","","3","","","","","","","","","SRET","SRET_math_calculate","","key","3","16.65357142857153","768","428","","","","","8-5= ?","3","1","","","","","","","",""
"1879","","4","psychophysics","142","386733","0.0-7.0-5.0-0.39","6","6","6","3","1","4","3","5","4","4","5","1","-2","1","0","1","1","2","1","5","4","5","5","5","4","4","4","5","4","7","9","7","7","6","8","7","6","5","5","5","1","7","6","3","6","1","6","3","1","5","3","5","2","6","5","5","3","1","5","3","3","3","2","3","7","3","5","5","7","3","3","7","3","5","7","3","7","5","5","730803699089412097","吴","356","Male","[""坏他"",""坏我"",""好我"",""好他""]","[""弱他"",""弱我"",""强我"",""强他""]","","","","","","","","4","","","","","","","","","SRET","SRET_math_calculate","","key","4","16.653571428571013","768","428","","","","","4*1= ?","4","1","","","","","","","",""
