"rt","stimulus","response","trial_type","trial_index","time_elapsed","internal_node_id","swb_1","swb_2","swb_3","swb_4","swb_5","LOT_1","LOT_2","LOT_3","LOT_4","LOT_5","LOT_6","IPC_1","IPC_2","IPC_3","IPC_4","IPC_5","IPC_6","IPC_7","IPC_8","MorIden_1","MorIden_2","MorIden_3","MorIden_4","MorIden_5","MorIden_6","MorIden_7","MorIden_8","MorIden_9","MorIden_10","moralSeImag_1","moralSeImag_2","moralSeImag_3","moralSeImag_4","moralSeImag_5","moralSeImag_6","moralSeImag_7","moralSeImag_8","moralSeImag_9","sde_1","sde_2","sde_3","sde_4","sde_5","sde_6","sde_7","sde_8","sde_9","sde_10","trap2","sde_11","sde_12","sde_13","sde_14","sde_15","sde_16","sde_17","sde_18","sde_19","sde_20","IM_1","IM_2","IM_3","IM_4","IM_5","IM_6","IM_7","IM_8","IM_9","IM_10","IM_11","IM_12","IM_13","IM_14","IM_15","IM_16","IM_17","IM_18","IM_19","IM_20","subj_idx","friend_name","ParticipantID","Sex","Word","Word2","value","success","timeout","failed_images","failed_audio","failed_video","user_agent","responses","item_order","radio_event_ids","radio_event_times","key_event_times","mouse_event_times","straightlining","zigzagging","honeypot","task_id","screen_id","time_stamp","response_type","key_press","avg_frame_time","center_x","center_y","person","word","valence","domain","math","correct_response","correct","status","view_history","identity","duration","Image","condition","question_order","trap2_item"
"11974","
   <p><div style='color:white; font-size: 25px'>您好，欢迎参加本次实验。</div></p>
   <p><div style='color:white; font-size: 25px'>为充分保障您的权利，请确保您已经知晓并同意《参与实验同意书》以及《数据公开知情同意书》。</div></p>
   <p><div style='color:white; font-size: 25px'>如果您未见过上述内容，请咨询实验员。</div></p>
   <p style='color:white; font-size: 25px'>如果您选择继续实验，则表示您已经清楚两份知情同意书的内容并同意。</p>
   <p><div style = ""color: pink;font-size:30px;"">请确保您记得day0的实验编号，您将在本次实验输入该编号，若您忘记，请咨询实验员后作答。</div></p>
   <p><div style = ""color:lightblue;font-size:25px;"">请您尽可能认真地作答，我们将依据您在各问卷和按键任务中的作答质量发放报酬。</div></p>
   <p> <div style = ""color: green""><按空格键至下页></div> </p>
   "," ","html-keyboard-response","0","11977","0.0-0.0","6","6","6","6","6","4","2","4","4","4","4","1","1","1","1","1","1","1","1","5","5","5","5","5","3","4","4","4","4","7","8","8","8","8","7","8","8","9","7","6","4","6","6","6","4","1","6","5","1","5","4","5","6","5","6","6","4","2","6","6","4","6","6","5","6","6","4","7","7","7","5","7","4","2","6","6","6","4","6","783441385641742337","陈","141","Female","[""坏她"",""坏我"",""好她"",""好我""]","[""弱她"",""弱我"",""强她"",""强我""]","","","","","","","","","","","","","","","","","","","","","","","","","","","","","","","","","","","","","","",""
"","","","call-function","1","11979","0.0-1.0-0.0","6","6","6","6","6","4","2","4","4","4","4","1","1","1","1","1","1","1","1","5","5","5","5","5","3","4","4","4","4","7","8","8","8","8","7","8","8","9","7","6","4","6","6","6","4","1","6","5","1","5","4","5","6","5","6","6","4","2","6","6","4","6","6","5","6","6","4","7","7","7","5","7","4","2","6","6","6","4","6","783441385641742337","陈","141","Female","[""坏她"",""坏我"",""好她"",""好我""]","[""弱她"",""弱我"",""强她"",""强我""]","","","","","","","","","","","","","","","","","","","","","","","","","","","","","","","","","","","","","","",""
"9337","","[{""name"":""Sex"",""value"":""1""},{""name"":""friend_name"",""value"":""陈""},{""name"":""ParticipantID"",""value"":""141""}]","survey-html-form","2","21317","0.0-1.0-1.0","6","6","6","6","6","4","2","4","4","4","4","1","1","1","1","1","1","1","1","5","5","5","5","5","3","4","4","4","4","7","8","8","8","8","7","8","8","9","7","6","4","6","6","6","4","1","6","5","1","5","4","5","6","5","6","6","4","2","6","6","4","6","6","5","6","6","4","7","7","7","5","7","4","2","6","6","6","4","6","783441385641742337","陈","141","Female","[""坏她"",""坏我"",""好她"",""好我""]","[""弱她"",""弱我"",""强她"",""强我""]","","","","","","","","","","","","","","","","","","","","","","","","","","","","","","","","","","","","","","",""
"","","","preload","3","21389","0.0-2.0","6","6","6","6","6","4","2","4","4","4","4","1","1","1","1","1","1","1","1","5","5","5","5","5","3","4","4","4","4","7","8","8","8","8","7","8","8","9","7","6","4","6","6","6","4","1","6","5","1","5","4","5","6","5","6","6","4","2","6","6","4","6","6","5","6","6","4","7","7","7","5","7","4","2","6","6","6","4","6","783441385641742337","陈","141","Female","[""坏她"",""坏我"",""好她"",""好我""]","[""弱她"",""弱我"",""强她"",""强我""]","","true","false","[]","[]","[]","","","","","","","","","","","","","","","","","","","","","","","","","","","","","","","","",""
"","","","fullscreen","4","37338","0.0-3.0","6","6","6","6","6","4","2","4","4","4","4","1","1","1","1","1","1","1","1","5","5","5","5","5","3","4","4","4","4","7","8","8","8","8","7","8","8","9","7","6","4","6","6","6","4","1","6","5","1","5","4","5","6","5","6","6","4","2","6","6","4","6","6","5","6","6","4","7","7","7","5","7","4","2","6","6","6","4","6","783441385641742337","陈","141","Female","[""坏她"",""坏我"",""好她"",""好我""]","[""弱她"",""弱我"",""强她"",""强我""]","","true","","","","","{}","","","","","","","","","","","","","","","","","","","","","","","","","","","","","","","",""
"9298.200000047684","","{""Q01"":""6"",""Q02"":""6"",""Q03"":""6"",""Q04"":""6"",""Q05"":""6""}","survey-template","5","46640","0.0-4.0","6","6","6","6","6","4","2","4","4","4","4","1","1","1","1","1","1","1","1","5","5","5","5","5","3","4","4","4","4","7","8","8","8","8","7","8","8","9","7","6","4","6","6","6","4","1","6","5","1","5","4","5","6","5","6","6","4","2","6","6","4","6","6","5","6","6","4","7","7","7","5","7","4","2","6","6","6","4","6","783441385641742337","陈","141","Female","[""坏她"",""坏我"",""好她"",""好我""]","[""弱她"",""弱我"",""强她"",""强我""]","","","","","","","","{""Q01"":""6"",""Q02"":""6"",""Q03"":""6"",""Q04"":""6"",""Q05"":""6""}","[0,1,2,3,4]","[""Q01"",""Q02"",""Q03"",""Q04"",""Q05""]","[2120.0999999046326,2912.0999999046326,4039.899999856949,5336.200000047684,8255.899999856949]","[]","[2120.0999999046326,2912.0999999046326,4039.899999856949,5336.200000047684,8255.899999856949,9296.200000047684]","1","0","0","","","","","","","","","","","","","","","","","","","","","","",""
"20871.400000095367","","{""Q01"":""4"",""Q02"":""2"",""Q03"":""4"",""Q04"":""4"",""Q05"":""4"",""Q06"":""4""}","survey-template","6","67519","0.0-5.0","6","6","6","6","6","4","2","4","4","4","4","1","1","1","1","1","1","1","1","5","5","5","5","5","3","4","4","4","4","7","8","8","8","8","7","8","8","9","7","6","4","6","6","6","4","1","6","5","1","5","4","5","6","5","6","6","4","2","6","6","4","6","6","5","6","6","4","7","7","7","5","7","4","2","6","6","6","4","6","783441385641742337","陈","141","Female","[""坏她"",""坏我"",""好她"",""好我""]","[""弱她"",""弱我"",""强她"",""强我""]","","","","","","","","{""Q01"":""4"",""Q02"":""2"",""Q03"":""4"",""Q04"":""4"",""Q05"":""4"",""Q06"":""4""}","[0,1,2,3,4,5]","[""Q01"",""Q02"",""Q03"",""Q04"",""Q05"",""Q06""]","[2389.600000143051,5493.800000190735,6565.900000095367,12197.800000190735,17021.900000095367,19878.10000014305]","[]","[2389.600000143051,5493.800000190735,6565.900000095367,12197.800000190735,17021.900000095367,19878.10000014305,20869.900000095367]","0.6666666666666666","0","0","","","","","","","","","","","","","","","","","","","","","","",""
"18979.200000047684","","{""Q01"":""1"",""Q02"":""1"",""Q03"":""1"",""Q04"":""1"",""Q05"":""1"",""Q06"":""1"",""Q07"":""1"",""Q08"":""1""}","survey-template","7","86506","0.0-6.0","6","6","6","6","6","4","2","4","4","4","4","1","1","1","1","1","1","1","1","5","5","5","5","5","3","4","4","4","4","7","8","8","8","8","7","8","8","9","7","6","4","6","6","6","4","1","6","5","1","5","4","5","6","5","6","6","4","2","6","6","4","6","6","5","6","6","4","7","7","7","5","7","4","2","6","6","6","4","6","783441385641742337","陈","141","Female","[""坏她"",""坏我"",""好她"",""好我""]","[""弱她"",""弱我"",""强她"",""强我""]","","","","","","","","{""Q01"":""1"",""Q02"":""1"",""Q03"":""1"",""Q04"":""1"",""Q05"":""1"",""Q06"":""1"",""Q07"":""1"",""Q08"":""1""}","[0,1,2,3,4,5,6,7]","[""Q01"",""Q02"",""Q03"",""Q04"",""Q05"",""Q06"",""Q07"",""Q08""]","[2504,4704,7960.299999952316,11615.799999952316,13080.099999904633,15128.299999952316,17552.099999904633,18528]","[]","[2504,4704,7960.299999952316,11615.799999952316,13080.099999904633,15128.299999952316,17552.099999904633,18528,18976.799999952316]","1","0","0","","","","","","","","","","","","","","","","","","","","","","",""
"10919","
    <p><div style='color:white;font-size:35px; line-height:20px;'>词汇评估任务</div></p><br>
    <p><div style='color:white;font-size:25px; line-height:20px;'>请再次回忆该亲密的朋友，你们至少2年前就认识了，并且最近2年经常见面。</div></p>
    <p><div style='color:white;font-size:25px; line-height:20px;'>在本实验中，您将会看到一些形容词。</div></p>
    <p><div style='color:yellow;font-size:25px; line-height:20px;'>您的任务是判断这些形容词是否符合对您自己或您的朋友的描述。</div></p><p style='font-size:35px'>符合按<span style=""color:lightgreen""> j 键</span>，不符合按<span style=""color:red""> f 键</span></p>","0","html-button-response","8","97430","0.0-7.0-0.0","6","6","6","6","6","4","2","4","4","4","4","1","1","1","1","1","1","1","1","5","5","5","5","5","3","4","4","4","4","7","8","8","8","8","7","8","8","9","7","6","4","6","6","6","4","1","6","5","1","5","4","5","6","5","6","6","4","2","6","6","4","6","6","5","6","6","4","7","7","7","5","7","4","2","6","6","6","4","6","783441385641742337","陈","141","Female","[""坏她"",""坏我"",""好她"",""好我""]","[""弱她"",""弱我"",""强她"",""强我""]","","","","","","","","","","","","","","","","","SRET_EW","EW_instructions","Fri Jan 19 2024 11:57:28 GMT+0800 (中国标准时间)","","","","","","","","","","","","","","","","","","","",""
"1190","","j","psychophysics","9","99625","0.0-7.0-1.0-0.0","6","6","6","6","6","4","2","4","4","4","4","1","1","1","1","1","1","1","1","5","5","5","5","5","3","4","4","4","4","7","8","8","8","8","7","8","8","9","7","6","4","6","6","6","4","1","6","5","1","5","4","5","6","5","6","6","4","2","6","6","4","6","6","5","6","6","4","7","7","7","5","7","4","2","6","6","6","4","6","783441385641742337","陈","141","Female","[""坏她"",""坏我"",""好她"",""好我""]","[""弱她"",""弱我"",""强她"",""强我""]","","","","","","","","yes","","","","","","","","","SRET_EW","EW_practice","","key","j","16.698687022900806","720","446","自己","刻板","Negative","ability","","","","","","","","","","",""
"1621","","j","psychophysics","10","102248","0.0-7.0-1.0-0.1","6","6","6","6","6","4","2","4","4","4","4","1","1","1","1","1","1","1","1","5","5","5","5","5","3","4","4","4","4","7","8","8","8","8","7","8","8","9","7","6","4","6","6","6","4","1","6","5","1","5","4","5","6","5","6","6","4","2","6","6","4","6","6","5","6","6","4","7","7","7","5","7","4","2","6","6","6","4","6","783441385641742337","陈","141","Female","[""坏她"",""坏我"",""好她"",""好我""]","[""弱她"",""弱我"",""强她"",""强我""]","","","","","","","","yes","","","","","","","","","SRET_EW","EW_practice","","key","j","16.699012820512834","720","446","自己","严谨","Positive","ability","","","","","","","","","","",""
"1325","","f","psychophysics","11","104577","0.0-7.0-1.0-0.2","6","6","6","6","6","4","2","4","4","4","4","1","1","1","1","1","1","1","1","5","5","5","5","5","3","4","4","4","4","7","8","8","8","8","7","8","8","9","7","6","4","6","6","6","4","1","6","5","1","5","4","5","6","5","6","6","4","2","6","6","4","6","6","5","6","6","4","7","7","7","5","7","4","2","6","6","6","4","6","783441385641742337","陈","141","Female","[""坏她"",""坏我"",""好她"",""好我""]","[""弱她"",""弱我"",""强她"",""强我""]","","","","","","","","no","","","","","","","","","SRET_EW","EW_practice","","key","f","16.69861870503592","720","446","朋友","徇私","Negative","morality","","","","","","","","","","",""
"1381","","j","psychophysics","12","106961","0.0-7.0-1.0-0.3","6","6","6","6","6","4","2","4","4","4","4","1","1","1","1","1","1","1","1","5","5","5","5","5","3","4","4","4","4","7","8","8","8","8","7","8","8","9","7","6","4","6","6","6","4","1","6","5","1","5","4","5","6","5","6","6","4","2","6","6","4","6","6","5","6","6","4","7","7","7","5","7","4","2","6","6","6","4","6","783441385641742337","陈","141","Female","[""坏她"",""坏我"",""好她"",""好我""]","[""弱她"",""弱我"",""强她"",""强我""]","","","","","","","","yes","","","","","","","","","SRET_EW","EW_practice","","key","j","16.69965248226949","720","446","朋友","忠实","Positive","morality","","","","","","","","","","",""
"4491","
    <p><div style='color:white;font-size:35px; line-height:20px;'>请您再次阅读实验要求</div></p><br>
    <p><div style='color:white;font-size:25px; line-height:20px;'>请回忆某一个亲密的朋友，你们至少2年前就认识了，并且最近2年经常见面。</div></p>
    <p><div style='color:white;font-size:25px; line-height:20px;'>在本实验中，您将会看到一些形容词。</div></p>
    <p><div style='color:yellow;font-size:25px; line-height:20px;'>您的任务是判断这些形容词是否符合对您自己或您的朋友的描述。</div></p>
    <p><div class='footer' style='font-size:25px; line-height:20px;'>如果对本实验还有不清楚之处，请立即向实验员咨询。</p><p style='font-size:25px; line-height:20px;'>如果您明白了规则：</p><p style='font-size:22px; line-height:20px;'>请按 继续 进入正式实验</p>
    </div>
    <p style='font-size:35px'>符合按<span style=""color:lightgreen""> j 键</span>，不符合按<span style=""color:red""> f 键</span></p>","0","html-button-response","13","111454","0.0-7.0-2.0","6","6","6","6","6","4","2","4","4","4","4","1","1","1","1","1","1","1","1","5","5","5","5","5","3","4","4","4","4","7","8","8","8","8","7","8","8","9","7","6","4","6","6","6","4","1","6","5","1","5","4","5","6","5","6","6","4","2","6","6","4","6","6","5","6","6","4","7","7","7","5","7","4","2","6","6","6","4","6","783441385641742337","陈","141","Female","[""坏她"",""坏我"",""好她"",""好我""]","[""弱她"",""弱我"",""强她"",""强我""]","","","","","","","","","","","","","","","","","SRET_EW","prac_instructions","Fri Jan 19 2024 11:57:28 GMT+0800 (中国标准时间)","","","","","","","","","","","","","","","","","","","",""
"769","","j","psychophysics","14","113226","0.0-7.0-3.0-0.0","6","6","6","6","6","4","2","4","4","4","4","1","1","1","1","1","1","1","1","5","5","5","5","5","3","4","4","4","4","7","8","8","8","8","7","8","8","9","7","6","4","6","6","6","4","1","6","5","1","5","4","5","6","5","6","6","4","2","6","6","4","6","6","5","6","6","4","7","7","7","5","7","4","2","6","6","6","4","6","783441385641742337","陈","141","Female","[""坏她"",""坏我"",""好她"",""好我""]","[""弱她"",""弱我"",""强她"",""强我""]","","","","","","","","yes","","","","","","","","","SRET","EW_formal","","key","j","16.857566037735868","720","446","朋友","务实","Positive","ability","","","","","","","","","","",""
"1118","","f","psychophysics","15","115346","0.0-7.0-3.0-0.1","6","6","6","6","6","4","2","4","4","4","4","1","1","1","1","1","1","1","1","5","5","5","5","5","3","4","4","4","4","7","8","8","8","8","7","8","8","9","7","6","4","6","6","6","4","1","6","5","1","5","4","5","6","5","6","6","4","2","6","6","4","6","6","5","6","6","4","7","7","7","5","7","4","2","6","6","6","4","6","783441385641742337","陈","141","Female","[""坏她"",""坏我"",""好她"",""好我""]","[""弱她"",""弱我"",""强她"",""强我""]","","","","","","","","no","","","","","","","","","SRET","EW_formal","","key","f","16.698888888888987","720","446","朋友","迷糊","Negative","ability","","","","","","","","","","",""
"1519","","f","psychophysics","16","117866","0.0-7.0-3.0-0.2","6","6","6","6","6","4","2","4","4","4","4","1","1","1","1","1","1","1","1","5","5","5","5","5","3","4","4","4","4","7","8","8","8","8","7","8","8","9","7","6","4","6","6","6","4","1","6","5","1","5","4","5","6","5","6","6","4","2","6","6","4","6","6","5","6","6","4","7","7","7","5","7","4","2","6","6","6","4","6","783441385641742337","陈","141","Female","[""坏她"",""坏我"",""好她"",""好我""]","[""弱她"",""弱我"",""强她"",""强我""]","","","","","","","","no","","","","","","","","","SRET","EW_formal","","key","f","16.700107382550378","720","446","自己","说谎","Negative","morality","","","","","","","","","","",""
"1238","","j","psychophysics","17","120106","0.0-7.0-3.0-0.3","6","6","6","6","6","4","2","4","4","4","4","1","1","1","1","1","1","1","1","5","5","5","5","5","3","4","4","4","4","7","8","8","8","8","7","8","8","9","7","6","4","6","6","6","4","1","6","5","1","5","4","5","6","5","6","6","4","2","6","6","4","6","6","5","6","6","4","7","7","7","5","7","4","2","6","6","6","4","6","783441385641742337","陈","141","Female","[""坏她"",""坏我"",""好她"",""好我""]","[""弱她"",""弱我"",""强她"",""强我""]","","","","","","","","yes","","","","","","","","","SRET","EW_formal","","key","j","16.70061194029849","720","446","自己","坚贞","Positive","morality","","","","","","","","","","",""
"1182","","j","psychophysics","18","122291","0.0-7.0-3.0-0.4","6","6","6","6","6","4","2","4","4","4","4","1","1","1","1","1","1","1","1","5","5","5","5","5","3","4","4","4","4","7","8","8","8","8","7","8","8","9","7","6","4","6","6","6","4","1","6","5","1","5","4","5","6","5","6","6","4","2","6","6","4","6","6","5","6","6","4","7","7","7","5","7","4","2","6","6","6","4","6","783441385641742337","陈","141","Female","[""坏她"",""坏我"",""好她"",""好我""]","[""弱她"",""弱我"",""强她"",""强我""]","","","","","","","","yes","","","","","","","","","SRET","EW_formal","","key","j","16.699434108527125","720","446","自己","仁厚","Positive","morality","","","","","","","","","","",""
"990","","f","psychophysics","19","124283","0.0-7.0-3.0-0.5","6","6","6","6","6","4","2","4","4","4","4","1","1","1","1","1","1","1","1","5","5","5","5","5","3","4","4","4","4","7","8","8","8","8","7","8","8","9","7","6","4","6","6","6","4","1","6","5","1","5","4","5","6","5","6","6","4","2","6","6","4","6","6","5","6","6","4","7","7","7","5","7","4","2","6","6","6","4","6","783441385641742337","陈","141","Female","[""坏她"",""坏我"",""好她"",""好我""]","[""弱她"",""弱我"",""强她"",""强我""]","","","","","","","","no","","","","","","","","","SRET","EW_formal","","key","f","16.699176470588274","720","446","朋友","自私","Negative","morality","","","","","","","","","","",""
"1126","","j","psychophysics","20","126411","0.0-7.0-3.0-0.6","6","6","6","6","6","4","2","4","4","4","4","1","1","1","1","1","1","1","1","5","5","5","5","5","3","4","4","4","4","7","8","8","8","8","7","8","8","9","7","6","4","6","6","6","4","1","6","5","1","5","4","5","6","5","6","6","4","2","6","6","4","6","6","5","6","6","4","7","7","7","5","7","4","2","6","6","6","4","6","783441385641742337","陈","141","Female","[""坏她"",""坏我"",""好她"",""好我""]","[""弱她"",""弱我"",""强她"",""强我""]","","","","","","","","yes","","","","","","","","","SRET","EW_formal","","key","j","16.699404761904763","720","446","朋友","精干","Positive","ability","","","","","","","","","","",""
"1166","","j","psychophysics","21","128579","0.0-7.0-3.0-0.7","6","6","6","6","6","4","2","4","4","4","4","1","1","1","1","1","1","1","1","5","5","5","5","5","3","4","4","4","4","7","8","8","8","8","7","8","8","9","7","6","4","6","6","6","4","1","6","5","1","5","4","5","6","5","6","6","4","2","6","6","4","6","6","5","6","6","4","7","7","7","5","7","4","2","6","6","6","4","6","783441385641742337","陈","141","Female","[""坏她"",""坏我"",""好她"",""好我""]","[""弱她"",""弱我"",""强她"",""强我""]","","","","","","","","yes","","","","","","","","","SRET","EW_formal","","key","j","16.699790697674427","720","446","朋友","毅力","Positive","ability","","","","","","","","","","",""
"1023","","j","psychophysics","22","130604","0.0-7.0-3.0-0.8","6","6","6","6","6","4","2","4","4","4","4","1","1","1","1","1","1","1","1","5","5","5","5","5","3","4","4","4","4","7","8","8","8","8","7","8","8","9","7","6","4","6","6","6","4","1","6","5","1","5","4","5","6","5","6","6","4","2","6","6","4","6","6","5","6","6","4","7","7","7","5","7","4","2","6","6","6","4","6","783441385641742337","陈","141","Female","[""坏她"",""坏我"",""好她"",""好我""]","[""弱她"",""弱我"",""强她"",""强我""]","","","","","","","","yes","","","","","","","","","SRET","EW_formal","","key","j","16.6989666666667","720","446","自己","好心","Positive","morality","","","","","","","","","","",""
"1119","","f","psychophysics","23","132724","0.0-7.0-3.0-0.9","6","6","6","6","6","4","2","4","4","4","4","1","1","1","1","1","1","1","1","5","5","5","5","5","3","4","4","4","4","7","8","8","8","8","7","8","8","9","7","6","4","6","6","6","4","1","6","5","1","5","4","5","6","5","6","6","4","2","6","6","4","6","6","5","6","6","4","7","7","7","5","7","4","2","6","6","6","4","6","783441385641742337","陈","141","Female","[""坏她"",""坏我"",""好她"",""好我""]","[""弱她"",""弱我"",""强她"",""强我""]","","","","","","","","no","","","","","","","","","SRET","EW_formal","","key","f","16.700444444444397","720","446","自己","腐败","Negative","morality","","","","","","","","","","",""
"1526","","f","psychophysics","24","135252","0.0-7.0-3.0-0.10","6","6","6","6","6","4","2","4","4","4","4","1","1","1","1","1","1","1","1","5","5","5","5","5","3","4","4","4","4","7","8","8","8","8","7","8","8","9","7","6","4","6","6","6","4","1","6","5","1","5","4","5","6","5","6","6","4","2","6","6","4","6","6","5","6","6","4","7","7","7","5","7","4","2","6","6","6","4","6","783441385641742337","陈","141","Female","[""坏她"",""坏我"",""好她"",""好我""]","[""弱她"",""弱我"",""强她"",""强我""]","","","","","","","","no","","","","","","","","","SRET","EW_formal","","key","f","16.699344370860896","720","446","自己","短浅","Negative","ability","","","","","","","","","","",""
"1367","","j","psychophysics","25","137620","0.0-7.0-3.0-0.11","6","6","6","6","6","4","2","4","4","4","4","1","1","1","1","1","1","1","1","5","5","5","5","5","3","4","4","4","4","7","8","8","8","8","7","8","8","9","7","6","4","6","6","6","4","1","6","5","1","5","4","5","6","5","6","6","4","2","6","6","4","6","6","5","6","6","4","7","7","7","5","7","4","2","6","6","6","4","6","783441385641742337","陈","141","Female","[""坏她"",""坏我"",""好她"",""好我""]","[""弱她"",""弱我"",""强她"",""强我""]","","","","","","","","yes","","","","","","","","","SRET","EW_formal","","key","j","16.69790000000004","720","446","自己","慈悲","Positive","morality","","","","","","","","","","",""
"1687","","f","psychophysics","26","140308","0.0-7.0-3.0-0.12","6","6","6","6","6","4","2","4","4","4","4","1","1","1","1","1","1","1","1","5","5","5","5","5","3","4","4","4","4","7","8","8","8","8","7","8","8","9","7","6","4","6","6","6","4","1","6","5","1","5","4","5","6","5","6","6","4","2","6","6","4","6","6","5","6","6","4","7","7","7","5","7","4","2","6","6","6","4","6","783441385641742337","陈","141","Female","[""坏她"",""坏我"",""好她"",""好我""]","[""弱她"",""弱我"",""强她"",""强我""]","","","","","","","","no","","","","","","","","","SRET","EW_formal","","key","f","16.699812500000007","720","446","朋友","阴毒","Negative","morality","","","","","","","","","","",""
"789","","j","psychophysics","27","142101","0.0-7.0-3.0-0.13","6","6","6","6","6","4","2","4","4","4","4","1","1","1","1","1","1","1","1","5","5","5","5","5","3","4","4","4","4","7","8","8","8","8","7","8","8","9","7","6","4","6","6","6","4","1","6","5","1","5","4","5","6","5","6","6","4","2","6","6","4","6","6","5","6","6","4","7","7","7","5","7","4","2","6","6","6","4","6","783441385641742337","陈","141","Female","[""坏她"",""坏我"",""好她"",""好我""]","[""弱她"",""弱我"",""强她"",""强我""]","","","","","","","","yes","","","","","","","","","SRET","EW_formal","","key","j","16.69992523364479","720","446","自己","孝顺","Positive","morality","","","","","","","","","","",""
"822","","j","psychophysics","28","143925","0.0-7.0-3.0-0.14","6","6","6","6","6","4","2","4","4","4","4","1","1","1","1","1","1","1","1","5","5","5","5","5","3","4","4","4","4","7","8","8","8","8","7","8","8","9","7","6","4","6","6","6","4","1","6","5","1","5","4","5","6","5","6","6","4","2","6","6","4","6","6","5","6","6","4","7","7","7","5","7","4","2","6","6","6","4","6","783441385641742337","陈","141","Female","[""坏她"",""坏我"",""好她"",""好我""]","[""弱她"",""弱我"",""强她"",""强我""]","","","","","","","","yes","","","","","","","","","SRET","EW_formal","","key","j","16.699814814814967","720","446","自己","高明","Positive","ability","","","","","","","","","","",""
"1006","","j","psychophysics","29","145933","0.0-7.0-3.0-0.15","6","6","6","6","6","4","2","4","4","4","4","1","1","1","1","1","1","1","1","5","5","5","5","5","3","4","4","4","4","7","8","8","8","8","7","8","8","9","7","6","4","6","6","6","4","1","6","5","1","5","4","5","6","5","6","6","4","2","6","6","4","6","6","5","6","6","4","7","7","7","5","7","4","2","6","6","6","4","6","783441385641742337","陈","141","Female","[""坏她"",""坏我"",""好她"",""好我""]","[""弱她"",""弱我"",""强她"",""强我""]","","","","","","","","yes","","","","","","","","","SRET","EW_formal","","key","j","16.69846218487418","720","446","朋友","守时","Positive","morality","","","","","","","","","","",""
"1206","","f","psychophysics","30","148141","0.0-7.0-3.0-0.16","6","6","6","6","6","4","2","4","4","4","4","1","1","1","1","1","1","1","1","5","5","5","5","5","3","4","4","4","4","7","8","8","8","8","7","8","8","9","7","6","4","6","6","6","4","1","6","5","1","5","4","5","6","5","6","6","4","2","6","6","4","6","6","5","6","6","4","7","7","7","5","7","4","2","6","6","6","4","6","783441385641742337","陈","141","Female","[""坏她"",""坏我"",""好她"",""好我""]","[""弱她"",""弱我"",""强她"",""强我""]","","","","","","","","no","","","","","","","","","SRET","EW_formal","","key","f","16.699129770992446","720","446","朋友","无知","Negative","ability","","","","","","","","","","",""
"1030","","j","psychophysics","31","150174","0.0-7.0-3.0-0.17","6","6","6","6","6","4","2","4","4","4","4","1","1","1","1","1","1","1","1","5","5","5","5","5","3","4","4","4","4","7","8","8","8","8","7","8","8","9","7","6","4","6","6","6","4","1","6","5","1","5","4","5","6","5","6","6","4","2","6","6","4","6","6","5","6","6","4","7","7","7","5","7","4","2","6","6","6","4","6","783441385641742337","陈","141","Female","[""坏她"",""坏我"",""好她"",""好我""]","[""弱她"",""弱我"",""强她"",""强我""]","","","","","","","","yes","","","","","","","","","SRET","EW_formal","","key","j","16.70018181818165","720","446","朋友","周到","Positive","ability","","","","","","","","","","",""
"1207","","f","psychophysics","32","152382","0.0-7.0-3.0-0.18","6","6","6","6","6","4","2","4","4","4","4","1","1","1","1","1","1","1","1","5","5","5","5","5","3","4","4","4","4","7","8","8","8","8","7","8","8","9","7","6","4","6","6","6","4","1","6","5","1","5","4","5","6","5","6","6","4","2","6","6","4","6","6","5","6","6","4","7","7","7","5","7","4","2","6","6","6","4","6","783441385641742337","陈","141","Female","[""坏她"",""坏我"",""好她"",""好我""]","[""弱她"",""弱我"",""强她"",""强我""]","","","","","","","","no","","","","","","","","","SRET","EW_formal","","key","f","16.700152671755735","720","446","自己","贪污","Negative","morality","","","","","","","","","","",""
"1295","","f","psychophysics","33","154678","0.0-7.0-3.0-0.19","6","6","6","6","6","4","2","4","4","4","4","1","1","1","1","1","1","1","1","5","5","5","5","5","3","4","4","4","4","7","8","8","8","8","7","8","8","9","7","6","4","6","6","6","4","1","6","5","1","5","4","5","6","5","6","6","4","2","6","6","4","6","6","5","6","6","4","7","7","7","5","7","4","2","6","6","6","4","6","783441385641742337","陈","141","Female","[""坏她"",""坏我"",""好她"",""好我""]","[""弱她"",""弱我"",""强她"",""强我""]","","","","","","","","no","","","","","","","","","SRET","EW_formal","","key","f","16.699226277372222","720","446","自己","才尽","Negative","ability","","","","","","","","","","",""
"1654","","f","psychophysics","34","157335","0.0-7.0-3.0-0.20","6","6","6","6","6","4","2","4","4","4","4","1","1","1","1","1","1","1","1","5","5","5","5","5","3","4","4","4","4","7","8","8","8","8","7","8","8","9","7","6","4","6","6","6","4","1","6","5","1","5","4","5","6","5","6","6","4","2","6","6","4","6","6","5","6","6","4","7","7","7","5","7","4","2","6","6","6","4","6","783441385641742337","陈","141","Female","[""坏她"",""坏我"",""好她"",""好我""]","[""弱她"",""弱我"",""强她"",""强我""]","","","","","","","","no","","","","","","","","","SRET","EW_formal","","key","f","16.69949367088601","720","446","朋友","淡泊","Positive","morality","","","","","","","","","","",""
"1039","","f","psychophysics","35","159375","0.0-7.0-3.0-0.21","6","6","6","6","6","4","2","4","4","4","4","1","1","1","1","1","1","1","1","5","5","5","5","5","3","4","4","4","4","7","8","8","8","8","7","8","8","9","7","6","4","6","6","6","4","1","6","5","1","5","4","5","6","5","6","6","4","2","6","6","4","6","6","5","6","6","4","7","7","7","5","7","4","2","6","6","6","4","6","783441385641742337","陈","141","Female","[""坏她"",""坏我"",""好她"",""好我""]","[""弱她"",""弱我"",""强她"",""强我""]","","","","","","","","no","","","","","","","","","SRET","EW_formal","","key","f","16.69976033057853","720","446","自己","不端","Negative","morality","","","","","","","","","","",""
"1222","","j","psychophysics","36","161599","0.0-7.0-3.0-0.22","6","6","6","6","6","4","2","4","4","4","4","1","1","1","1","1","1","1","1","5","5","5","5","5","3","4","4","4","4","7","8","8","8","8","7","8","8","9","7","6","4","6","6","6","4","1","6","5","1","5","4","5","6","5","6","6","4","2","6","6","4","6","6","5","6","6","4","7","7","7","5","7","4","2","6","6","6","4","6","783441385641742337","陈","141","Female","[""坏她"",""坏我"",""好她"",""好我""]","[""弱她"",""弱我"",""强她"",""强我""]","","","","","","","","yes","","","","","","","","","SRET","EW_formal","","key","j","16.699962121212263","720","446","朋友","全才","Positive","ability","","","","","","","","","","",""
"1046","","f","psychophysics","37","163647","0.0-7.0-3.0-0.23","6","6","6","6","6","4","2","4","4","4","4","1","1","1","1","1","1","1","1","5","5","5","5","5","3","4","4","4","4","7","8","8","8","8","7","8","8","9","7","6","4","6","6","6","4","1","6","5","1","5","4","5","6","5","6","6","4","2","6","6","4","6","6","5","6","6","4","7","7","7","5","7","4","2","6","6","6","4","6","783441385641742337","陈","141","Female","[""坏她"",""坏我"",""好她"",""好我""]","[""弱她"",""弱我"",""强她"",""强我""]","","","","","","","","no","","","","","","","","","SRET","EW_formal","","key","f","16.699614754098384","720","446","朋友","马虎","Negative","ability","","","","","","","","","","",""
"967","","j","psychophysics","38","165616","0.0-7.0-3.0-0.24","6","6","6","6","6","4","2","4","4","4","4","1","1","1","1","1","1","1","1","5","5","5","5","5","3","4","4","4","4","7","8","8","8","8","7","8","8","9","7","6","4","6","6","6","4","1","6","5","1","5","4","5","6","5","6","6","4","2","6","6","4","6","6","5","6","6","4","7","7","7","5","7","4","2","6","6","6","4","6","783441385641742337","陈","141","Female","[""坏她"",""坏我"",""好她"",""好我""]","[""弱她"",""弱我"",""强她"",""强我""]","","","","","","","","yes","","","","","","","","","SRET","EW_formal","","key","j","16.700076923077045","720","446","自己","果断","Positive","ability","","","","","","","","","","",""
"935","","j","psychophysics","39","167552","0.0-7.0-3.0-0.25","6","6","6","6","6","4","2","4","4","4","4","1","1","1","1","1","1","1","1","5","5","5","5","5","3","4","4","4","4","7","8","8","8","8","7","8","8","9","7","6","4","6","6","6","4","1","6","5","1","5","4","5","6","5","6","6","4","2","6","6","4","6","6","5","6","6","4","7","7","7","5","7","4","2","6","6","6","4","6","783441385641742337","陈","141","Female","[""坏她"",""坏我"",""好她"",""好我""]","[""弱她"",""弱我"",""强她"",""强我""]","","","","","","","","yes","","","","","","","","","SRET","EW_formal","","key","j","16.69977391304337","720","446","自己","清廉","Positive","morality","","","","","","","","","","",""
"1215","","j","psychophysics","40","169768","0.0-7.0-3.0-0.26","6","6","6","6","6","4","2","4","4","4","4","1","1","1","1","1","1","1","1","5","5","5","5","5","3","4","4","4","4","7","8","8","8","8","7","8","8","9","7","6","4","6","6","6","4","1","6","5","1","5","4","5","6","5","6","6","4","2","6","6","4","6","6","5","6","6","4","7","7","7","5","7","4","2","6","6","6","4","6","783441385641742337","陈","141","Female","[""坏她"",""坏我"",""好她"",""好我""]","[""弱她"",""弱我"",""强她"",""强我""]","","","","","","","","yes","","","","","","","","","SRET","EW_formal","","key","j","16.69855303030305","720","446","朋友","利落","Positive","ability","","","","","","","","","","",""
"926","","j","psychophysics","41","171696","0.0-7.0-3.0-0.27","6","6","6","6","6","4","2","4","4","4","4","1","1","1","1","1","1","1","1","5","5","5","5","5","3","4","4","4","4","7","8","8","8","8","7","8","8","9","7","6","4","6","6","6","4","1","6","5","1","5","4","5","6","5","6","6","4","2","6","6","4","6","6","5","6","6","4","7","7","7","5","7","4","2","6","6","6","4","6","783441385641742337","陈","141","Female","[""坏她"",""坏我"",""好她"",""好我""]","[""弱她"",""弱我"",""强她"",""强我""]","","","","","","","","yes","","","","","","","","","SRET","EW_formal","","key","j","16.698464912280702","720","446","朋友","利己","Negative","morality","","","","","","","","","","",""
"1494","","f","psychophysics","42","174192","0.0-7.0-3.0-0.28","6","6","6","6","6","4","2","4","4","4","4","1","1","1","1","1","1","1","1","5","5","5","5","5","3","4","4","4","4","7","8","8","8","8","7","8","8","9","7","6","4","6","6","6","4","1","6","5","1","5","4","5","6","5","6","6","4","2","6","6","4","6","6","5","6","6","4","7","7","7","5","7","4","2","6","6","6","4","6","783441385641742337","陈","141","Female","[""坏她"",""坏我"",""好她"",""好我""]","[""弱她"",""弱我"",""强她"",""强我""]","","","","","","","","no","","","","","","","","","SRET","EW_formal","","key","f","16.69954729729727","720","446","朋友","犹豫","Negative","ability","","","","","","","","","","",""
"847","","j","psychophysics","43","176040","0.0-7.0-3.0-0.29","6","6","6","6","6","4","2","4","4","4","4","1","1","1","1","1","1","1","1","5","5","5","5","5","3","4","4","4","4","7","8","8","8","8","7","8","8","9","7","6","4","6","6","6","4","1","6","5","1","5","4","5","6","5","6","6","4","2","6","6","4","6","6","5","6","6","4","7","7","7","5","7","4","2","6","6","6","4","6","783441385641742337","陈","141","Female","[""坏她"",""坏我"",""好她"",""好我""]","[""弱她"",""弱我"",""强她"",""强我""]","","","","","","","","yes","","","","","","","","","SRET","EW_formal","","key","j","16.700236363636478","720","446","自己","爱国","Positive","morality","","","","","","","","","","",""
"998","","f","psychophysics","44","178040","0.0-7.0-3.0-0.30","6","6","6","6","6","4","2","4","4","4","4","1","1","1","1","1","1","1","1","5","5","5","5","5","3","4","4","4","4","7","8","8","8","8","7","8","8","9","7","6","4","6","6","6","4","1","6","5","1","5","4","5","6","5","6","6","4","2","6","6","4","6","6","5","6","6","4","7","7","7","5","7","4","2","6","6","6","4","6","783441385641742337","陈","141","Female","[""坏她"",""坏我"",""好她"",""好我""]","[""弱她"",""弱我"",""强她"",""强我""]","","","","","","","","no","","","","","","","","","SRET","EW_formal","","key","f","16.70105882352947","720","446","朋友","无敌","Positive","ability","","","","","","","","","","",""
"1111","","j","psychophysics","45","180153","0.0-7.0-3.0-0.31","6","6","6","6","6","4","2","4","4","4","4","1","1","1","1","1","1","1","1","5","5","5","5","5","3","4","4","4","4","7","8","8","8","8","7","8","8","9","7","6","4","6","6","6","4","1","6","5","1","5","4","5","6","5","6","6","4","2","6","6","4","6","6","5","6","6","4","7","7","7","5","7","4","2","6","6","6","4","6","783441385641742337","陈","141","Female","[""坏她"",""坏我"",""好她"",""好我""]","[""弱她"",""弱我"",""强她"",""强我""]","","","","","","","","yes","","","","","","","","","SRET","EW_formal","","key","j","16.699768000000155","720","446","自己","骁勇","Positive","ability","","","","","","","","","","",""
"975","","f","psychophysics","46","182129","0.0-7.0-3.0-0.32","6","6","6","6","6","4","2","4","4","4","4","1","1","1","1","1","1","1","1","5","5","5","5","5","3","4","4","4","4","7","8","8","8","8","7","8","8","9","7","6","4","6","6","6","4","1","6","5","1","5","4","5","6","5","6","6","4","2","6","6","4","6","6","5","6","6","4","7","7","7","5","7","4","2","6","6","6","4","6","783441385641742337","陈","141","Female","[""坏她"",""坏我"",""好她"",""好我""]","[""弱她"",""弱我"",""强她"",""强我""]","","","","","","","","no","","","","","","","","","SRET","EW_formal","","key","f","16.69956779661016","720","446","自己","愚痴","Negative","ability","","","","","","","","","","",""
"1583","","f","psychophysics","47","184713","0.0-7.0-3.0-0.33","6","6","6","6","6","4","2","4","4","4","4","1","1","1","1","1","1","1","1","5","5","5","5","5","3","4","4","4","4","7","8","8","8","8","7","8","8","9","7","6","4","6","6","6","4","1","6","5","1","5","4","5","6","5","6","6","4","2","6","6","4","6","6","5","6","6","4","7","7","7","5","7","4","2","6","6","6","4","6","783441385641742337","陈","141","Female","[""坏她"",""坏我"",""好她"",""好我""]","[""弱她"",""弱我"",""强她"",""强我""]","","","","","","","","no","","","","","","","","","SRET","EW_formal","","key","f","16.699712418300727","720","446","自己","弱智","Negative","ability","","","","","","","","","","",""
"1023","","j","psychophysics","48","186738","0.0-7.0-3.0-0.34","6","6","6","6","6","4","2","4","4","4","4","1","1","1","1","1","1","1","1","5","5","5","5","5","3","4","4","4","4","7","8","8","8","8","7","8","8","9","7","6","4","6","6","6","4","1","6","5","1","5","4","5","6","5","6","6","4","2","6","6","4","6","6","5","6","6","4","7","7","7","5","7","4","2","6","6","6","4","6","783441385641742337","陈","141","Female","[""坏她"",""坏我"",""好她"",""好我""]","[""弱她"",""弱我"",""强她"",""强我""]","","","","","","","","yes","","","","","","","","","SRET","EW_formal","","key","j","16.700157024793246","720","446","自己","敬业","Positive","morality","","","","","","","","","","",""
"1046","","f","psychophysics","49","188786","0.0-7.0-3.0-0.35","6","6","6","6","6","4","2","4","4","4","4","1","1","1","1","1","1","1","1","5","5","5","5","5","3","4","4","4","4","7","8","8","8","8","7","8","8","9","7","6","4","6","6","6","4","1","6","5","1","5","4","5","6","5","6","6","4","2","6","6","4","6","6","5","6","6","4","7","7","7","5","7","4","2","6","6","6","4","6","783441385641742337","陈","141","Female","[""坏她"",""坏我"",""好她"",""好我""]","[""弱她"",""弱我"",""强她"",""强我""]","","","","","","","","no","","","","","","","","","SRET","EW_formal","","key","f","16.698603305785266","720","446","自己","无能","Negative","ability","","","","","","","","","","",""
"870","","j","psychophysics","50","190658","0.0-7.0-3.0-0.36","6","6","6","6","6","4","2","4","4","4","4","1","1","1","1","1","1","1","1","5","5","5","5","5","3","4","4","4","4","7","8","8","8","8","7","8","8","9","7","6","4","6","6","6","4","1","6","5","1","5","4","5","6","5","6","6","4","2","6","6","4","6","6","5","6","6","4","7","7","7","5","7","4","2","6","6","6","4","6","783441385641742337","陈","141","Female","[""坏她"",""坏我"",""好她"",""好我""]","[""弱她"",""弱我"",""强她"",""强我""]","","","","","","","","yes","","","","","","","","","SRET","EW_formal","","key","j","16.69936936936941","720","446","朋友","热心","Positive","morality","","","","","","","","","","",""
"911","","j","psychophysics","51","192570","0.0-7.0-3.0-0.37","6","6","6","6","6","4","2","4","4","4","4","1","1","1","1","1","1","1","1","5","5","5","5","5","3","4","4","4","4","7","8","8","8","8","7","8","8","9","7","6","4","6","6","6","4","1","6","5","1","5","4","5","6","5","6","6","4","2","6","6","4","6","6","5","6","6","4","7","7","7","5","7","4","2","6","6","6","4","6","783441385641742337","陈","141","Female","[""坏她"",""坏我"",""好她"",""好我""]","[""弱她"",""弱我"",""强她"",""强我""]","","","","","","","","yes","","","","","","","","","SRET","EW_formal","","key","j","16.69948245614043","720","446","朋友","高尚","Positive","morality","","","","","","","","","","",""
"1006","","f","psychophysics","52","194578","0.0-7.0-3.0-0.38","6","6","6","6","6","4","2","4","4","4","4","1","1","1","1","1","1","1","1","5","5","5","5","5","3","4","4","4","4","7","8","8","8","8","7","8","8","9","7","6","4","6","6","6","4","1","6","5","1","5","4","5","6","5","6","6","4","2","6","6","4","6","6","5","6","6","4","7","7","7","5","7","4","2","6","6","6","4","6","783441385641742337","陈","141","Female","[""坏她"",""坏我"",""好她"",""好我""]","[""弱她"",""弱我"",""强她"",""强我""]","","","","","","","","no","","","","","","","","","SRET","EW_formal","","key","f","16.700084033613425","720","446","朋友","毛糙","Negative","ability","","","","","","","","","","",""
"1294","","f","psychophysics","53","196874","0.0-7.0-3.0-0.39","6","6","6","6","6","4","2","4","4","4","4","1","1","1","1","1","1","1","1","5","5","5","5","5","3","4","4","4","4","7","8","8","8","8","7","8","8","9","7","6","4","6","6","6","4","1","6","5","1","5","4","5","6","5","6","6","4","2","6","6","4","6","6","5","6","6","4","7","7","7","5","7","4","2","6","6","6","4","6","783441385641742337","陈","141","Female","[""坏她"",""坏我"",""好她"",""好我""]","[""弱她"",""弱我"",""强她"",""强我""]","","","","","","","","no","","","","","","","","","SRET","EW_formal","","key","f","16.698693430656864","720","446","朋友","谦逊","Positive","morality","","","","","","","","","","",""
"1223","","f","psychophysics","54","199099","0.0-7.0-3.0-0.40","6","6","6","6","6","4","2","4","4","4","4","1","1","1","1","1","1","1","1","5","5","5","5","5","3","4","4","4","4","7","8","8","8","8","7","8","8","9","7","6","4","6","6","6","4","1","6","5","1","5","4","5","6","5","6","6","4","2","6","6","4","6","6","5","6","6","4","7","7","7","5","7","4","2","6","6","6","4","6","783441385641742337","陈","141","Female","[""坏她"",""坏我"",""好她"",""好我""]","[""弱她"",""弱我"",""强她"",""强我""]","","","","","","","","no","","","","","","","","","SRET","EW_formal","","key","f","16.698878787878627","720","446","自己","昏庸","Negative","ability","","","","","","","","","","",""
"1062","","j","psychophysics","55","201163","0.0-7.0-3.0-0.41","6","6","6","6","6","4","2","4","4","4","4","1","1","1","1","1","1","1","1","5","5","5","5","5","3","4","4","4","4","7","8","8","8","8","7","8","8","9","7","6","4","6","6","6","4","1","6","5","1","5","4","5","6","5","6","6","4","2","6","6","4","6","6","5","6","6","4","7","7","7","5","7","4","2","6","6","6","4","6","783441385641742337","陈","141","Female","[""坏她"",""坏我"",""好她"",""好我""]","[""弱她"",""弱我"",""强她"",""强我""]","","","","","","","","yes","","","","","","","","","SRET","EW_formal","","key","j","16.69977235772346","720","446","自己","聪明","Positive","ability","","","","","","","","","","",""
"1247","","j","psychophysics","56","203411","0.0-7.0-3.0-0.42","6","6","6","6","6","4","2","4","4","4","4","1","1","1","1","1","1","1","1","5","5","5","5","5","3","4","4","4","4","7","8","8","8","8","7","8","8","9","7","6","4","6","6","6","4","1","6","5","1","5","4","5","6","5","6","6","4","2","6","6","4","6","6","5","6","6","4","7","7","7","5","7","4","2","6","6","6","4","6","783441385641742337","陈","141","Female","[""坏她"",""坏我"",""好她"",""好我""]","[""弱她"",""弱我"",""强她"",""强我""]","","","","","","","","yes","","","","","","","","","SRET","EW_formal","","key","j","16.699097744360763","720","446","朋友","廉明","Positive","morality","","","","","","","","","","",""
"1030","","f","psychophysics","57","205443","0.0-7.0-3.0-0.43","6","6","6","6","6","4","2","4","4","4","4","1","1","1","1","1","1","1","1","5","5","5","5","5","3","4","4","4","4","7","8","8","8","8","7","8","8","9","7","6","4","6","6","6","4","1","6","5","1","5","4","5","6","5","6","6","4","2","6","6","4","6","6","5","6","6","4","7","7","7","5","7","4","2","6","6","6","4","6","783441385641742337","陈","141","Female","[""坏她"",""坏我"",""好她"",""好我""]","[""弱她"",""弱我"",""强她"",""强我""]","","","","","","","","no","","","","","","","","","SRET","EW_formal","","key","f","16.699884297520793","720","446","朋友","逞强","Negative","ability","","","","","","","","","","",""
"1254","","j","psychophysics","58","207700","0.0-7.0-3.0-0.44","6","6","6","6","6","4","2","4","4","4","4","1","1","1","1","1","1","1","1","5","5","5","5","5","3","4","4","4","4","7","8","8","8","8","7","8","8","9","7","6","4","6","6","6","4","1","6","5","1","5","4","5","6","5","6","6","4","2","6","6","4","6","6","5","6","6","4","7","7","7","5","7","4","2","6","6","6","4","6","783441385641742337","陈","141","Female","[""坏她"",""坏我"",""好她"",""好我""]","[""弱她"",""弱我"",""强她"",""强我""]","","","","","","","","yes","","","","","","","","","SRET","EW_formal","","key","j","16.698597014925326","720","446","朋友","敏捷","Positive","ability","","","","","","","","","","",""
"1071","","f","psychophysics","59","209772","0.0-7.0-3.0-0.45","6","6","6","6","6","4","2","4","4","4","4","1","1","1","1","1","1","1","1","5","5","5","5","5","3","4","4","4","4","7","8","8","8","8","7","8","8","9","7","6","4","6","6","6","4","1","6","5","1","5","4","5","6","5","6","6","4","2","6","6","4","6","6","5","6","6","4","7","7","7","5","7","4","2","6","6","6","4","6","783441385641742337","陈","141","Female","[""坏她"",""坏我"",""好她"",""好我""]","[""弱她"",""弱我"",""强她"",""强我""]","","","","","","","","no","","","","","","","","","SRET","EW_formal","","key","f","16.69983739837388","720","446","自己","独断","Negative","ability","","","","","","","","","","",""
"1358","","f","psychophysics","60","212132","0.0-7.0-3.0-0.46","6","6","6","6","6","4","2","4","4","4","4","1","1","1","1","1","1","1","1","5","5","5","5","5","3","4","4","4","4","7","8","8","8","8","7","8","8","9","7","6","4","6","6","6","4","1","6","5","1","5","4","5","6","5","6","6","4","2","6","6","4","6","6","5","6","6","4","7","7","7","5","7","4","2","6","6","6","4","6","783441385641742337","陈","141","Female","[""坏她"",""坏我"",""好她"",""好我""]","[""弱她"",""弱我"",""强她"",""强我""]","","","","","","","","no","","","","","","","","","SRET","EW_formal","","key","f","16.69972857142857","720","446","朋友","黑心","Negative","morality","","","","","","","","","","",""
"1110","","f","psychophysics","61","214244","0.0-7.0-3.0-0.47","6","6","6","6","6","4","2","4","4","4","4","1","1","1","1","1","1","1","1","5","5","5","5","5","3","4","4","4","4","7","8","8","8","8","7","8","8","9","7","6","4","6","6","6","4","1","6","5","1","5","4","5","6","5","6","6","4","2","6","6","4","6","6","5","6","6","4","7","7","7","5","7","4","2","6","6","6","4","6","783441385641742337","陈","141","Female","[""坏她"",""坏我"",""好她"",""好我""]","[""弱她"",""弱我"",""强她"",""强我""]","","","","","","","","no","","","","","","","","","SRET","EW_formal","","key","f","16.700047619047663","720","446","朋友","邪恶","Negative","morality","","","","","","","","","","",""
"1135","","f","psychophysics","62","216380","0.0-7.0-3.0-0.48","6","6","6","6","6","4","2","4","4","4","4","1","1","1","1","1","1","1","1","5","5","5","5","5","3","4","4","4","4","7","8","8","8","8","7","8","8","9","7","6","4","6","6","6","4","1","6","5","1","5","4","5","6","5","6","6","4","2","6","6","4","6","6","5","6","6","4","7","7","7","5","7","4","2","6","6","6","4","6","783441385641742337","陈","141","Female","[""坏她"",""坏我"",""好她"",""好我""]","[""弱她"",""弱我"",""强她"",""强我""]","","","","","","","","no","","","","","","","","","SRET","EW_formal","","key","f","16.6999212598424","720","446","朋友","狡诈","Negative","morality","","","","","","","","","","",""
"1246","","j","psychophysics","63","218628","0.0-7.0-3.0-0.49","6","6","6","6","6","4","2","4","4","4","4","1","1","1","1","1","1","1","1","5","5","5","5","5","3","4","4","4","4","7","8","8","8","8","7","8","8","9","7","6","4","6","6","6","4","1","6","5","1","5","4","5","6","5","6","6","4","2","6","6","4","6","6","5","6","6","4","7","7","7","5","7","4","2","6","6","6","4","6","783441385641742337","陈","141","Female","[""坏她"",""坏我"",""好她"",""好我""]","[""弱她"",""弱我"",""强她"",""强我""]","","","","","","","","yes","","","","","","","","","SRET","EW_formal","","key","j","16.698526315789547","720","446","自己","废物","Negative","ability","","","","","","","","","","",""
"1014","","j","psychophysics","64","220645","0.0-7.0-3.0-0.50","6","6","6","6","6","4","2","4","4","4","4","1","1","1","1","1","1","1","1","5","5","5","5","5","3","4","4","4","4","7","8","8","8","8","7","8","8","9","7","6","4","6","6","6","4","1","6","5","1","5","4","5","6","5","6","6","4","2","6","6","4","6","6","5","6","6","4","7","7","7","5","7","4","2","6","6","6","4","6","783441385641742337","陈","141","Female","[""坏她"",""坏我"",""好她"",""好我""]","[""弱她"",""弱我"",""强她"",""强我""]","","","","","","","","yes","","","","","","","","","SRET","EW_formal","","key","j","16.70039166666684","720","446","自己","宽容","Positive","morality","","","","","","","","","","",""
"1552","","f","psychophysics","65","223198","0.0-7.0-3.0-0.51","6","6","6","6","6","4","2","4","4","4","4","1","1","1","1","1","1","1","1","5","5","5","5","5","3","4","4","4","4","7","8","8","8","8","7","8","8","9","7","6","4","6","6","6","4","1","6","5","1","5","4","5","6","5","6","6","4","2","6","6","4","6","6","5","6","6","4","7","7","7","5","7","4","2","6","6","6","4","6","783441385641742337","陈","141","Female","[""坏她"",""坏我"",""好她"",""好我""]","[""弱她"",""弱我"",""强她"",""强我""]","","","","","","","","no","","","","","","","","","SRET","EW_formal","","key","f","16.69934210526308","720","446","朋友","背叛","Negative","morality","","","","","","","","","","",""
"1558","","f","psychophysics","66","225757","0.0-7.0-3.0-0.52","6","6","6","6","6","4","2","4","4","4","4","1","1","1","1","1","1","1","1","5","5","5","5","5","3","4","4","4","4","7","8","8","8","8","7","8","8","9","7","6","4","6","6","6","4","1","6","5","1","5","4","5","6","5","6","6","4","2","6","6","4","6","6","5","6","6","4","7","7","7","5","7","4","2","6","6","6","4","6","783441385641742337","陈","141","Female","[""坏她"",""坏我"",""好她"",""好我""]","[""弱她"",""弱我"",""强她"",""强我""]","","","","","","","","no","","","","","","","","","SRET","EW_formal","","key","f","16.700019736842048","720","446","自己","拜金","Negative","morality","","","","","","","","","","",""
"774","","f","psychophysics","67","227533","0.0-7.0-3.0-0.53","6","6","6","6","6","4","2","4","4","4","4","1","1","1","1","1","1","1","1","5","5","5","5","5","3","4","4","4","4","7","8","8","8","8","7","8","8","9","7","6","4","6","6","6","4","1","6","5","1","5","4","5","6","5","6","6","4","2","6","6","4","6","6","5","6","6","4","7","7","7","5","7","4","2","6","6","6","4","6","783441385641742337","陈","141","Female","[""坏她"",""坏我"",""好她"",""好我""]","[""弱她"",""弱我"",""强她"",""强我""]","","","","","","","","no","","","","","","","","","SRET","EW_formal","","key","f","16.70016037735853","720","446","朋友","罪恶","Negative","morality","","","","","","","","","","",""
"1055","","f","psychophysics","68","229590","0.0-7.0-3.0-0.54","6","6","6","6","6","4","2","4","4","4","4","1","1","1","1","1","1","1","1","5","5","5","5","5","3","4","4","4","4","7","8","8","8","8","7","8","8","9","7","6","4","6","6","6","4","1","6","5","1","5","4","5","6","5","6","6","4","2","6","6","4","6","6","5","6","6","4","7","7","7","5","7","4","2","6","6","6","4","6","783441385641742337","陈","141","Female","[""坏她"",""坏我"",""好她"",""好我""]","[""弱她"",""弱我"",""强她"",""强我""]","","","","","","","","no","","","","","","","","","SRET","EW_formal","","key","f","16.698918032786974","720","446","自己","奸险","Negative","morality","","","","","","","","","","",""
"991","","f","psychophysics","69","231582","0.0-7.0-3.0-0.55","6","6","6","6","6","4","2","4","4","4","4","1","1","1","1","1","1","1","1","5","5","5","5","5","3","4","4","4","4","7","8","8","8","8","7","8","8","9","7","6","4","6","6","6","4","1","6","5","1","5","4","5","6","5","6","6","4","2","6","6","4","6","6","5","6","6","4","7","7","7","5","7","4","2","6","6","6","4","6","783441385641742337","陈","141","Female","[""坏她"",""坏我"",""好她"",""好我""]","[""弱她"",""弱我"",""强她"",""强我""]","","","","","","","","no","","","","","","","","","SRET","EW_formal","","key","f","16.69977118644071","720","446","朋友","拙笨","Negative","ability","","","","","","","","","","",""
"1127","","j","psychophysics","70","233710","0.0-7.0-3.0-0.56","6","6","6","6","6","4","2","4","4","4","4","1","1","1","1","1","1","1","1","5","5","5","5","5","3","4","4","4","4","7","8","8","8","8","7","8","8","9","7","6","4","6","6","6","4","1","6","5","1","5","4","5","6","5","6","6","4","2","6","6","4","6","6","5","6","6","4","7","7","7","5","7","4","2","6","6","6","4","6","783441385641742337","陈","141","Female","[""坏她"",""坏我"",""好她"",""好我""]","[""弱她"",""弱我"",""强她"",""强我""]","","","","","","","","yes","","","","","","","","","SRET","EW_formal","","key","j","16.69982677165352","720","446","自己","干练","Positive","ability","","","","","","","","","","",""
"1077","","j","psychophysics","71","235790","0.0-7.0-3.0-0.57","6","6","6","6","6","4","2","4","4","4","4","1","1","1","1","1","1","1","1","5","5","5","5","5","3","4","4","4","4","7","8","8","8","8","7","8","8","9","7","6","4","6","6","6","4","1","6","5","1","5","4","5","6","5","6","6","4","2","6","6","4","6","6","5","6","6","4","7","7","7","5","7","4","2","6","6","6","4","6","783441385641742337","陈","141","Female","[""坏她"",""坏我"",""好她"",""好我""]","[""弱她"",""弱我"",""强她"",""强我""]","","","","","","","","yes","","","","","","","","","SRET","EW_formal","","key","j","16.699154471544826","720","446","朋友","肯干","Positive","ability","","","","","","","","","","",""
"1111","","j","psychophysics","72","237902","0.0-7.0-3.0-0.58","6","6","6","6","6","4","2","4","4","4","4","1","1","1","1","1","1","1","1","5","5","5","5","5","3","4","4","4","4","7","8","8","8","8","7","8","8","9","7","6","4","6","6","6","4","1","6","5","1","5","4","5","6","5","6","6","4","2","6","6","4","6","6","5","6","6","4","7","7","7","5","7","4","2","6","6","6","4","6","783441385641742337","陈","141","Female","[""坏她"",""坏我"",""好她"",""好我""]","[""弱她"",""弱我"",""强她"",""强我""]","","","","","","","","yes","","","","","","","","","SRET","EW_formal","","key","j","16.69846825396812","720","446","朋友","思辨","Positive","ability","","","","","","","","","","",""
"1038","","j","psychophysics","73","239943","0.0-7.0-3.0-0.59","6","6","6","6","6","4","2","4","4","4","4","1","1","1","1","1","1","1","1","5","5","5","5","5","3","4","4","4","4","7","8","8","8","8","7","8","8","9","7","6","4","6","6","6","4","1","6","5","1","5","4","5","6","5","6","6","4","2","6","6","4","6","6","5","6","6","4","7","7","7","5","7","4","2","6","6","6","4","6","783441385641742337","陈","141","Female","[""坏她"",""坏我"",""好她"",""好我""]","[""弱她"",""弱我"",""强她"",""强我""]","","","","","","","","yes","","","","","","","","","SRET","EW_formal","","key","j","16.699735537190126","720","446","自己","无私","Positive","morality","","","","","","","","","","",""
"1038","","j","psychophysics","74","241983","0.0-7.0-3.0-0.60","6","6","6","6","6","4","2","4","4","4","4","1","1","1","1","1","1","1","1","5","5","5","5","5","3","4","4","4","4","7","8","8","8","8","7","8","8","9","7","6","4","6","6","6","4","1","6","5","1","5","4","5","6","5","6","6","4","2","6","6","4","6","6","5","6","6","4","7","7","7","5","7","4","2","6","6","6","4","6","783441385641742337","陈","141","Female","[""坏她"",""坏我"",""好她"",""好我""]","[""弱她"",""弱我"",""强她"",""强我""]","","","","","","","","yes","","","","","","","","","SRET","EW_formal","","key","j","16.700082644628033","720","446","朋友","忠义","Positive","morality","","","","","","","","","","",""
"871","","f","psychophysics","75","243855","0.0-7.0-3.0-0.61","6","6","6","6","6","4","2","4","4","4","4","1","1","1","1","1","1","1","1","5","5","5","5","5","3","4","4","4","4","7","8","8","8","8","7","8","8","9","7","6","4","6","6","6","4","1","6","5","1","5","4","5","6","5","6","6","4","2","6","6","4","6","6","5","6","6","4","7","7","7","5","7","4","2","6","6","6","4","6","783441385641742337","陈","141","Female","[""坏她"",""坏我"",""好她"",""好我""]","[""弱她"",""弱我"",""强她"",""强我""]","","","","","","","","no","","","","","","","","","SRET","EW_formal","","key","f","16.69966666666667","720","446","自己","龌龊","Negative","morality","","","","","","","","","","",""
"879","","j","psychophysics","76","245735","0.0-7.0-3.0-0.62","6","6","6","6","6","4","2","4","4","4","4","1","1","1","1","1","1","1","1","5","5","5","5","5","3","4","4","4","4","7","8","8","8","8","7","8","8","9","7","6","4","6","6","6","4","1","6","5","1","5","4","5","6","5","6","6","4","2","6","6","4","6","6","5","6","6","4","7","7","7","5","7","4","2","6","6","6","4","6","783441385641742337","陈","141","Female","[""坏她"",""坏我"",""好她"",""好我""]","[""弱她"",""弱我"",""强她"",""强我""]","","","","","","","","yes","","","","","","","","","SRET","EW_formal","","key","j","16.699776785714285","720","446","自己","高洁","Positive","morality","","","","","","","","","","",""
"935","","f","psychophysics","77","247672","0.0-7.0-3.0-0.63","6","6","6","6","6","4","2","4","4","4","4","1","1","1","1","1","1","1","1","5","5","5","5","5","3","4","4","4","4","7","8","8","8","8","7","8","8","9","7","6","4","6","6","6","4","1","6","5","1","5","4","5","6","5","6","6","4","2","6","6","4","6","6","5","6","6","4","7","7","7","5","7","4","2","6","6","6","4","6","783441385641742337","陈","141","Female","[""坏她"",""坏我"",""好她"",""好我""]","[""弱她"",""弱我"",""强她"",""强我""]","","","","","","","","no","","","","","","","","","SRET","EW_formal","","key","f","16.698252173913037","720","446","朋友","无为","Negative","ability","","","","","","","","","","",""
"878","","j","psychophysics","78","249552","0.0-7.0-3.0-0.64","6","6","6","6","6","4","2","4","4","4","4","1","1","1","1","1","1","1","1","5","5","5","5","5","3","4","4","4","4","7","8","8","8","8","7","8","8","9","7","6","4","6","6","6","4","1","6","5","1","5","4","5","6","5","6","6","4","2","6","6","4","6","6","5","6","6","4","7","7","7","5","7","4","2","6","6","6","4","6","783441385641742337","陈","141","Female","[""坏她"",""坏我"",""好她"",""好我""]","[""弱她"",""弱我"",""强她"",""强我""]","","","","","","","","yes","","","","","","","","","SRET","EW_formal","","key","j","16.698450450450633","720","446","自己","勤奋","Positive","ability","","","","","","","","","","",""
"1055","","f","psychophysics","79","251608","0.0-7.0-3.0-0.65","6","6","6","6","6","4","2","4","4","4","4","1","1","1","1","1","1","1","1","5","5","5","5","5","3","4","4","4","4","7","8","8","8","8","7","8","8","9","7","6","4","6","6","6","4","1","6","5","1","5","4","5","6","5","6","6","4","2","6","6","4","6","6","5","6","6","4","7","7","7","5","7","4","2","6","6","6","4","6","783441385641742337","陈","141","Female","[""坏她"",""坏我"",""好她"",""好我""]","[""弱她"",""弱我"",""强她"",""强我""]","","","","","","","","no","","","","","","","","","SRET","EW_formal","","key","f","16.700180327868782","720","446","自己","盲目","Negative","ability","","","","","","","","","","",""
"959","","j","psychophysics","80","253568","0.0-7.0-3.0-0.66","6","6","6","6","6","4","2","4","4","4","4","1","1","1","1","1","1","1","1","5","5","5","5","5","3","4","4","4","4","7","8","8","8","8","7","8","8","9","7","6","4","6","6","6","4","1","6","5","1","5","4","5","6","5","6","6","4","2","6","6","4","6","6","5","6","6","4","7","7","7","5","7","4","2","6","6","6","4","6","783441385641742337","陈","141","Female","[""坏她"",""坏我"",""好她"",""好我""]","[""弱她"",""弱我"",""强她"",""强我""]","","","","","","","","yes","","","","","","","","","SRET","EW_formal","","key","j","16.697820512820424","720","446","朋友","正气","Positive","morality","","","","","","","","","","",""
"1143","","f","psychophysics","81","255712","0.0-7.0-3.0-0.67","6","6","6","6","6","4","2","4","4","4","4","1","1","1","1","1","1","1","1","5","5","5","5","5","3","4","4","4","4","7","8","8","8","8","7","8","8","9","7","6","4","6","6","6","4","1","6","5","1","5","4","5","6","5","6","6","4","2","6","6","4","6","6","5","6","6","4","7","7","7","5","7","4","2","6","6","6","4","6","783441385641742337","陈","141","Female","[""坏她"",""坏我"",""好她"",""好我""]","[""弱她"",""弱我"",""强她"",""强我""]","","","","","","","","no","","","","","","","","","SRET","EW_formal","","key","f","16.699787401574742","720","446","朋友","窝囊","Negative","ability","","","","","","","","","","",""
"1398","","f","psychophysics","82","258112","0.0-7.0-3.0-0.68","6","6","6","6","6","4","2","4","4","4","4","1","1","1","1","1","1","1","1","5","5","5","5","5","3","4","4","4","4","7","8","8","8","8","7","8","8","9","7","6","4","6","6","6","4","1","6","5","1","5","4","5","6","5","6","6","4","2","6","6","4","6","6","5","6","6","4","7","7","7","5","7","4","2","6","6","6","4","6","783441385641742337","陈","141","Female","[""坏她"",""坏我"",""好她"",""好我""]","[""弱她"",""弱我"",""强她"",""强我""]","","","","","","","","no","","","","","","","","","SRET","EW_formal","","key","f","16.69979720279718","720","446","自己","刻薄","Negative","morality","","","","","","","","","","",""
"1318","","j","psychophysics","83","260433","0.0-7.0-3.0-0.69","6","6","6","6","6","4","2","4","4","4","4","1","1","1","1","1","1","1","1","5","5","5","5","5","3","4","4","4","4","7","8","8","8","8","7","8","8","9","7","6","4","6","6","6","4","1","6","5","1","5","4","5","6","5","6","6","4","2","6","6","4","6","6","5","6","6","4","7","7","7","5","7","4","2","6","6","6","4","6","783441385641742337","陈","141","Female","[""坏她"",""坏我"",""好她"",""好我""]","[""弱她"",""弱我"",""强她"",""强我""]","","","","","","","","yes","","","","","","","","","SRET","EW_formal","","key","j","16.699666666666694","720","446","朋友","外行","Negative","ability","","","","","","","","","","",""
"974","","f","psychophysics","84","262409","0.0-7.0-3.0-0.70","6","6","6","6","6","4","2","4","4","4","4","1","1","1","1","1","1","1","1","5","5","5","5","5","3","4","4","4","4","7","8","8","8","8","7","8","8","9","7","6","4","6","6","6","4","1","6","5","1","5","4","5","6","5","6","6","4","2","6","6","4","6","6","5","6","6","4","7","7","7","5","7","4","2","6","6","6","4","6","783441385641742337","陈","141","Female","[""坏她"",""坏我"",""好她"",""好我""]","[""弱她"",""弱我"",""强她"",""强我""]","","","","","","","","no","","","","","","","","","SRET","EW_formal","","key","f","16.69970940170923","720","446","自己","不孝","Negative","morality","","","","","","","","","","",""
"1230","","f","psychophysics","85","264641","0.0-7.0-3.0-0.71","6","6","6","6","6","4","2","4","4","4","4","1","1","1","1","1","1","1","1","5","5","5","5","5","3","4","4","4","4","7","8","8","8","8","7","8","8","9","7","6","4","6","6","6","4","1","6","5","1","5","4","5","6","5","6","6","4","2","6","6","4","6","6","5","6","6","4","7","7","7","5","7","4","2","6","6","6","4","6","783441385641742337","陈","141","Female","[""坏她"",""坏我"",""好她"",""好我""]","[""弱她"",""弱我"",""强她"",""强我""]","","","","","","","","no","","","","","","","","","SRET","EW_formal","","key","f","16.698751879698875","720","446","自己","拖拉","Negative","ability","","","","","","","","","","",""
"1518","","f","psychophysics","86","267161","0.0-7.0-3.0-0.72","6","6","6","6","6","4","2","4","4","4","4","1","1","1","1","1","1","1","1","5","5","5","5","5","3","4","4","4","4","7","8","8","8","8","7","8","8","9","7","6","4","6","6","6","4","1","6","5","1","5","4","5","6","5","6","6","4","2","6","6","4","6","6","5","6","6","4","7","7","7","5","7","4","2","6","6","6","4","6","783441385641742337","陈","141","Female","[""坏她"",""坏我"",""好她"",""好我""]","[""弱她"",""弱我"",""强她"",""强我""]","","","","","","","","no","","","","","","","","","SRET","EW_formal","","key","f","16.699473333333152","720","446","朋友","怠惰","Negative","ability","","","","","","","","","","",""
"1151","","f","psychophysics","87","269314","0.0-7.0-3.0-0.73","6","6","6","6","6","4","2","4","4","4","4","1","1","1","1","1","1","1","1","5","5","5","5","5","3","4","4","4","4","7","8","8","8","8","7","8","8","9","7","6","4","6","6","6","4","1","6","5","1","5","4","5","6","5","6","6","4","2","6","6","4","6","6","5","6","6","4","7","7","7","5","7","4","2","6","6","6","4","6","783441385641742337","陈","141","Female","[""坏她"",""坏我"",""好她"",""好我""]","[""弱她"",""弱我"",""强她"",""强我""]","","","","","","","","no","","","","","","","","","SRET","EW_formal","","key","f","16.69997656250007","720","446","自己","低劣","Negative","morality","","","","","","","","","","",""
"1063","","f","psychophysics","88","271378","0.0-7.0-3.0-0.74","6","6","6","6","6","4","2","4","4","4","4","1","1","1","1","1","1","1","1","5","5","5","5","5","3","4","4","4","4","7","8","8","8","8","7","8","8","9","7","6","4","6","6","6","4","1","6","5","1","5","4","5","6","5","6","6","4","2","6","6","4","6","6","5","6","6","4","7","7","7","5","7","4","2","6","6","6","4","6","783441385641742337","陈","141","Female","[""坏她"",""坏我"",""好她"",""好我""]","[""弱她"",""弱我"",""强她"",""强我""]","","","","","","","","no","","","","","","","","","SRET","EW_formal","","key","f","16.699877049180404","720","446","朋友","虚伪","Negative","morality","","","","","","","","","","",""
"1039","","f","psychophysics","89","273418","0.0-7.0-3.0-0.75","6","6","6","6","6","4","2","4","4","4","4","1","1","1","1","1","1","1","1","5","5","5","5","5","3","4","4","4","4","7","8","8","8","8","7","8","8","9","7","6","4","6","6","6","4","1","6","5","1","5","4","5","6","5","6","6","4","2","6","6","4","6","6","5","6","6","4","7","7","7","5","7","4","2","6","6","6","4","6","783441385641742337","陈","141","Female","[""坏她"",""坏我"",""好她"",""好我""]","[""弱她"",""弱我"",""强她"",""强我""]","","","","","","","","no","","","","","","","","","SRET","EW_formal","","key","f","16.699743801652847","720","446","自己","有力","Positive","ability","","","","","","","","","","",""
"958","","j","psychophysics","90","275378","0.0-7.0-3.0-0.76","6","6","6","6","6","4","2","4","4","4","4","1","1","1","1","1","1","1","1","5","5","5","5","5","3","4","4","4","4","7","8","8","8","8","7","8","8","9","7","6","4","6","6","6","4","1","6","5","1","5","4","5","6","5","6","6","4","2","6","6","4","6","6","5","6","6","4","7","7","7","5","7","4","2","6","6","6","4","6","783441385641742337","陈","141","Female","[""坏她"",""坏我"",""好她"",""好我""]","[""弱她"",""弱我"",""强她"",""强我""]","","","","","","","","yes","","","","","","","","","SRET","EW_formal","","key","j","16.699820512820644","720","446","朋友","守信","Positive","morality","","","","","","","","","","",""
"902","","j","psychophysics","91","277282","0.0-7.0-3.0-0.77","6","6","6","6","6","4","2","4","4","4","4","1","1","1","1","1","1","1","1","5","5","5","5","5","3","4","4","4","4","7","8","8","8","8","7","8","8","9","7","6","4","6","6","6","4","1","6","5","1","5","4","5","6","5","6","6","4","2","6","6","4","6","6","5","6","6","4","7","7","7","5","7","4","2","6","6","6","4","6","783441385641742337","陈","141","Female","[""坏她"",""坏我"",""好她"",""好我""]","[""弱她"",""弱我"",""强她"",""强我""]","","","","","","","","yes","","","","","","","","","SRET","EW_formal","","key","j","16.69915044247801","720","446","朋友","坚持","Positive","ability","","","","","","","","","","",""
"998","","f","psychophysics","92","279282","0.0-7.0-3.0-0.78","6","6","6","6","6","4","2","4","4","4","4","1","1","1","1","1","1","1","1","5","5","5","5","5","3","4","4","4","4","7","8","8","8","8","7","8","8","9","7","6","4","6","6","6","4","1","6","5","1","5","4","5","6","5","6","6","4","2","6","6","4","6","6","5","6","6","4","7","7","7","5","7","4","2","6","6","6","4","6","783441385641742337","陈","141","Female","[""坏她"",""坏我"",""好她"",""好我""]","[""弱她"",""弱我"",""强她"",""强我""]","","","","","","","","no","","","","","","","","","SRET","EW_formal","","key","f","16.699983193277394","720","446","自己","蛇蝎","Negative","morality","","","","","","","","","","",""
"1167","","j","psychophysics","93","281451","0.0-7.0-3.0-0.79","6","6","6","6","6","4","2","4","4","4","4","1","1","1","1","1","1","1","1","5","5","5","5","5","3","4","4","4","4","7","8","8","8","8","7","8","8","9","7","6","4","6","6","6","4","1","6","5","1","5","4","5","6","5","6","6","4","2","6","6","4","6","6","5","6","6","4","7","7","7","5","7","4","2","6","6","6","4","6","783441385641742337","陈","141","Female","[""坏她"",""坏我"",""好她"",""好我""]","[""弱她"",""弱我"",""强她"",""强我""]","","","","","","","","yes","","","","","","","","","SRET","EW_formal","","key","j","16.69827131782938","720","446","自己","细心","Positive","ability","","","","","","","","","","",""
"735","","j","psychophysics","94","283187","0.0-7.0-3.0-0.80","6","6","6","6","6","4","2","4","4","4","4","1","1","1","1","1","1","1","1","5","5","5","5","5","3","4","4","4","4","7","8","8","8","8","7","8","8","9","7","6","4","6","6","6","4","1","6","5","1","5","4","5","6","5","6","6","4","2","6","6","4","6","6","5","6","6","4","7","7","7","5","7","4","2","6","6","6","4","6","783441385641742337","陈","141","Female","[""坏她"",""坏我"",""好她"",""好我""]","[""弱她"",""弱我"",""强她"",""强我""]","","","","","","","","yes","","","","","","","","","SRET","EW_formal","","key","j","16.698215686274445","720","446","自己","努力","Positive","ability","","","","","","","","","","",""
"1038","","j","psychophysics","95","285227","0.0-7.0-3.0-0.81","6","6","6","6","6","4","2","4","4","4","4","1","1","1","1","1","1","1","1","5","5","5","5","5","3","4","4","4","4","7","8","8","8","8","7","8","8","9","7","6","4","6","6","6","4","1","6","5","1","5","4","5","6","5","6","6","4","2","6","6","4","6","6","5","6","6","4","7","7","7","5","7","4","2","6","6","6","4","6","783441385641742337","陈","141","Female","[""坏她"",""坏我"",""好她"",""好我""]","[""弱她"",""弱我"",""强她"",""强我""]","","","","","","","","yes","","","","","","","","","SRET","EW_formal","","key","j","16.700319672130778","720","446","朋友","厚道","Positive","morality","","","","","","","","","","",""
"1167","","f","psychophysics","96","287395","0.0-7.0-3.0-0.82","6","6","6","6","6","4","2","4","4","4","4","1","1","1","1","1","1","1","1","5","5","5","5","5","3","4","4","4","4","7","8","8","8","8","7","8","8","9","7","6","4","6","6","6","4","1","6","5","1","5","4","5","6","5","6","6","4","2","6","6","4","6","6","5","6","6","4","7","7","7","5","7","4","2","6","6","6","4","6","783441385641742337","陈","141","Female","[""坏她"",""坏我"",""好她"",""好我""]","[""弱她"",""弱我"",""强她"",""强我""]","","","","","","","","no","","","","","","","","","SRET","EW_formal","","key","f","16.69869531250015","720","446","朋友","卑鄙","Negative","morality","","","","","","","","","","",""
"862","","j","psychophysics","97","289259","0.0-7.0-3.0-0.83","6","6","6","6","6","4","2","4","4","4","4","1","1","1","1","1","1","1","1","5","5","5","5","5","3","4","4","4","4","7","8","8","8","8","7","8","8","9","7","6","4","6","6","6","4","1","6","5","1","5","4","5","6","5","6","6","4","2","6","6","4","6","6","5","6","6","4","7","7","7","5","7","4","2","6","6","6","4","6","783441385641742337","陈","141","Female","[""坏她"",""坏我"",""好她"",""好我""]","[""弱她"",""弱我"",""强她"",""强我""]","","","","","","","","yes","","","","","","","","","SRET","EW_formal","","key","j","16.699738738738496","720","446","自己","沉着","Positive","ability","","","","","","","","","","",""
"726","","f","psychophysics","98","290987","0.0-7.0-3.0-0.84","6","6","6","6","6","4","2","4","4","4","4","1","1","1","1","1","1","1","1","5","5","5","5","5","3","4","4","4","4","7","8","8","8","8","7","8","8","9","7","6","4","6","6","6","4","1","6","5","1","5","4","5","6","5","6","6","4","2","6","6","4","6","6","5","6","6","4","7","7","7","5","7","4","2","6","6","6","4","6","783441385641742337","陈","141","Female","[""坏她"",""坏我"",""好她"",""好我""]","[""弱她"",""弱我"",""强她"",""强我""]","","","","","","","","no","","","","","","","","","SRET","EW_formal","","key","f","16.70004854368914","720","446","朋友","低俗","Negative","morality","","","","","","","","","","",""
"1474","","f","psychophysics","99","293468","0.0-7.0-3.0-0.85","6","6","6","6","6","4","2","4","4","4","4","1","1","1","1","1","1","1","1","5","5","5","5","5","3","4","4","4","4","7","8","8","8","8","7","8","8","9","7","6","4","6","6","6","4","1","6","5","1","5","4","5","6","5","6","6","4","2","6","6","4","6","6","5","6","6","4","7","7","7","5","7","4","2","6","6","6","4","6","783441385641742337","陈","141","Female","[""坏她"",""坏我"",""好她"",""好我""]","[""弱她"",""弱我"",""强她"",""强我""]","","","","","","","","no","","","","","","","","","SRET","EW_formal","","key","f","16.698768707482877","720","446","自己","缓慢","Negative","ability","","","","","","","","","","",""
"1134","","j","psychophysics","100","295604","0.0-7.0-3.0-0.86","6","6","6","6","6","4","2","4","4","4","4","1","1","1","1","1","1","1","1","5","5","5","5","5","3","4","4","4","4","7","8","8","8","8","7","8","8","9","7","6","4","6","6","6","4","1","6","5","1","5","4","5","6","5","6","6","4","2","6","6","4","6","6","5","6","6","4","7","7","7","5","7","4","2","6","6","6","4","6","783441385641742337","陈","141","Female","[""坏她"",""坏我"",""好她"",""好我""]","[""弱她"",""弱我"",""强她"",""强我""]","","","","","","","","yes","","","","","","","","","SRET","EW_formal","","key","j","16.699787401574973","720","446","自己","主见","Positive","ability","","","","","","","","","","",""
"1102","","j","psychophysics","101","297708","0.0-7.0-3.0-0.87","6","6","6","6","6","4","2","4","4","4","4","1","1","1","1","1","1","1","1","5","5","5","5","5","3","4","4","4","4","7","8","8","8","8","7","8","8","9","7","6","4","6","6","6","4","1","6","5","1","5","4","5","6","5","6","6","4","2","6","6","4","6","6","5","6","6","4","7","7","7","5","7","4","2","6","6","6","4","6","783441385641742337","陈","141","Female","[""坏她"",""坏我"",""好她"",""好我""]","[""弱她"",""弱我"",""强她"",""强我""]","","","","","","","","yes","","","","","","","","","SRET","EW_formal","","key","j","16.698768000000157","720","446","朋友","素养","Positive","morality","","","","","","","","","","",""
"4309","
    <p><div style='color:white;font-size:35px; line-height:20px;'>计算任务</div></p><br>
    <p><div style='color:red;font-size:25px; line-height:20px;'>接下来，您将看到一些四则运算题，<b>请从键盘选择 0-9 进行反应。</b></div></p>
    <p><div style='color:red;font-size:25px; line-height:20px;'>请尽可能快地进行计算，计算的速度和正确率将影响报酬的发放。</div></p>
    <p><div class='footer' style='color:white;font-size:25px; line-height:20px;'>如果对本实验还有不清楚之处，请立即向实验员咨询。</p><p style='color:white;font-size:25px; line-height:20px;'>如果您明白了规则：</p><p style='color:white;font-size:22px; line-height:20px;'>请按 继续 进入练习</p>
    </div>
    ","0","html-button-response","102","302018","0.0-7.0-4.0","6","6","6","6","6","4","2","4","4","4","4","1","1","1","1","1","1","1","1","5","5","5","5","5","3","4","4","4","4","7","8","8","8","8","7","8","8","9","7","6","4","6","6","6","4","1","6","5","1","5","4","5","6","5","6","6","4","2","6","6","4","6","6","5","6","6","4","7","7","7","5","7","4","2","6","6","6","4","6","783441385641742337","陈","141","Female","[""坏她"",""坏我"",""好她"",""好我""]","[""弱她"",""弱我"",""强她"",""强我""]","","","","","","","","","","","","","","","","","SRET_math","math_instructions","Fri Jan 19 2024 11:57:28 GMT+0800 (中国标准时间)","","","","","","","","","","","","","","","","","","","",""
"4430","","1","psychophysics","103","306453","0.0-7.0-5.0-0.0","6","6","6","6","6","4","2","4","4","4","4","1","1","1","1","1","1","1","1","5","5","5","5","5","3","4","4","4","4","7","8","8","8","8","7","8","8","9","7","6","4","6","6","6","4","1","6","5","1","5","4","5","6","5","6","6","4","2","6","6","4","6","6","5","6","6","4","7","7","7","5","7","4","2","6","6","6","4","6","783441385641742337","陈","141","Female","[""坏她"",""坏我"",""好她"",""好我""]","[""弱她"",""弱我"",""强她"",""强我""]","","","","","","","","1","","","","","","","","","SRET","SRET_math_calculate","","key","1","16.69875939849622","720","446","","","","","22/11= ?","2","0","","","","","","","",""
"4150","","3","psychophysics","104","310606","0.0-7.0-5.0-0.1","6","6","6","6","6","4","2","4","4","4","4","1","1","1","1","1","1","1","1","5","5","5","5","5","3","4","4","4","4","7","8","8","8","8","7","8","8","9","7","6","4","6","6","6","4","1","6","5","1","5","4","5","6","5","6","6","4","2","6","6","4","6","6","5","6","6","4","7","7","7","5","7","4","2","6","6","6","4","6","783441385641742337","陈","141","Female","[""坏她"",""坏我"",""好她"",""好我""]","[""弱她"",""弱我"",""强她"",""强我""]","","","","","","","","3","","","","","","","","","SRET","SRET_math_calculate","","key","3","16.698825910931117","720","446","","","","","9-6= ?","3","1","","","","","","","",""
"2261","","5","psychophysics","105","312869","0.0-7.0-5.0-0.2","6","6","6","6","6","4","2","4","4","4","4","1","1","1","1","1","1","1","1","5","5","5","5","5","3","4","4","4","4","7","8","8","8","8","7","8","8","9","7","6","4","6","6","6","4","1","6","5","1","5","4","5","6","5","6","6","4","2","6","6","4","6","6","5","6","6","4","7","7","7","5","7","4","2","6","6","6","4","6","783441385641742337","陈","141","Female","[""坏她"",""坏我"",""好她"",""好我""]","[""弱她"",""弱我"",""强她"",""强我""]","","","","","","","","5","","","","","","","","","SRET","SRET_math_calculate","","key","5","16.699237037037015","720","446","","","","","15-10= ?","5","1","","","","","","","",""
"2078","","3","psychophysics","106","314950","0.0-7.0-5.0-0.3","6","6","6","6","6","4","2","4","4","4","4","1","1","1","1","1","1","1","1","5","5","5","5","5","3","4","4","4","4","7","8","8","8","8","7","8","8","9","7","6","4","6","6","6","4","1","6","5","1","5","4","5","6","5","6","6","4","2","6","6","4","6","6","5","6","6","4","7","7","7","5","7","4","2","6","6","6","4","6","783441385641742337","陈","141","Female","[""坏她"",""坏我"",""好她"",""好我""]","[""弱她"",""弱我"",""强她"",""强我""]","","","","","","","","3","","","","","","","","","SRET","SRET_math_calculate","","key","3","16.69899999999982","720","446","","","","","2+1= ?","3","1","","","","","","","",""
"2151","","0","psychophysics","107","317102","0.0-7.0-5.0-0.4","6","6","6","6","6","4","2","4","4","4","4","1","1","1","1","1","1","1","1","5","5","5","5","5","3","4","4","4","4","7","8","8","8","8","7","8","8","9","7","6","4","6","6","6","4","1","6","5","1","5","4","5","6","5","6","6","4","2","6","6","4","6","6","5","6","6","4","7","7","7","5","7","4","2","6","6","6","4","6","783441385641742337","陈","141","Female","[""坏她"",""坏我"",""好她"",""好我""]","[""弱她"",""弱我"",""强她"",""强我""]","","","","","","","","0","","","","","","","","","SRET","SRET_math_calculate","","key","0","16.698818897637796","720","446","","","","","6*0= ?","0","1","","","","","","","",""
"2317","","6","psychophysics","108","319422","0.0-7.0-5.0-0.5","6","6","6","6","6","4","2","4","4","4","4","1","1","1","1","1","1","1","1","5","5","5","5","5","3","4","4","4","4","7","8","8","8","8","7","8","8","9","7","6","4","6","6","6","4","1","6","5","1","5","4","5","6","5","6","6","4","2","6","6","4","6","6","5","6","6","4","7","7","7","5","7","4","2","6","6","6","4","6","783441385641742337","陈","141","Female","[""坏她"",""坏我"",""好她"",""好我""]","[""弱她"",""弱我"",""强她"",""强我""]","","","","","","","","6","","","","","","","","","SRET","SRET_math_calculate","","key","6","16.69994202898554","720","446","","","","","2*3= ?","6","1","","","","","","","",""
"2118","","6","psychophysics","109","321543","0.0-7.0-5.0-0.6","6","6","6","6","6","4","2","4","4","4","4","1","1","1","1","1","1","1","1","5","5","5","5","5","3","4","4","4","4","7","8","8","8","8","7","8","8","9","7","6","4","6","6","6","4","1","6","5","1","5","4","5","6","5","6","6","4","2","6","6","4","6","6","5","6","6","4","7","7","7","5","7","4","2","6","6","6","4","6","783441385641742337","陈","141","Female","[""坏她"",""坏我"",""好她"",""好我""]","[""弱她"",""弱我"",""强她"",""强我""]","","","","","","","","6","","","","","","","","","SRET","SRET_math_calculate","","key","6","16.699714285714204","720","446","","","","","3*2= ?","6","1","","","","","","","",""
"2173","","7","psychophysics","110","323719","0.0-7.0-5.0-0.7","6","6","6","6","6","4","2","4","4","4","4","1","1","1","1","1","1","1","1","5","5","5","5","5","3","4","4","4","4","7","8","8","8","8","7","8","8","9","7","6","4","6","6","6","4","1","6","5","1","5","4","5","6","5","6","6","4","2","6","6","4","6","6","5","6","6","4","7","7","7","5","7","4","2","6","6","6","4","6","783441385641742337","陈","141","Female","[""坏她"",""坏我"",""好她"",""好我""]","[""弱她"",""弱我"",""强她"",""强我""]","","","","","","","","7","","","","","","","","","SRET","SRET_math_calculate","","key","7","16.699292307692275","720","446","","","","","4+3= ?","7","1","","","","","","","",""
"2246","","8","psychophysics","111","325967","0.0-7.0-5.0-0.8","6","6","6","6","6","4","2","4","4","4","4","1","1","1","1","1","1","1","1","5","5","5","5","5","3","4","4","4","4","7","8","8","8","8","7","8","8","9","7","6","4","6","6","6","4","1","6","5","1","5","4","5","6","5","6","6","4","2","6","6","4","6","6","5","6","6","4","7","7","7","5","7","4","2","6","6","6","4","6","783441385641742337","陈","141","Female","[""坏她"",""坏我"",""好她"",""好我""]","[""弱她"",""弱我"",""强她"",""强我""]","","","","","","","","8","","","","","","","","","SRET","SRET_math_calculate","","key","8","16.69933834586501","720","446","","","","","6+2= ?","8","1","","","","","","","",""
"2510","","2","psychophysics","112","328479","0.0-7.0-5.0-0.9","6","6","6","6","6","4","2","4","4","4","4","1","1","1","1","1","1","1","1","5","5","5","5","5","3","4","4","4","4","7","8","8","8","8","7","8","8","9","7","6","4","6","6","6","4","1","6","5","1","5","4","5","6","5","6","6","4","2","6","6","4","6","6","5","6","6","4","7","7","7","5","7","4","2","6","6","6","4","6","783441385641742337","陈","141","Female","[""坏她"",""坏我"",""好她"",""好我""]","[""弱她"",""弱我"",""强她"",""强我""]","","","","","","","","2","","","","","","","","","SRET","SRET_math_calculate","","key","2","16.699759999999856","720","446","","","","","29-27= ?","2","1","","","","","","","",""
"2135","","4","psychophysics","113","330616","0.0-7.0-5.0-0.10","6","6","6","6","6","4","2","4","4","4","4","1","1","1","1","1","1","1","1","5","5","5","5","5","3","4","4","4","4","7","8","8","8","8","7","8","8","9","7","6","4","6","6","6","4","1","6","5","1","5","4","5","6","5","6","6","4","2","6","6","4","6","6","5","6","6","4","7","7","7","5","7","4","2","6","6","6","4","6","783441385641742337","陈","141","Female","[""坏她"",""坏我"",""好她"",""好我""]","[""弱她"",""弱我"",""强她"",""强我""]","","","","","","","","4","","","","","","","","","SRET","SRET_math_calculate","","key","4","16.70036220472438","720","446","","","","","2+2= ?","4","1","","","","","","","",""
"2469","","6","psychophysics","114","333088","0.0-7.0-5.0-0.11","6","6","6","6","6","4","2","4","4","4","4","1","1","1","1","1","1","1","1","5","5","5","5","5","3","4","4","4","4","7","8","8","8","8","7","8","8","9","7","6","4","6","6","6","4","1","6","5","1","5","4","5","6","5","6","6","4","2","6","6","4","6","6","5","6","6","4","7","7","7","5","7","4","2","6","6","6","4","6","783441385641742337","陈","141","Female","[""坏她"",""坏我"",""好她"",""好我""]","[""弱她"",""弱我"",""强她"",""强我""]","","","","","","","","6","","","","","","","","","SRET","SRET_math_calculate","","key","6","16.69839455782306","720","446","","","","","12/6= ?","2","0","","","","","","","",""
"2326","","0","psychophysics","115","335416","0.0-7.0-5.0-0.12","6","6","6","6","6","4","2","4","4","4","4","1","1","1","1","1","1","1","1","5","5","5","5","5","3","4","4","4","4","7","8","8","8","8","7","8","8","9","7","6","4","6","6","6","4","1","6","5","1","5","4","5","6","5","6","6","4","2","6","6","4","6","6","5","6","6","4","7","7","7","5","7","4","2","6","6","6","4","6","783441385641742337","陈","141","Female","[""坏她"",""坏我"",""好她"",""好我""]","[""弱她"",""弱我"",""强她"",""强我""]","","","","","","","","0","","","","","","","","","SRET","SRET_math_calculate","","key","0","16.699717391304254","720","446","","","","","22-22= ?","0","1","","","","","","","",""
"2454","","8","psychophysics","116","337872","0.0-7.0-5.0-0.13","6","6","6","6","6","4","2","4","4","4","4","1","1","1","1","1","1","1","1","5","5","5","5","5","3","4","4","4","4","7","8","8","8","8","7","8","8","9","7","6","4","6","6","6","4","1","6","5","1","5","4","5","6","5","6","6","4","2","6","6","4","6","6","5","6","6","4","7","7","7","5","7","4","2","6","6","6","4","6","783441385641742337","陈","141","Female","[""坏她"",""坏我"",""好她"",""好我""]","[""弱她"",""弱我"",""强她"",""强我""]","","","","","","","","8","","","","","","","","","SRET","SRET_math_calculate","","key","8","16.699541095890222","720","446","","","","","8*1= ?","8","1","","","","","","","",""
"2622","","7","psychophysics","117","340496","0.0-7.0-5.0-0.14","6","6","6","6","6","4","2","4","4","4","4","1","1","1","1","1","1","1","1","5","5","5","5","5","3","4","4","4","4","7","8","8","8","8","7","8","8","9","7","6","4","6","6","6","4","1","6","5","1","5","4","5","6","5","6","6","4","2","6","6","4","6","6","5","6","6","4","7","7","7","5","7","4","2","6","6","6","4","6","783441385641742337","陈","141","Female","[""坏她"",""坏我"",""好她"",""好我""]","[""弱她"",""弱我"",""强她"",""强我""]","","","","","","","","7","","","","","","","","","SRET","SRET_math_calculate","","key","7","16.698801282051136","720","446","","","","","12-5= ?","7","1","","","","","","","",""
"3789","","7","psychophysics","118","344289","0.0-7.0-5.0-0.15","6","6","6","6","6","4","2","4","4","4","4","1","1","1","1","1","1","1","1","5","5","5","5","5","3","4","4","4","4","7","8","8","8","8","7","8","8","9","7","6","4","6","6","6","4","1","6","5","1","5","4","5","6","5","6","6","4","2","6","6","4","6","6","5","6","6","4","7","7","7","5","7","4","2","6","6","6","4","6","783441385641742337","陈","141","Female","[""坏她"",""坏我"",""好她"",""好我""]","[""弱她"",""弱我"",""强她"",""强我""]","","","","","","","","7","","","","","","","","","SRET","SRET_math_calculate","","key","7","16.699756637168225","720","446","","","","","11-4= ?","7","1","","","","","","","",""
"4036","","8","psychophysics","119","348329","0.0-7.0-5.0-0.16","6","6","6","6","6","4","2","4","4","4","4","1","1","1","1","1","1","1","1","5","5","5","5","5","3","4","4","4","4","7","8","8","8","8","7","8","8","9","7","6","4","6","6","6","4","1","6","5","1","5","4","5","6","5","6","6","4","2","6","6","4","6","6","5","6","6","4","7","7","7","5","7","4","2","6","6","6","4","6","783441385641742337","陈","141","Female","[""坏她"",""坏我"",""好她"",""好我""]","[""弱她"",""弱我"",""强她"",""强我""]","","","","","","","","8","","","","","","","","","SRET","SRET_math_calculate","","key","8","16.698921161825737","720","446","","","","","56/7= ?","8","1","","","","","","","",""
"2212","","1","psychophysics","120","350546","0.0-7.0-5.0-0.17","6","6","6","6","6","4","2","4","4","4","4","1","1","1","1","1","1","1","1","5","5","5","5","5","3","4","4","4","4","7","8","8","8","8","7","8","8","9","7","6","4","6","6","6","4","1","6","5","1","5","4","5","6","5","6","6","4","2","6","6","4","6","6","5","6","6","4","7","7","7","5","7","4","2","6","6","6","4","6","783441385641742337","陈","141","Female","[""坏她"",""坏我"",""好她"",""好我""]","[""弱她"",""弱我"",""强她"",""强我""]","","","","","","","","1","","","","","","","","","SRET","SRET_math_calculate","","key","1","16.698522727272852","720","446","","","","","10-9= ?","1","1","","","","","","","",""
"2310","","9","psychophysics","121","352857","0.0-7.0-5.0-0.18","6","6","6","6","6","4","2","4","4","4","4","1","1","1","1","1","1","1","1","5","5","5","5","5","3","4","4","4","4","7","8","8","8","8","7","8","8","9","7","6","4","6","6","6","4","1","6","5","1","5","4","5","6","5","6","6","4","2","6","6","4","6","6","5","6","6","4","7","7","7","5","7","4","2","6","6","6","4","6","783441385641742337","陈","141","Female","[""坏她"",""坏我"",""好她"",""好我""]","[""弱她"",""弱我"",""强她"",""强我""]","","","","","","","","9","","","","","","","","","SRET","SRET_math_calculate","","key","9","16.699782608695703","720","446","","","","","1*9= ?","9","1","","","","","","","",""
"2142","","7","psychophysics","122","355002","0.0-7.0-5.0-0.19","6","6","6","6","6","4","2","4","4","4","4","1","1","1","1","1","1","1","1","5","5","5","5","5","3","4","4","4","4","7","8","8","8","8","7","8","8","9","7","6","4","6","6","6","4","1","6","5","1","5","4","5","6","5","6","6","4","2","6","6","4","6","6","5","6","6","4","7","7","7","5","7","4","2","6","6","6","4","6","783441385641742337","陈","141","Female","[""坏她"",""坏我"",""好她"",""好我""]","[""弱她"",""弱我"",""强她"",""强我""]","","","","","","","","7","","","","","","","","","SRET","SRET_math_calculate","","key","7","16.698157480314713","720","446","","","","","3+4= ?","7","1","","","","","","","",""
"2038","","3","psychophysics","123","357042","0.0-7.0-5.0-0.20","6","6","6","6","6","4","2","4","4","4","4","1","1","1","1","1","1","1","1","5","5","5","5","5","3","4","4","4","4","7","8","8","8","8","7","8","8","9","7","6","4","6","6","6","4","1","6","5","1","5","4","5","6","5","6","6","4","2","6","6","4","6","6","5","6","6","4","7","7","7","5","7","4","2","6","6","6","4","6","783441385641742337","陈","141","Female","[""坏她"",""坏我"",""好她"",""好我""]","[""弱她"",""弱我"",""强她"",""强我""]","","","","","","","","3","","","","","","","","","SRET","SRET_math_calculate","","key","3","16.698578512396622","720","446","","","","","1+2= ?","3","1","","","","","","","",""
"4399","","6","psychophysics","124","361443","0.0-7.0-5.0-0.21","6","6","6","6","6","4","2","4","4","4","4","1","1","1","1","1","1","1","1","5","5","5","5","5","3","4","4","4","4","7","8","8","8","8","7","8","8","9","7","6","4","6","6","6","4","1","6","5","1","5","4","5","6","5","6","6","4","2","6","6","4","6","6","5","6","6","4","7","7","7","5","7","4","2","6","6","6","4","6","783441385641742337","陈","141","Female","[""坏她"",""坏我"",""好她"",""好我""]","[""弱她"",""弱我"",""强她"",""强我""]","","","","","","","","6","","","","","","","","","SRET","SRET_math_calculate","","key","6","16.699604562737804","720","446","","","","","13-9= ?","4","0","","","","","","","",""
"3462","","8","psychophysics","125","364907","0.0-7.0-5.0-0.22","6","6","6","6","6","4","2","4","4","4","4","1","1","1","1","1","1","1","1","5","5","5","5","5","3","4","4","4","4","7","8","8","8","8","7","8","8","9","7","6","4","6","6","6","4","1","6","5","1","5","4","5","6","5","6","6","4","2","6","6","4","6","6","5","6","6","4","7","7","7","5","7","4","2","6","6","6","4","6","783441385641742337","陈","141","Female","[""坏她"",""坏我"",""好她"",""好我""]","[""弱她"",""弱我"",""强她"",""强我""]","","","","","","","","8","","","","","","","","","SRET","SRET_math_calculate","","key","8","16.699519417475845","720","446","","","","","2+6= ?","8","1","","","","","","","",""
"2142","","9","psychophysics","126","367051","0.0-7.0-5.0-0.23","6","6","6","6","6","4","2","4","4","4","4","1","1","1","1","1","1","1","1","5","5","5","5","5","3","4","4","4","4","7","8","8","8","8","7","8","8","9","7","6","4","6","6","6","4","1","6","5","1","5","4","5","6","5","6","6","4","2","6","6","4","6","6","5","6","6","4","7","7","7","5","7","4","2","6","6","6","4","6","783441385641742337","陈","141","Female","[""坏她"",""坏我"",""好她"",""好我""]","[""弱她"",""弱我"",""强她"",""强我""]","","","","","","","","9","","","","","","","","","SRET","SRET_math_calculate","","key","9","16.698851562500295","720","446","","","","","6+3= ?","9","1","","","","","","","",""
"2150","","4","psychophysics","127","369204","0.0-7.0-5.0-0.24","6","6","6","6","6","4","2","4","4","4","4","1","1","1","1","1","1","1","1","5","5","5","5","5","3","4","4","4","4","7","8","8","8","8","7","8","8","9","7","6","4","6","6","6","4","1","6","5","1","5","4","5","6","5","6","6","4","2","6","6","4","6","6","5","6","6","4","7","7","7","5","7","4","2","6","6","6","4","6","783441385641742337","陈","141","Female","[""坏她"",""坏我"",""好她"",""好我""]","[""弱她"",""弱我"",""强她"",""强我""]","","","","","","","","4","","","","","","","","","SRET","SRET_math_calculate","","key","4","16.697566929133977","720","446","","","","","8-4= ?","4","1","","","","","","","",""
"2331","","5","psychophysics","128","371540","0.0-7.0-5.0-0.25","6","6","6","6","6","4","2","4","4","4","4","1","1","1","1","1","1","1","1","5","5","5","5","5","3","4","4","4","4","7","8","8","8","8","7","8","8","9","7","6","4","6","6","6","4","1","6","5","1","5","4","5","6","5","6","6","4","2","6","6","4","6","6","5","6","6","4","7","7","7","5","7","4","2","6","6","6","4","6","783441385641742337","陈","141","Female","[""坏她"",""坏我"",""好她"",""好我""]","[""弱她"",""弱我"",""强她"",""强我""]","","","","","","","","5","","","","","","","","","SRET","SRET_math_calculate","","key","5","16.69916546762596","720","446","","","","","2+3= ?","5","1","","","","","","","",""
"2638","","8","psychophysics","129","374179","0.0-7.0-5.0-0.26","6","6","6","6","6","4","2","4","4","4","4","1","1","1","1","1","1","1","1","5","5","5","5","5","3","4","4","4","4","7","8","8","8","8","7","8","8","9","7","6","4","6","6","6","4","1","6","5","1","5","4","5","6","5","6","6","4","2","6","6","4","6","6","5","6","6","4","7","7","7","5","7","4","2","6","6","6","4","6","783441385641742337","陈","141","Female","[""坏她"",""坏我"",""好她"",""好我""]","[""弱她"",""弱我"",""强她"",""强我""]","","","","","","","","8","","","","","","","","","SRET","SRET_math_calculate","","key","8","16.69910191082815","720","446","","","","","50-42= ?","8","1","","","","","","","",""
"2445","","5","psychophysics","130","376628","0.0-7.0-5.0-0.27","6","6","6","6","6","4","2","4","4","4","4","1","1","1","1","1","1","1","1","5","5","5","5","5","3","4","4","4","4","7","8","8","8","8","7","8","8","9","7","6","4","6","6","6","4","1","6","5","1","5","4","5","6","5","6","6","4","2","6","6","4","6","6","5","6","6","4","7","7","7","5","7","4","2","6","6","6","4","6","783441385641742337","陈","141","Female","[""坏她"",""坏我"",""好她"",""好我""]","[""弱她"",""弱我"",""强她"",""强我""]","","","","","","","","5","","","","","","","","","SRET","SRET_math_calculate","","key","5","16.700438356164554","720","446","","","","","17-12= ? ","5","1","","","","","","","",""
"2294","","5","psychophysics","131","378924","0.0-7.0-5.0-0.28","6","6","6","6","6","4","2","4","4","4","4","1","1","1","1","1","1","1","1","5","5","5","5","5","3","4","4","4","4","7","8","8","8","8","7","8","8","9","7","6","4","6","6","6","4","1","6","5","1","5","4","5","6","5","6","6","4","2","6","6","4","6","6","5","6","6","4","7","7","7","5","7","4","2","6","6","6","4","6","783441385641742337","陈","141","Female","[""坏她"",""坏我"",""好她"",""好我""]","[""弱她"",""弱我"",""强她"",""强我""]","","","","","","","","5","","","","","","","","","SRET","SRET_math_calculate","","key","5","16.699452554744184","720","446","","","","","3+2= ?","5","1","","","","","","","",""
"2070","","5","psychophysics","132","380996","0.0-7.0-5.0-0.29","6","6","6","6","6","4","2","4","4","4","4","1","1","1","1","1","1","1","1","5","5","5","5","5","3","4","4","4","4","7","8","8","8","8","7","8","8","9","7","6","4","6","6","6","4","1","6","5","1","5","4","5","6","5","6","6","4","2","6","6","4","6","6","5","6","6","4","7","7","7","5","7","4","2","6","6","6","4","6","783441385641742337","陈","141","Female","[""坏她"",""坏我"",""好她"",""好我""]","[""弱她"",""弱我"",""强她"",""强我""]","","","","","","","","5","","","","","","","","","SRET","SRET_math_calculate","","key","5","16.69856097560936","720","446","","","","","10-5= ?","5","1","","","","","","","",""
"2230","","6","psychophysics","133","383229","0.0-7.0-5.0-0.30","6","6","6","6","6","4","2","4","4","4","4","1","1","1","1","1","1","1","1","5","5","5","5","5","3","4","4","4","4","7","8","8","8","8","7","8","8","9","7","6","4","6","6","6","4","1","6","5","1","5","4","5","6","5","6","6","4","2","6","6","4","6","6","5","6","6","4","7","7","7","5","7","4","2","6","6","6","4","6","783441385641742337","陈","141","Female","[""坏她"",""坏我"",""好她"",""好我""]","[""弱她"",""弱我"",""强她"",""强我""]","","","","","","","","6","","","","","","","","","SRET","SRET_math_calculate","","key","6","16.70024242424265","720","446","","","","","2*4= ?","8","0","","","","","","","",""
"5005","","7","psychophysics","134","388237","0.0-7.0-5.0-0.31","6","6","6","6","6","4","2","4","4","4","4","1","1","1","1","1","1","1","1","5","5","5","5","5","3","4","4","4","4","7","8","8","8","8","7","8","8","9","7","6","4","6","6","6","4","1","6","5","1","5","4","5","6","5","6","6","4","2","6","6","4","6","6","5","6","6","4","7","7","7","5","7","4","2","6","6","6","4","6","783441385641742337","陈","141","Female","[""坏她"",""坏我"",""好她"",""好我""]","[""弱她"",""弱我"",""强她"",""强我""]","","","","","","","","7","","","","","","","","","SRET","SRET_math_calculate","","key","7","16.699321070234145","720","446","","","","","9-2= ?","7","1","","","","","","","",""
"2502","","0","psychophysics","135","390741","0.0-7.0-5.0-0.32","6","6","6","6","6","4","2","4","4","4","4","1","1","1","1","1","1","1","1","5","5","5","5","5","3","4","4","4","4","7","8","8","8","8","7","8","8","9","7","6","4","6","6","6","4","1","6","5","1","5","4","5","6","5","6","6","4","2","6","6","4","6","6","5","6","6","4","7","7","7","5","7","4","2","6","6","6","4","6","783441385641742337","陈","141","Female","[""坏她"",""坏我"",""好她"",""好我""]","[""弱她"",""弱我"",""强她"",""强我""]","","","","","","","","0","","","","","","","","","SRET","SRET_math_calculate","","key","0","16.69867785234901","720","446","","","","","1-1= ?","0","1","","","","","","","",""
"2750","","3","psychophysics","136","393494","0.0-7.0-5.0-0.33","6","6","6","6","6","4","2","4","4","4","4","1","1","1","1","1","1","1","1","5","5","5","5","5","3","4","4","4","4","7","8","8","8","8","7","8","8","9","7","6","4","6","6","6","4","1","6","5","1","5","4","5","6","5","6","6","4","2","6","6","4","6","6","5","6","6","4","7","7","7","5","7","4","2","6","6","6","4","6","783441385641742337","陈","141","Female","[""坏她"",""坏我"",""好她"",""好我""]","[""弱她"",""弱我"",""强她"",""强我""]","","","","","","","","3","","","","","","","","","SRET","SRET_math_calculate","","key","3","16.699371951219423","720","446","","","","","21/7=  ?","3","1","","","","","","","",""
"3758","","1","psychophysics","137","397254","0.0-7.0-5.0-0.34","6","6","6","6","6","4","2","4","4","4","4","1","1","1","1","1","1","1","1","5","5","5","5","5","3","4","4","4","4","7","8","8","8","8","7","8","8","9","7","6","4","6","6","6","4","1","6","5","1","5","4","5","6","5","6","6","4","2","6","6","4","6","6","5","6","6","4","7","7","7","5","7","4","2","6","6","6","4","6","783441385641742337","陈","141","Female","[""坏她"",""坏我"",""好她"",""好我""]","[""弱她"",""弱我"",""强她"",""强我""]","","","","","","","","1","","","","","","","","","SRET","SRET_math_calculate","","key","1","16.69910267857163","720","446","","","","","12/12= ?","1","1","","","","","","","",""
"2702","","5","psychophysics","138","399959","0.0-7.0-5.0-0.35","6","6","6","6","6","4","2","4","4","4","4","1","1","1","1","1","1","1","1","5","5","5","5","5","3","4","4","4","4","7","8","8","8","8","7","8","8","9","7","6","4","6","6","6","4","1","6","5","1","5","4","5","6","5","6","6","4","2","6","6","4","6","6","5","6","6","4","7","7","7","5","7","4","2","6","6","6","4","6","783441385641742337","陈","141","Female","[""坏她"",""坏我"",""好她"",""好我""]","[""弱她"",""弱我"",""强她"",""强我""]","","","","","","","","5","","","","","","","","","SRET","SRET_math_calculate","","key","5","16.699875776397473","720","446","","","","","4+1= ?","5","1","","","","","","","",""
"5318","","9","psychophysics","139","405279","0.0-7.0-5.0-0.36","6","6","6","6","6","4","2","4","4","4","4","1","1","1","1","1","1","1","1","5","5","5","5","5","3","4","4","4","4","7","8","8","8","8","7","8","8","9","7","6","4","6","6","6","4","1","6","5","1","5","4","5","6","5","6","6","4","2","6","6","4","6","6","5","6","6","4","7","7","7","5","7","4","2","6","6","6","4","6","783441385641742337","陈","141","Female","[""坏她"",""坏我"",""好她"",""好我""]","[""弱她"",""弱我"",""强她"",""强我""]","","","","","","","","9","","","","","","","","","SRET","SRET_math_calculate","","key","9","16.699380503144628","720","446","","","","","43-34= ?","9","1","","","","","","","",""
"4839","","5","psychophysics","140","410120","0.0-7.0-5.0-0.37","6","6","6","6","6","4","2","4","4","4","4","1","1","1","1","1","1","1","1","5","5","5","5","5","3","4","4","4","4","7","8","8","8","8","7","8","8","9","7","6","4","6","6","6","4","1","6","5","1","5","4","5","6","5","6","6","4","2","6","6","4","6","6","5","6","6","4","7","7","7","5","7","4","2","6","6","6","4","6","783441385641742337","陈","141","Female","[""坏她"",""坏我"",""好她"",""好我""]","[""弱她"",""弱我"",""强她"",""强我""]","","","","","","","","5","","","","","","","","","SRET","SRET_math_calculate","","key","5","16.6994117647059","720","446","","","","","5/1= ?","5","1","","","","","","","",""
"3029","","1","psychophysics","141","413152","0.0-7.0-5.0-0.38","6","6","6","6","6","4","2","4","4","4","4","1","1","1","1","1","1","1","1","5","5","5","5","5","3","4","4","4","4","7","8","8","8","8","7","8","8","9","7","6","4","6","6","6","4","1","6","5","1","5","4","5","6","5","6","6","4","2","6","6","4","6","6","5","6","6","4","7","7","7","5","7","4","2","6","6","6","4","6","783441385641742337","陈","141","Female","[""坏她"",""坏我"",""好她"",""好我""]","[""弱她"",""弱我"",""强她"",""强我""]","","","","","","","","1","","","","","","","","","SRET","SRET_math_calculate","","key","1","16.69901666666685","720","446","","","","","4/4= ?","1","1","","","","","","","",""
"2934","","4","psychophysics","142","416088","0.0-7.0-5.0-0.39","6","6","6","6","6","4","2","4","4","4","4","1","1","1","1","1","1","1","1","5","5","5","5","5","3","4","4","4","4","7","8","8","8","8","7","8","8","9","7","6","4","6","6","6","4","1","6","5","1","5","4","5","6","5","6","6","4","2","6","6","4","6","6","5","6","6","4","7","7","7","5","7","4","2","6","6","6","4","6","783441385641742337","陈","141","Female","[""坏她"",""坏我"",""好她"",""好我""]","[""弱她"",""弱我"",""强她"",""强我""]","","","","","","","","4","","","","","","","","","SRET","SRET_math_calculate","","key","4","16.69871428571442","720","446","","","","","4*1= ?","4","1","","","","","","","",""
