"rt","stimulus","response","trial_type","trial_index","time_elapsed","internal_node_id","ses_1","ses_2","ses_3","ses_4","ses_5","ses_6","ses_7","ses_8","ses_9","ses_10","coreself_1","coreself_2","coreself_3","coreself_4","coreself_5","coreself_6","coreself_7","coreself_8","coreself_9","coreself_10","SGPS_1","SGPS_2","SGPS_3","SGPS_4","SGPS_5","SGPS_6","SGPS_7","SGPS_8","SGPS_9","NPI1","NPI2","NPI3","NPI4","NPI5","NPI6","NPI7","NPI8","NPI9","NPI10","NPI11","NPI12","NPI13","NPI14","NPI15","hsns_1","hsns_2","hsns_3","hsns_4","hsns_5","trap1","hsns_6","hsns_7","hsns_8","hsns_9","hsns_10","subj_idx","friend_name","ParticipantID","value","success","user_agent","responses","item_order","radio_event_ids","radio_event_times","key_event_times","mouse_event_times","straightlining","zigzagging","honeypot","timeout","failed_images","failed_audio","failed_video","version_attrib","version_target","correct","IAT","screen_id","task_id","RT","condition","word","varname","summary","version_attrib2","version_target2","time_stamp","view_history","response_type","key_press","avg_frame_time","center_x","center_y","correct_response","identity","Image","question_order","correct_answer","trap1_item"
"4632","
   <p><div style = ""color: white;font-size:25px;"">您好，欢迎参加本次实验。</div> </p>
   <p><div style = ""color: white;font-size:25px;"">为充分保障您的权利，请确保您已经知晓并同意《参与实验同意书》以及《数据公开知情同意书》。</div></p>
   <p><div style = ""color: white;font-size:25px;"">如果您未见过上述内容，请咨询实验员。</div></p>
   <p><div style = ""color: white;font-size:25px;"">如果您选择继续实验，则表示您已经清楚两份知情同意书的内容并同意。</div></p>
   <p><div style = ""color: pink;font-size:30px;"">请确保您记得day0的实验编号，您将在本次实验输入该编号，若您忘记，请咨询实验员后作答。</div></p>
   <p><div style = ""color: lightblue;font-size:25px;"">请您尽可能认真地作答，我们将依据您在各问卷和按键任务中的作答质量发放报酬。</div></p>
   <p> <div style = ""color: green;font-size:25px;""><按空格键至下页></div> </p>
   "," ","html-keyboard-response","0","4634","0.0-0.0","3","3","3","3","2","3","3","2","3","3","3","3","2","4","4","3","3","4","4","3","5","4","5","5","5","3","4","4","2","1","1","0","1","0","1","0","0","0","0","1","0","0","0","1","4","1","2","2","5","1","3","4","4","3","3","763441743210483714","娄","447","","","","","","","","","","","","","","","","","","","","","","","","","","","","","","","","","","","","","","","","","",""
"","","","call-function","1","4635","0.0-1.0-0.0","3","3","3","3","2","3","3","2","3","3","3","3","2","4","4","3","3","4","4","3","5","4","5","5","5","3","4","4","2","1","1","0","1","0","1","0","0","0","0","1","0","0","0","1","4","1","2","2","5","1","3","4","4","3","3","763441743210483714","娄","447","","","","","","","","","","","","","","","","","","","","","","","","","","","","","","","","","","","","","","","","","",""
"20485","","{""friend_name"":""娄"",""ParticipantID"":""447""}","survey-html-form","2","25122","0.0-1.0-1.0","3","3","3","3","2","3","3","2","3","3","3","3","2","4","4","3","3","4","4","3","5","4","5","5","5","3","4","4","2","1","1","0","1","0","1","0","0","0","0","1","0","0","0","1","4","1","2","2","5","1","3","4","4","3","3","763441743210483714","娄","447","","","","","","","","","","","","","","","","","","","","","","","","","","","","","","","","","","","","","","","","","",""
"","","","fullscreen","3","34808","0.0-2.0","3","3","3","3","2","3","3","2","3","3","3","3","2","4","4","3","3","4","4","3","5","4","5","5","5","3","4","4","2","1","1","0","1","0","1","0","0","0","0","1","0","0","0","1","4","1","2","2","5","1","3","4","4","3","3","763441743210483714","娄","447","","true","{}","","","","","","","","","","","","","","","","","","","","","","","","","","","","","","","","","","","","","","",""
"24776.100000023842","","{""Q01"":""3"",""Q02"":""3"",""Q03"":""3"",""Q04"":""3"",""Q05"":""2"",""Q06"":""3"",""Q07"":""3"",""Q08"":""2"",""Q09"":""3"",""Q10"":""3""}","survey-template","4","59587","0.0-3.0","3","3","3","3","2","3","3","2","3","3","3","3","2","4","4","3","3","4","4","3","5","4","5","5","5","3","4","4","2","1","1","0","1","0","1","0","0","0","0","1","0","0","0","1","4","1","2","2","5","1","3","4","4","3","3","763441743210483714","娄","447","","","","{""Q01"":""3"",""Q02"":""3"",""Q03"":""3"",""Q04"":""3"",""Q05"":""2"",""Q06"":""3"",""Q07"":""3"",""Q08"":""2"",""Q09"":""3"",""Q10"":""3""}","[0,1,2,3,4,5,6,7,8,9]","[""Q01"",""Q02"",""Q03"",""Q03"",""Q04"",""Q05"",""Q06"",""Q07"",""Q08"",""Q09"",""Q10""]","[3479.300000011921,4207,4903,6070.900000035763,8215,11295.199999988079,12006.900000035763,15103.100000023842,16894.600000023842,20446.900000035763,24118.600000023842]","[]","[3479.300000011921,4207,4903,6070.900000035763,8215,9374.800000011921,9854.900000035763,11295.199999988079,12006.900000035763,14230.800000011921,15103.100000023842,16894.600000023842,18894.900000035763,20446.900000035763,21087,23750.5,24118.600000023842,24774.900000035763]","0.7","0.3333333333333333","0","","","","","","","","","","","","","","","","","","","","","","","","","","","","","",""
"23994.600000023842","","{""Q01"":""3"",""Q02"":""3"",""Q03"":""2"",""Q04"":""4"",""Q05"":""4"",""Q06"":""3"",""Q07"":""3"",""Q08"":""4"",""Q09"":""4"",""Q10"":""3""}","survey-template","5","83587","0.0-4.0","3","3","3","3","2","3","3","2","3","3","3","3","2","4","4","3","3","4","4","3","5","4","5","5","5","3","4","4","2","1","1","0","1","0","1","0","0","0","0","1","0","0","0","1","4","1","2","2","5","1","3","4","4","3","3","763441743210483714","娄","447","","","","{""Q01"":""3"",""Q02"":""3"",""Q03"":""2"",""Q04"":""4"",""Q05"":""4"",""Q06"":""3"",""Q07"":""3"",""Q08"":""4"",""Q09"":""4"",""Q10"":""3""}","[0,1,2,3,4,5,6,7,8,9]","[""Q01"",""Q01"",""Q02"",""Q03"",""Q04"",""Q05"",""Q06"",""Q07"",""Q08"",""Q09"",""Q10"",""Q10""]","[2505.600000023842,4209.199999988079,7209.300000011921,9388.300000011921,10825.399999976158,13305.5,15233.699999988079,16145.699999988079,18177.30000001192,19801.600000023842,22313.600000023842,23361.5]","[]","[2505.600000023842,4209.199999988079,7209.300000011921,8321.899999976158,9388.300000011921,10825.399999976158,12905.300000011921,13305.5,14649.699999988079,15233.699999988079,16145.699999988079,18177.30000001192,19801.600000023842,22313.600000023842,23361.5,23993.5]","0.5","0.4444444444444444","0","","","","","","","","","","","","","","","","","","","","","","","","","","","","","",""
"","","","preload","6","83969","0.0-5.0","3","3","3","3","2","3","3","2","3","3","3","3","2","4","4","3","3","4","4","3","5","4","5","5","5","3","4","4","2","1","1","0","1","0","1","0","0","0","0","1","0","0","0","1","4","1","2","2","5","1","3","4","4","3","3","763441743210483714","娄","447","","true","","","","","","","","","","","false","[]","[]","[]","","","","","","","","","","","","","","","","","","","","","","","","","",""
"12663","
    <h3>词语分类任务</h3>
    <p>在接下来的任务中，你需要对一系列词语进行分类。</p>
    <p>请先熟悉这些词语，这有利于你完成接下来的任务。</p>
    <table align=""center"" border=1 cellpadding=3 cellspacing=0>
    <tr> <th>类别</th> <th>词语</th> </tr>
    <tr> <td>&emsp;积极&emsp;</td> <td>&emsp;能干、全能、全才、高效、精干、天才&emsp;</td> </tr>
    <tr> <td>&emsp;消极&emsp;</td> <td>&emsp;无能、低能、废物、拙笨、愚钝、蠢笨&emsp;</td> </tr>
    <tr> <td>&emsp;自我&emsp;</td> <td>&emsp;我、我的、自己、自己的、本人、本人的&emsp;</td> </tr>
    <tr> <td>&emsp;他人&emsp;</td> <td>&emsp;他、他的、别人、别人的、他人、他人的&emsp;</td> </tr>
    </table><br/>","0","html-button-response","7","96634","0.0-6.0-0.0-0.0","3","3","3","3","2","3","3","2","3","3","3","3","2","4","4","3","3","4","4","3","5","4","5","5","5","3","4","4","2","1","1","0","1","0","1","0","0","0","0","1","0","0","0","1","4","1","2","2","5","1","3","4","4","3","3","763441743210483714","娄","447","","","","","","","","","","","","","","","","","1","2","","","","","","","","","","","","","","","","","","","","","","","",""
"9144","
    <div class=""tag-bottom"">
    <p> —— 任务1：对“他人”词和“自我”词分类 ——<p/>
    不同词语会出现在屏幕中央，类别标签将始终显示在屏幕上方<p/>   
    <span style=""color:#FFD866""><b>请根据上方标签的提示，尽可能正确并且快速地做出按键反应</b></span><p/>
    当按键错误时屏幕中会出现<span style=""color:red""> X </span>，需要按另一个键纠正才能继续<br/><p/>
    请把双手食指分别放在键盘的“E”键和“I”键上<p/>
    按<空格键>开始
    </p></div>"," ","html-keyboard-response","8","105779","0.0-6.0-0.0-1.0","3","3","3","3","2","3","3","2","3","3","3","3","2","4","4","3","3","4","4","3","5","4","5","5","5","3","4","4","2","1","1","0","1","0","1","0","0","0","0","1","0","0","0","1","4","1","2","2","5","1","3","4","4","3","3","763441743210483714","娄","447","","","","","","","","","","","","","","","","","","","","","","","","","","","","","","","","","","","","","","","","","",""
"null","","null","html-keyboard-response","9","106031","0.0-6.0-0.0-2.0-0.0","3","3","3","3","2","3","3","2","3","3","3","3","2","4","4","3","3","4","4","3","5","4","5","5","5","3","4","4","2","1","1","0","1","0","1","0","0","0","0","1","0","0","0","1","4","1","2","2","5","1","3","4","4","3","3","763441743210483714","娄","447","","","","","","","","","","","","","","","","","","","","","","","","","","","","","","","","","","","","","","","","","",""
"990","<p style=""color:rgb(150, 250, 100); font-size: 35px;"">他人的</p>","e","categorize-html","10","107024","0.0-6.0-0.0-2.0-1.0","3","3","3","3","2","3","3","2","3","3","3","3","2","4","4","3","3","4","4","3","5","4","5","5","5","3","4","4","2","1","1","0","1","0","1","0","0","0","0","1","0","0","0","1","4","1","2","2","5","1","3","4","4","3","3","763441743210483714","娄","447","","","","","","","","","","","","","","","","","","","true","1","1","ability","990","other","他人的","","","","","","","","","","","","","","","","",""
"null","","null","html-keyboard-response","11","107276","0.0-6.0-0.0-2.0-0.1","3","3","3","3","2","3","3","2","3","3","3","3","2","4","4","3","3","4","4","3","5","4","5","5","5","3","4","4","2","1","1","0","1","0","1","0","0","0","0","1","0","0","0","1","4","1","2","2","5","1","3","4","4","3","3","763441743210483714","娄","447","","","","","","","","","","","","","","","","","","","","","","","","","","","","","","","","","","","","","","","","","",""
"592","<p style=""color:rgb(150, 250, 100); font-size: 35px;"">别人</p>","e","categorize-html","12","107868","0.0-6.0-0.0-2.0-1.1","3","3","3","3","2","3","3","2","3","3","3","3","2","4","4","3","3","4","4","3","5","4","5","5","5","3","4","4","2","1","1","0","1","0","1","0","0","0","0","1","0","0","0","1","4","1","2","2","5","1","3","4","4","3","3","763441743210483714","娄","447","","","","","","","","","","","","","","","","","","","true","1","1","ability","592","other","别人","","","","","","","","","","","","","","","","",""
"null","","null","html-keyboard-response","13","108120","0.0-6.0-0.0-2.0-0.2","3","3","3","3","2","3","3","2","3","3","3","3","2","4","4","3","3","4","4","3","5","4","5","5","5","3","4","4","2","1","1","0","1","0","1","0","0","0","0","1","0","0","0","1","4","1","2","2","5","1","3","4","4","3","3","763441743210483714","娄","447","","","","","","","","","","","","","","","","","","","","","","","","","","","","","","","","","","","","","","","","","",""
"529","<p style=""color:rgb(150, 250, 100); font-size: 35px;"">我的</p>","i","categorize-html","14","108651","0.0-6.0-0.0-2.0-1.2","3","3","3","3","2","3","3","2","3","3","3","3","2","4","4","3","3","4","4","3","5","4","5","5","5","3","4","4","2","1","1","0","1","0","1","0","0","0","0","1","0","0","0","1","4","1","2","2","5","1","3","4","4","3","3","763441743210483714","娄","447","","","","","","","","","","","","","","","","","","","true","1","1","ability","529","self","我的","","","","","","","","","","","","","","","","",""
"null","","null","html-keyboard-response","15","108902","0.0-6.0-0.0-2.0-0.3","3","3","3","3","2","3","3","2","3","3","3","3","2","4","4","3","3","4","4","3","5","4","5","5","5","3","4","4","2","1","1","0","1","0","1","0","0","0","0","1","0","0","0","1","4","1","2","2","5","1","3","4","4","3","3","763441743210483714","娄","447","","","","","","","","","","","","","","","","","","","","","","","","","","","","","","","","","","","","","","","","","",""
"494","<p style=""color:rgb(150, 250, 100); font-size: 35px;"">本人</p>","i","categorize-html","16","109397","0.0-6.0-0.0-2.0-1.3","3","3","3","3","2","3","3","2","3","3","3","3","2","4","4","3","3","4","4","3","5","4","5","5","5","3","4","4","2","1","1","0","1","0","1","0","0","0","0","1","0","0","0","1","4","1","2","2","5","1","3","4","4","3","3","763441743210483714","娄","447","","","","","","","","","","","","","","","","","","","true","1","1","ability","494","self","本人","","","","","","","","","","","","","","","","",""
"null","","null","html-keyboard-response","17","109650","0.0-6.0-0.0-2.0-0.4","3","3","3","3","2","3","3","2","3","3","3","3","2","4","4","3","3","4","4","3","5","4","5","5","5","3","4","4","2","1","1","0","1","0","1","0","0","0","0","1","0","0","0","1","4","1","2","2","5","1","3","4","4","3","3","763441743210483714","娄","447","","","","","","","","","","","","","","","","","","","","","","","","","","","","","","","","","","","","","","","","","",""
"593","<p style=""color:rgb(150, 250, 100); font-size: 35px;"">别人的</p>","e","categorize-html","18","110245","0.0-6.0-0.0-2.0-1.4","3","3","3","3","2","3","3","2","3","3","3","3","2","4","4","3","3","4","4","3","5","4","5","5","5","3","4","4","2","1","1","0","1","0","1","0","0","0","0","1","0","0","0","1","4","1","2","2","5","1","3","4","4","3","3","763441743210483714","娄","447","","","","","","","","","","","","","","","","","","","true","1","1","ability","593","other","别人的","","","","","","","","","","","","","","","","",""
"null","","null","html-keyboard-response","19","110496","0.0-6.0-0.0-2.0-0.5","3","3","3","3","2","3","3","2","3","3","3","3","2","4","4","3","3","4","4","3","5","4","5","5","5","3","4","4","2","1","1","0","1","0","1","0","0","0","0","1","0","0","0","1","4","1","2","2","5","1","3","4","4","3","3","763441743210483714","娄","447","","","","","","","","","","","","","","","","","","","","","","","","","","","","","","","","","","","","","","","","","",""
"488","<p style=""color:rgb(150, 250, 100); font-size: 35px;"">他</p>","e","categorize-html","20","110986","0.0-6.0-0.0-2.0-1.5","3","3","3","3","2","3","3","2","3","3","3","3","2","4","4","3","3","4","4","3","5","4","5","5","5","3","4","4","2","1","1","0","1","0","1","0","0","0","0","1","0","0","0","1","4","1","2","2","5","1","3","4","4","3","3","763441743210483714","娄","447","","","","","","","","","","","","","","","","","","","true","1","1","ability","488","other","他","","","","","","","","","","","","","","","","",""
"null","","null","html-keyboard-response","21","111238","0.0-6.0-0.0-2.0-0.6","3","3","3","3","2","3","3","2","3","3","3","3","2","4","4","3","3","4","4","3","5","4","5","5","5","3","4","4","2","1","1","0","1","0","1","0","0","0","0","1","0","0","0","1","4","1","2","2","5","1","3","4","4","3","3","763441743210483714","娄","447","","","","","","","","","","","","","","","","","","","","","","","","","","","","","","","","","","","","","","","","","",""
"529","<p style=""color:rgb(150, 250, 100); font-size: 35px;"">自己的</p>","i","categorize-html","22","111769","0.0-6.0-0.0-2.0-1.6","3","3","3","3","2","3","3","2","3","3","3","3","2","4","4","3","3","4","4","3","5","4","5","5","5","3","4","4","2","1","1","0","1","0","1","0","0","0","0","1","0","0","0","1","4","1","2","2","5","1","3","4","4","3","3","763441743210483714","娄","447","","","","","","","","","","","","","","","","","","","true","1","1","ability","529","self","自己的","","","","","","","","","","","","","","","","",""
"null","","null","html-keyboard-response","23","112019","0.0-6.0-0.0-2.0-0.7","3","3","3","3","2","3","3","2","3","3","3","3","2","4","4","3","3","4","4","3","5","4","5","5","5","3","4","4","2","1","1","0","1","0","1","0","0","0","0","1","0","0","0","1","4","1","2","2","5","1","3","4","4","3","3","763441743210483714","娄","447","","","","","","","","","","","","","","","","","","","","","","","","","","","","","","","","","","","","","","","","","",""
"502","<p style=""color:rgb(150, 250, 100); font-size: 35px;"">我</p>","i","categorize-html","24","112523","0.0-6.0-0.0-2.0-1.7","3","3","3","3","2","3","3","2","3","3","3","3","2","4","4","3","3","4","4","3","5","4","5","5","5","3","4","4","2","1","1","0","1","0","1","0","0","0","0","1","0","0","0","1","4","1","2","2","5","1","3","4","4","3","3","763441743210483714","娄","447","","","","","","","","","","","","","","","","","","","true","1","1","ability","502","self","我","","","","","","","","","","","","","","","","",""
"null","","null","html-keyboard-response","25","112783","0.0-6.0-0.0-2.0-0.8","3","3","3","3","2","3","3","2","3","3","3","3","2","4","4","3","3","4","4","3","5","4","5","5","5","3","4","4","2","1","1","0","1","0","1","0","0","0","0","1","0","0","0","1","4","1","2","2","5","1","3","4","4","3","3","763441743210483714","娄","447","","","","","","","","","","","","","","","","","","","","","","","","","","","","","","","","","","","","","","","","","",""
"617","<p style=""color:rgb(150, 250, 100); font-size: 35px;"">自己</p>","i","categorize-html","26","113402","0.0-6.0-0.0-2.0-1.8","3","3","3","3","2","3","3","2","3","3","3","3","2","4","4","3","3","4","4","3","5","4","5","5","5","3","4","4","2","1","1","0","1","0","1","0","0","0","0","1","0","0","0","1","4","1","2","2","5","1","3","4","4","3","3","763441743210483714","娄","447","","","","","","","","","","","","","","","","","","","true","1","1","ability","617","self","自己","","","","","","","","","","","","","","","","",""
"null","","null","html-keyboard-response","27","113653","0.0-6.0-0.0-2.0-0.9","3","3","3","3","2","3","3","2","3","3","3","3","2","4","4","3","3","4","4","3","5","4","5","5","5","3","4","4","2","1","1","0","1","0","1","0","0","0","0","1","0","0","0","1","4","1","2","2","5","1","3","4","4","3","3","763441743210483714","娄","447","","","","","","","","","","","","","","","","","","","","","","","","","","","","","","","","","","","","","","","","","",""
"443","<p style=""color:rgb(150, 250, 100); font-size: 35px;"">本人的</p>","i","categorize-html","28","114098","0.0-6.0-0.0-2.0-1.9","3","3","3","3","2","3","3","2","3","3","3","3","2","4","4","3","3","4","4","3","5","4","5","5","5","3","4","4","2","1","1","0","1","0","1","0","0","0","0","1","0","0","0","1","4","1","2","2","5","1","3","4","4","3","3","763441743210483714","娄","447","","","","","","","","","","","","","","","","","","","true","1","1","ability","443","self","本人的","","","","","","","","","","","","","","","","",""
"null","","null","html-keyboard-response","29","114349","0.0-6.0-0.0-2.0-0.10","3","3","3","3","2","3","3","2","3","3","3","3","2","4","4","3","3","4","4","3","5","4","5","5","5","3","4","4","2","1","1","0","1","0","1","0","0","0","0","1","0","0","0","1","4","1","2","2","5","1","3","4","4","3","3","763441743210483714","娄","447","","","","","","","","","","","","","","","","","","","","","","","","","","","","","","","","","","","","","","","","","",""
"514","<p style=""color:rgb(150, 250, 100); font-size: 35px;"">他人</p>","e","categorize-html","30","114864","0.0-6.0-0.0-2.0-1.10","3","3","3","3","2","3","3","2","3","3","3","3","2","4","4","3","3","4","4","3","5","4","5","5","5","3","4","4","2","1","1","0","1","0","1","0","0","0","0","1","0","0","0","1","4","1","2","2","5","1","3","4","4","3","3","763441743210483714","娄","447","","","","","","","","","","","","","","","","","","","true","1","1","ability","514","other","他人","","","","","","","","","","","","","","","","",""
"null","","null","html-keyboard-response","31","115116","0.0-6.0-0.0-2.0-0.11","3","3","3","3","2","3","3","2","3","3","3","3","2","4","4","3","3","4","4","3","5","4","5","5","5","3","4","4","2","1","1","0","1","0","1","0","0","0","0","1","0","0","0","1","4","1","2","2","5","1","3","4","4","3","3","763441743210483714","娄","447","","","","","","","","","","","","","","","","","","","","","","","","","","","","","","","","","","","","","","","","","",""
"414","<p style=""color:rgb(150, 250, 100); font-size: 35px;"">他的</p>","e","categorize-html","32","115532","0.0-6.0-0.0-2.0-1.11","3","3","3","3","2","3","3","2","3","3","3","3","2","4","4","3","3","4","4","3","5","4","5","5","5","3","4","4","2","1","1","0","1","0","1","0","0","0","0","1","0","0","0","1","4","1","2","2","5","1","3","4","4","3","3","763441743210483714","娄","447","","","","","","","","","","","","","","","","","","","true","1","1","ability","414","other","他的","","","","","","","","","","","","","","","","",""
"3134","
    <div class=""tag-bottom""><p>
    —— 任务2：对“积极”词和“消极”词分类 ——<p/>   
    <span style=""color:#78DCE8""><b>注意上方，类别标签和需要分类的词语都已经改变</b></span><p/>
    <span style=""color:#FFD866""><b>请根据上方标签的提示，尽可能正确并且快速地做出按键反应</b></span><p/>
    当按键错误时屏幕中会出现<span style=""color:red""> X </span>，需要按另一个键纠正才能继续<br/><p/>
    请把双手食指分别放在键盘的“E”键和“I”键上<p/>
    按<空格键>开始
    </p></div>"," ","html-keyboard-response","33","118667","0.0-6.0-0.0-3.0","3","3","3","3","2","3","3","2","3","3","3","3","2","4","4","3","3","4","4","3","5","4","5","5","5","3","4","4","2","1","1","0","1","0","1","0","0","0","0","1","0","0","0","1","4","1","2","2","5","1","3","4","4","3","3","763441743210483714","娄","447","","","","","","","","","","","","","","","","","","","","","","","","","","","","","","","","","","","","","","","","","",""
"null","","null","html-keyboard-response","34","118917","0.0-6.0-0.0-4.0-0.0","3","3","3","3","2","3","3","2","3","3","3","3","2","4","4","3","3","4","4","3","5","4","5","5","5","3","4","4","2","1","1","0","1","0","1","0","0","0","0","1","0","0","0","1","4","1","2","2","5","1","3","4","4","3","3","763441743210483714","娄","447","","","","","","","","","","","","","","","","","","","","","","","","","","","","","","","","","","","","","","","","","",""
"567","<p style=""color:white; font-size: 35px;"">天才</p>","e","categorize-html","35","119486","0.0-6.0-0.0-4.0-1.0","3","3","3","3","2","3","3","2","3","3","3","3","2","4","4","3","3","4","4","3","5","4","5","5","5","3","4","4","2","1","1","0","1","0","1","0","0","0","0","1","0","0","0","1","4","1","2","2","5","1","3","4","4","3","3","763441743210483714","娄","447","","","","","","","","","","","","","","","","","","","true","2","2","ability","567","positive","天才","","","","","","","","","","","","","","","","",""
"null","","null","html-keyboard-response","36","119737","0.0-6.0-0.0-4.0-0.1","3","3","3","3","2","3","3","2","3","3","3","3","2","4","4","3","3","4","4","3","5","4","5","5","5","3","4","4","2","1","1","0","1","0","1","0","0","0","0","1","0","0","0","1","4","1","2","2","5","1","3","4","4","3","3","763441743210483714","娄","447","","","","","","","","","","","","","","","","","","","","","","","","","","","","","","","","","","","","","","","","","",""
"453","<p style=""color:white; font-size: 35px;"">无能</p>","i","categorize-html","37","120192","0.0-6.0-0.0-4.0-1.1","3","3","3","3","2","3","3","2","3","3","3","3","2","4","4","3","3","4","4","3","5","4","5","5","5","3","4","4","2","1","1","0","1","0","1","0","0","0","0","1","0","0","0","1","4","1","2","2","5","1","3","4","4","3","3","763441743210483714","娄","447","","","","","","","","","","","","","","","","","","","true","2","2","ability","453","negative","无能","","","","","","","","","","","","","","","","",""
"null","","null","html-keyboard-response","38","120443","0.0-6.0-0.0-4.0-0.2","3","3","3","3","2","3","3","2","3","3","3","3","2","4","4","3","3","4","4","3","5","4","5","5","5","3","4","4","2","1","1","0","1","0","1","0","0","0","0","1","0","0","0","1","4","1","2","2","5","1","3","4","4","3","3","763441743210483714","娄","447","","","","","","","","","","","","","","","","","","","","","","","","","","","","","","","","","","","","","","","","","",""
"479","<p style=""color:white; font-size: 35px;"">全才</p>","e","categorize-html","39","120923","0.0-6.0-0.0-4.0-1.2","3","3","3","3","2","3","3","2","3","3","3","3","2","4","4","3","3","4","4","3","5","4","5","5","5","3","4","4","2","1","1","0","1","0","1","0","0","0","0","1","0","0","0","1","4","1","2","2","5","1","3","4","4","3","3","763441743210483714","娄","447","","","","","","","","","","","","","","","","","","","true","2","2","ability","479","positive","全才","","","","","","","","","","","","","","","","",""
"null","","null","html-keyboard-response","40","121174","0.0-6.0-0.0-4.0-0.3","3","3","3","3","2","3","3","2","3","3","3","3","2","4","4","3","3","4","4","3","5","4","5","5","5","3","4","4","2","1","1","0","1","0","1","0","0","0","0","1","0","0","0","1","4","1","2","2","5","1","3","4","4","3","3","763441743210483714","娄","447","","","","","","","","","","","","","","","","","","","","","","","","","","","","","","","","","","","","","","","","","",""
"408","<p style=""color:white; font-size: 35px;"">全能</p>","e","categorize-html","41","121583","0.0-6.0-0.0-4.0-1.3","3","3","3","3","2","3","3","2","3","3","3","3","2","4","4","3","3","4","4","3","5","4","5","5","5","3","4","4","2","1","1","0","1","0","1","0","0","0","0","1","0","0","0","1","4","1","2","2","5","1","3","4","4","3","3","763441743210483714","娄","447","","","","","","","","","","","","","","","","","","","true","2","2","ability","408","positive","全能","","","","","","","","","","","","","","","","",""
"null","","null","html-keyboard-response","42","121852","0.0-6.0-0.0-4.0-0.4","3","3","3","3","2","3","3","2","3","3","3","3","2","4","4","3","3","4","4","3","5","4","5","5","5","3","4","4","2","1","1","0","1","0","1","0","0","0","0","1","0","0","0","1","4","1","2","2","5","1","3","4","4","3","3","763441743210483714","娄","447","","","","","","","","","","","","","","","","","","","","","","","","","","","","","","","","","","","","","","","","","",""
"546","<p style=""color:white; font-size: 35px;"">蠢笨</p>","i","categorize-html","43","122400","0.0-6.0-0.0-4.0-1.4","3","3","3","3","2","3","3","2","3","3","3","3","2","4","4","3","3","4","4","3","5","4","5","5","5","3","4","4","2","1","1","0","1","0","1","0","0","0","0","1","0","0","0","1","4","1","2","2","5","1","3","4","4","3","3","763441743210483714","娄","447","","","","","","","","","","","","","","","","","","","true","2","2","ability","546","negative","蠢笨","","","","","","","","","","","","","","","","",""
"null","","null","html-keyboard-response","44","122650","0.0-6.0-0.0-4.0-0.5","3","3","3","3","2","3","3","2","3","3","3","3","2","4","4","3","3","4","4","3","5","4","5","5","5","3","4","4","2","1","1","0","1","0","1","0","0","0","0","1","0","0","0","1","4","1","2","2","5","1","3","4","4","3","3","763441743210483714","娄","447","","","","","","","","","","","","","","","","","","","","","","","","","","","","","","","","","","","","","","","","","",""
"542","<p style=""color:white; font-size: 35px;"">高效</p>","e","categorize-html","45","123193","0.0-6.0-0.0-4.0-1.5","3","3","3","3","2","3","3","2","3","3","3","3","2","4","4","3","3","4","4","3","5","4","5","5","5","3","4","4","2","1","1","0","1","0","1","0","0","0","0","1","0","0","0","1","4","1","2","2","5","1","3","4","4","3","3","763441743210483714","娄","447","","","","","","","","","","","","","","","","","","","true","2","2","ability","542","positive","高效","","","","","","","","","","","","","","","","",""
"null","","null","html-keyboard-response","46","123446","0.0-6.0-0.0-4.0-0.6","3","3","3","3","2","3","3","2","3","3","3","3","2","4","4","3","3","4","4","3","5","4","5","5","5","3","4","4","2","1","1","0","1","0","1","0","0","0","0","1","0","0","0","1","4","1","2","2","5","1","3","4","4","3","3","763441743210483714","娄","447","","","","","","","","","","","","","","","","","","","","","","","","","","","","","","","","","","","","","","","","","",""
"521","<p style=""color:white; font-size: 35px;"">低能</p>","i","categorize-html","47","123968","0.0-6.0-0.0-4.0-1.6","3","3","3","3","2","3","3","2","3","3","3","3","2","4","4","3","3","4","4","3","5","4","5","5","5","3","4","4","2","1","1","0","1","0","1","0","0","0","0","1","0","0","0","1","4","1","2","2","5","1","3","4","4","3","3","763441743210483714","娄","447","","","","","","","","","","","","","","","","","","","true","2","2","ability","521","negative","低能","","","","","","","","","","","","","","","","",""
"null","","null","html-keyboard-response","48","124219","0.0-6.0-0.0-4.0-0.7","3","3","3","3","2","3","3","2","3","3","3","3","2","4","4","3","3","4","4","3","5","4","5","5","5","3","4","4","2","1","1","0","1","0","1","0","0","0","0","1","0","0","0","1","4","1","2","2","5","1","3","4","4","3","3","763441743210483714","娄","447","","","","","","","","","","","","","","","","","","","","","","","","","","","","","","","","","","","","","","","","","",""
"529","<p style=""color:white; font-size: 35px;"">拙笨</p>","i","categorize-html","49","124750","0.0-6.0-0.0-4.0-1.7","3","3","3","3","2","3","3","2","3","3","3","3","2","4","4","3","3","4","4","3","5","4","5","5","5","3","4","4","2","1","1","0","1","0","1","0","0","0","0","1","0","0","0","1","4","1","2","2","5","1","3","4","4","3","3","763441743210483714","娄","447","","","","","","","","","","","","","","","","","","","true","2","2","ability","529","negative","拙笨","","","","","","","","","","","","","","","","",""
"null","","null","html-keyboard-response","50","125002","0.0-6.0-0.0-4.0-0.8","3","3","3","3","2","3","3","2","3","3","3","3","2","4","4","3","3","4","4","3","5","4","5","5","5","3","4","4","2","1","1","0","1","0","1","0","0","0","0","1","0","0","0","1","4","1","2","2","5","1","3","4","4","3","3","763441743210483714","娄","447","","","","","","","","","","","","","","","","","","","","","","","","","","","","","","","","","","","","","","","","","",""
"567","<p style=""color:white; font-size: 35px;"">能干</p>","e","categorize-html","51","125570","0.0-6.0-0.0-4.0-1.8","3","3","3","3","2","3","3","2","3","3","3","3","2","4","4","3","3","4","4","3","5","4","5","5","5","3","4","4","2","1","1","0","1","0","1","0","0","0","0","1","0","0","0","1","4","1","2","2","5","1","3","4","4","3","3","763441743210483714","娄","447","","","","","","","","","","","","","","","","","","","true","2","2","ability","567","positive","能干","","","","","","","","","","","","","","","","",""
"null","","null","html-keyboard-response","52","125822","0.0-6.0-0.0-4.0-0.9","3","3","3","3","2","3","3","2","3","3","3","3","2","4","4","3","3","4","4","3","5","4","5","5","5","3","4","4","2","1","1","0","1","0","1","0","0","0","0","1","0","0","0","1","4","1","2","2","5","1","3","4","4","3","3","763441743210483714","娄","447","","","","","","","","","","","","","","","","","","","","","","","","","","","","","","","","","","","","","","","","","",""
"429","<p style=""color:white; font-size: 35px;"">精干</p>","e","categorize-html","53","126252","0.0-6.0-0.0-4.0-1.9","3","3","3","3","2","3","3","2","3","3","3","3","2","4","4","3","3","4","4","3","5","4","5","5","5","3","4","4","2","1","1","0","1","0","1","0","0","0","0","1","0","0","0","1","4","1","2","2","5","1","3","4","4","3","3","763441743210483714","娄","447","","","","","","","","","","","","","","","","","","","true","2","2","ability","429","positive","精干","","","","","","","","","","","","","","","","",""
"null","","null","html-keyboard-response","54","126503","0.0-6.0-0.0-4.0-0.10","3","3","3","3","2","3","3","2","3","3","3","3","2","4","4","3","3","4","4","3","5","4","5","5","5","3","4","4","2","1","1","0","1","0","1","0","0","0","0","1","0","0","0","1","4","1","2","2","5","1","3","4","4","3","3","763441743210483714","娄","447","","","","","","","","","","","","","","","","","","","","","","","","","","","","","","","","","","","","","","","","","",""
"519","<p style=""color:white; font-size: 35px;"">愚钝</p>","i","categorize-html","55","127023","0.0-6.0-0.0-4.0-1.10","3","3","3","3","2","3","3","2","3","3","3","3","2","4","4","3","3","4","4","3","5","4","5","5","5","3","4","4","2","1","1","0","1","0","1","0","0","0","0","1","0","0","0","1","4","1","2","2","5","1","3","4","4","3","3","763441743210483714","娄","447","","","","","","","","","","","","","","","","","","","true","2","2","ability","519","negative","愚钝","","","","","","","","","","","","","","","","",""
"null","","null","html-keyboard-response","56","127274","0.0-6.0-0.0-4.0-0.11","3","3","3","3","2","3","3","2","3","3","3","3","2","4","4","3","3","4","4","3","5","4","5","5","5","3","4","4","2","1","1","0","1","0","1","0","0","0","0","1","0","0","0","1","4","1","2","2","5","1","3","4","4","3","3","763441743210483714","娄","447","","","","","","","","","","","","","","","","","","","","","","","","","","","","","","","","","","","","","","","","","",""
"502","<p style=""color:white; font-size: 35px;"">废物</p>","i","categorize-html","57","127778","0.0-6.0-0.0-4.0-1.11","3","3","3","3","2","3","3","2","3","3","3","3","2","4","4","3","3","4","4","3","5","4","5","5","5","3","4","4","2","1","1","0","1","0","1","0","0","0","0","1","0","0","0","1","4","1","2","2","5","1","3","4","4","3","3","763441743210483714","娄","447","","","","","","","","","","","","","","","","","","","true","2","2","ability","502","negative","废物","","","","","","","","","","","","","","","","",""
"2943","
    <div class=""tag-bottom""><p>
    —— 任务3：对“他人/积极”词和“自我/消极”词分类 ——<p/>
    <span style=""color:#78DCE8""><b>注意上方，之前的四类词语将混合在一起交替呈现</b></span><p/>
    <span style=""color:#FFD866""><b>请根据上方标签的提示，尽可能正确并且快速地做出按键反应</b></span><p/>
    当按键错误时屏幕中会出现<span style=""color:red""> X </span>，需要按另一个键纠正才能继续<br/><p/>
    请把双手食指分别放在键盘的“E”键和“I”键上<p/>
    按<空格键>开始
    </p></div>"," ","html-keyboard-response","58","130722","0.0-6.0-0.0-5.0","3","3","3","3","2","3","3","2","3","3","3","3","2","4","4","3","3","4","4","3","5","4","5","5","5","3","4","4","2","1","1","0","1","0","1","0","0","0","0","1","0","0","0","1","4","1","2","2","5","1","3","4","4","3","3","763441743210483714","娄","447","","","","","","","","","","","","","","","","","","","","","","","","","","","","","","","","","","","","","","","","","",""
"null","","null","html-keyboard-response","59","130973","0.0-6.0-0.0-6.0-0.0","3","3","3","3","2","3","3","2","3","3","3","3","2","4","4","3","3","4","4","3","5","4","5","5","5","3","4","4","2","1","1","0","1","0","1","0","0","0","0","1","0","0","0","1","4","1","2","2","5","1","3","4","4","3","3","763441743210483714","娄","447","","","","","","","","","","","","","","","","","","","","","","","","","","","","","","","","","","","","","","","","","",""
"519","<p style=""color:rgb(150, 250, 100); font-size: 35px;"">他人</p>","e","categorize-html","60","131494","0.0-6.0-0.0-6.0-1.0","3","3","3","3","2","3","3","2","3","3","3","3","2","4","4","3","3","4","4","3","5","4","5","5","5","3","4","4","2","1","1","0","1","0","1","0","0","0","0","1","0","0","0","1","4","1","2","2","5","1","3","4","4","3","3","763441743210483714","娄","447","","","","","","","","","","","","","","","","","","","true","3","3","ability","519","other","他人","","","","","","","","","","","","","","","","",""
"null","","null","html-keyboard-response","61","131745","0.0-6.0-0.0-6.0-0.1","3","3","3","3","2","3","3","2","3","3","3","3","2","4","4","3","3","4","4","3","5","4","5","5","5","3","4","4","2","1","1","0","1","0","1","0","0","0","0","1","0","0","0","1","4","1","2","2","5","1","3","4","4","3","3","763441743210483714","娄","447","","","","","","","","","","","","","","","","","","","","","","","","","","","","","","","","","","","","","","","","","",""
"615","<p style=""color:white; font-size: 35px;"">能干</p>","e","categorize-html","62","132362","0.0-6.0-0.0-6.0-1.1","3","3","3","3","2","3","3","2","3","3","3","3","2","4","4","3","3","4","4","3","5","4","5","5","5","3","4","4","2","1","1","0","1","0","1","0","0","0","0","1","0","0","0","1","4","1","2","2","5","1","3","4","4","3","3","763441743210483714","娄","447","","","","","","","","","","","","","","","","","","","true","3","3","ability","615","positive","能干","","","","","","","","","","","","","","","","",""
"null","","null","html-keyboard-response","63","132613","0.0-6.0-0.0-6.0-0.2","3","3","3","3","2","3","3","2","3","3","3","3","2","4","4","3","3","4","4","3","5","4","5","5","5","3","4","4","2","1","1","0","1","0","1","0","0","0","0","1","0","0","0","1","4","1","2","2","5","1","3","4","4","3","3","763441743210483714","娄","447","","","","","","","","","","","","","","","","","","","","","","","","","","","","","","","","","","","","","","","","","",""
"612","<p style=""color:rgb(150, 250, 100); font-size: 35px;"">我的</p>","i","categorize-html","64","133227","0.0-6.0-0.0-6.0-1.2","3","3","3","3","2","3","3","2","3","3","3","3","2","4","4","3","3","4","4","3","5","4","5","5","5","3","4","4","2","1","1","0","1","0","1","0","0","0","0","1","0","0","0","1","4","1","2","2","5","1","3","4","4","3","3","763441743210483714","娄","447","","","","","","","","","","","","","","","","","","","true","3","3","ability","612","self","我的","","","","","","","","","","","","","","","","",""
"null","","null","html-keyboard-response","65","133478","0.0-6.0-0.0-6.0-0.3","3","3","3","3","2","3","3","2","3","3","3","3","2","4","4","3","3","4","4","3","5","4","5","5","5","3","4","4","2","1","1","0","1","0","1","0","0","0","0","1","0","0","0","1","4","1","2","2","5","1","3","4","4","3","3","763441743210483714","娄","447","","","","","","","","","","","","","","","","","","","","","","","","","","","","","","","","","","","","","","","","","",""
"708","<p style=""color:white; font-size: 35px;"">蠢笨</p>","i","categorize-html","66","134189","0.0-6.0-0.0-6.0-1.3","3","3","3","3","2","3","3","2","3","3","3","3","2","4","4","3","3","4","4","3","5","4","5","5","5","3","4","4","2","1","1","0","1","0","1","0","0","0","0","1","0","0","0","1","4","1","2","2","5","1","3","4","4","3","3","763441743210483714","娄","447","","","","","","","","","","","","","","","","","","","true","3","3","ability","708","negative","蠢笨","","","","","","","","","","","","","","","","",""
"null","","null","html-keyboard-response","67","134440","0.0-6.0-0.0-6.0-0.4","3","3","3","3","2","3","3","2","3","3","3","3","2","4","4","3","3","4","4","3","5","4","5","5","5","3","4","4","2","1","1","0","1","0","1","0","0","0","0","1","0","0","0","1","4","1","2","2","5","1","3","4","4","3","3","763441743210483714","娄","447","","","","","","","","","","","","","","","","","","","","","","","","","","","","","","","","","","","","","","","","","",""
"592","<p style=""color:rgb(150, 250, 100); font-size: 35px;"">别人的</p>","e","categorize-html","68","135034","0.0-6.0-0.0-6.0-1.4","3","3","3","3","2","3","3","2","3","3","3","3","2","4","4","3","3","4","4","3","5","4","5","5","5","3","4","4","2","1","1","0","1","0","1","0","0","0","0","1","0","0","0","1","4","1","2","2","5","1","3","4","4","3","3","763441743210483714","娄","447","","","","","","","","","","","","","","","","","","","true","3","3","ability","592","other","别人的","","","","","","","","","","","","","","","","",""
"null","","null","html-keyboard-response","69","135285","0.0-6.0-0.0-6.0-0.5","3","3","3","3","2","3","3","2","3","3","3","3","2","4","4","3","3","4","4","3","5","4","5","5","5","3","4","4","2","1","1","0","1","0","1","0","0","0","0","1","0","0","0","1","4","1","2","2","5","1","3","4","4","3","3","763441743210483714","娄","447","","","","","","","","","","","","","","","","","","","","","","","","","","","","","","","","","","","","","","","","","",""
"608","<p style=""color:white; font-size: 35px;"">全能</p>","e","categorize-html","70","135896","0.0-6.0-0.0-6.0-1.5","3","3","3","3","2","3","3","2","3","3","3","3","2","4","4","3","3","4","4","3","5","4","5","5","5","3","4","4","2","1","1","0","1","0","1","0","0","0","0","1","0","0","0","1","4","1","2","2","5","1","3","4","4","3","3","763441743210483714","娄","447","","","","","","","","","","","","","","","","","","","true","3","3","ability","608","positive","全能","","","","","","","","","","","","","","","","",""
"null","","null","html-keyboard-response","71","136148","0.0-6.0-0.0-6.0-0.6","3","3","3","3","2","3","3","2","3","3","3","3","2","4","4","3","3","4","4","3","5","4","5","5","5","3","4","4","2","1","1","0","1","0","1","0","0","0","0","1","0","0","0","1","4","1","2","2","5","1","3","4","4","3","3","763441743210483714","娄","447","","","","","","","","","","","","","","","","","","","","","","","","","","","","","","","","","","","","","","","","","",""
"567","<p style=""color:rgb(150, 250, 100); font-size: 35px;"">本人的</p>","i","categorize-html","72","136716","0.0-6.0-0.0-6.0-1.6","3","3","3","3","2","3","3","2","3","3","3","3","2","4","4","3","3","4","4","3","5","4","5","5","5","3","4","4","2","1","1","0","1","0","1","0","0","0","0","1","0","0","0","1","4","1","2","2","5","1","3","4","4","3","3","763441743210483714","娄","447","","","","","","","","","","","","","","","","","","","true","3","3","ability","567","self","本人的","","","","","","","","","","","","","","","","",""
"null","","null","html-keyboard-response","73","136967","0.0-6.0-0.0-6.0-0.7","3","3","3","3","2","3","3","2","3","3","3","3","2","4","4","3","3","4","4","3","5","4","5","5","5","3","4","4","2","1","1","0","1","0","1","0","0","0","0","1","0","0","0","1","4","1","2","2","5","1","3","4","4","3","3","763441743210483714","娄","447","","","","","","","","","","","","","","","","","","","","","","","","","","","","","","","","","","","","","","","","","",""
"570","<p style=""color:white; font-size: 35px;"">废物</p>","i","categorize-html","74","137539","0.0-6.0-0.0-6.0-1.7","3","3","3","3","2","3","3","2","3","3","3","3","2","4","4","3","3","4","4","3","5","4","5","5","5","3","4","4","2","1","1","0","1","0","1","0","0","0","0","1","0","0","0","1","4","1","2","2","5","1","3","4","4","3","3","763441743210483714","娄","447","","","","","","","","","","","","","","","","","","","true","3","3","ability","570","negative","废物","","","","","","","","","","","","","","","","",""
"null","","null","html-keyboard-response","75","137790","0.0-6.0-0.0-6.0-0.8","3","3","3","3","2","3","3","2","3","3","3","3","2","4","4","3","3","4","4","3","5","4","5","5","5","3","4","4","2","1","1","0","1","0","1","0","0","0","0","1","0","0","0","1","4","1","2","2","5","1","3","4","4","3","3","763441743210483714","娄","447","","","","","","","","","","","","","","","","","","","","","","","","","","","","","","","","","","","","","","","","","",""
"456","<p style=""color:rgb(150, 250, 100); font-size: 35px;"">他的</p>","e","categorize-html","76","138247","0.0-6.0-0.0-6.0-1.8","3","3","3","3","2","3","3","2","3","3","3","3","2","4","4","3","3","4","4","3","5","4","5","5","5","3","4","4","2","1","1","0","1","0","1","0","0","0","0","1","0","0","0","1","4","1","2","2","5","1","3","4","4","3","3","763441743210483714","娄","447","","","","","","","","","","","","","","","","","","","true","3","3","ability","456","other","他的","","","","","","","","","","","","","","","","",""
"null","","null","html-keyboard-response","77","138498","0.0-6.0-0.0-6.0-0.9","3","3","3","3","2","3","3","2","3","3","3","3","2","4","4","3","3","4","4","3","5","4","5","5","5","3","4","4","2","1","1","0","1","0","1","0","0","0","0","1","0","0","0","1","4","1","2","2","5","1","3","4","4","3","3","763441743210483714","娄","447","","","","","","","","","","","","","","","","","","","","","","","","","","","","","","","","","","","","","","","","","",""
"630","<p style=""color:white; font-size: 35px;"">低能</p>","i","categorize-html","78","139130","0.0-6.0-0.0-6.0-1.9","3","3","3","3","2","3","3","2","3","3","3","3","2","4","4","3","3","4","4","3","5","4","5","5","5","3","4","4","2","1","1","0","1","0","1","0","0","0","0","1","0","0","0","1","4","1","2","2","5","1","3","4","4","3","3","763441743210483714","娄","447","","","","","","","","","","","","","","","","","","","true","3","3","ability","630","negative","低能","","","","","","","","","","","","","","","","",""
"null","","null","html-keyboard-response","79","139382","0.0-6.0-0.0-6.0-0.10","3","3","3","3","2","3","3","2","3","3","3","3","2","4","4","3","3","4","4","3","5","4","5","5","5","3","4","4","2","1","1","0","1","0","1","0","0","0","0","1","0","0","0","1","4","1","2","2","5","1","3","4","4","3","3","763441743210483714","娄","447","","","","","","","","","","","","","","","","","","","","","","","","","","","","","","","","","","","","","","","","","",""
"489","<p style=""color:rgb(150, 250, 100); font-size: 35px;"">我</p>","i","categorize-html","80","139873","0.0-6.0-0.0-6.0-1.10","3","3","3","3","2","3","3","2","3","3","3","3","2","4","4","3","3","4","4","3","5","4","5","5","5","3","4","4","2","1","1","0","1","0","1","0","0","0","0","1","0","0","0","1","4","1","2","2","5","1","3","4","4","3","3","763441743210483714","娄","447","","","","","","","","","","","","","","","","","","","true","3","3","ability","489","self","我","","","","","","","","","","","","","","","","",""
"null","","null","html-keyboard-response","81","140124","0.0-6.0-0.0-6.0-0.11","3","3","3","3","2","3","3","2","3","3","3","3","2","4","4","3","3","4","4","3","5","4","5","5","5","3","4","4","2","1","1","0","1","0","1","0","0","0","0","1","0","0","0","1","4","1","2","2","5","1","3","4","4","3","3","763441743210483714","娄","447","","","","","","","","","","","","","","","","","","","","","","","","","","","","","","","","","","","","","","","","","",""
"569","<p style=""color:white; font-size: 35px;"">精干</p>","e","categorize-html","82","140694","0.0-6.0-0.0-6.0-1.11","3","3","3","3","2","3","3","2","3","3","3","3","2","4","4","3","3","4","4","3","5","4","5","5","5","3","4","4","2","1","1","0","1","0","1","0","0","0","0","1","0","0","0","1","4","1","2","2","5","1","3","4","4","3","3","763441743210483714","娄","447","","","","","","","","","","","","","","","","","","","true","3","3","ability","569","positive","精干","","","","","","","","","","","","","","","","",""
"null","","null","html-keyboard-response","83","140945","0.0-6.0-0.0-6.0-0.12","3","3","3","3","2","3","3","2","3","3","3","3","2","4","4","3","3","4","4","3","5","4","5","5","5","3","4","4","2","1","1","0","1","0","1","0","0","0","0","1","0","0","0","1","4","1","2","2","5","1","3","4","4","3","3","763441743210483714","娄","447","","","","","","","","","","","","","","","","","","","","","","","","","","","","","","","","","","","","","","","","","",""
"673","<p style=""color:rgb(150, 250, 100); font-size: 35px;"">他人的</p>","e","categorize-html","84","141620","0.0-6.0-0.0-6.0-1.12","3","3","3","3","2","3","3","2","3","3","3","3","2","4","4","3","3","4","4","3","5","4","5","5","5","3","4","4","2","1","1","0","1","0","1","0","0","0","0","1","0","0","0","1","4","1","2","2","5","1","3","4","4","3","3","763441743210483714","娄","447","","","","","","","","","","","","","","","","","","","true","3","3","ability","673","other","他人的","","","","","","","","","","","","","","","","",""
"null","","null","html-keyboard-response","85","141871","0.0-6.0-0.0-6.0-0.13","3","3","3","3","2","3","3","2","3","3","3","3","2","4","4","3","3","4","4","3","5","4","5","5","5","3","4","4","2","1","1","0","1","0","1","0","0","0","0","1","0","0","0","1","4","1","2","2","5","1","3","4","4","3","3","763441743210483714","娄","447","","","","","","","","","","","","","","","","","","","","","","","","","","","","","","","","","","","","","","","","","",""
"622","<p style=""color:white; font-size: 35px;"">无能</p>","i","categorize-html","86","142494","0.0-6.0-0.0-6.0-1.13","3","3","3","3","2","3","3","2","3","3","3","3","2","4","4","3","3","4","4","3","5","4","5","5","5","3","4","4","2","1","1","0","1","0","1","0","0","0","0","1","0","0","0","1","4","1","2","2","5","1","3","4","4","3","3","763441743210483714","娄","447","","","","","","","","","","","","","","","","","","","true","3","3","ability","622","negative","无能","","","","","","","","","","","","","","","","",""
"null","","null","html-keyboard-response","87","142746","0.0-6.0-0.0-6.0-0.14","3","3","3","3","2","3","3","2","3","3","3","3","2","4","4","3","3","4","4","3","5","4","5","5","5","3","4","4","2","1","1","0","1","0","1","0","0","0","0","1","0","0","0","1","4","1","2","2","5","1","3","4","4","3","3","763441743210483714","娄","447","","","","","","","","","","","","","","","","","","","","","","","","","","","","","","","","","","","","","","","","","",""
"720","<p style=""color:rgb(150, 250, 100); font-size: 35px;"">自己</p>","i","categorize-html","88","143467","0.0-6.0-0.0-6.0-1.14","3","3","3","3","2","3","3","2","3","3","3","3","2","4","4","3","3","4","4","3","5","4","5","5","5","3","4","4","2","1","1","0","1","0","1","0","0","0","0","1","0","0","0","1","4","1","2","2","5","1","3","4","4","3","3","763441743210483714","娄","447","","","","","","","","","","","","","","","","","","","true","3","3","ability","720","self","自己","","","","","","","","","","","","","","","","",""
"null","","null","html-keyboard-response","89","143719","0.0-6.0-0.0-6.0-0.15","3","3","3","3","2","3","3","2","3","3","3","3","2","4","4","3","3","4","4","3","5","4","5","5","5","3","4","4","2","1","1","0","1","0","1","0","0","0","0","1","0","0","0","1","4","1","2","2","5","1","3","4","4","3","3","763441743210483714","娄","447","","","","","","","","","","","","","","","","","","","","","","","","","","","","","","","","","","","","","","","","","",""
"503","<p style=""color:white; font-size: 35px;"">高效</p>","e","categorize-html","90","144224","0.0-6.0-0.0-6.0-1.15","3","3","3","3","2","3","3","2","3","3","3","3","2","4","4","3","3","4","4","3","5","4","5","5","5","3","4","4","2","1","1","0","1","0","1","0","0","0","0","1","0","0","0","1","4","1","2","2","5","1","3","4","4","3","3","763441743210483714","娄","447","","","","","","","","","","","","","","","","","","","true","3","3","ability","503","positive","高效","","","","","","","","","","","","","","","","",""
"null","","null","html-keyboard-response","91","144475","0.0-6.0-0.0-6.0-0.16","3","3","3","3","2","3","3","2","3","3","3","3","2","4","4","3","3","4","4","3","5","4","5","5","5","3","4","4","2","1","1","0","1","0","1","0","0","0","0","1","0","0","0","1","4","1","2","2","5","1","3","4","4","3","3","763441743210483714","娄","447","","","","","","","","","","","","","","","","","","","","","","","","","","","","","","","","","","","","","","","","","",""
"561","<p style=""color:rgb(150, 250, 100); font-size: 35px;"">自己的</p>","i","categorize-html","92","145038","0.0-6.0-0.0-6.0-1.16","3","3","3","3","2","3","3","2","3","3","3","3","2","4","4","3","3","4","4","3","5","4","5","5","5","3","4","4","2","1","1","0","1","0","1","0","0","0","0","1","0","0","0","1","4","1","2","2","5","1","3","4","4","3","3","763441743210483714","娄","447","","","","","","","","","","","","","","","","","","","true","3","3","ability","561","self","自己的","","","","","","","","","","","","","","","","",""
"null","","null","html-keyboard-response","93","145289","0.0-6.0-0.0-6.0-0.17","3","3","3","3","2","3","3","2","3","3","3","3","2","4","4","3","3","4","4","3","5","4","5","5","5","3","4","4","2","1","1","0","1","0","1","0","0","0","0","1","0","0","0","1","4","1","2","2","5","1","3","4","4","3","3","763441743210483714","娄","447","","","","","","","","","","","","","","","","","","","","","","","","","","","","","","","","","","","","","","","","","",""
"573","<p style=""color:white; font-size: 35px;"">拙笨</p>","i","categorize-html","94","145864","0.0-6.0-0.0-6.0-1.17","3","3","3","3","2","3","3","2","3","3","3","3","2","4","4","3","3","4","4","3","5","4","5","5","5","3","4","4","2","1","1","0","1","0","1","0","0","0","0","1","0","0","0","1","4","1","2","2","5","1","3","4","4","3","3","763441743210483714","娄","447","","","","","","","","","","","","","","","","","","","true","3","3","ability","573","negative","拙笨","","","","","","","","","","","","","","","","",""
"null","","null","html-keyboard-response","95","146116","0.0-6.0-0.0-6.0-0.18","3","3","3","3","2","3","3","2","3","3","3","3","2","4","4","3","3","4","4","3","5","4","5","5","5","3","4","4","2","1","1","0","1","0","1","0","0","0","0","1","0","0","0","1","4","1","2","2","5","1","3","4","4","3","3","763441743210483714","娄","447","","","","","","","","","","","","","","","","","","","","","","","","","","","","","","","","","","","","","","","","","",""
"435","<p style=""color:rgb(150, 250, 100); font-size: 35px;"">他</p>","e","categorize-html","96","146554","0.0-6.0-0.0-6.0-1.18","3","3","3","3","2","3","3","2","3","3","3","3","2","4","4","3","3","4","4","3","5","4","5","5","5","3","4","4","2","1","1","0","1","0","1","0","0","0","0","1","0","0","0","1","4","1","2","2","5","1","3","4","4","3","3","763441743210483714","娄","447","","","","","","","","","","","","","","","","","","","true","3","3","ability","435","other","他","","","","","","","","","","","","","","","","",""
"null","","null","html-keyboard-response","97","146807","0.0-6.0-0.0-6.0-0.19","3","3","3","3","2","3","3","2","3","3","3","3","2","4","4","3","3","4","4","3","5","4","5","5","5","3","4","4","2","1","1","0","1","0","1","0","0","0","0","1","0","0","0","1","4","1","2","2","5","1","3","4","4","3","3","763441743210483714","娄","447","","","","","","","","","","","","","","","","","","","","","","","","","","","","","","","","","","","","","","","","","",""
"531","<p style=""color:white; font-size: 35px;"">全才</p>","e","categorize-html","98","147340","0.0-6.0-0.0-6.0-1.19","3","3","3","3","2","3","3","2","3","3","3","3","2","4","4","3","3","4","4","3","5","4","5","5","5","3","4","4","2","1","1","0","1","0","1","0","0","0","0","1","0","0","0","1","4","1","2","2","5","1","3","4","4","3","3","763441743210483714","娄","447","","","","","","","","","","","","","","","","","","","true","3","3","ability","531","positive","全才","","","","","","","","","","","","","","","","",""
"null","","null","html-keyboard-response","99","147590","0.0-6.0-0.0-6.0-0.20","3","3","3","3","2","3","3","2","3","3","3","3","2","4","4","3","3","4","4","3","5","4","5","5","5","3","4","4","2","1","1","0","1","0","1","0","0","0","0","1","0","0","0","1","4","1","2","2","5","1","3","4","4","3","3","763441743210483714","娄","447","","","","","","","","","","","","","","","","","","","","","","","","","","","","","","","","","","","","","","","","","",""
"582","<p style=""color:rgb(150, 250, 100); font-size: 35px;"">本人</p>","i","categorize-html","100","148174","0.0-6.0-0.0-6.0-1.20","3","3","3","3","2","3","3","2","3","3","3","3","2","4","4","3","3","4","4","3","5","4","5","5","5","3","4","4","2","1","1","0","1","0","1","0","0","0","0","1","0","0","0","1","4","1","2","2","5","1","3","4","4","3","3","763441743210483714","娄","447","","","","","","","","","","","","","","","","","","","true","3","3","ability","582","self","本人","","","","","","","","","","","","","","","","",""
"null","","null","html-keyboard-response","101","148425","0.0-6.0-0.0-6.0-0.21","3","3","3","3","2","3","3","2","3","3","3","3","2","4","4","3","3","4","4","3","5","4","5","5","5","3","4","4","2","1","1","0","1","0","1","0","0","0","0","1","0","0","0","1","4","1","2","2","5","1","3","4","4","3","3","763441743210483714","娄","447","","","","","","","","","","","","","","","","","","","","","","","","","","","","","","","","","","","","","","","","","",""
"526","<p style=""color:white; font-size: 35px;"">愚钝</p>","i","categorize-html","102","148954","0.0-6.0-0.0-6.0-1.21","3","3","3","3","2","3","3","2","3","3","3","3","2","4","4","3","3","4","4","3","5","4","5","5","5","3","4","4","2","1","1","0","1","0","1","0","0","0","0","1","0","0","0","1","4","1","2","2","5","1","3","4","4","3","3","763441743210483714","娄","447","","","","","","","","","","","","","","","","","","","true","3","3","ability","526","negative","愚钝","","","","","","","","","","","","","","","","",""
"null","","null","html-keyboard-response","103","149205","0.0-6.0-0.0-6.0-0.22","3","3","3","3","2","3","3","2","3","3","3","3","2","4","4","3","3","4","4","3","5","4","5","5","5","3","4","4","2","1","1","0","1","0","1","0","0","0","0","1","0","0","0","1","4","1","2","2","5","1","3","4","4","3","3","763441743210483714","娄","447","","","","","","","","","","","","","","","","","","","","","","","","","","","","","","","","","","","","","","","","","",""
"458","<p style=""color:rgb(150, 250, 100); font-size: 35px;"">别人</p>","e","categorize-html","104","149664","0.0-6.0-0.0-6.0-1.22","3","3","3","3","2","3","3","2","3","3","3","3","2","4","4","3","3","4","4","3","5","4","5","5","5","3","4","4","2","1","1","0","1","0","1","0","0","0","0","1","0","0","0","1","4","1","2","2","5","1","3","4","4","3","3","763441743210483714","娄","447","","","","","","","","","","","","","","","","","","","true","3","3","ability","458","other","别人","","","","","","","","","","","","","","","","",""
"null","","null","html-keyboard-response","105","149915","0.0-6.0-0.0-6.0-0.23","3","3","3","3","2","3","3","2","3","3","3","3","2","4","4","3","3","4","4","3","5","4","5","5","5","3","4","4","2","1","1","0","1","0","1","0","0","0","0","1","0","0","0","1","4","1","2","2","5","1","3","4","4","3","3","763441743210483714","娄","447","","","","","","","","","","","","","","","","","","","","","","","","","","","","","","","","","","","","","","","","","",""
"597","<p style=""color:white; font-size: 35px;"">天才</p>","e","categorize-html","106","150514","0.0-6.0-0.0-6.0-1.23","3","3","3","3","2","3","3","2","3","3","3","3","2","4","4","3","3","4","4","3","5","4","5","5","5","3","4","4","2","1","1","0","1","0","1","0","0","0","0","1","0","0","0","1","4","1","2","2","5","1","3","4","4","3","3","763441743210483714","娄","447","","","","","","","","","","","","","","","","","","","true","3","3","ability","597","positive","天才","","","","","","","","","","","","","","","","",""
"2014","
    <div class=""tag-bottom""><p>
    —— 任务4：对“他人/积极”词和“自我/消极”词分类 ——<p/>
    <span style=""color:#78DCE8""><b>与刚才的任务完全相同，请再次对这四类词语分类</b></span><p/>
    <span style=""color:#FFD866""><b>请根据上方标签的提示，尽可能正确并且快速地做出按键反应</b></span><p/>
    当按键错误时屏幕中会出现<span style=""color:red""> X </span>，需要按另一个键纠正才能继续<br/><p/>
    请把双手食指分别放在键盘的“E”键和“I”键上<p/>
    按<空格键>开始
    </p></div>"," ","html-keyboard-response","107","152529","0.0-6.0-0.0-7.0","3","3","3","3","2","3","3","2","3","3","3","3","2","4","4","3","3","4","4","3","5","4","5","5","5","3","4","4","2","1","1","0","1","0","1","0","0","0","0","1","0","0","0","1","4","1","2","2","5","1","3","4","4","3","3","763441743210483714","娄","447","","","","","","","","","","","","","","","","","","","","","","","","","","","","","","","","","","","","","","","","","",""
"null","","null","html-keyboard-response","108","152780","0.0-6.0-0.0-8.0-0.0","3","3","3","3","2","3","3","2","3","3","3","3","2","4","4","3","3","4","4","3","5","4","5","5","5","3","4","4","2","1","1","0","1","0","1","0","0","0","0","1","0","0","0","1","4","1","2","2","5","1","3","4","4","3","3","763441743210483714","娄","447","","","","","","","","","","","","","","","","","","","","","","","","","","","","","","","","","","","","","","","","","",""
"787","<p style=""color:rgb(150, 250, 100); font-size: 35px;"">他人</p>","e","categorize-html","109","153569","0.0-6.0-0.0-8.0-1.0","3","3","3","3","2","3","3","2","3","3","3","3","2","4","4","3","3","4","4","3","5","4","5","5","5","3","4","4","2","1","1","0","1","0","1","0","0","0","0","1","0","0","0","1","4","1","2","2","5","1","3","4","4","3","3","763441743210483714","娄","447","","","","","","","","","","","","","","","","","","","true","4","4","ability","787","other","他人","","","","","","","","","","","","","","","","",""
"null","","null","html-keyboard-response","110","153820","0.0-6.0-0.0-8.0-0.1","3","3","3","3","2","3","3","2","3","3","3","3","2","4","4","3","3","4","4","3","5","4","5","5","5","3","4","4","2","1","1","0","1","0","1","0","0","0","0","1","0","0","0","1","4","1","2","2","5","1","3","4","4","3","3","763441743210483714","娄","447","","","","","","","","","","","","","","","","","","","","","","","","","","","","","","","","","","","","","","","","","",""
"526","<p style=""color:white; font-size: 35px;"">废物</p>","e","categorize-html","111","155133","0.0-6.0-0.0-8.0-1.1","3","3","3","3","2","3","3","2","3","3","3","3","2","4","4","3","3","4","4","3","5","4","5","5","5","3","4","4","2","1","1","0","1","0","1","0","0","0","0","1","0","0","0","1","4","1","2","2","5","1","3","4","4","3","3","763441743210483714","娄","447","","","","","","","","","","","","","","","","","","","false","4","4","ability","1159.3170731707319","negative","废物","","","","","","","","","","","","","","","","",""
"null","","null","html-keyboard-response","112","155383","0.0-6.0-0.0-8.0-0.2","3","3","3","3","2","3","3","2","3","3","3","3","2","4","4","3","3","4","4","3","5","4","5","5","5","3","4","4","2","1","1","0","1","0","1","0","0","0","0","1","0","0","0","1","4","1","2","2","5","1","3","4","4","3","3","763441743210483714","娄","447","","","","","","","","","","","","","","","","","","","","","","","","","","","","","","","","","","","","","","","","","",""
"553","<p style=""color:rgb(150, 250, 100); font-size: 35px;"">本人</p>","i","categorize-html","113","155938","0.0-6.0-0.0-8.0-1.2","3","3","3","3","2","3","3","2","3","3","3","3","2","4","4","3","3","4","4","3","5","4","5","5","5","3","4","4","2","1","1","0","1","0","1","0","0","0","0","1","0","0","0","1","4","1","2","2","5","1","3","4","4","3","3","763441743210483714","娄","447","","","","","","","","","","","","","","","","","","","true","4","4","ability","553","self","本人","","","","","","","","","","","","","","","","",""
"null","","null","html-keyboard-response","114","156190","0.0-6.0-0.0-8.0-0.3","3","3","3","3","2","3","3","2","3","3","3","3","2","4","4","3","3","4","4","3","5","4","5","5","5","3","4","4","2","1","1","0","1","0","1","0","0","0","0","1","0","0","0","1","4","1","2","2","5","1","3","4","4","3","3","763441743210483714","娄","447","","","","","","","","","","","","","","","","","","","","","","","","","","","","","","","","","","","","","","","","","",""
"533","<p style=""color:white; font-size: 35px;"">精干</p>","e","categorize-html","115","156725","0.0-6.0-0.0-8.0-1.3","3","3","3","3","2","3","3","2","3","3","3","3","2","4","4","3","3","4","4","3","5","4","5","5","5","3","4","4","2","1","1","0","1","0","1","0","0","0","0","1","0","0","0","1","4","1","2","2","5","1","3","4","4","3","3","763441743210483714","娄","447","","","","","","","","","","","","","","","","","","","true","4","4","ability","533","positive","精干","","","","","","","","","","","","","","","","",""
"null","","null","html-keyboard-response","116","156976","0.0-6.0-0.0-8.0-0.4","3","3","3","3","2","3","3","2","3","3","3","3","2","4","4","3","3","4","4","3","5","4","5","5","5","3","4","4","2","1","1","0","1","0","1","0","0","0","0","1","0","0","0","1","4","1","2","2","5","1","3","4","4","3","3","763441743210483714","娄","447","","","","","","","","","","","","","","","","","","","","","","","","","","","","","","","","","","","","","","","","","",""
"603","<p style=""color:rgb(150, 250, 100); font-size: 35px;"">本人的</p>","i","categorize-html","117","157581","0.0-6.0-0.0-8.0-1.4","3","3","3","3","2","3","3","2","3","3","3","3","2","4","4","3","3","4","4","3","5","4","5","5","5","3","4","4","2","1","1","0","1","0","1","0","0","0","0","1","0","0","0","1","4","1","2","2","5","1","3","4","4","3","3","763441743210483714","娄","447","","","","","","","","","","","","","","","","","","","true","4","4","ability","603","self","本人的","","","","","","","","","","","","","","","","",""
"null","","null","html-keyboard-response","118","157832","0.0-6.0-0.0-8.0-0.5","3","3","3","3","2","3","3","2","3","3","3","3","2","4","4","3","3","4","4","3","5","4","5","5","5","3","4","4","2","1","1","0","1","0","1","0","0","0","0","1","0","0","0","1","4","1","2","2","5","1","3","4","4","3","3","763441743210483714","娄","447","","","","","","","","","","","","","","","","","","","","","","","","","","","","","","","","","","","","","","","","","",""
"894","<p style=""color:white; font-size: 35px;"">天才</p>","e","categorize-html","119","158728","0.0-6.0-0.0-8.0-1.5","3","3","3","3","2","3","3","2","3","3","3","3","2","4","4","3","3","4","4","3","5","4","5","5","5","3","4","4","2","1","1","0","1","0","1","0","0","0","0","1","0","0","0","1","4","1","2","2","5","1","3","4","4","3","3","763441743210483714","娄","447","","","","","","","","","","","","","","","","","","","true","4","4","ability","894","positive","天才","","","","","","","","","","","","","","","","",""
"null","","null","html-keyboard-response","120","158979","0.0-6.0-0.0-8.0-0.6","3","3","3","3","2","3","3","2","3","3","3","3","2","4","4","3","3","4","4","3","5","4","5","5","5","3","4","4","2","1","1","0","1","0","1","0","0","0","0","1","0","0","0","1","4","1","2","2","5","1","3","4","4","3","3","763441743210483714","娄","447","","","","","","","","","","","","","","","","","","","","","","","","","","","","","","","","","","","","","","","","","",""
"544","<p style=""color:rgb(150, 250, 100); font-size: 35px;"">他人</p>","e","categorize-html","121","159526","0.0-6.0-0.0-8.0-1.6","3","3","3","3","2","3","3","2","3","3","3","3","2","4","4","3","3","4","4","3","5","4","5","5","5","3","4","4","2","1","1","0","1","0","1","0","0","0","0","1","0","0","0","1","4","1","2","2","5","1","3","4","4","3","3","763441743210483714","娄","447","","","","","","","","","","","","","","","","","","","true","4","4","ability","544","other","他人","","","","","","","","","","","","","","","","",""
"null","","null","html-keyboard-response","122","159777","0.0-6.0-0.0-8.0-0.7","3","3","3","3","2","3","3","2","3","3","3","3","2","4","4","3","3","4","4","3","5","4","5","5","5","3","4","4","2","1","1","0","1","0","1","0","0","0","0","1","0","0","0","1","4","1","2","2","5","1","3","4","4","3","3","763441743210483714","娄","447","","","","","","","","","","","","","","","","","","","","","","","","","","","","","","","","","","","","","","","","","",""
"518","<p style=""color:white; font-size: 35px;"">蠢笨</p>","i","categorize-html","123","160296","0.0-6.0-0.0-8.0-1.7","3","3","3","3","2","3","3","2","3","3","3","3","2","4","4","3","3","4","4","3","5","4","5","5","5","3","4","4","2","1","1","0","1","0","1","0","0","0","0","1","0","0","0","1","4","1","2","2","5","1","3","4","4","3","3","763441743210483714","娄","447","","","","","","","","","","","","","","","","","","","true","4","4","ability","518","negative","蠢笨","","","","","","","","","","","","","","","","",""
"null","","null","html-keyboard-response","124","160557","0.0-6.0-0.0-8.0-0.8","3","3","3","3","2","3","3","2","3","3","3","3","2","4","4","3","3","4","4","3","5","4","5","5","5","3","4","4","2","1","1","0","1","0","1","0","0","0","0","1","0","0","0","1","4","1","2","2","5","1","3","4","4","3","3","763441743210483714","娄","447","","","","","","","","","","","","","","","","","","","","","","","","","","","","","","","","","","","","","","","","","",""
"516","<p style=""color:rgb(150, 250, 100); font-size: 35px;"">别人</p>","e","categorize-html","125","161075","0.0-6.0-0.0-8.0-1.8","3","3","3","3","2","3","3","2","3","3","3","3","2","4","4","3","3","4","4","3","5","4","5","5","5","3","4","4","2","1","1","0","1","0","1","0","0","0","0","1","0","0","0","1","4","1","2","2","5","1","3","4","4","3","3","763441743210483714","娄","447","","","","","","","","","","","","","","","","","","","true","4","4","ability","516","other","别人","","","","","","","","","","","","","","","","",""
"null","","null","html-keyboard-response","126","161326","0.0-6.0-0.0-8.0-0.9","3","3","3","3","2","3","3","2","3","3","3","3","2","4","4","3","3","4","4","3","5","4","5","5","5","3","4","4","2","1","1","0","1","0","1","0","0","0","0","1","0","0","0","1","4","1","2","2","5","1","3","4","4","3","3","763441743210483714","娄","447","","","","","","","","","","","","","","","","","","","","","","","","","","","","","","","","","","","","","","","","","",""
"839","<p style=""color:white; font-size: 35px;"">蠢笨</p>","i","categorize-html","127","162167","0.0-6.0-0.0-8.0-1.9","3","3","3","3","2","3","3","2","3","3","3","3","2","4","4","3","3","4","4","3","5","4","5","5","5","3","4","4","2","1","1","0","1","0","1","0","0","0","0","1","0","0","0","1","4","1","2","2","5","1","3","4","4","3","3","763441743210483714","娄","447","","","","","","","","","","","","","","","","","","","true","4","4","ability","839","negative","蠢笨","","","","","","","","","","","","","","","","",""
"null","","null","html-keyboard-response","128","162419","0.0-6.0-0.0-8.0-0.10","3","3","3","3","2","3","3","2","3","3","3","3","2","4","4","3","3","4","4","3","5","4","5","5","5","3","4","4","2","1","1","0","1","0","1","0","0","0","0","1","0","0","0","1","4","1","2","2","5","1","3","4","4","3","3","763441743210483714","娄","447","","","","","","","","","","","","","","","","","","","","","","","","","","","","","","","","","","","","","","","","","",""
"447","<p style=""color:rgb(150, 250, 100); font-size: 35px;"">我</p>","i","categorize-html","129","162868","0.0-6.0-0.0-8.0-1.10","3","3","3","3","2","3","3","2","3","3","3","3","2","4","4","3","3","4","4","3","5","4","5","5","5","3","4","4","2","1","1","0","1","0","1","0","0","0","0","1","0","0","0","1","4","1","2","2","5","1","3","4","4","3","3","763441743210483714","娄","447","","","","","","","","","","","","","","","","","","","true","4","4","ability","447","self","我","","","","","","","","","","","","","","","","",""
"null","","null","html-keyboard-response","130","163119","0.0-6.0-0.0-8.0-0.11","3","3","3","3","2","3","3","2","3","3","3","3","2","4","4","3","3","4","4","3","5","4","5","5","5","3","4","4","2","1","1","0","1","0","1","0","0","0","0","1","0","0","0","1","4","1","2","2","5","1","3","4","4","3","3","763441743210483714","娄","447","","","","","","","","","","","","","","","","","","","","","","","","","","","","","","","","","","","","","","","","","",""
"693","<p style=""color:white; font-size: 35px;"">天才</p>","e","categorize-html","131","163813","0.0-6.0-0.0-8.0-1.11","3","3","3","3","2","3","3","2","3","3","3","3","2","4","4","3","3","4","4","3","5","4","5","5","5","3","4","4","2","1","1","0","1","0","1","0","0","0","0","1","0","0","0","1","4","1","2","2","5","1","3","4","4","3","3","763441743210483714","娄","447","","","","","","","","","","","","","","","","","","","true","4","4","ability","693","positive","天才","","","","","","","","","","","","","","","","",""
"null","","null","html-keyboard-response","132","164065","0.0-6.0-0.0-8.0-0.12","3","3","3","3","2","3","3","2","3","3","3","3","2","4","4","3","3","4","4","3","5","4","5","5","5","3","4","4","2","1","1","0","1","0","1","0","0","0","0","1","0","0","0","1","4","1","2","2","5","1","3","4","4","3","3","763441743210483714","娄","447","","","","","","","","","","","","","","","","","","","","","","","","","","","","","","","","","","","","","","","","","",""
"574","<p style=""color:rgb(150, 250, 100); font-size: 35px;"">自己的</p>","i","categorize-html","133","164641","0.0-6.0-0.0-8.0-1.12","3","3","3","3","2","3","3","2","3","3","3","3","2","4","4","3","3","4","4","3","5","4","5","5","5","3","4","4","2","1","1","0","1","0","1","0","0","0","0","1","0","0","0","1","4","1","2","2","5","1","3","4","4","3","3","763441743210483714","娄","447","","","","","","","","","","","","","","","","","","","true","4","4","ability","574","self","自己的","","","","","","","","","","","","","","","","",""
"null","","null","html-keyboard-response","134","164892","0.0-6.0-0.0-8.0-0.13","3","3","3","3","2","3","3","2","3","3","3","3","2","4","4","3","3","4","4","3","5","4","5","5","5","3","4","4","2","1","1","0","1","0","1","0","0","0","0","1","0","0","0","1","4","1","2","2","5","1","3","4","4","3","3","763441743210483714","娄","447","","","","","","","","","","","","","","","","","","","","","","","","","","","","","","","","","","","","","","","","","",""
"628","<p style=""color:white; font-size: 35px;"">废物</p>","i","categorize-html","135","165522","0.0-6.0-0.0-8.0-1.13","3","3","3","3","2","3","3","2","3","3","3","3","2","4","4","3","3","4","4","3","5","4","5","5","5","3","4","4","2","1","1","0","1","0","1","0","0","0","0","1","0","0","0","1","4","1","2","2","5","1","3","4","4","3","3","763441743210483714","娄","447","","","","","","","","","","","","","","","","","","","true","4","4","ability","628","negative","废物","","","","","","","","","","","","","","","","",""
"null","","null","html-keyboard-response","136","165773","0.0-6.0-0.0-8.0-0.14","3","3","3","3","2","3","3","2","3","3","3","3","2","4","4","3","3","4","4","3","5","4","5","5","5","3","4","4","2","1","1","0","1","0","1","0","0","0","0","1","0","0","0","1","4","1","2","2","5","1","3","4","4","3","3","763441743210483714","娄","447","","","","","","","","","","","","","","","","","","","","","","","","","","","","","","","","","","","","","","","","","",""
"573","<p style=""color:rgb(150, 250, 100); font-size: 35px;"">他</p>","e","categorize-html","137","166348","0.0-6.0-0.0-8.0-1.14","3","3","3","3","2","3","3","2","3","3","3","3","2","4","4","3","3","4","4","3","5","4","5","5","5","3","4","4","2","1","1","0","1","0","1","0","0","0","0","1","0","0","0","1","4","1","2","2","5","1","3","4","4","3","3","763441743210483714","娄","447","","","","","","","","","","","","","","","","","","","true","4","4","ability","573","other","他","","","","","","","","","","","","","","","","",""
"null","","null","html-keyboard-response","138","166599","0.0-6.0-0.0-8.0-0.15","3","3","3","3","2","3","3","2","3","3","3","3","2","4","4","3","3","4","4","3","5","4","5","5","5","3","4","4","2","1","1","0","1","0","1","0","0","0","0","1","0","0","0","1","4","1","2","2","5","1","3","4","4","3","3","763441743210483714","娄","447","","","","","","","","","","","","","","","","","","","","","","","","","","","","","","","","","","","","","","","","","",""
"654","<p style=""color:white; font-size: 35px;"">全才</p>","e","categorize-html","139","167256","0.0-6.0-0.0-8.0-1.15","3","3","3","3","2","3","3","2","3","3","3","3","2","4","4","3","3","4","4","3","5","4","5","5","5","3","4","4","2","1","1","0","1","0","1","0","0","0","0","1","0","0","0","1","4","1","2","2","5","1","3","4","4","3","3","763441743210483714","娄","447","","","","","","","","","","","","","","","","","","","true","4","4","ability","654","positive","全才","","","","","","","","","","","","","","","","",""
"null","","null","html-keyboard-response","140","167536","0.0-6.0-0.0-8.0-0.16","3","3","3","3","2","3","3","2","3","3","3","3","2","4","4","3","3","4","4","3","5","4","5","5","5","3","4","4","2","1","1","0","1","0","1","0","0","0","0","1","0","0","0","1","4","1","2","2","5","1","3","4","4","3","3","763441743210483714","娄","447","","","","","","","","","","","","","","","","","","","","","","","","","","","","","","","","","","","","","","","","","",""
"500","<p style=""color:rgb(150, 250, 100); font-size: 35px;"">本人</p>","i","categorize-html","141","168037","0.0-6.0-0.0-8.0-1.16","3","3","3","3","2","3","3","2","3","3","3","3","2","4","4","3","3","4","4","3","5","4","5","5","5","3","4","4","2","1","1","0","1","0","1","0","0","0","0","1","0","0","0","1","4","1","2","2","5","1","3","4","4","3","3","763441743210483714","娄","447","","","","","","","","","","","","","","","","","","","true","4","4","ability","500","self","本人","","","","","","","","","","","","","","","","",""
"null","","null","html-keyboard-response","142","168288","0.0-6.0-0.0-8.0-0.17","3","3","3","3","2","3","3","2","3","3","3","3","2","4","4","3","3","4","4","3","5","4","5","5","5","3","4","4","2","1","1","0","1","0","1","0","0","0","0","1","0","0","0","1","4","1","2","2","5","1","3","4","4","3","3","763441743210483714","娄","447","","","","","","","","","","","","","","","","","","","","","","","","","","","","","","","","","","","","","","","","","",""
"518","<p style=""color:white; font-size: 35px;"">低能</p>","i","categorize-html","143","168808","0.0-6.0-0.0-8.0-1.17","3","3","3","3","2","3","3","2","3","3","3","3","2","4","4","3","3","4","4","3","5","4","5","5","5","3","4","4","2","1","1","0","1","0","1","0","0","0","0","1","0","0","0","1","4","1","2","2","5","1","3","4","4","3","3","763441743210483714","娄","447","","","","","","","","","","","","","","","","","","","true","4","4","ability","518","negative","低能","","","","","","","","","","","","","","","","",""
"null","","null","html-keyboard-response","144","169059","0.0-6.0-0.0-8.0-0.18","3","3","3","3","2","3","3","2","3","3","3","3","2","4","4","3","3","4","4","3","5","4","5","5","5","3","4","4","2","1","1","0","1","0","1","0","0","0","0","1","0","0","0","1","4","1","2","2","5","1","3","4","4","3","3","763441743210483714","娄","447","","","","","","","","","","","","","","","","","","","","","","","","","","","","","","","","","","","","","","","","","",""
"477","<p style=""color:rgb(150, 250, 100); font-size: 35px;"">别人的</p>","e","categorize-html","145","169537","0.0-6.0-0.0-8.0-1.18","3","3","3","3","2","3","3","2","3","3","3","3","2","4","4","3","3","4","4","3","5","4","5","5","5","3","4","4","2","1","1","0","1","0","1","0","0","0","0","1","0","0","0","1","4","1","2","2","5","1","3","4","4","3","3","763441743210483714","娄","447","","","","","","","","","","","","","","","","","","","true","4","4","ability","477","other","别人的","","","","","","","","","","","","","","","","",""
"null","","null","html-keyboard-response","146","169789","0.0-6.0-0.0-8.0-0.19","3","3","3","3","2","3","3","2","3","3","3","3","2","4","4","3","3","4","4","3","5","4","5","5","5","3","4","4","2","1","1","0","1","0","1","0","0","0","0","1","0","0","0","1","4","1","2","2","5","1","3","4","4","3","3","763441743210483714","娄","447","","","","","","","","","","","","","","","","","","","","","","","","","","","","","","","","","","","","","","","","","",""
"471","<p style=""color:white; font-size: 35px;"">高效</p>","e","categorize-html","147","170262","0.0-6.0-0.0-8.0-1.19","3","3","3","3","2","3","3","2","3","3","3","3","2","4","4","3","3","4","4","3","5","4","5","5","5","3","4","4","2","1","1","0","1","0","1","0","0","0","0","1","0","0","0","1","4","1","2","2","5","1","3","4","4","3","3","763441743210483714","娄","447","","","","","","","","","","","","","","","","","","","true","4","4","ability","471","positive","高效","","","","","","","","","","","","","","","","",""
"null","","null","html-keyboard-response","148","170514","0.0-6.0-0.0-8.0-0.20","3","3","3","3","2","3","3","2","3","3","3","3","2","4","4","3","3","4","4","3","5","4","5","5","5","3","4","4","2","1","1","0","1","0","1","0","0","0","0","1","0","0","0","1","4","1","2","2","5","1","3","4","4","3","3","763441743210483714","娄","447","","","","","","","","","","","","","","","","","","","","","","","","","","","","","","","","","","","","","","","","","",""
"512","<p style=""color:rgb(150, 250, 100); font-size: 35px;"">我的</p>","e","categorize-html","149","171420","0.0-6.0-0.0-8.0-1.20","3","3","3","3","2","3","3","2","3","3","3","3","2","4","4","3","3","4","4","3","5","4","5","5","5","3","4","4","2","1","1","0","1","0","1","0","0","0","0","1","0","0","0","1","4","1","2","2","5","1","3","4","4","3","3","763441743210483714","娄","447","","","","","","","","","","","","","","","","","","","false","4","4","ability","1159.3170731707319","self","我的","","","","","","","","","","","","","","","","",""
"null","","null","html-keyboard-response","150","171671","0.0-6.0-0.0-8.0-0.21","3","3","3","3","2","3","3","2","3","3","3","3","2","4","4","3","3","4","4","3","5","4","5","5","5","3","4","4","2","1","1","0","1","0","1","0","0","0","0","1","0","0","0","1","4","1","2","2","5","1","3","4","4","3","3","763441743210483714","娄","447","","","","","","","","","","","","","","","","","","","","","","","","","","","","","","","","","","","","","","","","","",""
"691","<p style=""color:white; font-size: 35px;"">精干</p>","e","categorize-html","151","172363","0.0-6.0-0.0-8.0-1.21","3","3","3","3","2","3","3","2","3","3","3","3","2","4","4","3","3","4","4","3","5","4","5","5","5","3","4","4","2","1","1","0","1","0","1","0","0","0","0","1","0","0","0","1","4","1","2","2","5","1","3","4","4","3","3","763441743210483714","娄","447","","","","","","","","","","","","","","","","","","","true","4","4","ability","691","positive","精干","","","","","","","","","","","","","","","","",""
"null","","null","html-keyboard-response","152","172615","0.0-6.0-0.0-8.0-0.22","3","3","3","3","2","3","3","2","3","3","3","3","2","4","4","3","3","4","4","3","5","4","5","5","5","3","4","4","2","1","1","0","1","0","1","0","0","0","0","1","0","0","0","1","4","1","2","2","5","1","3","4","4","3","3","763441743210483714","娄","447","","","","","","","","","","","","","","","","","","","","","","","","","","","","","","","","","","","","","","","","","",""
"524","<p style=""color:rgb(150, 250, 100); font-size: 35px;"">他人的</p>","i","categorize-html","153","173788","0.0-6.0-0.0-8.0-1.22","3","3","3","3","2","3","3","2","3","3","3","3","2","4","4","3","3","4","4","3","5","4","5","5","5","3","4","4","2","1","1","0","1","0","1","0","0","0","0","1","0","0","0","1","4","1","2","2","5","1","3","4","4","3","3","763441743210483714","娄","447","","","","","","","","","","","","","","","","","","","false","4","4","ability","1159.3170731707319","other","他人的","","","","","","","","","","","","","","","","",""
"null","","null","html-keyboard-response","154","174039","0.0-6.0-0.0-8.0-0.23","3","3","3","3","2","3","3","2","3","3","3","3","2","4","4","3","3","4","4","3","5","4","5","5","5","3","4","4","2","1","1","0","1","0","1","0","0","0","0","1","0","0","0","1","4","1","2","2","5","1","3","4","4","3","3","763441743210483714","娄","447","","","","","","","","","","","","","","","","","","","","","","","","","","","","","","","","","","","","","","","","","",""
"564","<p style=""color:white; font-size: 35px;"">拙笨</p>","i","categorize-html","155","174604","0.0-6.0-0.0-8.0-1.23","3","3","3","3","2","3","3","2","3","3","3","3","2","4","4","3","3","4","4","3","5","4","5","5","5","3","4","4","2","1","1","0","1","0","1","0","0","0","0","1","0","0","0","1","4","1","2","2","5","1","3","4","4","3","3","763441743210483714","娄","447","","","","","","","","","","","","","","","","","","","true","4","4","ability","564","negative","拙笨","","","","","","","","","","","","","","","","",""
"null","","null","html-keyboard-response","156","174856","0.0-6.0-0.0-8.0-0.24","3","3","3","3","2","3","3","2","3","3","3","3","2","4","4","3","3","4","4","3","5","4","5","5","5","3","4","4","2","1","1","0","1","0","1","0","0","0","0","1","0","0","0","1","4","1","2","2","5","1","3","4","4","3","3","763441743210483714","娄","447","","","","","","","","","","","","","","","","","","","","","","","","","","","","","","","","","","","","","","","","","",""
"528","<p style=""color:rgb(150, 250, 100); font-size: 35px;"">自己的</p>","i","categorize-html","157","175386","0.0-6.0-0.0-8.0-1.24","3","3","3","3","2","3","3","2","3","3","3","3","2","4","4","3","3","4","4","3","5","4","5","5","5","3","4","4","2","1","1","0","1","0","1","0","0","0","0","1","0","0","0","1","4","1","2","2","5","1","3","4","4","3","3","763441743210483714","娄","447","","","","","","","","","","","","","","","","","","","true","4","4","ability","528","self","自己的","","","","","","","","","","","","","","","","",""
"null","","null","html-keyboard-response","158","175637","0.0-6.0-0.0-8.0-0.25","3","3","3","3","2","3","3","2","3","3","3","3","2","4","4","3","3","4","4","3","5","4","5","5","5","3","4","4","2","1","1","0","1","0","1","0","0","0","0","1","0","0","0","1","4","1","2","2","5","1","3","4","4","3","3","763441743210483714","娄","447","","","","","","","","","","","","","","","","","","","","","","","","","","","","","","","","","","","","","","","","","",""
"444","<p style=""color:white; font-size: 35px;"">能干</p>","e","categorize-html","159","176083","0.0-6.0-0.0-8.0-1.25","3","3","3","3","2","3","3","2","3","3","3","3","2","4","4","3","3","4","4","3","5","4","5","5","5","3","4","4","2","1","1","0","1","0","1","0","0","0","0","1","0","0","0","1","4","1","2","2","5","1","3","4","4","3","3","763441743210483714","娄","447","","","","","","","","","","","","","","","","","","","true","4","4","ability","444","positive","能干","","","","","","","","","","","","","","","","",""
"null","","null","html-keyboard-response","160","176334","0.0-6.0-0.0-8.0-0.26","3","3","3","3","2","3","3","2","3","3","3","3","2","4","4","3","3","4","4","3","5","4","5","5","5","3","4","4","2","1","1","0","1","0","1","0","0","0","0","1","0","0","0","1","4","1","2","2","5","1","3","4","4","3","3","763441743210483714","娄","447","","","","","","","","","","","","","","","","","","","","","","","","","","","","","","","","","","","","","","","","","",""
"459","<p style=""color:rgb(150, 250, 100); font-size: 35px;"">他的</p>","e","categorize-html","161","176795","0.0-6.0-0.0-8.0-1.26","3","3","3","3","2","3","3","2","3","3","3","3","2","4","4","3","3","4","4","3","5","4","5","5","5","3","4","4","2","1","1","0","1","0","1","0","0","0","0","1","0","0","0","1","4","1","2","2","5","1","3","4","4","3","3","763441743210483714","娄","447","","","","","","","","","","","","","","","","","","","true","4","4","ability","459","other","他的","","","","","","","","","","","","","","","","",""
"null","","null","html-keyboard-response","162","177046","0.0-6.0-0.0-8.0-0.27","3","3","3","3","2","3","3","2","3","3","3","3","2","4","4","3","3","4","4","3","5","4","5","5","5","3","4","4","2","1","1","0","1","0","1","0","0","0","0","1","0","0","0","1","4","1","2","2","5","1","3","4","4","3","3","763441743210483714","娄","447","","","","","","","","","","","","","","","","","","","","","","","","","","","","","","","","","","","","","","","","","",""
"647","<p style=""color:white; font-size: 35px;"">无能</p>","e","categorize-html","163","178220","0.0-6.0-0.0-8.0-1.27","3","3","3","3","2","3","3","2","3","3","3","3","2","4","4","3","3","4","4","3","5","4","5","5","5","3","4","4","2","1","1","0","1","0","1","0","0","0","0","1","0","0","0","1","4","1","2","2","5","1","3","4","4","3","3","763441743210483714","娄","447","","","","","","","","","","","","","","","","","","","false","4","4","ability","1159.3170731707319","negative","无能","","","","","","","","","","","","","","","","",""
"null","","null","html-keyboard-response","164","178471","0.0-6.0-0.0-8.0-0.28","3","3","3","3","2","3","3","2","3","3","3","3","2","4","4","3","3","4","4","3","5","4","5","5","5","3","4","4","2","1","1","0","1","0","1","0","0","0","0","1","0","0","0","1","4","1","2","2","5","1","3","4","4","3","3","763441743210483714","娄","447","","","","","","","","","","","","","","","","","","","","","","","","","","","","","","","","","","","","","","","","","",""
"386","<p style=""color:rgb(150, 250, 100); font-size: 35px;"">别人</p>","e","categorize-html","165","178859","0.0-6.0-0.0-8.0-1.28","3","3","3","3","2","3","3","2","3","3","3","3","2","4","4","3","3","4","4","3","5","4","5","5","5","3","4","4","2","1","1","0","1","0","1","0","0","0","0","1","0","0","0","1","4","1","2","2","5","1","3","4","4","3","3","763441743210483714","娄","447","","","","","","","","","","","","","","","","","","","true","4","4","ability","386","other","别人","","","","","","","","","","","","","","","","",""
"null","","null","html-keyboard-response","166","179111","0.0-6.0-0.0-8.0-0.29","3","3","3","3","2","3","3","2","3","3","3","3","2","4","4","3","3","4","4","3","5","4","5","5","5","3","4","4","2","1","1","0","1","0","1","0","0","0","0","1","0","0","0","1","4","1","2","2","5","1","3","4","4","3","3","763441743210483714","娄","447","","","","","","","","","","","","","","","","","","","","","","","","","","","","","","","","","","","","","","","","","",""
"476","<p style=""color:white; font-size: 35px;"">低能</p>","i","categorize-html","167","179589","0.0-6.0-0.0-8.0-1.29","3","3","3","3","2","3","3","2","3","3","3","3","2","4","4","3","3","4","4","3","5","4","5","5","5","3","4","4","2","1","1","0","1","0","1","0","0","0","0","1","0","0","0","1","4","1","2","2","5","1","3","4","4","3","3","763441743210483714","娄","447","","","","","","","","","","","","","","","","","","","true","4","4","ability","476","negative","低能","","","","","","","","","","","","","","","","",""
"null","","null","html-keyboard-response","168","179840","0.0-6.0-0.0-8.0-0.30","3","3","3","3","2","3","3","2","3","3","3","3","2","4","4","3","3","4","4","3","5","4","5","5","5","3","4","4","2","1","1","0","1","0","1","0","0","0","0","1","0","0","0","1","4","1","2","2","5","1","3","4","4","3","3","763441743210483714","娄","447","","","","","","","","","","","","","","","","","","","","","","","","","","","","","","","","","","","","","","","","","",""
"453","<p style=""color:rgb(150, 250, 100); font-size: 35px;"">自己</p>","i","categorize-html","169","180294","0.0-6.0-0.0-8.0-1.30","3","3","3","3","2","3","3","2","3","3","3","3","2","4","4","3","3","4","4","3","5","4","5","5","5","3","4","4","2","1","1","0","1","0","1","0","0","0","0","1","0","0","0","1","4","1","2","2","5","1","3","4","4","3","3","763441743210483714","娄","447","","","","","","","","","","","","","","","","","","","true","4","4","ability","453","self","自己","","","","","","","","","","","","","","","","",""
"null","","null","html-keyboard-response","170","180546","0.0-6.0-0.0-8.0-0.31","3","3","3","3","2","3","3","2","3","3","3","3","2","4","4","3","3","4","4","3","5","4","5","5","5","3","4","4","2","1","1","0","1","0","1","0","0","0","0","1","0","0","0","1","4","1","2","2","5","1","3","4","4","3","3","763441743210483714","娄","447","","","","","","","","","","","","","","","","","","","","","","","","","","","","","","","","","","","","","","","","","",""
"563","<p style=""color:white; font-size: 35px;"">高效</p>","e","categorize-html","171","181111","0.0-6.0-0.0-8.0-1.31","3","3","3","3","2","3","3","2","3","3","3","3","2","4","4","3","3","4","4","3","5","4","5","5","5","3","4","4","2","1","1","0","1","0","1","0","0","0","0","1","0","0","0","1","4","1","2","2","5","1","3","4","4","3","3","763441743210483714","娄","447","","","","","","","","","","","","","","","","","","","true","4","4","ability","563","positive","高效","","","","","","","","","","","","","","","","",""
"null","","null","html-keyboard-response","172","181362","0.0-6.0-0.0-8.0-0.32","3","3","3","3","2","3","3","2","3","3","3","3","2","4","4","3","3","4","4","3","5","4","5","5","5","3","4","4","2","1","1","0","1","0","1","0","0","0","0","1","0","0","0","1","4","1","2","2","5","1","3","4","4","3","3","763441743210483714","娄","447","","","","","","","","","","","","","","","","","","","","","","","","","","","","","","","","","","","","","","","","","",""
"614","<p style=""color:rgb(150, 250, 100); font-size: 35px;"">他人的</p>","e","categorize-html","173","181977","0.0-6.0-0.0-8.0-1.32","3","3","3","3","2","3","3","2","3","3","3","3","2","4","4","3","3","4","4","3","5","4","5","5","5","3","4","4","2","1","1","0","1","0","1","0","0","0","0","1","0","0","0","1","4","1","2","2","5","1","3","4","4","3","3","763441743210483714","娄","447","","","","","","","","","","","","","","","","","","","true","4","4","ability","614","other","他人的","","","","","","","","","","","","","","","","",""
"null","","null","html-keyboard-response","174","182228","0.0-6.0-0.0-8.0-0.33","3","3","3","3","2","3","3","2","3","3","3","3","2","4","4","3","3","4","4","3","5","4","5","5","5","3","4","4","2","1","1","0","1","0","1","0","0","0","0","1","0","0","0","1","4","1","2","2","5","1","3","4","4","3","3","763441743210483714","娄","447","","","","","","","","","","","","","","","","","","","","","","","","","","","","","","","","","","","","","","","","","",""
"583","<p style=""color:white; font-size: 35px;"">全能</p>","e","categorize-html","175","182813","0.0-6.0-0.0-8.0-1.33","3","3","3","3","2","3","3","2","3","3","3","3","2","4","4","3","3","4","4","3","5","4","5","5","5","3","4","4","2","1","1","0","1","0","1","0","0","0","0","1","0","0","0","1","4","1","2","2","5","1","3","4","4","3","3","763441743210483714","娄","447","","","","","","","","","","","","","","","","","","","true","4","4","ability","583","positive","全能","","","","","","","","","","","","","","","","",""
"null","","null","html-keyboard-response","176","183064","0.0-6.0-0.0-8.0-0.34","3","3","3","3","2","3","3","2","3","3","3","3","2","4","4","3","3","4","4","3","5","4","5","5","5","3","4","4","2","1","1","0","1","0","1","0","0","0","0","1","0","0","0","1","4","1","2","2","5","1","3","4","4","3","3","763441743210483714","娄","447","","","","","","","","","","","","","","","","","","","","","","","","","","","","","","","","","","","","","","","","","",""
"441","<p style=""color:rgb(150, 250, 100); font-size: 35px;"">本人的</p>","i","categorize-html","177","183508","0.0-6.0-0.0-8.0-1.34","3","3","3","3","2","3","3","2","3","3","3","3","2","4","4","3","3","4","4","3","5","4","5","5","5","3","4","4","2","1","1","0","1","0","1","0","0","0","0","1","0","0","0","1","4","1","2","2","5","1","3","4","4","3","3","763441743210483714","娄","447","","","","","","","","","","","","","","","","","","","true","4","4","ability","441","self","本人的","","","","","","","","","","","","","","","","",""
"null","","null","html-keyboard-response","178","183758","0.0-6.0-0.0-8.0-0.35","3","3","3","3","2","3","3","2","3","3","3","3","2","4","4","3","3","4","4","3","5","4","5","5","5","3","4","4","2","1","1","0","1","0","1","0","0","0","0","1","0","0","0","1","4","1","2","2","5","1","3","4","4","3","3","763441743210483714","娄","447","","","","","","","","","","","","","","","","","","","","","","","","","","","","","","","","","","","","","","","","","",""
"520","<p style=""color:white; font-size: 35px;"">拙笨</p>","i","categorize-html","179","184281","0.0-6.0-0.0-8.0-1.35","3","3","3","3","2","3","3","2","3","3","3","3","2","4","4","3","3","4","4","3","5","4","5","5","5","3","4","4","2","1","1","0","1","0","1","0","0","0","0","1","0","0","0","1","4","1","2","2","5","1","3","4","4","3","3","763441743210483714","娄","447","","","","","","","","","","","","","","","","","","","true","4","4","ability","520","negative","拙笨","","","","","","","","","","","","","","","","",""
"null","","null","html-keyboard-response","180","184532","0.0-6.0-0.0-8.0-0.36","3","3","3","3","2","3","3","2","3","3","3","3","2","4","4","3","3","4","4","3","5","4","5","5","5","3","4","4","2","1","1","0","1","0","1","0","0","0","0","1","0","0","0","1","4","1","2","2","5","1","3","4","4","3","3","763441743210483714","娄","447","","","","","","","","","","","","","","","","","","","","","","","","","","","","","","","","","","","","","","","","","",""
"500","<p style=""color:rgb(150, 250, 100); font-size: 35px;"">他</p>","e","categorize-html","181","185034","0.0-6.0-0.0-8.0-1.36","3","3","3","3","2","3","3","2","3","3","3","3","2","4","4","3","3","4","4","3","5","4","5","5","5","3","4","4","2","1","1","0","1","0","1","0","0","0","0","1","0","0","0","1","4","1","2","2","5","1","3","4","4","3","3","763441743210483714","娄","447","","","","","","","","","","","","","","","","","","","true","4","4","ability","500","other","他","","","","","","","","","","","","","","","","",""
"null","","null","html-keyboard-response","182","185285","0.0-6.0-0.0-8.0-0.37","3","3","3","3","2","3","3","2","3","3","3","3","2","4","4","3","3","4","4","3","5","4","5","5","5","3","4","4","2","1","1","0","1","0","1","0","0","0","0","1","0","0","0","1","4","1","2","2","5","1","3","4","4","3","3","763441743210483714","娄","447","","","","","","","","","","","","","","","","","","","","","","","","","","","","","","","","","","","","","","","","","",""
"583","<p style=""color:white; font-size: 35px;"">全能</p>","e","categorize-html","183","185869","0.0-6.0-0.0-8.0-1.37","3","3","3","3","2","3","3","2","3","3","3","3","2","4","4","3","3","4","4","3","5","4","5","5","5","3","4","4","2","1","1","0","1","0","1","0","0","0","0","1","0","0","0","1","4","1","2","2","5","1","3","4","4","3","3","763441743210483714","娄","447","","","","","","","","","","","","","","","","","","","true","4","4","ability","583","positive","全能","","","","","","","","","","","","","","","","",""
"null","","null","html-keyboard-response","184","186120","0.0-6.0-0.0-8.0-0.38","3","3","3","3","2","3","3","2","3","3","3","3","2","4","4","3","3","4","4","3","5","4","5","5","5","3","4","4","2","1","1","0","1","0","1","0","0","0","0","1","0","0","0","1","4","1","2","2","5","1","3","4","4","3","3","763441743210483714","娄","447","","","","","","","","","","","","","","","","","","","","","","","","","","","","","","","","","","","","","","","","","",""
"366","<p style=""color:rgb(150, 250, 100); font-size: 35px;"">自己</p>","e","categorize-html","185","186873","0.0-6.0-0.0-8.0-1.38","3","3","3","3","2","3","3","2","3","3","3","3","2","4","4","3","3","4","4","3","5","4","5","5","5","3","4","4","2","1","1","0","1","0","1","0","0","0","0","1","0","0","0","1","4","1","2","2","5","1","3","4","4","3","3","763441743210483714","娄","447","","","","","","","","","","","","","","","","","","","false","4","4","ability","1159.3170731707319","self","自己","","","","","","","","","","","","","","","","",""
"null","","null","html-keyboard-response","186","187125","0.0-6.0-0.0-8.0-0.39","3","3","3","3","2","3","3","2","3","3","3","3","2","4","4","3","3","4","4","3","5","4","5","5","5","3","4","4","2","1","1","0","1","0","1","0","0","0","0","1","0","0","0","1","4","1","2","2","5","1","3","4","4","3","3","763441743210483714","娄","447","","","","","","","","","","","","","","","","","","","","","","","","","","","","","","","","","","","","","","","","","",""
"438","<p style=""color:white; font-size: 35px;"">愚钝</p>","e","categorize-html","187","188030","0.0-6.0-0.0-8.0-1.39","3","3","3","3","2","3","3","2","3","3","3","3","2","4","4","3","3","4","4","3","5","4","5","5","5","3","4","4","2","1","1","0","1","0","1","0","0","0","0","1","0","0","0","1","4","1","2","2","5","1","3","4","4","3","3","763441743210483714","娄","447","","","","","","","","","","","","","","","","","","","false","4","4","ability","1159.3170731707319","negative","愚钝","","","","","","","","","","","","","","","","",""
"null","","null","html-keyboard-response","188","188281","0.0-6.0-0.0-8.0-0.40","3","3","3","3","2","3","3","2","3","3","3","3","2","4","4","3","3","4","4","3","5","4","5","5","5","3","4","4","2","1","1","0","1","0","1","0","0","0","0","1","0","0","0","1","4","1","2","2","5","1","3","4","4","3","3","763441743210483714","娄","447","","","","","","","","","","","","","","","","","","","","","","","","","","","","","","","","","","","","","","","","","",""
"538","<p style=""color:rgb(150, 250, 100); font-size: 35px;"">我的</p>","i","categorize-html","189","188821","0.0-6.0-0.0-8.0-1.40","3","3","3","3","2","3","3","2","3","3","3","3","2","4","4","3","3","4","4","3","5","4","5","5","5","3","4","4","2","1","1","0","1","0","1","0","0","0","0","1","0","0","0","1","4","1","2","2","5","1","3","4","4","3","3","763441743210483714","娄","447","","","","","","","","","","","","","","","","","","","true","4","4","ability","538","self","我的","","","","","","","","","","","","","","","","",""
"null","","null","html-keyboard-response","190","189072","0.0-6.0-0.0-8.0-0.41","3","3","3","3","2","3","3","2","3","3","3","3","2","4","4","3","3","4","4","3","5","4","5","5","5","3","4","4","2","1","1","0","1","0","1","0","0","0","0","1","0","0","0","1","4","1","2","2","5","1","3","4","4","3","3","763441743210483714","娄","447","","","","","","","","","","","","","","","","","","","","","","","","","","","","","","","","","","","","","","","","","",""
"443","<p style=""color:white; font-size: 35px;"">无能</p>","i","categorize-html","191","189518","0.0-6.0-0.0-8.0-1.41","3","3","3","3","2","3","3","2","3","3","3","3","2","4","4","3","3","4","4","3","5","4","5","5","5","3","4","4","2","1","1","0","1","0","1","0","0","0","0","1","0","0","0","1","4","1","2","2","5","1","3","4","4","3","3","763441743210483714","娄","447","","","","","","","","","","","","","","","","","","","true","4","4","ability","443","negative","无能","","","","","","","","","","","","","","","","",""
"null","","null","html-keyboard-response","192","189769","0.0-6.0-0.0-8.0-0.42","3","3","3","3","2","3","3","2","3","3","3","3","2","4","4","3","3","4","4","3","5","4","5","5","5","3","4","4","2","1","1","0","1","0","1","0","0","0","0","1","0","0","0","1","4","1","2","2","5","1","3","4","4","3","3","763441743210483714","娄","447","","","","","","","","","","","","","","","","","","","","","","","","","","","","","","","","","","","","","","","","","",""
