"rt","stimulus","response","trial_type","trial_index","time_elapsed","internal_node_id","ses_1","ses_2","ses_3","ses_4","ses_5","ses_6","ses_7","ses_8","ses_9","ses_10","coreself_1","coreself_2","coreself_3","coreself_4","coreself_5","coreself_6","coreself_7","coreself_8","coreself_9","coreself_10","SGPS_1","SGPS_2","SGPS_3","SGPS_4","SGPS_5","SGPS_6","SGPS_7","SGPS_8","SGPS_9","NPI1","NPI2","NPI3","NPI4","NPI5","NPI6","NPI7","NPI8","NPI9","NPI10","NPI11","NPI12","NPI13","NPI14","NPI15","hsns_1","hsns_2","hsns_3","hsns_4","hsns_5","trap1","hsns_6","hsns_7","hsns_8","hsns_9","hsns_10","subj_idx","friend_name","ParticipantID","value","success","user_agent","responses","item_order","radio_event_ids","radio_event_times","key_event_times","mouse_event_times","straightlining","zigzagging","honeypot","timeout","failed_images","failed_audio","failed_video","view_history","response_type","key_press","avg_frame_time","center_x","center_y","correct_response","correct","identity","Image","word","condition","task_id","screen_id","time_stamp","version_attrib2","version_target2","IAT","RT","varname","summary","version_attrib","version_target","question_order","correct_answer","trap1_item"
"34288","
   <p><div style = ""color: white;font-size:25px;"">您好，欢迎参加本次实验。</div> </p>
   <p><div style = ""color: white;font-size:25px;"">为充分保障您的权利，请确保您已经知晓并同意《参与实验同意书》以及《数据公开知情同意书》。</div></p>
   <p><div style = ""color: white;font-size:25px;"">如果您未见过上述内容，请咨询实验员。</div></p>
   <p><div style = ""color: white;font-size:25px;"">如果您选择继续实验，则表示您已经清楚两份知情同意书的内容并同意。</div></p>
   <p><div style = ""color: pink;font-size:30px;"">请确保您记得day0的实验编号，您将在本次实验输入该编号，若您忘记，请咨询实验员后作答。</div></p>
   <p><div style = ""color: lightblue;font-size:25px;"">请您尽可能认真地作答，我们将依据您在各问卷和按键任务中的作答质量发放报酬。</div></p>
   <p> <div style = ""color: green;font-size:25px;""><按空格键至下页></div> </p>
   "," ","html-keyboard-response","0","34290","0.0-0.0","4","4","4","4","4","4","4","3","4","4","5","5","5","4","5","5","5","5","5","5","1","1","1","1","1","1","2","4","1","0","1","0","0","1","0","0","0","0","0","0","0","1","0","0","5","1","2","1","1","","2","4","3","4","1","598856622046969856","王","14","","","","","","","","","","","","","","","","","","","","","","","","","","","","","","","","","","","","","","","","","",""
"","","","call-function","1","34291","0.0-1.0-0.0","4","4","4","4","4","4","4","3","4","4","5","5","5","4","5","5","5","5","5","5","1","1","1","1","1","1","2","4","1","0","1","0","0","1","0","0","0","0","0","0","0","1","0","0","5","1","2","1","1","","2","4","3","4","1","598856622046969856","王","14","","","","","","","","","","","","","","","","","","","","","","","","","","","","","","","","","","","","","","","","","",""
"24389","","{""friend_name"":""王"",""ParticipantID"":""14""}","survey-html-form","2","58681","0.0-1.0-1.0","4","4","4","4","4","4","4","3","4","4","5","5","5","4","5","5","5","5","5","5","1","1","1","1","1","1","2","4","1","0","1","0","0","1","0","0","0","0","0","0","0","1","0","0","5","1","2","1","1","","2","4","3","4","1","598856622046969856","王","14","","","","","","","","","","","","","","","","","","","","","","","","","","","","","","","","","","","","","","","","","",""
"","","","fullscreen","3","68606","0.0-2.0","4","4","4","4","4","4","4","3","4","4","5","5","5","4","5","5","5","5","5","5","1","1","1","1","1","1","2","4","1","0","1","0","0","1","0","0","0","0","0","0","0","1","0","0","5","1","2","1","1","","2","4","3","4","1","598856622046969856","王","14","","true","{}","","","","","","","","","","","","","","","","","","","","","","","","","","","","","","","","","","","","","","",""
"28594.09999999404","","{""Q01"":""4"",""Q02"":""4"",""Q03"":""4"",""Q04"":""4"",""Q05"":""4"",""Q06"":""4"",""Q07"":""4"",""Q08"":""3"",""Q09"":""4"",""Q10"":""4""}","survey-template","4","97203","0.0-3.0","4","4","4","4","4","4","4","3","4","4","5","5","5","4","5","5","5","5","5","5","1","1","1","1","1","1","2","4","1","0","1","0","0","1","0","0","0","0","0","0","0","1","0","0","5","1","2","1","1","","2","4","3","4","1","598856622046969856","王","14","","","","{""Q01"":""4"",""Q02"":""4"",""Q03"":""4"",""Q04"":""4"",""Q05"":""4"",""Q06"":""4"",""Q07"":""4"",""Q08"":""3"",""Q09"":""4"",""Q10"":""4""}","[0,1,2,3,4,5,6,7,8,9]","[""Q01"",""Q02"",""Q03"",""Q04"",""Q05"",""Q06"",""Q07"",""Q09"",""Q08"",""Q10"",""Q08""]","[4049.300000011921,4753.0999999940395,7057.0999999940395,9193,11385,12681,13617.09999999404,19505.19999998808,20953.09999999404,22154.19999998808,22985]","[]","[2945.0999999940395,4049.300000011921,4753.0999999940395,7057.0999999940395,9193,10449.09999999404,11385,12681,13617.09999999404,19505.19999998808,20953.09999999404,22154.19999998808,22985,28593.09999999404]","0.5","0.5555555555555556","0","","","","","","","","","","","","","","","","","","","","","","","","","","","","","",""
"16475.69999998808","","{""Q01"":""5"",""Q02"":""5"",""Q03"":""5"",""Q04"":""4"",""Q05"":""5"",""Q06"":""5"",""Q07"":""5"",""Q08"":""5"",""Q09"":""5"",""Q10"":""5""}","survey-template","5","113683","0.0-4.0","4","4","4","4","4","4","4","3","4","4","5","5","5","4","5","5","5","5","5","5","1","1","1","1","1","1","2","4","1","0","1","0","0","1","0","0","0","0","0","0","0","1","0","0","5","1","2","1","1","","2","4","3","4","1","598856622046969856","王","14","","","","{""Q01"":""5"",""Q02"":""5"",""Q03"":""5"",""Q04"":""4"",""Q05"":""5"",""Q06"":""5"",""Q07"":""5"",""Q08"":""5"",""Q09"":""5"",""Q10"":""5""}","[0,1,2,3,4,5,6,7,8,9]","[""Q01"",""Q02"",""Q03"",""Q04"",""Q05"",""Q06"",""Q07"",""Q08"",""Q09"",""Q10""]","[2410.199999988079,4450.199999988079,4978.199999988079,7866.299999982119,8762.199999988079,9714.199999988079,11370.09999999404,12090.199999988079,13842.09999999404,14954.09999999404]","[]","[2410.199999988079,3858.199999988079,4450.199999988079,4978.199999988079,7866.299999982119,8762.199999988079,9714.199999988079,11370.09999999404,12090.199999988079,13842.09999999404,14954.09999999404,16474.29999998212]","0.6","0.5555555555555556","0","","","","","","","","","","","","","","","","","","","","","","","","","","","","","",""
"","","","preload","6","113990","0.0-5.0","4","4","4","4","4","4","4","3","4","4","5","5","5","4","5","5","5","5","5","5","1","1","1","1","1","1","2","4","1","0","1","0","0","1","0","0","0","0","0","0","0","1","0","0","5","1","2","1","1","","2","4","3","4","1","598856622046969856","王","14","","true","","","","","","","","","","","false","[]","[]","[]","","","","","","","","","","","","","","","","","","","","","","","","","",""
"40970","","","instructions","7","154961","0.0-6.0","4","4","4","4","4","4","4","3","4","4","5","5","5","4","5","5","5","5","5","5","1","1","1","1","1","1","2","4","1","0","1","0","0","1","0","0","0","0","0","0","0","1","0","0","5","1","2","1","1","","2","4","3","4","1","598856622046969856","王","14","","","","","","","","","","","","","","","","","[{""page_index"":0,""viewing_time"":40970}]","","","","","","","","","","","","","","","","","","","","","","","","",""
"48911","","","instructions","8","203873","0.0-7.0-1.0-0.0","4","4","4","4","4","4","4","3","4","4","5","5","5","4","5","5","5","5","5","5","1","1","1","1","1","1","2","4","1","0","1","0","0","1","0","0","0","0","0","0","0","1","0","0","5","1","2","1","1","","2","4","3","4","1","598856622046969856","王","14","","","","","","","","","","","","","","","","","[{""page_index"":0,""viewing_time"":41598},{""page_index"":1,""viewing_time"":5080},{""page_index"":2,""viewing_time"":2232}]","","","","","","","","","","","","","","","","","","","","","","","","",""
"862","","f","psychophysics","9","205738","0.0-7.0-1.0-1.0-0.0-0.0","4","4","4","4","4","4","4","3","4","4","5","5","5","4","5","5","5","5","5","5","1","1","1","1","1","1","2","4","1","0","1","0","0","1","0","0","0","0","0","0","0","1","0","0","5","1","2","1","1","","2","4","3","4","1","598856622046969856","王","14","","","","match","","","","","","","","","","","","","","key","f","16.66396396396407","768","428","j","false","nonmatch","img/trapezoid.png","五边","梯形","ALT1_2","prac_ALT1_2","","","","","","","","","","","",""
"null","<span style='color:red; font-size: 70px;'>错误! </span>","null","html-keyboard-response","10","206240","0.0-7.0-1.0-1.0-0.0-1.0","4","4","4","4","4","4","4","3","4","4","5","5","5","4","5","5","5","5","5","5","1","1","1","1","1","1","2","4","1","0","1","0","0","1","0","0","0","0","0","0","0","1","0","0","5","1","2","1","1","","2","4","3","4","1","598856622046969856","王","14","","","","","","","","","","","","","","","","","","","","","","","","","","","","","","feedback_test","","","","","","","","","","","",""
"681","","f","psychophysics","11","207922","0.0-7.0-1.0-1.0-0.0-0.1","4","4","4","4","4","4","4","3","4","4","5","5","5","4","5","5","5","5","5","5","1","1","1","1","1","1","2","4","1","0","1","0","0","1","0","0","0","0","0","0","0","1","0","0","5","1","2","1","1","","2","4","3","4","1","598856622046969856","王","14","","","","match","","","","","","","","","","","","","","key","f","16.66399999999994","768","428","f","true","match","img/triangle.png","三角","三角","ALT1_2","prac_ALT1_2","","","","","","","","","","","",""
"null","<span style='color:GreenYellow; font-size: 70px;'>正确! </span>","null","html-keyboard-response","12","208424","0.0-7.0-1.0-1.0-0.0-1.1","4","4","4","4","4","4","4","3","4","4","5","5","5","4","5","5","5","5","5","5","1","1","1","1","1","1","2","4","1","0","1","0","0","1","0","0","0","0","0","0","0","1","0","0","5","1","2","1","1","","2","4","3","4","1","598856622046969856","王","14","","","","","","","","","","","","","","","","","","","","","","","","","","","","","","feedback_test","","","","","","","","","","","",""
"825","","j","psychophysics","13","210250","0.0-7.0-1.0-1.0-0.0-0.2","4","4","4","4","4","4","4","3","4","4","5","5","5","4","5","5","5","5","5","5","1","1","1","1","1","1","2","4","1","0","1","0","0","1","0","0","0","0","0","0","0","1","0","0","5","1","2","1","1","","2","4","3","4","1","598856622046969856","王","14","","","","nonmatch","","","","","","","","","","","","","","key","j","16.65277777777778","768","428","j","true","nonmatch","img/pentagon.png","圆形","五边","ALT1_2","prac_ALT1_2","","","","","","","","","","","",""
"null","<span style='color:GreenYellow; font-size: 70px;'>正确! </span>","null","html-keyboard-response","14","210751","0.0-7.0-1.0-1.0-0.0-1.2","4","4","4","4","4","4","4","3","4","4","5","5","5","4","5","5","5","5","5","5","1","1","1","1","1","1","2","4","1","0","1","0","0","1","0","0","0","0","0","0","0","1","0","0","5","1","2","1","1","","2","4","3","4","1","598856622046969856","王","14","","","","","","","","","","","","","","","","","","","","","","","","","","","","","","feedback_test","","","","","","","","","","","",""
"632","","f","psychophysics","15","212385","0.0-7.0-1.0-1.0-0.0-0.3","4","4","4","4","4","4","4","3","4","4","5","5","5","4","5","5","5","5","5","5","1","1","1","1","1","1","2","4","1","0","1","0","0","1","0","0","0","0","0","0","0","1","0","0","5","1","2","1","1","","2","4","3","4","1","598856622046969856","王","14","","","","match","","","","","","","","","","","","","","key","f","16.664948453608247","768","428","f","true","match","img/triangle.png","三角","三角","ALT1_2","prac_ALT1_2","","","","","","","","","","","",""
"null","<span style='color:GreenYellow; font-size: 70px;'>正确! </span>","null","html-keyboard-response","16","212894","0.0-7.0-1.0-1.0-0.0-1.3","4","4","4","4","4","4","4","3","4","4","5","5","5","4","5","5","5","5","5","5","1","1","1","1","1","1","2","4","1","0","1","0","0","1","0","0","0","0","0","0","0","1","0","0","5","1","2","1","1","","2","4","3","4","1","598856622046969856","王","14","","","","","","","","","","","","","","","","","","","","","","","","","","","","","","feedback_test","","","","","","","","","","","",""
"779","","j","psychophysics","17","214674","0.0-7.0-1.0-1.0-0.0-0.4","4","4","4","4","4","4","4","3","4","4","5","5","5","4","5","5","5","5","5","5","1","1","1","1","1","1","2","4","1","0","1","0","0","1","0","0","0","0","0","0","0","1","0","0","5","1","2","1","1","","2","4","3","4","1","598856622046969856","王","14","","","","nonmatch","","","","","","","","","","","","","","key","j","16.664761904761793","768","428","j","true","nonmatch","img/triangle.png","梯形","三角","ALT1_2","prac_ALT1_2","","","","","","","","","","","",""
"null","<span style='color:GreenYellow; font-size: 70px;'>正确! </span>","null","html-keyboard-response","18","215175","0.0-7.0-1.0-1.0-0.0-1.4","4","4","4","4","4","4","4","3","4","4","5","5","5","4","5","5","5","5","5","5","1","1","1","1","1","1","2","4","1","0","1","0","0","1","0","0","0","0","0","0","0","1","0","0","5","1","2","1","1","","2","4","3","4","1","598856622046969856","王","14","","","","","","","","","","","","","","","","","","","","","","","","","","","","","","feedback_test","","","","","","","","","","","",""
"810","","j","psychophysics","19","217001","0.0-7.0-1.0-1.0-0.0-0.5","4","4","4","4","4","4","4","3","4","4","5","5","5","4","5","5","5","5","5","5","1","1","1","1","1","1","2","4","1","0","1","0","0","1","0","0","0","0","0","0","0","1","0","0","5","1","2","1","1","","2","4","3","4","1","598856622046969856","王","14","","","","nonmatch","","","","","","","","","","","","","","key","j","16.664814814814708","768","428","j","true","nonmatch","img/circle.png","五边","圆形","ALT1_2","prac_ALT1_2","","","","","","","","","","","",""
"null","<span style='color:GreenYellow; font-size: 70px;'>正确! </span>","null","html-keyboard-response","20","217501","0.0-7.0-1.0-1.0-0.0-1.5","4","4","4","4","4","4","4","3","4","4","5","5","5","4","5","5","5","5","5","5","1","1","1","1","1","1","2","4","1","0","1","0","0","1","0","0","0","0","0","0","0","1","0","0","5","1","2","1","1","","2","4","3","4","1","598856622046969856","王","14","","","","","","","","","","","","","","","","","","","","","","","","","","","","","","feedback_test","","","","","","","","","","","",""
"716","","j","psychophysics","21","219218","0.0-7.0-1.0-1.0-0.0-0.6","4","4","4","4","4","4","4","3","4","4","5","5","5","4","5","5","5","5","5","5","1","1","1","1","1","1","2","4","1","0","1","0","0","1","0","0","0","0","0","0","0","1","0","0","5","1","2","1","1","","2","4","3","4","1","598856622046969856","王","14","","","","nonmatch","","","","","","","","","","","","","","key","j","16.665686274509746","768","428","j","true","nonmatch","img/trapezoid.png","圆形","梯形","ALT1_2","prac_ALT1_2","","","","","","","","","","","",""
"null","<span style='color:GreenYellow; font-size: 70px;'>正确! </span>","null","html-keyboard-response","22","219720","0.0-7.0-1.0-1.0-0.0-1.6","4","4","4","4","4","4","4","3","4","4","5","5","5","4","5","5","5","5","5","5","1","1","1","1","1","1","2","4","1","0","1","0","0","1","0","0","0","0","0","0","0","1","0","0","5","1","2","1","1","","2","4","3","4","1","598856622046969856","王","14","","","","","","","","","","","","","","","","","","","","","","","","","","","","","","feedback_test","","","","","","","","","","","",""
"623","","f","psychophysics","23","221345","0.0-7.0-1.0-1.0-0.0-0.7","4","4","4","4","4","4","4","3","4","4","5","5","5","4","5","5","5","5","5","5","1","1","1","1","1","1","2","4","1","0","1","0","0","1","0","0","0","0","0","0","0","1","0","0","5","1","2","1","1","","2","4","3","4","1","598856622046969856","王","14","","","","match","","","","","","","","","","","","","","key","f","16.66597938144336","768","428","f","true","match","img/circle.png","圆形","圆形","ALT1_2","prac_ALT1_2","","","","","","","","","","","",""
"null","<span style='color:GreenYellow; font-size: 70px;'>正确! </span>","null","html-keyboard-response","24","221846","0.0-7.0-1.0-1.0-0.0-1.7","4","4","4","4","4","4","4","3","4","4","5","5","5","4","5","5","5","5","5","5","1","1","1","1","1","1","2","4","1","0","1","0","0","1","0","0","0","0","0","0","0","1","0","0","5","1","2","1","1","","2","4","3","4","1","598856622046969856","王","14","","","","","","","","","","","","","","","","","","","","","","","","","","","","","","feedback_test","","","","","","","","","","","",""
"1113","","f","psychophysics","25","223961","0.0-7.0-1.0-1.0-0.0-0.8","4","4","4","4","4","4","4","3","4","4","5","5","5","4","5","5","5","5","5","5","1","1","1","1","1","1","2","4","1","0","1","0","0","1","0","0","0","0","0","0","0","1","0","0","5","1","2","1","1","","2","4","3","4","1","598856622046969856","王","14","","","","match","","","","","","","","","","","","","","key","f","16.665873015872968","768","428","j","false","nonmatch","img/pentagon.png","梯形","五边","ALT1_2","prac_ALT1_2","","","","","","","","","","","",""
"null","<span style='color:red; font-size: 70px;'>错误! </span>","null","html-keyboard-response","26","224463","0.0-7.0-1.0-1.0-0.0-1.8","4","4","4","4","4","4","4","3","4","4","5","5","5","4","5","5","5","5","5","5","1","1","1","1","1","1","2","4","1","0","1","0","0","1","0","0","0","0","0","0","0","1","0","0","5","1","2","1","1","","2","4","3","4","1","598856622046969856","王","14","","","","","","","","","","","","","","","","","","","","","","","","","","","","","","feedback_test","","","","","","","","","","","",""
"690","","j","psychophysics","27","226154","0.0-7.0-1.0-1.0-0.0-0.9","4","4","4","4","4","4","4","3","4","4","5","5","5","4","5","5","5","5","5","5","1","1","1","1","1","1","2","4","1","0","1","0","0","1","0","0","0","0","0","0","0","1","0","0","5","1","2","1","1","","2","4","3","4","1","598856622046969856","王","14","","","","nonmatch","","","","","","","","","","","","","","key","j","16.665","768","428","j","true","nonmatch","img/triangle.png","圆形","三角","ALT1_2","prac_ALT1_2","","","","","","","","","","","",""
"null","<span style='color:GreenYellow; font-size: 70px;'>正确! </span>","null","html-keyboard-response","28","226656","0.0-7.0-1.0-1.0-0.0-1.9","4","4","4","4","4","4","4","3","4","4","5","5","5","4","5","5","5","5","5","5","1","1","1","1","1","1","2","4","1","0","1","0","0","1","0","0","0","0","0","0","0","1","0","0","5","1","2","1","1","","2","4","3","4","1","598856622046969856","王","14","","","","","","","","","","","","","","","","","","","","","","","","","","","","","","feedback_test","","","","","","","","","","","",""
"650","","j","psychophysics","29","228307","0.0-7.0-1.0-1.0-0.0-0.10","4","4","4","4","4","4","4","3","4","4","5","5","5","4","5","5","5","5","5","5","1","1","1","1","1","1","2","4","1","0","1","0","0","1","0","0","0","0","0","0","0","1","0","0","5","1","2","1","1","","2","4","3","4","1","598856622046969856","王","14","","","","nonmatch","","","","","","","","","","","","","","key","j","16.6653061224488","768","428","j","true","nonmatch","img/trapezoid.png","三角","梯形","ALT1_2","prac_ALT1_2","","","","","","","","","","","",""
"null","<span style='color:GreenYellow; font-size: 70px;'>正确! </span>","null","html-keyboard-response","30","228807","0.0-7.0-1.0-1.0-0.0-1.10","4","4","4","4","4","4","4","3","4","4","5","5","5","4","5","5","5","5","5","5","1","1","1","1","1","1","2","4","1","0","1","0","0","1","0","0","0","0","0","0","0","1","0","0","5","1","2","1","1","","2","4","3","4","1","598856622046969856","王","14","","","","","","","","","","","","","","","","","","","","","","","","","","","","","","feedback_test","","","","","","","","","","","",""
"600","","f","psychophysics","31","230410","0.0-7.0-1.0-1.0-0.0-0.11","4","4","4","4","4","4","4","3","4","4","5","5","5","4","5","5","5","5","5","5","1","1","1","1","1","1","2","4","1","0","1","0","0","1","0","0","0","0","0","0","0","1","0","0","5","1","2","1","1","","2","4","3","4","1","598856622046969856","王","14","","","","match","","","","","","","","","","","","","","key","f","16.66526315789486","768","428","f","true","match","img/triangle.png","三角","三角","ALT1_2","prac_ALT1_2","","","","","","","","","","","",""
"null","<span style='color:GreenYellow; font-size: 70px;'>正确! </span>","null","html-keyboard-response","32","230911","0.0-7.0-1.0-1.0-0.0-1.11","4","4","4","4","4","4","4","3","4","4","5","5","5","4","5","5","5","5","5","5","1","1","1","1","1","1","2","4","1","0","1","0","0","1","0","0","0","0","0","0","0","1","0","0","5","1","2","1","1","","2","4","3","4","1","598856622046969856","王","14","","","","","","","","","","","","","","","","","","","","","","","","","","","","","","feedback_test","","","","","","","","","","","",""
"570","","f","psychophysics","33","232482","0.0-7.0-1.0-1.0-0.0-0.12","4","4","4","4","4","4","4","3","4","4","5","5","5","4","5","5","5","5","5","5","1","1","1","1","1","1","2","4","1","0","1","0","0","1","0","0","0","0","0","0","0","1","0","0","5","1","2","1","1","","2","4","3","4","1","598856622046969856","王","14","","","","match","","","","","","","","","","","","","","key","f","16.664516129032133","768","428","f","true","match","img/circle.png","圆形","圆形","ALT1_2","prac_ALT1_2","","","","","","","","","","","",""
"null","<span style='color:GreenYellow; font-size: 70px;'>正确! </span>","null","html-keyboard-response","34","232982","0.0-7.0-1.0-1.0-0.0-1.12","4","4","4","4","4","4","4","3","4","4","5","5","5","4","5","5","5","5","5","5","1","1","1","1","1","1","2","4","1","0","1","0","0","1","0","0","0","0","0","0","0","1","0","0","5","1","2","1","1","","2","4","3","4","1","598856622046969856","王","14","","","","","","","","","","","","","","","","","","","","","","","","","","","","","","feedback_test","","","","","","","","","","","",""
"594","","f","psychophysics","35","234578","0.0-7.0-1.0-1.0-0.0-0.13","4","4","4","4","4","4","4","3","4","4","5","5","5","4","5","5","5","5","5","5","1","1","1","1","1","1","2","4","1","0","1","0","0","1","0","0","0","0","0","0","0","1","0","0","5","1","2","1","1","","2","4","3","4","1","598856622046969856","王","14","","","","match","","","","","","","","","","","","","","key","f","16.66631578947356","768","428","f","true","match","img/circle.png","圆形","圆形","ALT1_2","prac_ALT1_2","","","","","","","","","","","",""
"null","<span style='color:GreenYellow; font-size: 70px;'>正确! </span>","null","html-keyboard-response","36","235079","0.0-7.0-1.0-1.0-0.0-1.13","4","4","4","4","4","4","4","3","4","4","5","5","5","4","5","5","5","5","5","5","1","1","1","1","1","1","2","4","1","0","1","0","0","1","0","0","0","0","0","0","0","1","0","0","5","1","2","1","1","","2","4","3","4","1","598856622046969856","王","14","","","","","","","","","","","","","","","","","","","","","","","","","","","","","","feedback_test","","","","","","","","","","","",""
"794","","f","psychophysics","37","236874","0.0-7.0-1.0-1.0-0.0-0.14","4","4","4","4","4","4","4","3","4","4","5","5","5","4","5","5","5","5","5","5","1","1","1","1","1","1","2","4","1","0","1","0","0","1","0","0","0","0","0","0","0","1","0","0","5","1","2","1","1","","2","4","3","4","1","598856622046969856","王","14","","","","match","","","","","","","","","","","","","","key","f","16.664485981308466","768","428","f","true","match","img/trapezoid.png","梯形","梯形","ALT1_2","prac_ALT1_2","","","","","","","","","","","",""
"null","<span style='color:GreenYellow; font-size: 70px;'>正确! </span>","null","html-keyboard-response","38","237376","0.0-7.0-1.0-1.0-0.0-1.14","4","4","4","4","4","4","4","3","4","4","5","5","5","4","5","5","5","5","5","5","1","1","1","1","1","1","2","4","1","0","1","0","0","1","0","0","0","0","0","0","0","1","0","0","5","1","2","1","1","","2","4","3","4","1","598856622046969856","王","14","","","","","","","","","","","","","","","","","","","","","","","","","","","","","","feedback_test","","","","","","","","","","","",""
"670","","f","psychophysics","39","239049","0.0-7.0-1.0-1.0-0.0-0.15","4","4","4","4","4","4","4","3","4","4","5","5","5","4","5","5","5","5","5","5","1","1","1","1","1","1","2","4","1","0","1","0","0","1","0","0","0","0","0","0","0","1","0","0","5","1","2","1","1","","2","4","3","4","1","598856622046969856","王","14","","","","match","","","","","","","","","","","","","","key","f","16.663636363636186","768","428","f","true","match","img/trapezoid.png","梯形","梯形","ALT1_2","prac_ALT1_2","","","","","","","","","","","",""
"null","<span style='color:GreenYellow; font-size: 70px;'>正确! </span>","null","html-keyboard-response","40","239550","0.0-7.0-1.0-1.0-0.0-1.15","4","4","4","4","4","4","4","3","4","4","5","5","5","4","5","5","5","5","5","5","1","1","1","1","1","1","2","4","1","0","1","0","0","1","0","0","0","0","0","0","0","1","0","0","5","1","2","1","1","","2","4","3","4","1","598856622046969856","王","14","","","","","","","","","","","","","","","","","","","","","","","","","","","","","","feedback_test","","","","","","","","","","","",""
"675","","j","psychophysics","41","241226","0.0-7.0-1.0-1.0-0.0-0.16","4","4","4","4","4","4","4","3","4","4","5","5","5","4","5","5","5","5","5","5","1","1","1","1","1","1","2","4","1","0","1","0","0","1","0","0","0","0","0","0","0","1","0","0","5","1","2","1","1","","2","4","3","4","1","598856622046969856","王","14","","","","nonmatch","","","","","","","","","","","","","","key","j","16.666000000000057","768","428","j","true","nonmatch","img/circle.png","三角","圆形","ALT1_2","prac_ALT1_2","","","","","","","","","","","",""
"null","<span style='color:GreenYellow; font-size: 70px;'>正确! </span>","null","html-keyboard-response","42","241727","0.0-7.0-1.0-1.0-0.0-1.16","4","4","4","4","4","4","4","3","4","4","5","5","5","4","5","5","5","5","5","5","1","1","1","1","1","1","2","4","1","0","1","0","0","1","0","0","0","0","0","0","0","1","0","0","5","1","2","1","1","","2","4","3","4","1","598856622046969856","王","14","","","","","","","","","","","","","","","","","","","","","","","","","","","","","","feedback_test","","","","","","","","","","","",""
"945","","f","psychophysics","43","243673","0.0-7.0-1.0-1.0-0.0-0.17","4","4","4","4","4","4","4","3","4","4","5","5","5","4","5","5","5","5","5","5","1","1","1","1","1","1","2","4","1","0","1","0","0","1","0","0","0","0","0","0","0","1","0","0","5","1","2","1","1","","2","4","3","4","1","598856622046969856","王","14","","","","match","","","","","","","","","","","","","","key","f","16.664655172413845","768","428","f","true","match","img/pentagon.png","五边","五边","ALT1_2","prac_ALT1_2","","","","","","","","","","","",""
"null","<span style='color:GreenYellow; font-size: 70px;'>正确! </span>","null","html-keyboard-response","44","244174","0.0-7.0-1.0-1.0-0.0-1.17","4","4","4","4","4","4","4","3","4","4","5","5","5","4","5","5","5","5","5","5","1","1","1","1","1","1","2","4","1","0","1","0","0","1","0","0","0","0","0","0","0","1","0","0","5","1","2","1","1","","2","4","3","4","1","598856622046969856","王","14","","","","","","","","","","","","","","","","","","","","","","","","","","","","","","feedback_test","","","","","","","","","","","",""
"650","","j","psychophysics","45","245826","0.0-7.0-1.0-1.0-0.0-0.18","4","4","4","4","4","4","4","3","4","4","5","5","5","4","5","5","5","5","5","5","1","1","1","1","1","1","2","4","1","0","1","0","0","1","0","0","0","0","0","0","0","1","0","0","5","1","2","1","1","","2","4","3","4","1","598856622046969856","王","14","","","","nonmatch","","","","","","","","","","","","","","key","j","16.6653061224488","768","428","j","true","nonmatch","img/circle.png","梯形","圆形","ALT1_2","prac_ALT1_2","","","","","","","","","","","",""
"null","<span style='color:GreenYellow; font-size: 70px;'>正确! </span>","null","html-keyboard-response","46","246326","0.0-7.0-1.0-1.0-0.0-1.18","4","4","4","4","4","4","4","3","4","4","5","5","5","4","5","5","5","5","5","5","1","1","1","1","1","1","2","4","1","0","1","0","0","1","0","0","0","0","0","0","0","1","0","0","5","1","2","1","1","","2","4","3","4","1","598856622046969856","王","14","","","","","","","","","","","","","","","","","","","","","","","","","","","","","","feedback_test","","","","","","","","","","","",""
"810","","j","psychophysics","47","248138","0.0-7.0-1.0-1.0-0.0-0.19","4","4","4","4","4","4","4","3","4","4","5","5","5","4","5","5","5","5","5","5","1","1","1","1","1","1","2","4","1","0","1","0","0","1","0","0","0","0","0","0","0","1","0","0","5","1","2","1","1","","2","4","3","4","1","598856622046969856","王","14","","","","nonmatch","","","","","","","","","","","","","","key","j","16.663888888888728","768","428","j","true","nonmatch","img/pentagon.png","三角","五边","ALT1_2","prac_ALT1_2","","","","","","","","","","","",""
"null","<span style='color:GreenYellow; font-size: 70px;'>正确! </span>","null","html-keyboard-response","48","248640","0.0-7.0-1.0-1.0-0.0-1.19","4","4","4","4","4","4","4","3","4","4","5","5","5","4","5","5","5","5","5","5","1","1","1","1","1","1","2","4","1","0","1","0","0","1","0","0","0","0","0","0","0","1","0","0","5","1","2","1","1","","2","4","3","4","1","598856622046969856","王","14","","","","","","","","","","","","","","","","","","","","","","","","","","","","","","feedback_test","","","","","","","","","","","",""
"712","","j","psychophysics","49","250354","0.0-7.0-1.0-1.0-0.0-0.20","4","4","4","4","4","4","4","3","4","4","5","5","5","4","5","5","5","5","5","5","1","1","1","1","1","1","2","4","1","0","1","0","0","1","0","0","0","0","0","0","0","1","0","0","5","1","2","1","1","","2","4","3","4","1","598856622046969856","王","14","","","","nonmatch","","","","","","","","","","","","","","key","j","16.66534653465358","768","428","j","true","nonmatch","img/triangle.png","五边","三角","ALT1_2","prac_ALT1_2","","","","","","","","","","","",""
"null","<span style='color:GreenYellow; font-size: 70px;'>正确! </span>","null","html-keyboard-response","50","250854","0.0-7.0-1.0-1.0-0.0-1.20","4","4","4","4","4","4","4","3","4","4","5","5","5","4","5","5","5","5","5","5","1","1","1","1","1","1","2","4","1","0","1","0","0","1","0","0","0","0","0","0","0","1","0","0","5","1","2","1","1","","2","4","3","4","1","598856622046969856","王","14","","","","","","","","","","","","","","","","","","","","","","","","","","","","","","feedback_test","","","","","","","","","","","",""
"705","","f","psychophysics","51","252562","0.0-7.0-1.0-1.0-0.0-0.21","4","4","4","4","4","4","4","3","4","4","5","5","5","4","5","5","5","5","5","5","1","1","1","1","1","1","2","4","1","0","1","0","0","1","0","0","0","0","0","0","0","1","0","0","5","1","2","1","1","","2","4","3","4","1","598856622046969856","王","14","","","","match","","","","","","","","","","","","","","key","f","16.66534653465358","768","428","f","true","match","img/trapezoid.png","梯形","梯形","ALT1_2","prac_ALT1_2","","","","","","","","","","","",""
"null","<span style='color:GreenYellow; font-size: 70px;'>正确! </span>","null","html-keyboard-response","52","253063","0.0-7.0-1.0-1.0-0.0-1.21","4","4","4","4","4","4","4","3","4","4","5","5","5","4","5","5","5","5","5","5","1","1","1","1","1","1","2","4","1","0","1","0","0","1","0","0","0","0","0","0","0","1","0","0","5","1","2","1","1","","2","4","3","4","1","598856622046969856","王","14","","","","","","","","","","","","","","","","","","","","","","","","","","","","","","feedback_test","","","","","","","","","","","",""
"616","","f","psychophysics","53","254682","0.0-7.0-1.0-1.0-0.0-0.22","4","4","4","4","4","4","4","3","4","4","5","5","5","4","5","5","5","5","5","5","1","1","1","1","1","1","2","4","1","0","1","0","0","1","0","0","0","0","0","0","0","1","0","0","5","1","2","1","1","","2","4","3","4","1","598856622046969856","王","14","","","","match","","","","","","","","","","","","","","key","f","16.665624999999938","768","428","f","true","match","img/pentagon.png","五边","五边","ALT1_2","prac_ALT1_2","","","","","","","","","","","",""
"null","<span style='color:GreenYellow; font-size: 70px;'>正确! </span>","null","html-keyboard-response","54","255183","0.0-7.0-1.0-1.0-0.0-1.22","4","4","4","4","4","4","4","3","4","4","5","5","5","4","5","5","5","5","5","5","1","1","1","1","1","1","2","4","1","0","1","0","0","1","0","0","0","0","0","0","0","1","0","0","5","1","2","1","1","","2","4","3","4","1","598856622046969856","王","14","","","","","","","","","","","","","","","","","","","","","","","","","","","","","","feedback_test","","","","","","","","","","","",""
"440","","f","psychophysics","55","256626","0.0-7.0-1.0-1.0-0.0-0.23","4","4","4","4","4","4","4","3","4","4","5","5","5","4","5","5","5","5","5","5","1","1","1","1","1","1","2","4","1","0","1","0","0","1","0","0","0","0","0","0","0","1","0","0","5","1","2","1","1","","2","4","3","4","1","598856622046969856","王","14","","","","match","","","","","","","","","","","","","","key","f","16.666279069767644","768","428","f","true","match","img/pentagon.png","五边","五边","ALT1_2","prac_ALT1_2","","","","","","","","","","","",""
"null","<span style='color:GreenYellow; font-size: 70px;'>正确! </span>","null","html-keyboard-response","56","257127","0.0-7.0-1.0-1.0-0.0-1.23","4","4","4","4","4","4","4","3","4","4","5","5","5","4","5","5","5","5","5","5","1","1","1","1","1","1","2","4","1","0","1","0","0","1","0","0","0","0","0","0","0","1","0","0","5","1","2","1","1","","2","4","3","4","1","598856622046969856","王","14","","","","","","","","","","","","","","","","","","","","","","","","","","","","","","feedback_test","","","","","","","","","","","",""
"634","","f","psychophysics","57","258762","0.0-7.0-1.0-1.0-0.0-0.24","4","4","4","4","4","4","4","3","4","4","5","5","5","4","5","5","5","5","5","5","1","1","1","1","1","1","2","4","1","0","1","0","0","1","0","0","0","0","0","0","0","1","0","0","5","1","2","1","1","","2","4","3","4","1","598856622046969856","王","14","","","","match","","","","","","","","","","","","","","key","f","16.664948453608247","768","428","f","true","match","img/triangle.png","三角","三角","ALT1_2","prac_ALT1_2","","","","","","","","","","","",""
"null","<span style='color:GreenYellow; font-size: 70px;'>正确! </span>","null","html-keyboard-response","58","259263","0.0-7.0-1.0-1.0-0.0-1.24","4","4","4","4","4","4","4","3","4","4","5","5","5","4","5","5","5","5","5","5","1","1","1","1","1","1","2","4","1","0","1","0","0","1","0","0","0","0","0","0","0","1","0","0","5","1","2","1","1","","2","4","3","4","1","598856622046969856","王","14","","","","","","","","","","","","","","","","","","","","","","","","","","","","","","feedback_test","","","","","","","","","","","",""
"489","","f","psychophysics","59","260754","0.0-7.0-1.0-1.0-0.0-0.25","4","4","4","4","4","4","4","3","4","4","5","5","5","4","5","5","5","5","5","5","1","1","1","1","1","1","2","4","1","0","1","0","0","1","0","0","0","0","0","0","0","1","0","0","5","1","2","1","1","","2","4","3","4","1","598856622046969856","王","14","","","","match","","","","","","","","","","","","","","key","f","16.66404494382029","768","428","f","true","match","img/triangle.png","三角","三角","ALT1_2","prac_ALT1_2","","","","","","","","","","","",""
"null","<span style='color:GreenYellow; font-size: 70px;'>正确! </span>","null","html-keyboard-response","60","261255","0.0-7.0-1.0-1.0-0.0-1.25","4","4","4","4","4","4","4","3","4","4","5","5","5","4","5","5","5","5","5","5","1","1","1","1","1","1","2","4","1","0","1","0","0","1","0","0","0","0","0","0","0","1","0","0","5","1","2","1","1","","2","4","3","4","1","598856622046969856","王","14","","","","","","","","","","","","","","","","","","","","","","","","","","","","","","feedback_test","","","","","","","","","","","",""
"602","","j","psychophysics","61","262858","0.0-7.0-1.0-1.0-0.0-0.26","4","4","4","4","4","4","4","3","4","4","5","5","5","4","5","5","5","5","5","5","1","1","1","1","1","1","2","4","1","0","1","0","0","1","0","0","0","0","0","0","0","1","0","0","5","1","2","1","1","","2","4","3","4","1","598856622046969856","王","14","","","","nonmatch","","","","","","","","","","","","","","key","j","16.66526315789486","768","428","j","true","nonmatch","img/triangle.png","圆形","三角","ALT1_2","prac_ALT1_2","","","","","","","","","","","",""
"null","<span style='color:GreenYellow; font-size: 70px;'>正确! </span>","null","html-keyboard-response","62","263359","0.0-7.0-1.0-1.0-0.0-1.26","4","4","4","4","4","4","4","3","4","4","5","5","5","4","5","5","5","5","5","5","1","1","1","1","1","1","2","4","1","0","1","0","0","1","0","0","0","0","0","0","0","1","0","0","5","1","2","1","1","","2","4","3","4","1","598856622046969856","王","14","","","","","","","","","","","","","","","","","","","","","","","","","","","","","","feedback_test","","","","","","","","","","","",""
"594","","f","psychophysics","63","264954","0.0-7.0-1.0-1.0-0.0-0.27","4","4","4","4","4","4","4","3","4","4","5","5","5","4","5","5","5","5","5","5","1","1","1","1","1","1","2","4","1","0","1","0","0","1","0","0","0","0","0","0","0","1","0","0","5","1","2","1","1","","2","4","3","4","1","598856622046969856","王","14","","","","match","","","","","","","","","","","","","","key","f","16.66526315789425","768","428","f","true","match","img/circle.png","圆形","圆形","ALT1_2","prac_ALT1_2","","","","","","","","","","","",""
"null","<span style='color:GreenYellow; font-size: 70px;'>正确! </span>","null","html-keyboard-response","64","265455","0.0-7.0-1.0-1.0-0.0-1.27","4","4","4","4","4","4","4","3","4","4","5","5","5","4","5","5","5","5","5","5","1","1","1","1","1","1","2","4","1","0","1","0","0","1","0","0","0","0","0","0","0","1","0","0","5","1","2","1","1","","2","4","3","4","1","598856622046969856","王","14","","","","","","","","","","","","","","","","","","","","","","","","","","","","","","feedback_test","","","","","","","","","","","",""
"705","","j","psychophysics","65","267162","0.0-7.0-1.0-1.0-0.0-0.28","4","4","4","4","4","4","4","3","4","4","5","5","5","4","5","5","5","5","5","5","1","1","1","1","1","1","2","4","1","0","1","0","0","1","0","0","0","0","0","0","0","1","0","0","5","1","2","1","1","","2","4","3","4","1","598856622046969856","王","14","","","","nonmatch","","","","","","","","","","","","","","key","j","16.66534653465358","768","428","j","true","nonmatch","img/pentagon.png","圆形","五边","ALT1_2","prac_ALT1_2","","","","","","","","","","","",""
"null","<span style='color:GreenYellow; font-size: 70px;'>正确! </span>","null","html-keyboard-response","66","267662","0.0-7.0-1.0-1.0-0.0-1.28","4","4","4","4","4","4","4","3","4","4","5","5","5","4","5","5","5","5","5","5","1","1","1","1","1","1","2","4","1","0","1","0","0","1","0","0","0","0","0","0","0","1","0","0","5","1","2","1","1","","2","4","3","4","1","598856622046969856","王","14","","","","","","","","","","","","","","","","","","","","","","","","","","","","","","feedback_test","","","","","","","","","","","",""
"562","","f","psychophysics","67","269226","0.0-7.0-1.0-1.0-0.0-0.29","4","4","4","4","4","4","4","3","4","4","5","5","5","4","5","5","5","5","5","5","1","1","1","1","1","1","2","4","1","0","1","0","0","1","0","0","0","0","0","0","0","1","0","0","5","1","2","1","1","","2","4","3","4","1","598856622046969856","王","14","","","","match","","","","","","","","","","","","","","key","f","16.666666666666668","768","428","f","true","match","img/circle.png","圆形","圆形","ALT1_2","prac_ALT1_2","","","","","","","","","","","",""
"null","<span style='color:GreenYellow; font-size: 70px;'>正确! </span>","null","html-keyboard-response","68","269726","0.0-7.0-1.0-1.0-0.0-1.29","4","4","4","4","4","4","4","3","4","4","5","5","5","4","5","5","5","5","5","5","1","1","1","1","1","1","2","4","1","0","1","0","0","1","0","0","0","0","0","0","0","1","0","0","5","1","2","1","1","","2","4","3","4","1","598856622046969856","王","14","","","","","","","","","","","","","","","","","","","","","","","","","","","","","","feedback_test","","","","","","","","","","","",""
"610","","f","psychophysics","69","271337","0.0-7.0-1.0-1.0-0.0-0.30","4","4","4","4","4","4","4","3","4","4","5","5","5","4","5","5","5","5","5","5","1","1","1","1","1","1","2","4","1","0","1","0","0","1","0","0","0","0","0","0","0","1","0","0","5","1","2","1","1","","2","4","3","4","1","598856622046969856","王","14","","","","match","","","","","","","","","","","","","","key","f","16.666666666666668","768","428","f","true","match","img/pentagon.png","五边","五边","ALT1_2","prac_ALT1_2","","","","","","","","","","","",""
"null","<span style='color:GreenYellow; font-size: 70px;'>正确! </span>","null","html-keyboard-response","70","271838","0.0-7.0-1.0-1.0-0.0-1.30","4","4","4","4","4","4","4","3","4","4","5","5","5","4","5","5","5","5","5","5","1","1","1","1","1","1","2","4","1","0","1","0","0","1","0","0","0","0","0","0","0","1","0","0","5","1","2","1","1","","2","4","3","4","1","598856622046969856","王","14","","","","","","","","","","","","","","","","","","","","","","","","","","","","","","feedback_test","","","","","","","","","","","",""
"650","","j","psychophysics","71","273490","0.0-7.0-1.0-1.0-0.0-0.31","4","4","4","4","4","4","4","3","4","4","5","5","5","4","5","5","5","5","5","5","1","1","1","1","1","1","2","4","1","0","1","0","0","1","0","0","0","0","0","0","0","1","0","0","5","1","2","1","1","","2","4","3","4","1","598856622046969856","王","14","","","","nonmatch","","","","","","","","","","","","","","key","j","16.666326530612125","768","428","j","true","nonmatch","img/pentagon.png","梯形","五边","ALT1_2","prac_ALT1_2","","","","","","","","","","","",""
"null","<span style='color:GreenYellow; font-size: 70px;'>正确! </span>","null","html-keyboard-response","72","273992","0.0-7.0-1.0-1.0-0.0-1.31","4","4","4","4","4","4","4","3","4","4","5","5","5","4","5","5","5","5","5","5","1","1","1","1","1","1","2","4","1","0","1","0","0","1","0","0","0","0","0","0","0","1","0","0","5","1","2","1","1","","2","4","3","4","1","598856622046969856","王","14","","","","","","","","","","","","","","","","","","","","","","","","","","","","","","feedback_test","","","","","","","","","","","",""
"666","","j","psychophysics","73","275658","0.0-7.0-1.0-1.0-0.0-0.32","4","4","4","4","4","4","4","3","4","4","5","5","5","4","5","5","5","5","5","5","1","1","1","1","1","1","2","4","1","0","1","0","0","1","0","0","0","0","0","0","0","1","0","0","5","1","2","1","1","","2","4","3","4","1","598856622046969856","王","14","","","","nonmatch","","","","","","","","","","","","","","key","j","16.664646464646346","768","428","j","true","nonmatch","img/circle.png","三角","圆形","ALT1_2","prac_ALT1_2","","","","","","","","","","","",""
"null","<span style='color:GreenYellow; font-size: 70px;'>正确! </span>","null","html-keyboard-response","74","276160","0.0-7.0-1.0-1.0-0.0-1.32","4","4","4","4","4","4","4","3","4","4","5","5","5","4","5","5","5","5","5","5","1","1","1","1","1","1","2","4","1","0","1","0","0","1","0","0","0","0","0","0","0","1","0","0","5","1","2","1","1","","2","4","3","4","1","598856622046969856","王","14","","","","","","","","","","","","","","","","","","","","","","","","","","","","","","feedback_test","","","","","","","","","","","",""
"689","","j","psychophysics","75","277850","0.0-7.0-1.0-1.0-0.0-0.33","4","4","4","4","4","4","4","3","4","4","5","5","5","4","5","5","5","5","5","5","1","1","1","1","1","1","2","4","1","0","1","0","0","1","0","0","0","0","0","0","0","1","0","0","5","1","2","1","1","","2","4","3","4","1","598856622046969856","王","14","","","","nonmatch","","","","","","","","","","","","","","key","j","16.665","768","428","j","true","nonmatch","img/trapezoid.png","三角","梯形","ALT1_2","prac_ALT1_2","","","","","","","","","","","",""
"null","<span style='color:GreenYellow; font-size: 70px;'>正确! </span>","null","html-keyboard-response","76","278350","0.0-7.0-1.0-1.0-0.0-1.33","4","4","4","4","4","4","4","3","4","4","5","5","5","4","5","5","5","5","5","5","1","1","1","1","1","1","2","4","1","0","1","0","0","1","0","0","0","0","0","0","0","1","0","0","5","1","2","1","1","","2","4","3","4","1","598856622046969856","王","14","","","","","","","","","","","","","","","","","","","","","","","","","","","","","","feedback_test","","","","","","","","","","","",""
"555","","f","psychophysics","77","279906","0.0-7.0-1.0-1.0-0.0-0.34","4","4","4","4","4","4","4","3","4","4","5","5","5","4","5","5","5","5","5","5","1","1","1","1","1","1","2","4","1","0","1","0","0","1","0","0","0","0","0","0","0","1","0","0","5","1","2","1","1","","2","4","3","4","1","598856622046969856","王","14","","","","match","","","","","","","","","","","","","","key","f","16.664130434782987","768","428","f","true","match","img/circle.png","圆形","圆形","ALT1_2","prac_ALT1_2","","","","","","","","","","","",""
"null","<span style='color:GreenYellow; font-size: 70px;'>正确! </span>","null","html-keyboard-response","78","280407","0.0-7.0-1.0-1.0-0.0-1.34","4","4","4","4","4","4","4","3","4","4","5","5","5","4","5","5","5","5","5","5","1","1","1","1","1","1","2","4","1","0","1","0","0","1","0","0","0","0","0","0","0","1","0","0","5","1","2","1","1","","2","4","3","4","1","598856622046969856","王","14","","","","","","","","","","","","","","","","","","","","","","","","","","","","","","feedback_test","","","","","","","","","","","",""
"616","","j","psychophysics","79","282026","0.0-7.0-1.0-1.0-0.0-0.35","4","4","4","4","4","4","4","3","4","4","5","5","5","4","5","5","5","5","5","5","1","1","1","1","1","1","2","4","1","0","1","0","0","1","0","0","0","0","0","0","0","1","0","0","5","1","2","1","1","","2","4","3","4","1","598856622046969856","王","14","","","","nonmatch","","","","","","","","","","","","","","key","j","16.66458333333382","768","428","j","true","nonmatch","img/trapezoid.png","圆形","梯形","ALT1_2","prac_ALT1_2","","","","","","","","","","","",""
"null","<span style='color:GreenYellow; font-size: 70px;'>正确! </span>","null","html-keyboard-response","80","282528","0.0-7.0-1.0-1.0-0.0-1.35","4","4","4","4","4","4","4","3","4","4","5","5","5","4","5","5","5","5","5","5","1","1","1","1","1","1","2","4","1","0","1","0","0","1","0","0","0","0","0","0","0","1","0","0","5","1","2","1","1","","2","4","3","4","1","598856622046969856","王","14","","","","","","","","","","","","","","","","","","","","","","","","","","","","","","feedback_test","","","","","","","","","","","",""
"625","","j","psychophysics","81","284154","0.0-7.0-1.0-1.0-0.0-0.36","4","4","4","4","4","4","4","3","4","4","5","5","5","4","5","5","5","5","5","5","1","1","1","1","1","1","2","4","1","0","1","0","0","1","0","0","0","0","0","0","0","1","0","0","5","1","2","1","1","","2","4","3","4","1","598856622046969856","王","14","","","","nonmatch","","","","","","","","","","","","","","key","j","16.66701030927847","768","428","j","true","nonmatch","img/pentagon.png","三角","五边","ALT1_2","prac_ALT1_2","","","","","","","","","","","",""
"null","<span style='color:GreenYellow; font-size: 70px;'>正确! </span>","null","html-keyboard-response","82","284654","0.0-7.0-1.0-1.0-0.0-1.36","4","4","4","4","4","4","4","3","4","4","5","5","5","4","5","5","5","5","5","5","1","1","1","1","1","1","2","4","1","0","1","0","0","1","0","0","0","0","0","0","0","1","0","0","5","1","2","1","1","","2","4","3","4","1","598856622046969856","王","14","","","","","","","","","","","","","","","","","","","","","","","","","","","","","","feedback_test","","","","","","","","","","","",""
"1042","","j","psychophysics","83","286698","0.0-7.0-1.0-1.0-0.0-0.37","4","4","4","4","4","4","4","3","4","4","5","5","5","4","5","5","5","5","5","5","1","1","1","1","1","1","2","4","1","0","1","0","0","1","0","0","0","0","0","0","0","1","0","0","5","1","2","1","1","","2","4","3","4","1","598856622046969856","王","14","","","","nonmatch","","","","","","","","","","","","","","key","j","16.665289256198346","768","428","j","true","nonmatch","img/trapezoid.png","五边","梯形","ALT1_2","prac_ALT1_2","","","","","","","","","","","",""
"null","<span style='color:GreenYellow; font-size: 70px;'>正确! </span>","null","html-keyboard-response","84","287198","0.0-7.0-1.0-1.0-0.0-1.37","4","4","4","4","4","4","4","3","4","4","5","5","5","4","5","5","5","5","5","5","1","1","1","1","1","1","2","4","1","0","1","0","0","1","0","0","0","0","0","0","0","1","0","0","5","1","2","1","1","","2","4","3","4","1","598856622046969856","王","14","","","","","","","","","","","","","","","","","","","","","","","","","","","","","","feedback_test","","","","","","","","","","","",""
"746","","f","psychophysics","85","288946","0.0-7.0-1.0-1.0-0.0-0.38","4","4","4","4","4","4","4","3","4","4","5","5","5","4","5","5","5","5","5","5","1","1","1","1","1","1","2","4","1","0","1","0","0","1","0","0","0","0","0","0","0","1","0","0","5","1","2","1","1","","2","4","3","4","1","598856622046969856","王","14","","","","match","","","","","","","","","","","","","","key","f","16.654368932038494","768","428","f","true","match","img/pentagon.png","五边","五边","ALT1_2","prac_ALT1_2","","","","","","","","","","","",""
"null","<span style='color:GreenYellow; font-size: 70px;'>正确! </span>","null","html-keyboard-response","86","289446","0.0-7.0-1.0-1.0-0.0-1.38","4","4","4","4","4","4","4","3","4","4","5","5","5","4","5","5","5","5","5","5","1","1","1","1","1","1","2","4","1","0","1","0","0","1","0","0","0","0","0","0","0","1","0","0","5","1","2","1","1","","2","4","3","4","1","598856622046969856","王","14","","","","","","","","","","","","","","","","","","","","","","","","","","","","","","feedback_test","","","","","","","","","","","",""
"618","","f","psychophysics","87","291066","0.0-7.0-1.0-1.0-0.0-0.39","4","4","4","4","4","4","4","3","4","4","5","5","5","4","5","5","5","5","5","5","1","1","1","1","1","1","2","4","1","0","1","0","0","1","0","0","0","0","0","0","0","1","0","0","5","1","2","1","1","","2","4","3","4","1","598856622046969856","王","14","","","","match","","","","","","","","","","","","","","key","f","16.664583333333212","768","428","f","true","match","img/trapezoid.png","梯形","梯形","ALT1_2","prac_ALT1_2","","","","","","","","","","","",""
"null","<span style='color:GreenYellow; font-size: 70px;'>正确! </span>","null","html-keyboard-response","88","291568","0.0-7.0-1.0-1.0-0.0-1.39","4","4","4","4","4","4","4","3","4","4","5","5","5","4","5","5","5","5","5","5","1","1","1","1","1","1","2","4","1","0","1","0","0","1","0","0","0","0","0","0","0","1","0","0","5","1","2","1","1","","2","4","3","4","1","598856622046969856","王","14","","","","","","","","","","","","","","","","","","","","","","","","","","","","","","feedback_test","","","","","","","","","","","",""
"585","","f","psychophysics","89","293154","0.0-7.0-1.0-1.0-0.0-0.40","4","4","4","4","4","4","4","3","4","4","5","5","5","4","5","5","5","5","5","5","1","1","1","1","1","1","2","4","1","0","1","0","0","1","0","0","0","0","0","0","0","1","0","0","5","1","2","1","1","","2","4","3","4","1","598856622046969856","王","14","","","","match","","","","","","","","","","","","","","key","f","16.664893617021278","768","428","f","true","match","img/trapezoid.png","梯形","梯形","ALT1_2","prac_ALT1_2","","","","","","","","","","","",""
"null","<span style='color:GreenYellow; font-size: 70px;'>正确! </span>","null","html-keyboard-response","90","293654","0.0-7.0-1.0-1.0-0.0-1.40","4","4","4","4","4","4","4","3","4","4","5","5","5","4","5","5","5","5","5","5","1","1","1","1","1","1","2","4","1","0","1","0","0","1","0","0","0","0","0","0","0","1","0","0","5","1","2","1","1","","2","4","3","4","1","598856622046969856","王","14","","","","","","","","","","","","","","","","","","","","","","","","","","","","","","feedback_test","","","","","","","","","","","",""
"518","","f","psychophysics","91","295177","0.0-7.0-1.0-1.0-0.0-0.41","4","4","4","4","4","4","4","3","4","4","5","5","5","4","5","5","5","5","5","5","1","1","1","1","1","1","2","4","1","0","1","0","0","1","0","0","0","0","0","0","0","1","0","0","5","1","2","1","1","","2","4","3","4","1","598856622046969856","王","14","","","","match","","","","","","","","","","","","","","key","f","16.66444444444496","768","428","f","true","match","img/triangle.png","三角","三角","ALT1_2","prac_ALT1_2","","","","","","","","","","","",""
"null","<span style='color:GreenYellow; font-size: 70px;'>正确! </span>","null","html-keyboard-response","92","295680","0.0-7.0-1.0-1.0-0.0-1.41","4","4","4","4","4","4","4","3","4","4","5","5","5","4","5","5","5","5","5","5","1","1","1","1","1","1","2","4","1","0","1","0","0","1","0","0","0","0","0","0","0","1","0","0","5","1","2","1","1","","2","4","3","4","1","598856622046969856","王","14","","","","","","","","","","","","","","","","","","","","","","","","","","","","","","feedback_test","","","","","","","","","","","",""
"769","","f","psychophysics","93","297450","0.0-7.0-1.0-1.0-0.0-0.42","4","4","4","4","4","4","4","3","4","4","5","5","5","4","5","5","5","5","5","5","1","1","1","1","1","1","2","4","1","0","1","0","0","1","0","0","0","0","0","0","0","1","0","0","5","1","2","1","1","","2","4","3","4","1","598856622046969856","王","14","","","","match","","","","","","","","","","","","","","key","f","16.66509433962264","768","428","f","true","match","img/pentagon.png","五边","五边","ALT1_2","prac_ALT1_2","","","","","","","","","","","",""
"null","<span style='color:GreenYellow; font-size: 70px;'>正确! </span>","null","html-keyboard-response","94","297951","0.0-7.0-1.0-1.0-0.0-1.42","4","4","4","4","4","4","4","3","4","4","5","5","5","4","5","5","5","5","5","5","1","1","1","1","1","1","2","4","1","0","1","0","0","1","0","0","0","0","0","0","0","1","0","0","5","1","2","1","1","","2","4","3","4","1","598856622046969856","王","14","","","","","","","","","","","","","","","","","","","","","","","","","","","","","","feedback_test","","","","","","","","","","","",""
"769","","j","psychophysics","95","299722","0.0-7.0-1.0-1.0-0.0-0.43","4","4","4","4","4","4","4","3","4","4","5","5","5","4","5","5","5","5","5","5","1","1","1","1","1","1","2","4","1","0","1","0","0","1","0","0","0","0","0","0","0","1","0","0","5","1","2","1","1","","2","4","3","4","1","598856622046969856","王","14","","","","nonmatch","","","","","","","","","","","","","","key","j","16.665714285714508","768","428","j","true","nonmatch","img/circle.png","梯形","圆形","ALT1_2","prac_ALT1_2","","","","","","","","","","","",""
"null","<span style='color:GreenYellow; font-size: 70px;'>正确! </span>","null","html-keyboard-response","96","300222","0.0-7.0-1.0-1.0-0.0-1.43","4","4","4","4","4","4","4","3","4","4","5","5","5","4","5","5","5","5","5","5","1","1","1","1","1","1","2","4","1","0","1","0","0","1","0","0","0","0","0","0","0","1","0","0","5","1","2","1","1","","2","4","3","4","1","598856622046969856","王","14","","","","","","","","","","","","","","","","","","","","","","","","","","","","","","feedback_test","","","","","","","","","","","",""
"698","","j","psychophysics","97","301922","0.0-7.0-1.0-1.0-0.0-0.44","4","4","4","4","4","4","4","3","4","4","5","5","5","4","5","5","5","5","5","5","1","1","1","1","1","1","2","4","1","0","1","0","0","1","0","0","0","0","0","0","0","1","0","0","5","1","2","1","1","","2","4","3","4","1","598856622046969856","王","14","","","","nonmatch","","","","","","","","","","","","","","key","j","16.665346534653004","768","428","j","true","nonmatch","img/triangle.png","五边","三角","ALT1_2","prac_ALT1_2","","","","","","","","","","","",""
"null","<span style='color:GreenYellow; font-size: 70px;'>正确! </span>","null","html-keyboard-response","98","302424","0.0-7.0-1.0-1.0-0.0-1.44","4","4","4","4","4","4","4","3","4","4","5","5","5","4","5","5","5","5","5","5","1","1","1","1","1","1","2","4","1","0","1","0","0","1","0","0","0","0","0","0","0","1","0","0","5","1","2","1","1","","2","4","3","4","1","598856622046969856","王","14","","","","","","","","","","","","","","","","","","","","","","","","","","","","","","feedback_test","","","","","","","","","","","",""
"937","","f","psychophysics","99","304362","0.0-7.0-1.0-1.0-0.0-0.45","4","4","4","4","4","4","4","3","4","4","5","5","5","4","5","5","5","5","5","5","1","1","1","1","1","1","2","4","1","0","1","0","0","1","0","0","0","0","0","0","0","1","0","0","5","1","2","1","1","","2","4","3","4","1","598856622046969856","王","14","","","","match","","","","","","","","","","","","","","key","f","16.666086956522044","768","428","f","true","match","img/trapezoid.png","梯形","梯形","ALT1_2","prac_ALT1_2","","","","","","","","","","","",""
"null","<span style='color:GreenYellow; font-size: 70px;'>正确! </span>","null","html-keyboard-response","100","304863","0.0-7.0-1.0-1.0-0.0-1.45","4","4","4","4","4","4","4","3","4","4","5","5","5","4","5","5","5","5","5","5","1","1","1","1","1","1","2","4","1","0","1","0","0","1","0","0","0","0","0","0","0","1","0","0","5","1","2","1","1","","2","4","3","4","1","598856622046969856","王","14","","","","","","","","","","","","","","","","","","","","","","","","","","","","","","feedback_test","","","","","","","","","","","",""
"650","","j","psychophysics","101","306514","0.0-7.0-1.0-1.0-0.0-0.46","4","4","4","4","4","4","4","3","4","4","5","5","5","4","5","5","5","5","5","5","1","1","1","1","1","1","2","4","1","0","1","0","0","1","0","0","0","0","0","0","0","1","0","0","5","1","2","1","1","","2","4","3","4","1","598856622046969856","王","14","","","","nonmatch","","","","","","","","","","","","","","key","j","16.66185567010321","768","428","j","true","nonmatch","img/circle.png","五边","圆形","ALT1_2","prac_ALT1_2","","","","","","","","","","","",""
"null","<span style='color:GreenYellow; font-size: 70px;'>正确! </span>","null","html-keyboard-response","102","307016","0.0-7.0-1.0-1.0-0.0-1.46","4","4","4","4","4","4","4","3","4","4","5","5","5","4","5","5","5","5","5","5","1","1","1","1","1","1","2","4","1","0","1","0","0","1","0","0","0","0","0","0","0","1","0","0","5","1","2","1","1","","2","4","3","4","1","598856622046969856","王","14","","","","","","","","","","","","","","","","","","","","","","","","","","","","","","feedback_test","","","","","","","","","","","",""
"720","","j","psychophysics","103","308738","0.0-7.0-1.0-1.0-0.0-0.47","4","4","4","4","4","4","4","3","4","4","5","5","5","4","5","5","5","5","5","5","1","1","1","1","1","1","2","4","1","0","1","0","0","1","0","0","0","0","0","0","0","1","0","0","5","1","2","1","1","","2","4","3","4","1","598856622046969856","王","14","","","","nonmatch","","","","","","","","","","","","","","key","j","16.664705882352827","768","428","j","true","nonmatch","img/triangle.png","梯形","三角","ALT1_2","prac_ALT1_2","","","","","","","","","","","",""
"null","<span style='color:GreenYellow; font-size: 70px;'>正确! </span>","null","html-keyboard-response","104","309238","0.0-7.0-1.0-1.0-0.0-1.47","4","4","4","4","4","4","4","3","4","4","5","5","5","4","5","5","5","5","5","5","1","1","1","1","1","1","2","4","1","0","1","0","0","1","0","0","0","0","0","0","0","1","0","0","5","1","2","1","1","","2","4","3","4","1","598856622046969856","王","14","","","","","","","","","","","","","","","","","","","","","","","","","","","","","","feedback_test","","","","","","","","","","","",""
"5362","<style>.context{color:white; font-size: 35px; line-height:40px}</style>                          <div><p class='context'>您正确回答了96% 的试次。</p><p class='context'>您的平均反应时为679毫秒。</p><p class='context'>恭喜您完成练习。按空格键进入正式实验。</p><p class='footer' style='font-size: 35px; line-height:40px;'>请在进入正式实验实验之前将您的<span style='color: lightgreen;'>食指</span>放在电脑键盘的相应键位上进行按键。</p>"," ","html-keyboard-response","105","314602","0.0-7.0-1.0-2.0","4","4","4","4","4","4","4","3","4","4","5","5","5","4","5","5","5","5","5","5","1","1","1","1","1","1","2","4","1","0","1","0","0","1","0","0","0","0","0","0","0","1","0","0","5","1","2","1","1","","2","4","3","4","1","598856622046969856","王","14","","","","","","","","","","","","","","","","","","","","","","","","","","","","","","","","","","","","","","","","","",""
"3142","
  <p style='color: white; font-size: 22px'>请您将手指放在按键上，准备进入正式的匹配任务。</p>
  <p> <div style = ""color: green""><按空格键进入下一阶段的匹配任务></div></p>
  "," ","html-keyboard-response","106","317747","0.0-7.0-1.0-3.0","4","4","4","4","4","4","4","3","4","4","5","5","5","4","5","5","5","5","5","5","1","1","1","1","1","1","2","4","1","0","1","0","0","1","0","0","0","0","0","0","0","1","0","0","5","1","2","1","1","","2","4","3","4","1","598856622046969856","王","14","","","","","","","","","","","","","","","","","","","","","","","","","","","","","","","","","","","","","","","","","",""
"710","","f","psychophysics","107","319458","0.0-7.0-1.0-4.0-0.0-0.0","4","4","4","4","4","4","4","3","4","4","5","5","5","4","5","5","5","5","5","5","1","1","1","1","1","1","2","4","1","0","1","0","0","1","0","0","0","0","0","0","0","1","0","0","5","1","2","1","1","","2","4","3","4","1","598856622046969856","王","14","","","","match","","","","","","","","","","","","","","key","f","16.66534653465358","768","428","f","true","match","img/circle.png","圆形","圆形","ALT1","formal_ALT1_2","","","","","","","","","","","",""
"null","<span style='color:GreenYellow; font-size: 70px;'>正确! </span>","null","html-keyboard-response","108","319959","0.0-7.0-1.0-4.0-0.0-1.0","4","4","4","4","4","4","4","3","4","4","5","5","5","4","5","5","5","5","5","5","1","1","1","1","1","1","2","4","1","0","1","0","0","1","0","0","0","0","0","0","0","1","0","0","5","1","2","1","1","","2","4","3","4","1","598856622046969856","王","14","","","","","","","","","","","","","","","","","","","","","","","","","","","","","","feedback_test","","","","","","","","","","","",""
"609","","j","psychophysics","109","321570","0.0-7.0-1.0-4.0-0.0-0.1","4","4","4","4","4","4","4","3","4","4","5","5","5","4","5","5","5","5","5","5","1","1","1","1","1","1","2","4","1","0","1","0","0","1","0","0","0","0","0","0","0","1","0","0","5","1","2","1","1","","2","4","3","4","1","598856622046969856","王","14","","","","nonmatch","","","","","","","","","","","","","","key","j","16.663541666666788","768","428","j","true","nonmatch","img/circle.png","五边","圆形","ALT1","formal_ALT1_2","","","","","","","","","","","",""
"null","<span style='color:GreenYellow; font-size: 70px;'>正确! </span>","null","html-keyboard-response","110","322071","0.0-7.0-1.0-4.0-0.0-1.1","4","4","4","4","4","4","4","3","4","4","5","5","5","4","5","5","5","5","5","5","1","1","1","1","1","1","2","4","1","0","1","0","0","1","0","0","0","0","0","0","0","1","0","0","5","1","2","1","1","","2","4","3","4","1","598856622046969856","王","14","","","","","","","","","","","","","","","","","","","","","","","","","","","","","","feedback_test","","","","","","","","","","","",""
"728","","f","psychophysics","111","323801","0.0-7.0-1.0-4.0-0.0-0.2","4","4","4","4","4","4","4","3","4","4","5","5","5","4","5","5","5","5","5","5","1","1","1","1","1","1","2","4","1","0","1","0","0","1","0","0","0","0","0","0","0","1","0","0","5","1","2","1","1","","2","4","3","4","1","598856622046969856","王","14","","","","match","","","","","","","","","","","","","","key","f","16.666019417475503","768","428","f","true","match","img/trapezoid.png","梯形","梯形","ALT1","formal_ALT1_2","","","","","","","","","","","",""
"null","<span style='color:GreenYellow; font-size: 70px;'>正确! </span>","null","html-keyboard-response","112","324302","0.0-7.0-1.0-4.0-0.0-1.2","4","4","4","4","4","4","4","3","4","4","5","5","5","4","5","5","5","5","5","5","1","1","1","1","1","1","2","4","1","0","1","0","0","1","0","0","0","0","0","0","0","1","0","0","5","1","2","1","1","","2","4","3","4","1","598856622046969856","王","14","","","","","","","","","","","","","","","","","","","","","","","","","","","","","","feedback_test","","","","","","","","","","","",""
"729","","f","psychophysics","113","326034","0.0-7.0-1.0-4.0-0.0-0.3","4","4","4","4","4","4","4","3","4","4","5","5","5","4","5","5","5","5","5","5","1","1","1","1","1","1","2","4","1","0","1","0","0","1","0","0","0","0","0","0","0","1","0","0","5","1","2","1","1","","2","4","3","4","1","598856622046969856","王","14","","","","match","","","","","","","","","","","","","","key","f","16.66310679611639","768","428","f","true","match","img/pentagon.png","五边","五边","ALT1","formal_ALT1_2","","","","","","","","","","","",""
"null","<span style='color:GreenYellow; font-size: 70px;'>正确! </span>","null","html-keyboard-response","114","326536","0.0-7.0-1.0-4.0-0.0-1.3","4","4","4","4","4","4","4","3","4","4","5","5","5","4","5","5","5","5","5","5","1","1","1","1","1","1","2","4","1","0","1","0","0","1","0","0","0","0","0","0","0","1","0","0","5","1","2","1","1","","2","4","3","4","1","598856622046969856","王","14","","","","","","","","","","","","","","","","","","","","","","","","","","","","","","feedback_test","","","","","","","","","","","",""
"640","","f","psychophysics","115","328178","0.0-7.0-1.0-4.0-0.0-0.4","4","4","4","4","4","4","4","3","4","4","5","5","5","4","5","5","5","5","5","5","1","1","1","1","1","1","2","4","1","0","1","0","0","1","0","0","0","0","0","0","0","1","0","0","5","1","2","1","1","","2","4","3","4","1","598856622046969856","王","14","","","","match","","","","","","","","","","","","","","key","f","16.664948453608247","768","428","f","true","match","img/triangle.png","三角","三角","ALT1","formal_ALT1_2","","","","","","","","","","","",""
"null","<span style='color:GreenYellow; font-size: 70px;'>正确! </span>","null","html-keyboard-response","116","328679","0.0-7.0-1.0-4.0-0.0-1.4","4","4","4","4","4","4","4","3","4","4","5","5","5","4","5","5","5","5","5","5","1","1","1","1","1","1","2","4","1","0","1","0","0","1","0","0","0","0","0","0","0","1","0","0","5","1","2","1","1","","2","4","3","4","1","598856622046969856","王","14","","","","","","","","","","","","","","","","","","","","","","","","","","","","","","feedback_test","","","","","","","","","","","",""
"706","","j","psychophysics","117","330387","0.0-7.0-1.0-4.0-0.0-0.5","4","4","4","4","4","4","4","3","4","4","5","5","5","4","5","5","5","5","5","5","1","1","1","1","1","1","2","4","1","0","1","0","0","1","0","0","0","0","0","0","0","1","0","0","5","1","2","1","1","","2","4","3","4","1","598856622046969856","王","14","","","","nonmatch","","","","","","","","","","","","","","key","j","16.664356435643334","768","428","j","true","nonmatch","img/triangle.png","圆形","三角","ALT1","formal_ALT1_2","","","","","","","","","","","",""
"null","<span style='color:GreenYellow; font-size: 70px;'>正确! </span>","null","html-keyboard-response","118","330902","0.0-7.0-1.0-4.0-0.0-1.5","4","4","4","4","4","4","4","3","4","4","5","5","5","4","5","5","5","5","5","5","1","1","1","1","1","1","2","4","1","0","1","0","0","1","0","0","0","0","0","0","0","1","0","0","5","1","2","1","1","","2","4","3","4","1","598856622046969856","王","14","","","","","","","","","","","","","","","","","","","","","","","","","","","","","","feedback_test","","","","","","","","","","","",""
"889","","j","psychophysics","119","332793","0.0-7.0-1.0-4.0-0.0-0.6","4","4","4","4","4","4","4","3","4","4","5","5","5","4","5","5","5","5","5","5","1","1","1","1","1","1","2","4","1","0","1","0","0","1","0","0","0","0","0","0","0","1","0","0","5","1","2","1","1","","2","4","3","4","1","598856622046969856","王","14","","","","nonmatch","","","","","","","","","","","","","","key","j","16.663392857142753","768","428","j","true","nonmatch","img/trapezoid.png","五边","梯形","ALT1","formal_ALT1_2","","","","","","","","","","","",""
"null","<span style='color:GreenYellow; font-size: 70px;'>正确! </span>","null","html-keyboard-response","120","333295","0.0-7.0-1.0-4.0-0.0-1.6","4","4","4","4","4","4","4","3","4","4","5","5","5","4","5","5","5","5","5","5","1","1","1","1","1","1","2","4","1","0","1","0","0","1","0","0","0","0","0","0","0","1","0","0","5","1","2","1","1","","2","4","3","4","1","598856622046969856","王","14","","","","","","","","","","","","","","","","","","","","","","","","","","","","","","feedback_test","","","","","","","","","","","",""
"649","","j","psychophysics","121","334946","0.0-7.0-1.0-4.0-0.0-0.7","4","4","4","4","4","4","4","3","4","4","5","5","5","4","5","5","5","5","5","5","1","1","1","1","1","1","2","4","1","0","1","0","0","1","0","0","0","0","0","0","0","1","0","0","5","1","2","1","1","","2","4","3","4","1","598856622046969856","王","14","","","","nonmatch","","","","","","","","","","","","","","key","j","16.6653061224491","768","428","j","true","nonmatch","img/trapezoid.png","圆形","梯形","ALT1","formal_ALT1_2","","","","","","","","","","","",""
"null","<span style='color:GreenYellow; font-size: 70px;'>正确! </span>","null","html-keyboard-response","122","335447","0.0-7.0-1.0-4.0-0.0-1.7","4","4","4","4","4","4","4","3","4","4","5","5","5","4","5","5","5","5","5","5","1","1","1","1","1","1","2","4","1","0","1","0","0","1","0","0","0","0","0","0","0","1","0","0","5","1","2","1","1","","2","4","3","4","1","598856622046969856","王","14","","","","","","","","","","","","","","","","","","","","","","","","","","","","","","feedback_test","","","","","","","","","","","",""
"609","","f","psychophysics","123","337058","0.0-7.0-1.0-4.0-0.0-0.8","4","4","4","4","4","4","4","3","4","4","5","5","5","4","5","5","5","5","5","5","1","1","1","1","1","1","2","4","1","0","1","0","0","1","0","0","0","0","0","0","0","1","0","0","5","1","2","1","1","","2","4","3","4","1","598856622046969856","王","14","","","","match","","","","","","","","","","","","","","key","f","16.66526315789425","768","428","f","true","match","img/circle.png","圆形","圆形","ALT1","formal_ALT1_2","","","","","","","","","","","",""
"null","<span style='color:GreenYellow; font-size: 70px;'>正确! </span>","null","html-keyboard-response","124","337560","0.0-7.0-1.0-4.0-0.0-1.8","4","4","4","4","4","4","4","3","4","4","5","5","5","4","5","5","5","5","5","5","1","1","1","1","1","1","2","4","1","0","1","0","0","1","0","0","0","0","0","0","0","1","0","0","5","1","2","1","1","","2","4","3","4","1","598856622046969856","王","14","","","","","","","","","","","","","","","","","","","","","","","","","","","","","","feedback_test","","","","","","","","","","","",""
"729","","j","psychophysics","125","339290","0.0-7.0-1.0-4.0-0.0-0.9","4","4","4","4","4","4","4","3","4","4","5","5","5","4","5","5","5","5","5","5","1","1","1","1","1","1","2","4","1","0","1","0","0","1","0","0","0","0","0","0","0","1","0","0","5","1","2","1","1","","2","4","3","4","1","598856622046969856","王","14","","","","nonmatch","","","","","","","","","","","","","","key","j","16.664705882352827","768","428","j","true","nonmatch","img/pentagon.png","圆形","五边","ALT1","formal_ALT1_2","","","","","","","","","","","",""
"null","<span style='color:GreenYellow; font-size: 70px;'>正确! </span>","null","html-keyboard-response","126","339792","0.0-7.0-1.0-4.0-0.0-1.9","4","4","4","4","4","4","4","3","4","4","5","5","5","4","5","5","5","5","5","5","1","1","1","1","1","1","2","4","1","0","1","0","0","1","0","0","0","0","0","0","0","1","0","0","5","1","2","1","1","","2","4","3","4","1","598856622046969856","王","14","","","","","","","","","","","","","","","","","","","","","","","","","","","","","","feedback_test","","","","","","","","","","","",""
"697","","j","psychophysics","127","341491","0.0-7.0-1.0-4.0-0.0-0.10","4","4","4","4","4","4","4","3","4","4","5","5","5","4","5","5","5","5","5","5","1","1","1","1","1","1","2","4","1","0","1","0","0","1","0","0","0","0","0","0","0","1","0","0","5","1","2","1","1","","2","4","3","4","1","598856622046969856","王","14","","","","nonmatch","","","","","","","","","","","","","","key","j","16.66534653465358","768","428","j","true","nonmatch","img/pentagon.png","三角","五边","ALT1","formal_ALT1_2","","","","","","","","","","","",""
"null","<span style='color:GreenYellow; font-size: 70px;'>正确! </span>","null","html-keyboard-response","128","341992","0.0-7.0-1.0-4.0-0.0-1.10","4","4","4","4","4","4","4","3","4","4","5","5","5","4","5","5","5","5","5","5","1","1","1","1","1","1","2","4","1","0","1","0","0","1","0","0","0","0","0","0","0","1","0","0","5","1","2","1","1","","2","4","3","4","1","598856622046969856","王","14","","","","","","","","","","","","","","","","","","","","","","","","","","","","","","feedback_test","","","","","","","","","","","",""
"561","","f","psychophysics","129","343554","0.0-7.0-1.0-4.0-0.0-0.11","4","4","4","4","4","4","4","3","4","4","5","5","5","4","5","5","5","5","5","5","1","1","1","1","1","1","2","4","1","0","1","0","0","1","0","0","0","0","0","0","0","1","0","0","5","1","2","1","1","","2","4","3","4","1","598856622046969856","王","14","","","","match","","","","","","","","","","","","","","key","f","16.664516129032133","768","428","f","true","match","img/circle.png","圆形","圆形","ALT1","formal_ALT1_2","","","","","","","","","","","",""
"null","<span style='color:GreenYellow; font-size: 70px;'>正确! </span>","null","html-keyboard-response","130","344055","0.0-7.0-1.0-4.0-0.0-1.11","4","4","4","4","4","4","4","3","4","4","5","5","5","4","5","5","5","5","5","5","1","1","1","1","1","1","2","4","1","0","1","0","0","1","0","0","0","0","0","0","0","1","0","0","5","1","2","1","1","","2","4","3","4","1","598856622046969856","王","14","","","","","","","","","","","","","","","","","","","","","","","","","","","","","","feedback_test","","","","","","","","","","","",""
"649","","j","psychophysics","131","345707","0.0-7.0-1.0-4.0-0.0-0.12","4","4","4","4","4","4","4","3","4","4","5","5","5","4","5","5","5","5","5","5","1","1","1","1","1","1","2","4","1","0","1","0","0","1","0","0","0","0","0","0","0","1","0","0","5","1","2","1","1","","2","4","3","4","1","598856622046969856","王","14","","","","nonmatch","","","","","","","","","","","","","","key","j","16.6653061224491","768","428","j","true","nonmatch","img/trapezoid.png","三角","梯形","ALT1","formal_ALT1_2","","","","","","","","","","","",""
"null","<span style='color:GreenYellow; font-size: 70px;'>正确! </span>","null","html-keyboard-response","132","346208","0.0-7.0-1.0-4.0-0.0-1.12","4","4","4","4","4","4","4","3","4","4","5","5","5","4","5","5","5","5","5","5","1","1","1","1","1","1","2","4","1","0","1","0","0","1","0","0","0","0","0","0","0","1","0","0","5","1","2","1","1","","2","4","3","4","1","598856622046969856","王","14","","","","","","","","","","","","","","","","","","","","","","","","","","","","","","feedback_test","","","","","","","","","","","",""
"697","","f","psychophysics","133","347906","0.0-7.0-1.0-4.0-0.0-0.13","4","4","4","4","4","4","4","3","4","4","5","5","5","4","5","5","5","5","5","5","1","1","1","1","1","1","2","4","1","0","1","0","0","1","0","0","0","0","0","0","0","1","0","0","5","1","2","1","1","","2","4","3","4","1","598856622046969856","王","14","","","","match","","","","","","","","","","","","","","key","f","16.664356435643334","768","428","f","true","match","img/triangle.png","三角","三角","ALT1","formal_ALT1_2","","","","","","","","","","","",""
"null","<span style='color:GreenYellow; font-size: 70px;'>正确! </span>","null","html-keyboard-response","134","348408","0.0-7.0-1.0-4.0-0.0-1.13","4","4","4","4","4","4","4","3","4","4","5","5","5","4","5","5","5","5","5","5","1","1","1","1","1","1","2","4","1","0","1","0","0","1","0","0","0","0","0","0","0","1","0","0","5","1","2","1","1","","2","4","3","4","1","598856622046969856","王","14","","","","","","","","","","","","","","","","","","","","","","","","","","","","","","feedback_test","","","","","","","","","","","",""
"625","","j","psychophysics","135","350034","0.0-7.0-1.0-4.0-0.0-0.14","4","4","4","4","4","4","4","3","4","4","5","5","5","4","5","5","5","5","5","5","1","1","1","1","1","1","2","4","1","0","1","0","0","1","0","0","0","0","0","0","0","1","0","0","5","1","2","1","1","","2","4","3","4","1","598856622046969856","王","14","","","","nonmatch","","","","","","","","","","","","","","key","j","16.664948453608247","768","428","j","true","nonmatch","img/triangle.png","梯形","三角","ALT1","formal_ALT1_2","","","","","","","","","","","",""
"null","<span style='color:GreenYellow; font-size: 70px;'>正确! </span>","null","html-keyboard-response","136","350535","0.0-7.0-1.0-4.0-0.0-1.14","4","4","4","4","4","4","4","3","4","4","5","5","5","4","5","5","5","5","5","5","1","1","1","1","1","1","2","4","1","0","1","0","0","1","0","0","0","0","0","0","0","1","0","0","5","1","2","1","1","","2","4","3","4","1","598856622046969856","王","14","","","","","","","","","","","","","","","","","","","","","","","","","","","","","","feedback_test","","","","","","","","","","","",""
"553","","j","psychophysics","137","352090","0.0-7.0-1.0-4.0-0.0-0.15","4","4","4","4","4","4","4","3","4","4","5","5","5","4","5","5","5","5","5","5","1","1","1","1","1","1","2","4","1","0","1","0","0","1","0","0","0","0","0","0","0","1","0","0","5","1","2","1","1","","2","4","3","4","1","598856622046969856","王","14","","","","nonmatch","","","","","","","","","","","","","","key","j","16.66630434782596","768","428","j","true","nonmatch","img/triangle.png","五边","三角","ALT1","formal_ALT1_2","","","","","","","","","","","",""
"null","<span style='color:GreenYellow; font-size: 70px;'>正确! </span>","null","html-keyboard-response","138","352592","0.0-7.0-1.0-4.0-0.0-1.15","4","4","4","4","4","4","4","3","4","4","5","5","5","4","5","5","5","5","5","5","1","1","1","1","1","1","2","4","1","0","1","0","0","1","0","0","0","0","0","0","0","1","0","0","5","1","2","1","1","","2","4","3","4","1","598856622046969856","王","14","","","","","","","","","","","","","","","","","","","","","","","","","","","","","","feedback_test","","","","","","","","","","","",""
"641","","j","psychophysics","139","354233","0.0-7.0-1.0-4.0-0.0-0.16","4","4","4","4","4","4","4","3","4","4","5","5","5","4","5","5","5","5","5","5","1","1","1","1","1","1","2","4","1","0","1","0","0","1","0","0","0","0","0","0","0","1","0","0","5","1","2","1","1","","2","4","3","4","1","598856622046969856","王","14","","","","nonmatch","","","","","","","","","","","","","","key","j","16.664948453608247","768","428","j","true","nonmatch","img/circle.png","梯形","圆形","ALT1","formal_ALT1_2","","","","","","","","","","","",""
"null","<span style='color:GreenYellow; font-size: 70px;'>正确! </span>","null","html-keyboard-response","140","354734","0.0-7.0-1.0-4.0-0.0-1.16","4","4","4","4","4","4","4","3","4","4","5","5","5","4","5","5","5","5","5","5","1","1","1","1","1","1","2","4","1","0","1","0","0","1","0","0","0","0","0","0","0","1","0","0","5","1","2","1","1","","2","4","3","4","1","598856622046969856","王","14","","","","","","","","","","","","","","","","","","","","","","","","","","","","","","feedback_test","","","","","","","","","","","",""
"546","","f","psychophysics","141","356282","0.0-7.0-1.0-4.0-0.0-0.17","4","4","4","4","4","4","4","3","4","4","5","5","5","4","5","5","5","5","5","5","1","1","1","1","1","1","2","4","1","0","1","0","0","1","0","0","0","0","0","0","0","1","0","0","5","1","2","1","1","","2","4","3","4","1","598856622046969856","王","14","","","","match","","","","","","","","","","","","","","key","f","16.664130434782987","768","428","f","true","match","img/pentagon.png","五边","五边","ALT1","formal_ALT1_2","","","","","","","","","","","",""
"null","<span style='color:GreenYellow; font-size: 70px;'>正确! </span>","null","html-keyboard-response","142","356783","0.0-7.0-1.0-4.0-0.0-1.17","4","4","4","4","4","4","4","3","4","4","5","5","5","4","5","5","5","5","5","5","1","1","1","1","1","1","2","4","1","0","1","0","0","1","0","0","0","0","0","0","0","1","0","0","5","1","2","1","1","","2","4","3","4","1","598856622046969856","王","14","","","","","","","","","","","","","","","","","","","","","","","","","","","","","","feedback_test","","","","","","","","","","","",""
"586","","f","psychophysics","143","358378","0.0-7.0-1.0-4.0-0.0-0.18","4","4","4","4","4","4","4","3","4","4","5","5","5","4","5","5","5","5","5","5","1","1","1","1","1","1","2","4","1","0","1","0","0","1","0","0","0","0","0","0","0","1","0","0","5","1","2","1","1","","2","4","3","4","1","598856622046969856","王","14","","","","match","","","","","","","","","","","","","","key","f","16.66526315789486","768","428","f","true","match","img/triangle.png","三角","三角","ALT1","formal_ALT1_2","","","","","","","","","","","",""
"null","<span style='color:GreenYellow; font-size: 70px;'>正确! </span>","null","html-keyboard-response","144","358879","0.0-7.0-1.0-4.0-0.0-1.18","4","4","4","4","4","4","4","3","4","4","5","5","5","4","5","5","5","5","5","5","1","1","1","1","1","1","2","4","1","0","1","0","0","1","0","0","0","0","0","0","0","1","0","0","5","1","2","1","1","","2","4","3","4","1","598856622046969856","王","14","","","","","","","","","","","","","","","","","","","","","","","","","","","","","","feedback_test","","","","","","","","","","","",""
"609","","j","psychophysics","145","360490","0.0-7.0-1.0-4.0-0.0-0.19","4","4","4","4","4","4","4","3","4","4","5","5","5","4","5","5","5","5","5","5","1","1","1","1","1","1","2","4","1","0","1","0","0","1","0","0","0","0","0","0","0","1","0","0","5","1","2","1","1","","2","4","3","4","1","598856622046969856","王","14","","","","nonmatch","","","","","","","","","","","","","","key","j","16.66315789473684","768","428","j","true","nonmatch","img/circle.png","三角","圆形","ALT1","formal_ALT1_2","","","","","","","","","","","",""
"null","<span style='color:GreenYellow; font-size: 70px;'>正确! </span>","null","html-keyboard-response","146","360992","0.0-7.0-1.0-4.0-0.0-1.19","4","4","4","4","4","4","4","3","4","4","5","5","5","4","5","5","5","5","5","5","1","1","1","1","1","1","2","4","1","0","1","0","0","1","0","0","0","0","0","0","0","1","0","0","5","1","2","1","1","","2","4","3","4","1","598856622046969856","王","14","","","","","","","","","","","","","","","","","","","","","","","","","","","","","","feedback_test","","","","","","","","","","","",""
"640","","f","psychophysics","147","362634","0.0-7.0-1.0-4.0-0.0-0.20","4","4","4","4","4","4","4","3","4","4","5","5","5","4","5","5","5","5","5","5","1","1","1","1","1","1","2","4","1","0","1","0","0","1","0","0","0","0","0","0","0","1","0","0","5","1","2","1","1","","2","4","3","4","1","598856622046969856","王","14","","","","match","","","","","","","","","","","","","","key","f","16.66701030927847","768","428","j","false","nonmatch","img/pentagon.png","梯形","五边","ALT1","formal_ALT1_2","","","","","","","","","","","",""
"null","<span style='color:red; font-size: 70px;'>错误! </span>","null","html-keyboard-response","148","363134","0.0-7.0-1.0-4.0-0.0-1.20","4","4","4","4","4","4","4","3","4","4","5","5","5","4","5","5","5","5","5","5","1","1","1","1","1","1","2","4","1","0","1","0","0","1","0","0","0","0","0","0","0","1","0","0","5","1","2","1","1","","2","4","3","4","1","598856622046969856","王","14","","","","","","","","","","","","","","","","","","","","","","","","","","","","","","feedback_test","","","","","","","","","","","",""
"889","","f","psychophysics","149","365025","0.0-7.0-1.0-4.0-0.0-0.21","4","4","4","4","4","4","4","3","4","4","5","5","5","4","5","5","5","5","5","5","1","1","1","1","1","1","2","4","1","0","1","0","0","1","0","0","0","0","0","0","0","1","0","0","5","1","2","1","1","","2","4","3","4","1","598856622046969856","王","14","","","","match","","","","","","","","","","","","","","key","f","16.66548672566382","768","428","f","true","match","img/trapezoid.png","梯形","梯形","ALT1","formal_ALT1_2","","","","","","","","","","","",""
"null","<span style='color:GreenYellow; font-size: 70px;'>正确! </span>","null","html-keyboard-response","150","365526","0.0-7.0-1.0-4.0-0.0-1.21","4","4","4","4","4","4","4","3","4","4","5","5","5","4","5","5","5","5","5","5","1","1","1","1","1","1","2","4","1","0","1","0","0","1","0","0","0","0","0","0","0","1","0","0","5","1","2","1","1","","2","4","3","4","1","598856622046969856","王","14","","","","","","","","","","","","","","","","","","","","","","","","","","","","","","feedback_test","","","","","","","","","","","",""
"794","","f","psychophysics","151","367322","0.0-7.0-1.0-4.0-0.0-0.22","4","4","4","4","4","4","4","3","4","4","5","5","5","4","5","5","5","5","5","5","1","1","1","1","1","1","2","4","1","0","1","0","0","1","0","0","0","0","0","0","0","1","0","0","5","1","2","1","1","","2","4","3","4","1","598856622046969856","王","14","","","","match","","","","","","","","","","","","","","key","f","16.664150943396447","768","428","f","true","match","img/trapezoid.png","梯形","梯形","ALT1","formal_ALT1_2","","","","","","","","","","","",""
"null","<span style='color:GreenYellow; font-size: 70px;'>正确! </span>","null","html-keyboard-response","152","367823","0.0-7.0-1.0-4.0-0.0-1.22","4","4","4","4","4","4","4","3","4","4","5","5","5","4","5","5","5","5","5","5","1","1","1","1","1","1","2","4","1","0","1","0","0","1","0","0","0","0","0","0","0","1","0","0","5","1","2","1","1","","2","4","3","4","1","598856622046969856","王","14","","","","","","","","","","","","","","","","","","","","","","","","","","","","","","feedback_test","","","","","","","","","","","",""
"650","","f","psychophysics","153","369474","0.0-7.0-1.0-4.0-0.0-0.23","4","4","4","4","4","4","4","3","4","4","5","5","5","4","5","5","5","5","5","5","1","1","1","1","1","1","2","4","1","0","1","0","0","1","0","0","0","0","0","0","0","1","0","0","5","1","2","1","1","","2","4","3","4","1","598856622046969856","王","14","","","","match","","","","","","","","","","","","","","key","f","16.65918367346915","768","428","f","true","match","img/pentagon.png","五边","五边","ALT1","formal_ALT1_2","","","","","","","","","","","",""
"null","<span style='color:GreenYellow; font-size: 70px;'>正确! </span>","null","html-keyboard-response","154","369975","0.0-7.0-1.0-4.0-0.0-1.23","4","4","4","4","4","4","4","3","4","4","5","5","5","4","5","5","5","5","5","5","1","1","1","1","1","1","2","4","1","0","1","0","0","1","0","0","0","0","0","0","0","1","0","0","5","1","2","1","1","","2","4","3","4","1","598856622046969856","王","14","","","","","","","","","","","","","","","","","","","","","","","","","","","","","","feedback_test","","","","","","","","","","","",""
"633","","f","psychophysics","155","371610","0.0-7.0-1.0-4.0-0.0-0.24","4","4","4","4","4","4","4","3","4","4","5","5","5","4","5","5","5","5","5","5","1","1","1","1","1","1","2","4","1","0","1","0","0","1","0","0","0","0","0","0","0","1","0","0","5","1","2","1","1","","2","4","3","4","1","598856622046969856","王","14","","","","match","","","","","","","","","","","","","","key","f","16.664948453608247","768","428","f","true","match","img/triangle.png","三角","三角","ALT1","formal_ALT1_2","","","","","","","","","","","",""
"null","<span style='color:GreenYellow; font-size: 70px;'>正确! </span>","null","html-keyboard-response","156","372111","0.0-7.0-1.0-4.0-0.0-1.24","4","4","4","4","4","4","4","3","4","4","5","5","5","4","5","5","5","5","5","5","1","1","1","1","1","1","2","4","1","0","1","0","0","1","0","0","0","0","0","0","0","1","0","0","5","1","2","1","1","","2","4","3","4","1","598856622046969856","王","14","","","","","","","","","","","","","","","","","","","","","","","","","","","","","","feedback_test","","","","","","","","","","","",""
"633","","f","psychophysics","157","373746","0.0-7.0-1.0-4.0-0.0-0.25","4","4","4","4","4","4","4","3","4","4","5","5","5","4","5","5","5","5","5","5","1","1","1","1","1","1","2","4","1","0","1","0","0","1","0","0","0","0","0","0","0","1","0","0","5","1","2","1","1","","2","4","3","4","1","598856622046969856","王","14","","","","match","","","","","","","","","","","","","","key","f","16.66597938144306","768","428","f","true","match","img/trapezoid.png","梯形","梯形","ALT1","formal_ALT1_2","","","","","","","","","","","",""
"null","<span style='color:GreenYellow; font-size: 70px;'>正确! </span>","null","html-keyboard-response","158","374246","0.0-7.0-1.0-4.0-0.0-1.25","4","4","4","4","4","4","4","3","4","4","5","5","5","4","5","5","5","5","5","5","1","1","1","1","1","1","2","4","1","0","1","0","0","1","0","0","0","0","0","0","0","1","0","0","5","1","2","1","1","","2","4","3","4","1","598856622046969856","王","14","","","","","","","","","","","","","","","","","","","","","","","","","","","","","","feedback_test","","","","","","","","","","","",""
"610","","f","psychophysics","159","375858","0.0-7.0-1.0-4.0-0.0-0.26","4","4","4","4","4","4","4","3","4","4","5","5","5","4","5","5","5","5","5","5","1","1","1","1","1","1","2","4","1","0","1","0","0","1","0","0","0","0","0","0","0","1","0","0","5","1","2","1","1","","2","4","3","4","1","598856622046969856","王","14","","","","match","","","","","","","","","","","","","","key","f","16.665624999999636","768","428","j","false","nonmatch","img/triangle.png","圆形","三角","ALT1","formal_ALT1_2","","","","","","","","","","","",""
"null","<span style='color:red; font-size: 70px;'>错误! </span>","null","html-keyboard-response","160","376359","0.0-7.0-1.0-4.0-0.0-1.26","4","4","4","4","4","4","4","3","4","4","5","5","5","4","5","5","5","5","5","5","1","1","1","1","1","1","2","4","1","0","1","0","0","1","0","0","0","0","0","0","0","1","0","0","5","1","2","1","1","","2","4","3","4","1","598856622046969856","王","14","","","","","","","","","","","","","","","","","","","","","","","","","","","","","","feedback_test","","","","","","","","","","","",""
"625","","f","psychophysics","161","377985","0.0-7.0-1.0-4.0-0.0-0.27","4","4","4","4","4","4","4","3","4","4","5","5","5","4","5","5","5","5","5","5","1","1","1","1","1","1","2","4","1","0","1","0","0","1","0","0","0","0","0","0","0","1","0","0","5","1","2","1","1","","2","4","3","4","1","598856622046969856","王","14","","","","match","","","","","","","","","","","","","","key","f","16.666666666666668","768","428","f","true","match","img/pentagon.png","五边","五边","ALT1","formal_ALT1_2","","","","","","","","","","","",""
"null","<span style='color:GreenYellow; font-size: 70px;'>正确! </span>","null","html-keyboard-response","162","378486","0.0-7.0-1.0-4.0-0.0-1.27","4","4","4","4","4","4","4","3","4","4","5","5","5","4","5","5","5","5","5","5","1","1","1","1","1","1","2","4","1","0","1","0","0","1","0","0","0","0","0","0","0","1","0","0","5","1","2","1","1","","2","4","3","4","1","598856622046969856","王","14","","","","","","","","","","","","","","","","","","","","","","","","","","","","","","feedback_test","","","","","","","","","","","",""
"826","","j","psychophysics","163","380313","0.0-7.0-1.0-4.0-0.0-0.28","4","4","4","4","4","4","4","3","4","4","5","5","5","4","5","5","5","5","5","5","1","1","1","1","1","1","2","4","1","0","1","0","0","1","0","0","0","0","0","0","0","1","0","0","5","1","2","1","1","","2","4","3","4","1","598856622046969856","王","14","","","","nonmatch","","","","","","","","","","","","","","key","j","16.664220183485916","768","428","j","true","nonmatch","img/pentagon.png","梯形","五边","ALT1","formal_ALT1_2","","","","","","","","","","","",""
"null","<span style='color:GreenYellow; font-size: 70px;'>正确! </span>","null","html-keyboard-response","164","380816","0.0-7.0-1.0-4.0-0.0-1.28","4","4","4","4","4","4","4","3","4","4","5","5","5","4","5","5","5","5","5","5","1","1","1","1","1","1","2","4","1","0","1","0","0","1","0","0","0","0","0","0","0","1","0","0","5","1","2","1","1","","2","4","3","4","1","598856622046969856","王","14","","","","","","","","","","","","","","","","","","","","","","","","","","","","","","feedback_test","","","","","","","","","","","",""
"688","","j","psychophysics","165","382506","0.0-7.0-1.0-4.0-0.0-0.29","4","4","4","4","4","4","4","3","4","4","5","5","5","4","5","5","5","5","5","5","1","1","1","1","1","1","2","4","1","0","1","0","0","1","0","0","0","0","0","0","0","1","0","0","5","1","2","1","1","","2","4","3","4","1","598856622046969856","王","14","","","","nonmatch","","","","","","","","","","","","","","key","j","16.66534653465358","768","428","j","true","nonmatch","img/circle.png","五边","圆形","ALT1","formal_ALT1_2","","","","","","","","","","","",""
"null","<span style='color:GreenYellow; font-size: 70px;'>正确! </span>","null","html-keyboard-response","166","383007","0.0-7.0-1.0-4.0-0.0-1.29","4","4","4","4","4","4","4","3","4","4","5","5","5","4","5","5","5","5","5","5","1","1","1","1","1","1","2","4","1","0","1","0","0","1","0","0","0","0","0","0","0","1","0","0","5","1","2","1","1","","2","4","3","4","1","598856622046969856","王","14","","","","","","","","","","","","","","","","","","","","","","","","","","","","","","feedback_test","","","","","","","","","","","",""
"682","","j","psychophysics","167","384690","0.0-7.0-1.0-4.0-0.0-0.30","4","4","4","4","4","4","4","3","4","4","5","5","5","4","5","5","5","5","5","5","1","1","1","1","1","1","2","4","1","0","1","0","0","1","0","0","0","0","0","0","0","1","0","0","5","1","2","1","1","","2","4","3","4","1","598856622046969856","王","14","","","","nonmatch","","","","","","","","","","","","","","key","j","16.662999999999883","768","428","j","true","nonmatch","img/triangle.png","五边","三角","ALT1","formal_ALT1_2","","","","","","","","","","","",""
"null","<span style='color:GreenYellow; font-size: 70px;'>正确! </span>","null","html-keyboard-response","168","385191","0.0-7.0-1.0-4.0-0.0-1.30","4","4","4","4","4","4","4","3","4","4","5","5","5","4","5","5","5","5","5","5","1","1","1","1","1","1","2","4","1","0","1","0","0","1","0","0","0","0","0","0","0","1","0","0","5","1","2","1","1","","2","4","3","4","1","598856622046969856","王","14","","","","","","","","","","","","","","","","","","","","","","","","","","","","","","feedback_test","","","","","","","","","","","",""
"665","","j","psychophysics","169","386857","0.0-7.0-1.0-4.0-0.0-0.31","4","4","4","4","4","4","4","3","4","4","5","5","5","4","5","5","5","5","5","5","1","1","1","1","1","1","2","4","1","0","1","0","0","1","0","0","0","0","0","0","0","1","0","0","5","1","2","1","1","","2","4","3","4","1","598856622046969856","王","14","","","","nonmatch","","","","","","","","","","","","","","key","j","16.665656565656214","768","428","j","true","nonmatch","img/circle.png","梯形","圆形","ALT1","formal_ALT1_2","","","","","","","","","","","",""
"null","<span style='color:GreenYellow; font-size: 70px;'>正确! </span>","null","html-keyboard-response","170","387359","0.0-7.0-1.0-4.0-0.0-1.31","4","4","4","4","4","4","4","3","4","4","5","5","5","4","5","5","5","5","5","5","1","1","1","1","1","1","2","4","1","0","1","0","0","1","0","0","0","0","0","0","0","1","0","0","5","1","2","1","1","","2","4","3","4","1","598856622046969856","王","14","","","","","","","","","","","","","","","","","","","","","","","","","","","","","","feedback_test","","","","","","","","","","","",""
"608","","j","psychophysics","171","388970","0.0-7.0-1.0-4.0-0.0-0.32","4","4","4","4","4","4","4","3","4","4","5","5","5","4","5","5","5","5","5","5","1","1","1","1","1","1","2","4","1","0","1","0","0","1","0","0","0","0","0","0","0","1","0","0","5","1","2","1","1","","2","4","3","4","1","598856622046969856","王","14","","","","nonmatch","","","","","","","","","","","","","","key","j","16.664210526315543","768","428","j","true","nonmatch","img/pentagon.png","圆形","五边","ALT1","formal_ALT1_2","","","","","","","","","","","",""
"null","<span style='color:GreenYellow; font-size: 70px;'>正确! </span>","null","html-keyboard-response","172","389471","0.0-7.0-1.0-4.0-0.0-1.32","4","4","4","4","4","4","4","3","4","4","5","5","5","4","5","5","5","5","5","5","1","1","1","1","1","1","2","4","1","0","1","0","0","1","0","0","0","0","0","0","0","1","0","0","5","1","2","1","1","","2","4","3","4","1","598856622046969856","王","14","","","","","","","","","","","","","","","","","","","","","","","","","","","","","","feedback_test","","","","","","","","","","","",""
"595","","f","psychophysics","173","391066","0.0-7.0-1.0-4.0-0.0-0.33","4","4","4","4","4","4","4","3","4","4","5","5","5","4","5","5","5","5","5","5","1","1","1","1","1","1","2","4","1","0","1","0","0","1","0","0","0","0","0","0","0","1","0","0","5","1","2","1","1","","2","4","3","4","1","598856622046969856","王","14","","","","match","","","","","","","","","","","","","","key","f","16.66382978723367","768","428","f","true","match","img/circle.png","圆形","圆形","ALT1","formal_ALT1_2","","","","","","","","","","","",""
"null","<span style='color:GreenYellow; font-size: 70px;'>正确! </span>","null","html-keyboard-response","174","391566","0.0-7.0-1.0-4.0-0.0-1.33","4","4","4","4","4","4","4","3","4","4","5","5","5","4","5","5","5","5","5","5","1","1","1","1","1","1","2","4","1","0","1","0","0","1","0","0","0","0","0","0","0","1","0","0","5","1","2","1","1","","2","4","3","4","1","598856622046969856","王","14","","","","","","","","","","","","","","","","","","","","","","","","","","","","","","feedback_test","","","","","","","","","","","",""
"610","","f","psychophysics","175","393178","0.0-7.0-1.0-4.0-0.0-0.34","4","4","4","4","4","4","4","3","4","4","5","5","5","4","5","5","5","5","5","5","1","1","1","1","1","1","2","4","1","0","1","0","0","1","0","0","0","0","0","0","0","1","0","0","5","1","2","1","1","","2","4","3","4","1","598856622046969856","王","14","","","","match","","","","","","","","","","","","","","key","f","16.666666666666668","768","428","f","true","match","img/pentagon.png","五边","五边","ALT1","formal_ALT1_2","","","","","","","","","","","",""
"null","<span style='color:GreenYellow; font-size: 70px;'>正确! </span>","null","html-keyboard-response","176","393678","0.0-7.0-1.0-4.0-0.0-1.34","4","4","4","4","4","4","4","3","4","4","5","5","5","4","5","5","5","5","5","5","1","1","1","1","1","1","2","4","1","0","1","0","0","1","0","0","0","0","0","0","0","1","0","0","5","1","2","1","1","","2","4","3","4","1","598856622046969856","王","14","","","","","","","","","","","","","","","","","","","","","","","","","","","","","","feedback_test","","","","","","","","","","","",""
"537","","f","psychophysics","177","395217","0.0-7.0-1.0-4.0-0.0-0.35","4","4","4","4","4","4","4","3","4","4","5","5","5","4","5","5","5","5","5","5","1","1","1","1","1","1","2","4","1","0","1","0","0","1","0","0","0","0","0","0","0","1","0","0","5","1","2","1","1","","2","4","3","4","1","598856622046969856","王","14","","","","match","","","","","","","","","","","","","","key","f","16.66593406593381","768","428","f","true","match","img/circle.png","圆形","圆形","ALT1","formal_ALT1_2","","","","","","","","","","","",""
"null","<span style='color:GreenYellow; font-size: 70px;'>正确! </span>","null","html-keyboard-response","178","395718","0.0-7.0-1.0-4.0-0.0-1.35","4","4","4","4","4","4","4","3","4","4","5","5","5","4","5","5","5","5","5","5","1","1","1","1","1","1","2","4","1","0","1","0","0","1","0","0","0","0","0","0","0","1","0","0","5","1","2","1","1","","2","4","3","4","1","598856622046969856","王","14","","","","","","","","","","","","","","","","","","","","","","","","","","","","","","feedback_test","","","","","","","","","","","",""
"666","","j","psychophysics","179","397385","0.0-7.0-1.0-4.0-0.0-0.36","4","4","4","4","4","4","4","3","4","4","5","5","5","4","5","5","5","5","5","5","1","1","1","1","1","1","2","4","1","0","1","0","0","1","0","0","0","0","0","0","0","1","0","0","5","1","2","1","1","","2","4","3","4","1","598856622046969856","王","14","","","","nonmatch","","","","","","","","","","","","","","key","j","16.665656565656214","768","428","j","true","nonmatch","img/pentagon.png","三角","五边","ALT1","formal_ALT1_2","","","","","","","","","","","",""
"null","<span style='color:GreenYellow; font-size: 70px;'>正确! </span>","null","html-keyboard-response","180","397886","0.0-7.0-1.0-4.0-0.0-1.36","4","4","4","4","4","4","4","3","4","4","5","5","5","4","5","5","5","5","5","5","1","1","1","1","1","1","2","4","1","0","1","0","0","1","0","0","0","0","0","0","0","1","0","0","5","1","2","1","1","","2","4","3","4","1","598856622046969856","王","14","","","","","","","","","","","","","","","","","","","","","","","","","","","","","","feedback_test","","","","","","","","","","","",""
"706","","j","psychophysics","181","399593","0.0-7.0-1.0-4.0-0.0-0.37","4","4","4","4","4","4","4","3","4","4","5","5","5","4","5","5","5","5","5","5","1","1","1","1","1","1","2","4","1","0","1","0","0","1","0","0","0","0","0","0","0","1","0","0","5","1","2","1","1","","2","4","3","4","1","598856622046969856","王","14","","","","nonmatch","","","","","","","","","","","","","","key","j","16.65544554455457","768","428","j","true","nonmatch","img/triangle.png","梯形","三角","ALT1","formal_ALT1_2","","","","","","","","","","","",""
