"rt","stimulus","response","trial_type","trial_index","time_elapsed","internal_node_id","ses_1","ses_2","ses_3","ses_4","ses_5","ses_6","ses_7","ses_8","ses_9","ses_10","coreself_1","coreself_2","coreself_3","coreself_4","coreself_5","coreself_6","coreself_7","coreself_8","coreself_9","coreself_10","SGPS_1","SGPS_2","SGPS_3","SGPS_4","SGPS_5","SGPS_6","SGPS_7","SGPS_8","SGPS_9","NPI1","NPI2","NPI3","NPI4","NPI5","NPI6","NPI7","NPI8","NPI9","NPI10","NPI11","NPI12","NPI13","NPI14","NPI15","hsns_1","hsns_2","hsns_3","hsns_4","hsns_5","trap1","hsns_6","hsns_7","hsns_8","hsns_9","hsns_10","subj_idx","friend_name","ParticipantID","value","success","user_agent","responses","item_order","radio_event_ids","radio_event_times","key_event_times","mouse_event_times","straightlining","zigzagging","honeypot","timeout","failed_images","failed_audio","failed_video","view_history","response_type","key_press","avg_frame_time","center_x","center_y","correct_response","correct","identity","Image","word","condition","task_id","screen_id","time_stamp","version_attrib","version_target","IAT","RT","varname","summary","version_attrib2","version_target2","question_order","correct_answer","trap1_item"
"12422","
   <p><div style = ""color: white;font-size:25px;"">您好，欢迎参加本次实验。</div> </p>
   <p><div style = ""color: white;font-size:25px;"">为充分保障您的权利，请确保您已经知晓并同意《参与实验同意书》以及《数据公开知情同意书》。</div></p>
   <p><div style = ""color: white;font-size:25px;"">如果您未见过上述内容，请咨询实验员。</div></p>
   <p><div style = ""color: white;font-size:25px;"">如果您选择继续实验，则表示您已经清楚两份知情同意书的内容并同意。</div></p>
   <p><div style = ""color: pink;font-size:30px;"">请确保您记得day0的实验编号，您将在本次实验输入该编号，若您忘记，请咨询实验员后作答。</div></p>
   <p><div style = ""color: lightblue;font-size:25px;"">请您尽可能认真地作答，我们将依据您在各问卷和按键任务中的作答质量发放报酬。</div></p>
   <p> <div style = ""color: green;font-size:25px;""><按空格键至下页></div> </p>
   "," ","html-keyboard-response","0","12424","0.0-0.0","4","3","4","3","3","4","3","3","4","4","4","4","2","3","4","4","4","4","5","4","2","3","3","2","2","2","2","4","1","1","0","1","1","0","0","1","1","0","1","1","0","1","0","1","5","2","4","2","2","1","2","4","3","2","1","786688590502694913","柳","648","","","","","","","","","","","","","","","","","","","","","","","","","","","","","","","","","","","","","","","","","",""
"","","","call-function","1","12425","0.0-1.0-0.0","4","3","4","3","3","4","3","3","4","4","4","4","2","3","4","4","4","4","5","4","2","3","3","2","2","2","2","4","1","1","0","1","1","0","0","1","1","0","1","1","0","1","0","1","5","2","4","2","2","1","2","4","3","2","1","786688590502694913","柳","648","","","","","","","","","","","","","","","","","","","","","","","","","","","","","","","","","","","","","","","","","",""
"21589","","{""friend_name"":""柳"",""ParticipantID"":""648""}","survey-html-form","2","34015","0.0-1.0-1.0","4","3","4","3","3","4","3","3","4","4","4","4","2","3","4","4","4","4","5","4","2","3","3","2","2","2","2","4","1","1","0","1","1","0","0","1","1","0","1","1","0","1","0","1","5","2","4","2","2","1","2","4","3","2","1","786688590502694913","柳","648","","","","","","","","","","","","","","","","","","","","","","","","","","","","","","","","","","","","","","","","","",""
"","","","fullscreen","3","60696","0.0-2.0","4","3","4","3","3","4","3","3","4","4","4","4","2","3","4","4","4","4","5","4","2","3","3","2","2","2","2","4","1","1","0","1","1","0","0","1","1","0","1","1","0","1","0","1","5","2","4","2","2","1","2","4","3","2","1","786688590502694913","柳","648","","true","{}","","","","","","","","","","","","","","","","","","","","","","","","","","","","","","","","","","","","","","",""
"82257.5","","{""Q01"":""4"",""Q02"":""3"",""Q03"":""4"",""Q04"":""3"",""Q05"":""3"",""Q06"":""4"",""Q07"":""3"",""Q08"":""3"",""Q09"":""4"",""Q10"":""4""}","survey-template","4","142956","0.0-3.0","4","3","4","3","3","4","3","3","4","4","4","4","2","3","4","4","4","4","5","4","2","3","3","2","2","2","2","4","1","1","0","1","1","0","0","1","1","0","1","1","0","1","0","1","5","2","4","2","2","1","2","4","3","2","1","786688590502694913","柳","648","","","","{""Q01"":""4"",""Q02"":""3"",""Q03"":""4"",""Q04"":""3"",""Q05"":""3"",""Q06"":""4"",""Q07"":""3"",""Q08"":""3"",""Q09"":""4"",""Q10"":""4""}","[0,1,2,3,4,5,6,7,8,9]","[""Q01"",""Q02"",""Q03"",""Q04"",""Q05"",""Q06"",""Q06"",""Q07"",""Q08"",""Q05"",""Q05"",""Q09"",""Q10""]","[10256.800000011921,13012.800000011921,15736.699999988079,18140.69999998808,22228.59999999404,26988.90000000596,31209,34304.59999999404,39248.59999999404,50704.69999998808,55420.69999998808,63588.69999998808,65664.59999999404]","[]","[10256.800000011921,13012.800000011921,15736.699999988079,18140.69999998808,22228.59999999404,26988.90000000596,31209,34304.59999999404,39248.59999999404,50305.09999999404,50704.69999998808,55068.90000000596,55420.69999998808,63588.69999998808,65664.59999999404,82256.80000001192]","0.3","0.5555555555555556","0","","","","","","","","","","","","","","","","","","","","","","","","","","","","","",""
"91967.5","","{""Q01"":""4"",""Q02"":""4"",""Q03"":""2"",""Q04"":""3"",""Q05"":""4"",""Q06"":""4"",""Q07"":""4"",""Q08"":""4"",""Q09"":""5"",""Q10"":""4""}","survey-template","5","234928","0.0-4.0","4","3","4","3","3","4","3","3","4","4","4","4","2","3","4","4","4","4","5","4","2","3","3","2","2","2","2","4","1","1","0","1","1","0","0","1","1","0","1","1","0","1","0","1","5","2","4","2","2","1","2","4","3","2","1","786688590502694913","柳","648","","","","{""Q01"":""4"",""Q02"":""4"",""Q03"":""2"",""Q04"":""3"",""Q05"":""4"",""Q06"":""4"",""Q07"":""4"",""Q08"":""4"",""Q09"":""5"",""Q10"":""4""}","[0,1,2,3,4,5,6,7,8,9]","[""Q01"",""Q02"",""Q04"",""Q05"",""Q06"",""Q03"",""Q03"",""Q03"",""Q03"",""Q04"",""Q07"",""Q08"",""Q09"",""Q10"",""Q09""]","[6767.0999999940395,11918.59999999404,17950.5,22714.70000001788,24642.5,31954.70000001788,37522.70000001788,42718.70000001788,47662.70000001788,48538.59999999404,57330.80000001192,61682.59999999404,63042.70000001788,65054.59999999404,89546.70000001788]","[]","[6767.0999999940395,11918.59999999404,17950.5,22714.70000001788,24642.5,31954.70000001788,36267,37522.70000001788,42718.70000001788,47662.70000001788,48538.59999999404,57330.80000001192,61682.59999999404,63042.70000001788,65054.59999999404,89546.70000001788,91966.80000001192]","0.5","0.2222222222222222","0","","","","","","","","","","","","","","","","","","","","","","","","","","","","","",""
"","","","preload","6","235280","0.0-5.0","4","3","4","3","3","4","3","3","4","4","4","4","2","3","4","4","4","4","5","4","2","3","3","2","2","2","2","4","1","1","0","1","1","0","0","1","1","0","1","1","0","1","0","1","5","2","4","2","2","1","2","4","3","2","1","786688590502694913","柳","648","","true","","","","","","","","","","","false","[]","[]","[]","","","","","","","","","","","","","","","","","","","","","","","","","",""
"15851","","","instructions","7","251131","0.0-6.0","4","3","4","3","3","4","3","3","4","4","4","4","2","3","4","4","4","4","5","4","2","3","3","2","2","2","2","4","1","1","0","1","1","0","0","1","1","0","1","1","0","1","0","1","5","2","4","2","2","1","2","4","3","2","1","786688590502694913","柳","648","","","","","","","","","","","","","","","","","[{""page_index"":0,""viewing_time"":15850}]","","","","","","","","","","","","","","","","","","","","","","","","",""
"34335","","","instructions","8","285466","0.0-7.0-0.0-0.0","4","3","4","3","3","4","3","3","4","4","4","4","2","3","4","4","4","4","5","4","2","3","3","2","2","2","2","4","1","1","0","1","1","0","0","1","1","0","1","1","0","1","0","1","5","2","4","2","2","1","2","4","3","2","1","786688590502694913","柳","648","","","","","","","","","","","","","","","","","[{""page_index"":0,""viewing_time"":22110},{""page_index"":1,""viewing_time"":8840},{""page_index"":2,""viewing_time"":3384}]","","","","","","","","","","","","","","","","","","","","","","","","",""
"null","","null","psychophysics","9","287671","0.0-7.0-0.0-1.0-0.0-0.0","4","3","4","3","3","4","3","3","4","4","4","4","2","3","4","4","4","4","5","4","2","3","3","2","2","2","2","4","1","1","0","1","1","0","0","1","1","0","1","1","0","1","0","1","5","2","4","2","2","1","2","4","3","2","1","786688590502694913","柳","648","","","","null","","","","","","","","","","","","","","key","null","16.663846153846514","720","446","j","false","nonmatch","img/ellipse.png","梯形","椭圆","ALT1_1","prac_ALT1_1","","","","","","","","","","","",""
"null","<span class='add_' style='color:yellow; font-size: 70px;'> 太慢! </span>","null","html-keyboard-response","10","288172","0.0-7.0-0.0-1.0-0.0-1.0","4","3","4","3","3","4","3","3","4","4","4","4","2","3","4","4","4","4","5","4","2","3","3","2","2","2","2","4","1","1","0","1","1","0","0","1","1","0","1","1","0","1","0","1","5","2","4","2","2","1","2","4","3","2","1","786688590502694913","柳","648","","","","","","","","","","","","","","","","","","","","","","","","","","","","","","feedback_test","","","","","","","","","","","",""
"null","","null","psychophysics","11","290379","0.0-7.0-0.0-1.0-0.0-0.1","4","3","4","3","3","4","3","3","4","4","4","4","2","3","4","4","4","4","5","4","2","3","3","2","2","2","2","4","1","1","0","1","1","0","0","1","1","0","1","1","0","1","0","1","5","2","4","2","2","1","2","4","3","2","1","786688590502694913","柳","648","","","","null","","","","","","","","","","","","","","key","null","16.66412213740458","720","446","j","false","nonmatch","img/square.png","梯形","方形","ALT1_1","prac_ALT1_1","","","","","","","","","","","",""
"null","<span class='add_' style='color:yellow; font-size: 70px;'> 太慢! </span>","null","html-keyboard-response","12","290880","0.0-7.0-0.0-1.0-0.0-1.1","4","3","4","3","3","4","3","3","4","4","4","4","2","3","4","4","4","4","5","4","2","3","3","2","2","2","2","4","1","1","0","1","1","0","0","1","1","0","1","1","0","1","0","1","5","2","4","2","2","1","2","4","3","2","1","786688590502694913","柳","648","","","","","","","","","","","","","","","","","","","","","","","","","","","","","","feedback_test","","","","","","","","","","","",""
"null","","null","psychophysics","13","293081","0.0-7.0-0.0-1.0-0.0-0.2","4","3","4","3","3","4","3","3","4","4","4","4","2","3","4","4","4","4","5","4","2","3","3","2","2","2","2","4","1","1","0","1","1","0","0","1","1","0","1","1","0","1","0","1","5","2","4","2","2","1","2","4","3","2","1","786688590502694913","柳","648","","","","null","","","","","","","","","","","","","","key","null","16.66412213740458","720","446","f","false","match","img/ellipse.png","椭圆","椭圆","ALT1_1","prac_ALT1_1","","","","","","","","","","","",""
"null","<span class='add_' style='color:yellow; font-size: 70px;'> 太慢! </span>","null","html-keyboard-response","14","293583","0.0-7.0-0.0-1.0-0.0-1.2","4","3","4","3","3","4","3","3","4","4","4","4","2","3","4","4","4","4","5","4","2","3","3","2","2","2","2","4","1","1","0","1","1","0","0","1","1","0","1","1","0","1","0","1","5","2","4","2","2","1","2","4","3","2","1","786688590502694913","柳","648","","","","","","","","","","","","","","","","","","","","","","","","","","","","","","feedback_test","","","","","","","","","","","",""
"null","","null","psychophysics","15","295790","0.0-7.0-0.0-1.0-0.0-0.3","4","3","4","3","3","4","3","3","4","4","4","4","2","3","4","4","4","4","5","4","2","3","3","2","2","2","2","4","1","1","0","1","1","0","0","1","1","0","1","1","0","1","0","1","5","2","4","2","2","1","2","4","3","2","1","786688590502694913","柳","648","","","","null","","","","","","","","","","","","","","key","null","16.66287878787879","720","446","j","false","nonmatch","img/hexagon.png","梯形","六边","ALT1_1","prac_ALT1_1","","","","","","","","","","","",""
"null","<span class='add_' style='color:yellow; font-size: 70px;'> 太慢! </span>","null","html-keyboard-response","16","296292","0.0-7.0-0.0-1.0-0.0-1.3","4","3","4","3","3","4","3","3","4","4","4","4","2","3","4","4","4","4","5","4","2","3","3","2","2","2","2","4","1","1","0","1","1","0","0","1","1","0","1","1","0","1","0","1","5","2","4","2","2","1","2","4","3","2","1","786688590502694913","柳","648","","","","","","","","","","","","","","","","","","","","","","","","","","","","","","feedback_test","","","","","","","","","","","",""
"650","","f","psychophysics","17","297943","0.0-7.0-0.0-1.0-0.0-0.4","4","3","4","3","3","4","3","3","4","4","4","4","2","3","4","4","4","4","5","4","2","3","3","2","2","2","2","4","1","1","0","1","1","0","0","1","1","0","1","1","0","1","0","1","5","2","4","2","2","1","2","4","3","2","1","786688590502694913","柳","648","","","","match","","","","","","","","","","","","","","key","f","16.664285714285477","720","446","f","true","match","img/hexagon.png","六边","六边","ALT1_1","prac_ALT1_1","","","","","","","","","","","",""
"null","<span style='color:GreenYellow; font-size: 70px;'>正确! </span>","null","html-keyboard-response","18","298444","0.0-7.0-0.0-1.0-0.0-1.4","4","3","4","3","3","4","3","3","4","4","4","4","2","3","4","4","4","4","5","4","2","3","3","2","2","2","2","4","1","1","0","1","1","0","0","1","1","0","1","1","0","1","0","1","5","2","4","2","2","1","2","4","3","2","1","786688590502694913","柳","648","","","","","","","","","","","","","","","","","","","","","","","","","","","","","","feedback_test","","","","","","","","","","","",""
"679","","f","psychophysics","19","300124","0.0-7.0-0.0-1.0-0.0-0.5","4","3","4","3","3","4","3","3","4","4","4","4","2","3","4","4","4","4","5","4","2","3","3","2","2","2","2","4","1","1","0","1","1","0","0","1","1","0","1","1","0","1","0","1","5","2","4","2","2","1","2","4","3","2","1","786688590502694913","柳","648","","","","match","","","","","","","","","","","","","","key","f","16.67","720","446","j","false","nonmatch","img/hexagon.png","椭圆","六边","ALT1_1","prac_ALT1_1","","","","","","","","","","","",""
"null","<span style='color:red; font-size: 70px;'>错误! </span>","null","html-keyboard-response","20","300625","0.0-7.0-0.0-1.0-0.0-1.5","4","3","4","3","3","4","3","3","4","4","4","4","2","3","4","4","4","4","5","4","2","3","3","2","2","2","2","4","1","1","0","1","1","0","0","1","1","0","1","1","0","1","0","1","5","2","4","2","2","1","2","4","3","2","1","786688590502694913","柳","648","","","","","","","","","","","","","","","","","","","","","","","","","","","","","","feedback_test","","","","","","","","","","","",""
"747","","j","psychophysics","21","302373","0.0-7.0-0.0-1.0-0.0-0.6","4","3","4","3","3","4","3","3","4","4","4","4","2","3","4","4","4","4","5","4","2","3","3","2","2","2","2","4","1","1","0","1","1","0","0","1","1","0","1","1","0","1","0","1","5","2","4","2","2","1","2","4","3","2","1","786688590502694913","柳","648","","","","nonmatch","","","","","","","","","","","","","","key","j","16.66346153846154","720","446","f","false","match","img/trapezoid.png","梯形","梯形","ALT1_1","prac_ALT1_1","","","","","","","","","","","",""
"null","<span style='color:red; font-size: 70px;'>错误! </span>","null","html-keyboard-response","22","302874","0.0-7.0-0.0-1.0-0.0-1.6","4","3","4","3","3","4","3","3","4","4","4","4","2","3","4","4","4","4","5","4","2","3","3","2","2","2","2","4","1","1","0","1","1","0","0","1","1","0","1","1","0","1","0","1","5","2","4","2","2","1","2","4","3","2","1","786688590502694913","柳","648","","","","","","","","","","","","","","","","","","","","","","","","","","","","","","feedback_test","","","","","","","","","","","",""
"341","","f","psychophysics","23","304216","0.0-7.0-0.0-1.0-0.0-0.7","4","3","4","3","3","4","3","3","4","4","4","4","2","3","4","4","4","4","5","4","2","3","3","2","2","2","2","4","1","1","0","1","1","0","0","1","1","0","1","1","0","1","0","1","5","2","4","2","2","1","2","4","3","2","1","786688590502694913","柳","648","","","","match","","","","","","","","","","","","","","key","f","16.664556962025316","720","446","f","true","match","img/square.png","方形","方形","ALT1_1","prac_ALT1_1","","","","","","","","","","","",""
"null","<span style='color:GreenYellow; font-size: 70px;'>正确! </span>","null","html-keyboard-response","24","304717","0.0-7.0-0.0-1.0-0.0-1.7","4","3","4","3","3","4","3","3","4","4","4","4","2","3","4","4","4","4","5","4","2","3","3","2","2","2","2","4","1","1","0","1","1","0","0","1","1","0","1","1","0","1","0","1","5","2","4","2","2","1","2","4","3","2","1","786688590502694913","柳","648","","","","","","","","","","","","","","","","","","","","","","","","","","","","","","feedback_test","","","","","","","","","","","",""
"610","","f","psychophysics","25","306328","0.0-7.0-0.0-1.0-0.0-0.8","4","3","4","3","3","4","3","3","4","4","4","4","2","3","4","4","4","4","5","4","2","3","3","2","2","2","2","4","1","1","0","1","1","0","0","1","1","0","1","1","0","1","0","1","5","2","4","2","2","1","2","4","3","2","1","786688590502694913","柳","648","","","","match","","","","","","","","","","","","","","key","f","16.663541666666788","720","446","f","true","match","img/trapezoid.png","梯形","梯形","ALT1_1","prac_ALT1_1","","","","","","","","","","","",""
"null","<span style='color:GreenYellow; font-size: 70px;'>正确! </span>","null","html-keyboard-response","26","306829","0.0-7.0-0.0-1.0-0.0-1.8","4","3","4","3","3","4","3","3","4","4","4","4","2","3","4","4","4","4","5","4","2","3","3","2","2","2","2","4","1","1","0","1","1","0","0","1","1","0","1","1","0","1","0","1","5","2","4","2","2","1","2","4","3","2","1","786688590502694913","柳","648","","","","","","","","","","","","","","","","","","","","","","","","","","","","","","feedback_test","","","","","","","","","","","",""
"823","","j","psychophysics","27","308654","0.0-7.0-0.0-1.0-0.0-0.9","4","3","4","3","3","4","3","3","4","4","4","4","2","3","4","4","4","4","5","4","2","3","3","2","2","2","2","4","1","1","0","1","1","0","0","1","1","0","1","1","0","1","0","1","5","2","4","2","2","1","2","4","3","2","1","786688590502694913","柳","648","","","","nonmatch","","","","","","","","","","","","","","key","j","16.662385321101024","720","446","j","true","nonmatch","img/square.png","椭圆","方形","ALT1_1","prac_ALT1_1","","","","","","","","","","","",""
"null","<span style='color:GreenYellow; font-size: 70px;'>正确! </span>","null","html-keyboard-response","28","309155","0.0-7.0-0.0-1.0-0.0-1.9","4","3","4","3","3","4","3","3","4","4","4","4","2","3","4","4","4","4","5","4","2","3","3","2","2","2","2","4","1","1","0","1","1","0","0","1","1","0","1","1","0","1","0","1","5","2","4","2","2","1","2","4","3","2","1","786688590502694913","柳","648","","","","","","","","","","","","","","","","","","","","","","","","","","","","","","feedback_test","","","","","","","","","","","",""
"545","","f","psychophysics","29","310700","0.0-7.0-0.0-1.0-0.0-0.10","4","3","4","3","3","4","3","3","4","4","4","4","2","3","4","4","4","4","5","4","2","3","3","2","2","2","2","4","1","1","0","1","1","0","0","1","1","0","1","1","0","1","0","1","5","2","4","2","2","1","2","4","3","2","1","786688590502694913","柳","648","","","","match","","","","","","","","","","","","","","key","f","16.662637362637234","720","446","f","true","match","img/square.png","方形","方形","ALT1_1","prac_ALT1_1","","","","","","","","","","","",""
"null","<span style='color:GreenYellow; font-size: 70px;'>正确! </span>","null","html-keyboard-response","30","311201","0.0-7.0-0.0-1.0-0.0-1.10","4","3","4","3","3","4","3","3","4","4","4","4","2","3","4","4","4","4","5","4","2","3","3","2","2","2","2","4","1","1","0","1","1","0","0","1","1","0","1","1","0","1","0","1","5","2","4","2","2","1","2","4","3","2","1","786688590502694913","柳","648","","","","","","","","","","","","","","","","","","","","","","","","","","","","","","feedback_test","","","","","","","","","","","",""
"519","","f","psychophysics","31","312722","0.0-7.0-0.0-1.0-0.0-0.11","4","3","4","3","3","4","3","3","4","4","4","4","2","3","4","4","4","4","5","4","2","3","3","2","2","2","2","4","1","1","0","1","1","0","0","1","1","0","1","1","0","1","0","1","5","2","4","2","2","1","2","4","3","2","1","786688590502694913","柳","648","","","","match","","","","","","","","","","","","","","key","f","16.66111111111111","720","446","f","true","match","img/ellipse.png","椭圆","椭圆","ALT1_1","prac_ALT1_1","","","","","","","","","","","",""
"null","<span style='color:GreenYellow; font-size: 70px;'>正确! </span>","null","html-keyboard-response","32","313222","0.0-7.0-0.0-1.0-0.0-1.11","4","3","4","3","3","4","3","3","4","4","4","4","2","3","4","4","4","4","5","4","2","3","3","2","2","2","2","4","1","1","0","1","1","0","0","1","1","0","1","1","0","1","0","1","5","2","4","2","2","1","2","4","3","2","1","786688590502694913","柳","648","","","","","","","","","","","","","","","","","","","","","","","","","","","","","","feedback_test","","","","","","","","","","","",""
"901","","j","psychophysics","33","315125","0.0-7.0-0.0-1.0-0.0-0.12","4","3","4","3","3","4","3","3","4","4","4","4","2","3","4","4","4","4","5","4","2","3","3","2","2","2","2","4","1","1","0","1","1","0","0","1","1","0","1","1","0","1","0","1","5","2","4","2","2","1","2","4","3","2","1","786688590502694913","柳","648","","","","nonmatch","","","","","","","","","","","","","","key","j","16.664601769911297","720","446","j","true","nonmatch","img/ellipse.png","方形","椭圆","ALT1_1","prac_ALT1_1","","","","","","","","","","","",""
"null","<span style='color:GreenYellow; font-size: 70px;'>正确! </span>","null","html-keyboard-response","34","315626","0.0-7.0-0.0-1.0-0.0-1.12","4","3","4","3","3","4","3","3","4","4","4","4","2","3","4","4","4","4","5","4","2","3","3","2","2","2","2","4","1","1","0","1","1","0","0","1","1","0","1","1","0","1","0","1","5","2","4","2","2","1","2","4","3","2","1","786688590502694913","柳","648","","","","","","","","","","","","","","","","","","","","","","","","","","","","","","feedback_test","","","","","","","","","","","",""
"408","","f","psychophysics","35","317035","0.0-7.0-0.0-1.0-0.0-0.13","4","3","4","3","3","4","3","3","4","4","4","4","2","3","4","4","4","4","5","4","2","3","3","2","2","2","2","4","1","1","0","1","1","0","0","1","1","0","1","1","0","1","0","1","5","2","4","2","2","1","2","4","3","2","1","786688590502694913","柳","648","","","","match","","","","","","","","","","","","","","key","f","16.66547619047647","720","446","f","true","match","img/ellipse.png","椭圆","椭圆","ALT1_1","prac_ALT1_1","","","","","","","","","","","",""
"null","<span style='color:GreenYellow; font-size: 70px;'>正确! </span>","null","html-keyboard-response","36","317537","0.0-7.0-0.0-1.0-0.0-1.13","4","3","4","3","3","4","3","3","4","4","4","4","2","3","4","4","4","4","5","4","2","3","3","2","2","2","2","4","1","1","0","1","1","0","0","1","1","0","1","1","0","1","0","1","5","2","4","2","2","1","2","4","3","2","1","786688590502694913","柳","648","","","","","","","","","","","","","","","","","","","","","","","","","","","","","","feedback_test","","","","","","","","","","","",""
"605","","j","psychophysics","37","319143","0.0-7.0-0.0-1.0-0.0-0.14","4","3","4","3","3","4","3","3","4","4","4","4","2","3","4","4","4","4","5","4","2","3","3","2","2","2","2","4","1","1","0","1","1","0","0","1","1","0","1","1","0","1","0","1","5","2","4","2","2","1","2","4","3","2","1","786688590502694913","柳","648","","","","nonmatch","","","","","","","","","","","","","","key","j","16.66315789473684","720","446","j","true","nonmatch","img/trapezoid.png","椭圆","梯形","ALT1_1","prac_ALT1_1","","","","","","","","","","","",""
"null","<span style='color:GreenYellow; font-size: 70px;'>正确! </span>","null","html-keyboard-response","38","319644","0.0-7.0-0.0-1.0-0.0-1.14","4","3","4","3","3","4","3","3","4","4","4","4","2","3","4","4","4","4","5","4","2","3","3","2","2","2","2","4","1","1","0","1","1","0","0","1","1","0","1","1","0","1","0","1","5","2","4","2","2","1","2","4","3","2","1","786688590502694913","柳","648","","","","","","","","","","","","","","","","","","","","","","","","","","","","","","feedback_test","","","","","","","","","","","",""
"1054","","f","psychophysics","39","321699","0.0-7.0-0.0-1.0-0.0-0.15","4","3","4","3","3","4","3","3","4","4","4","4","2","3","4","4","4","4","5","4","2","3","3","2","2","2","2","4","1","1","0","1","1","0","0","1","1","0","1","1","0","1","0","1","5","2","4","2","2","1","2","4","3","2","1","786688590502694913","柳","648","","","","match","","","","","","","","","","","","","","key","f","16.664754098360465","720","446","j","false","nonmatch","img/trapezoid.png","六边","梯形","ALT1_1","prac_ALT1_1","","","","","","","","","","","",""
"null","<span style='color:red; font-size: 70px;'>错误! </span>","null","html-keyboard-response","40","322200","0.0-7.0-0.0-1.0-0.0-1.15","4","3","4","3","3","4","3","3","4","4","4","4","2","3","4","4","4","4","5","4","2","3","3","2","2","2","2","4","1","1","0","1","1","0","0","1","1","0","1","1","0","1","0","1","5","2","4","2","2","1","2","4","3","2","1","786688590502694913","柳","648","","","","","","","","","","","","","","","","","","","","","","","","","","","","","","feedback_test","","","","","","","","","","","",""
"1146","","j","psychophysics","41","324347","0.0-7.0-0.0-1.0-0.0-0.16","4","3","4","3","3","4","3","3","4","4","4","4","2","3","4","4","4","4","5","4","2","3","3","2","2","2","2","4","1","1","0","1","1","0","0","1","1","0","1","1","0","1","0","1","5","2","4","2","2","1","2","4","3","2","1","786688590502694913","柳","648","","","","nonmatch","","","","","","","","","","","","","","key","j","16.66377952755896","720","446","j","true","nonmatch","img/trapezoid.png","方形","梯形","ALT1_1","prac_ALT1_1","","","","","","","","","","","",""
"null","<span style='color:GreenYellow; font-size: 70px;'>正确! </span>","null","html-keyboard-response","42","324848","0.0-7.0-0.0-1.0-0.0-1.16","4","3","4","3","3","4","3","3","4","4","4","4","2","3","4","4","4","4","5","4","2","3","3","2","2","2","2","4","1","1","0","1","1","0","0","1","1","0","1","1","0","1","0","1","5","2","4","2","2","1","2","4","3","2","1","786688590502694913","柳","648","","","","","","","","","","","","","","","","","","","","","","","","","","","","","","feedback_test","","","","","","","","","","","",""
"null","","null","psychophysics","43","327053","0.0-7.0-0.0-1.0-0.0-0.17","4","3","4","3","3","4","3","3","4","4","4","4","2","3","4","4","4","4","5","4","2","3","3","2","2","2","2","4","1","1","0","1","1","0","0","1","1","0","1","1","0","1","0","1","5","2","4","2","2","1","2","4","3","2","1","786688590502694913","柳","648","","","","null","","","","","","","","","","","","","","key","null","16.663636363636186","720","446","f","false","match","img/hexagon.png","六边","六边","ALT1_1","prac_ALT1_1","","","","","","","","","","","",""
"null","<span class='add_' style='color:yellow; font-size: 70px;'> 太慢! </span>","null","html-keyboard-response","44","327555","0.0-7.0-0.0-1.0-0.0-1.17","4","3","4","3","3","4","3","3","4","4","4","4","2","3","4","4","4","4","5","4","2","3","3","2","2","2","2","4","1","1","0","1","1","0","0","1","1","0","1","1","0","1","0","1","5","2","4","2","2","1","2","4","3","2","1","786688590502694913","柳","648","","","","","","","","","","","","","","","","","","","","","","","","","","","","","","feedback_test","","","","","","","","","","","",""
"925","","j","psychophysics","45","329482","0.0-7.0-0.0-1.0-0.0-0.18","4","3","4","3","3","4","3","3","4","4","4","4","2","3","4","4","4","4","5","4","2","3","3","2","2","2","2","4","1","1","0","1","1","0","0","1","1","0","1","1","0","1","0","1","5","2","4","2","2","1","2","4","3","2","1","786688590502694913","柳","648","","","","nonmatch","","","","","","","","","","","","","","key","j","16.66754385964892","720","446","j","true","nonmatch","img/square.png","六边","方形","ALT1_1","prac_ALT1_1","","","","","","","","","","","",""
"null","<span style='color:GreenYellow; font-size: 70px;'>正确! </span>","null","html-keyboard-response","46","329984","0.0-7.0-0.0-1.0-0.0-1.18","4","3","4","3","3","4","3","3","4","4","4","4","2","3","4","4","4","4","5","4","2","3","3","2","2","2","2","4","1","1","0","1","1","0","0","1","1","0","1","1","0","1","0","1","5","2","4","2","2","1","2","4","3","2","1","786688590502694913","柳","648","","","","","","","","","","","","","","","","","","","","","","","","","","","","","","feedback_test","","","","","","","","","","","",""
"1115","","j","psychophysics","47","332100","0.0-7.0-0.0-1.0-0.0-0.19","4","3","4","3","3","4","3","3","4","4","4","4","2","3","4","4","4","4","5","4","2","3","3","2","2","2","2","4","1","1","0","1","1","0","0","1","1","0","1","1","0","1","0","1","5","2","4","2","2","1","2","4","3","2","1","786688590502694913","柳","648","","","","nonmatch","","","","","","","","","","","","","","key","j","16.664285714285807","720","446","f","false","match","img/trapezoid.png","梯形","梯形","ALT1_1","prac_ALT1_1","","","","","","","","","","","",""
"null","<span style='color:red; font-size: 70px;'>错误! </span>","null","html-keyboard-response","48","332601","0.0-7.0-0.0-1.0-0.0-1.19","4","3","4","3","3","4","3","3","4","4","4","4","2","3","4","4","4","4","5","4","2","3","3","2","2","2","2","4","1","1","0","1","1","0","0","1","1","0","1","1","0","1","0","1","5","2","4","2","2","1","2","4","3","2","1","786688590502694913","柳","648","","","","","","","","","","","","","","","","","","","","","","","","","","","","","","feedback_test","","","","","","","","","","","",""
"1189","","j","psychophysics","49","334791","0.0-7.0-0.0-1.0-0.0-0.20","4","3","4","3","3","4","3","3","4","4","4","4","2","3","4","4","4","4","5","4","2","3","3","2","2","2","2","4","1","1","0","1","1","0","0","1","1","0","1","1","0","1","0","1","5","2","4","2","2","1","2","4","3","2","1","786688590502694913","柳","648","","","","nonmatch","","","","","","","","","","","","","","key","j","16.663076923077014","720","446","j","true","nonmatch","img/hexagon.png","方形","六边","ALT1_1","prac_ALT1_1","","","","","","","","","","","",""
"null","<span style='color:GreenYellow; font-size: 70px;'>正确! </span>","null","html-keyboard-response","50","335292","0.0-7.0-0.0-1.0-0.0-1.20","4","3","4","3","3","4","3","3","4","4","4","4","2","3","4","4","4","4","5","4","2","3","3","2","2","2","2","4","1","1","0","1","1","0","0","1","1","0","1","1","0","1","0","1","5","2","4","2","2","1","2","4","3","2","1","786688590502694913","柳","648","","","","","","","","","","","","","","","","","","","","","","","","","","","","","","feedback_test","","","","","","","","","","","",""
"1000","","f","psychophysics","51","337292","0.0-7.0-0.0-1.0-0.0-0.21","4","3","4","3","3","4","3","3","4","4","4","4","2","3","4","4","4","4","5","4","2","3","3","2","2","2","2","4","1","1","0","1","1","0","0","1","1","0","1","1","0","1","0","1","5","2","4","2","2","1","2","4","3","2","1","786688590502694913","柳","648","","","","match","","","","","","","","","","","","","","key","f","16.66386554621849","720","446","f","true","match","img/square.png","方形","方形","ALT1_1","prac_ALT1_1","","","","","","","","","","","",""
"null","<span style='color:GreenYellow; font-size: 70px;'>正确! </span>","null","html-keyboard-response","52","337794","0.0-7.0-0.0-1.0-0.0-1.21","4","3","4","3","3","4","3","3","4","4","4","4","2","3","4","4","4","4","5","4","2","3","3","2","2","2","2","4","1","1","0","1","1","0","0","1","1","0","1","1","0","1","0","1","5","2","4","2","2","1","2","4","3","2","1","786688590502694913","柳","648","","","","","","","","","","","","","","","","","","","","","","","","","","","","","","feedback_test","","","","","","","","","","","",""
"831","","f","psychophysics","53","339626","0.0-7.0-0.0-1.0-0.0-0.22","4","3","4","3","3","4","3","3","4","4","4","4","2","3","4","4","4","4","5","4","2","3","3","2","2","2","2","4","1","1","0","1","1","0","0","1","1","0","1","1","0","1","0","1","5","2","4","2","2","1","2","4","3","2","1","786688590502694913","柳","648","","","","match","","","","","","","","","","","","","","key","f","16.662385321101024","720","446","f","true","match","img/hexagon.png","六边","六边","ALT1_1","prac_ALT1_1","","","","","","","","","","","",""
"null","<span style='color:GreenYellow; font-size: 70px;'>正确! </span>","null","html-keyboard-response","54","340127","0.0-7.0-0.0-1.0-0.0-1.22","4","3","4","3","3","4","3","3","4","4","4","4","2","3","4","4","4","4","5","4","2","3","3","2","2","2","2","4","1","1","0","1","1","0","0","1","1","0","1","1","0","1","0","1","5","2","4","2","2","1","2","4","3","2","1","786688590502694913","柳","648","","","","","","","","","","","","","","","","","","","","","","","","","","","","","","feedback_test","","","","","","","","","","","",""
"880","","f","psychophysics","55","342008","0.0-7.0-0.0-1.0-0.0-0.23","4","3","4","3","3","4","3","3","4","4","4","4","2","3","4","4","4","4","5","4","2","3","3","2","2","2","2","4","1","1","0","1","1","0","0","1","1","0","1","1","0","1","0","1","5","2","4","2","2","1","2","4","3","2","1","786688590502694913","柳","648","","","","match","","","","","","","","","","","","","","key","f","16.663392857142753","720","446","j","false","nonmatch","img/ellipse.png","六边","椭圆","ALT1_1","prac_ALT1_1","","","","","","","","","","","",""
"null","<span style='color:red; font-size: 70px;'>错误! </span>","null","html-keyboard-response","56","342508","0.0-7.0-0.0-1.0-0.0-1.23","4","3","4","3","3","4","3","3","4","4","4","4","2","3","4","4","4","4","5","4","2","3","3","2","2","2","2","4","1","1","0","1","1","0","0","1","1","0","1","1","0","1","0","1","5","2","4","2","2","1","2","4","3","2","1","786688590502694913","柳","648","","","","","","","","","","","","","","","","","","","","","","","","","","","","","","feedback_test","","","","","","","","","","","",""
"1127","","j","psychophysics","57","344637","0.0-7.0-0.0-1.0-0.0-0.24","4","3","4","3","3","4","3","3","4","4","4","4","2","3","4","4","4","4","5","4","2","3","3","2","2","2","2","4","1","1","0","1","1","0","0","1","1","0","1","1","0","1","0","1","5","2","4","2","2","1","2","4","3","2","1","786688590502694913","柳","648","","","","nonmatch","","","","","","","","","","","","","","key","j","16.66377952755896","720","446","j","true","nonmatch","img/square.png","梯形","方形","ALT1_1","prac_ALT1_1","","","","","","","","","","","",""
"null","<span style='color:GreenYellow; font-size: 70px;'>正确! </span>","null","html-keyboard-response","58","345138","0.0-7.0-0.0-1.0-0.0-1.24","4","3","4","3","3","4","3","3","4","4","4","4","2","3","4","4","4","4","5","4","2","3","3","2","2","2","2","4","1","1","0","1","1","0","0","1","1","0","1","1","0","1","0","1","5","2","4","2","2","1","2","4","3","2","1","786688590502694913","柳","648","","","","","","","","","","","","","","","","","","","","","","","","","","","","","","feedback_test","","","","","","","","","","","",""
"1199","","j","psychophysics","59","347338","0.0-7.0-0.0-1.0-0.0-0.25","4","3","4","3","3","4","3","3","4","4","4","4","2","3","4","4","4","4","5","4","2","3","3","2","2","2","2","4","1","1","0","1","1","0","0","1","1","0","1","1","0","1","0","1","5","2","4","2","2","1","2","4","3","2","1","786688590502694913","柳","648","","","","nonmatch","","","","","","","","","","","","","","key","j","16.66412213740458","720","446","j","true","nonmatch","img/hexagon.png","梯形","六边","ALT1_1","prac_ALT1_1","","","","","","","","","","","",""
"null","<span style='color:GreenYellow; font-size: 70px;'>正确! </span>","null","html-keyboard-response","60","347841","0.0-7.0-0.0-1.0-0.0-1.25","4","3","4","3","3","4","3","3","4","4","4","4","2","3","4","4","4","4","5","4","2","3","3","2","2","2","2","4","1","1","0","1","1","0","0","1","1","0","1","1","0","1","0","1","5","2","4","2","2","1","2","4","3","2","1","786688590502694913","柳","648","","","","","","","","","","","","","","","","","","","","","","","","","","","","","","feedback_test","","","","","","","","","","","",""
"654","","f","psychophysics","61","349497","0.0-7.0-0.0-1.0-0.0-0.26","4","3","4","3","3","4","3","3","4","4","4","4","2","3","4","4","4","4","5","4","2","3","3","2","2","2","2","4","1","1","0","1","1","0","0","1","1","0","1","1","0","1","0","1","5","2","4","2","2","1","2","4","3","2","1","786688590502694913","柳","648","","","","match","","","","","","","","","","","","","","key","f","16.66363636363648","720","446","f","true","match","img/trapezoid.png","梯形","梯形","ALT1_1","prac_ALT1_1","","","","","","","","","","","",""
"null","<span style='color:GreenYellow; font-size: 70px;'>正确! </span>","null","html-keyboard-response","62","349998","0.0-7.0-0.0-1.0-0.0-1.26","4","3","4","3","3","4","3","3","4","4","4","4","2","3","4","4","4","4","5","4","2","3","3","2","2","2","2","4","1","1","0","1","1","0","0","1","1","0","1","1","0","1","0","1","5","2","4","2","2","1","2","4","3","2","1","786688590502694913","柳","648","","","","","","","","","","","","","","","","","","","","","","","","","","","","","","feedback_test","","","","","","","","","","","",""
"1191","","f","psychophysics","63","352190","0.0-7.0-0.0-1.0-0.0-0.27","4","3","4","3","3","4","3","3","4","4","4","4","2","3","4","4","4","4","5","4","2","3","3","2","2","2","2","4","1","1","0","1","1","0","0","1","1","0","1","1","0","1","0","1","5","2","4","2","2","1","2","4","3","2","1","786688590502694913","柳","648","","","","match","","","","","","","","","","","","","","key","f","16.663846153846066","720","446","f","true","match","img/trapezoid.png","梯形","梯形","ALT1_1","prac_ALT1_1","","","","","","","","","","","",""
"null","<span style='color:GreenYellow; font-size: 70px;'>正确! </span>","null","html-keyboard-response","64","352690","0.0-7.0-0.0-1.0-0.0-1.27","4","3","4","3","3","4","3","3","4","4","4","4","2","3","4","4","4","4","5","4","2","3","3","2","2","2","2","4","1","1","0","1","1","0","0","1","1","0","1","1","0","1","0","1","5","2","4","2","2","1","2","4","3","2","1","786688590502694913","柳","648","","","","","","","","","","","","","","","","","","","","","","","","","","","","","","feedback_test","","","","","","","","","","","",""
"899","","f","psychophysics","65","354591","0.0-7.0-0.0-1.0-0.0-0.28","4","3","4","3","3","4","3","3","4","4","4","4","2","3","4","4","4","4","5","4","2","3","3","2","2","2","2","4","1","1","0","1","1","0","0","1","1","0","1","1","0","1","0","1","5","2","4","2","2","1","2","4","3","2","1","786688590502694913","柳","648","","","","match","","","","","","","","","","","","","","key","f","16.664601769911297","720","446","f","true","match","img/square.png","方形","方形","ALT1_1","prac_ALT1_1","","","","","","","","","","","",""
"null","<span style='color:GreenYellow; font-size: 70px;'>正确! </span>","null","html-keyboard-response","66","355092","0.0-7.0-0.0-1.0-0.0-1.28","4","3","4","3","3","4","3","3","4","4","4","4","2","3","4","4","4","4","5","4","2","3","3","2","2","2","2","4","1","1","0","1","1","0","0","1","1","0","1","1","0","1","0","1","5","2","4","2","2","1","2","4","3","2","1","786688590502694913","柳","648","","","","","","","","","","","","","","","","","","","","","","","","","","","","","","feedback_test","","","","","","","","","","","",""
"868","","j","psychophysics","67","356963","0.0-7.0-0.0-1.0-0.0-0.29","4","3","4","3","3","4","3","3","4","4","4","4","2","3","4","4","4","4","5","4","2","3","3","2","2","2","2","4","1","1","0","1","1","0","0","1","1","0","1","1","0","1","0","1","5","2","4","2","2","1","2","4","3","2","1","786688590502694913","柳","648","","","","nonmatch","","","","","","","","","","","","","","key","j","16.663392857142753","720","446","j","true","nonmatch","img/ellipse.png","方形","椭圆","ALT1_1","prac_ALT1_1","","","","","","","","","","","",""
"null","<span style='color:GreenYellow; font-size: 70px;'>正确! </span>","null","html-keyboard-response","68","357463","0.0-7.0-0.0-1.0-0.0-1.29","4","3","4","3","3","4","3","3","4","4","4","4","2","3","4","4","4","4","5","4","2","3","3","2","2","2","2","4","1","1","0","1","1","0","0","1","1","0","1","1","0","1","0","1","5","2","4","2","2","1","2","4","3","2","1","786688590502694913","柳","648","","","","","","","","","","","","","","","","","","","","","","","","","","","","","","feedback_test","","","","","","","","","","","",""
"959","","j","psychophysics","69","359423","0.0-7.0-0.0-1.0-0.0-0.30","4","3","4","3","3","4","3","3","4","4","4","4","2","3","4","4","4","4","5","4","2","3","3","2","2","2","2","4","1","1","0","1","1","0","0","1","1","0","1","1","0","1","0","1","5","2","4","2","2","1","2","4","3","2","1","786688590502694913","柳","648","","","","nonmatch","","","","","","","","","","","","","","key","j","16.66293103448296","720","446","f","false","match","img/hexagon.png","六边","六边","ALT1_1","prac_ALT1_1","","","","","","","","","","","",""
"null","<span style='color:red; font-size: 70px;'>错误! </span>","null","html-keyboard-response","70","359925","0.0-7.0-0.0-1.0-0.0-1.30","4","3","4","3","3","4","3","3","4","4","4","4","2","3","4","4","4","4","5","4","2","3","3","2","2","2","2","4","1","1","0","1","1","0","0","1","1","0","1","1","0","1","0","1","5","2","4","2","2","1","2","4","3","2","1","786688590502694913","柳","648","","","","","","","","","","","","","","","","","","","","","","","","","","","","","","feedback_test","","","","","","","","","","","",""
"1199","","f","psychophysics","71","362125","0.0-7.0-0.0-1.0-0.0-0.31","4","3","4","3","3","4","3","3","4","4","4","4","2","3","4","4","4","4","5","4","2","3","3","2","2","2","2","4","1","1","0","1","1","0","0","1","1","0","1","1","0","1","0","1","5","2","4","2","2","1","2","4","3","2","1","786688590502694913","柳","648","","","","match","","","","","","","","","","","","","","key","f","16.66412213740458","720","446","f","true","match","img/square.png","方形","方形","ALT1_1","prac_ALT1_1","","","","","","","","","","","",""
"null","<span style='color:GreenYellow; font-size: 70px;'>正确! </span>","null","html-keyboard-response","72","362627","0.0-7.0-0.0-1.0-0.0-1.31","4","3","4","3","3","4","3","3","4","4","4","4","2","3","4","4","4","4","5","4","2","3","3","2","2","2","2","4","1","1","0","1","1","0","0","1","1","0","1","1","0","1","0","1","5","2","4","2","2","1","2","4","3","2","1","786688590502694913","柳","648","","","","","","","","","","","","","","","","","","","","","","","","","","","","","","feedback_test","","","","","","","","","","","",""
"779","","f","psychophysics","73","364408","0.0-7.0-0.0-1.0-0.0-0.32","4","3","4","3","3","4","3","3","4","4","4","4","2","3","4","4","4","4","5","4","2","3","3","2","2","2","2","4","1","1","0","1","1","0","0","1","1","0","1","1","0","1","0","1","5","2","4","2","2","1","2","4","3","2","1","786688590502694913","柳","648","","","","match","","","","","","","","","","","","","","key","f","16.663809523809636","720","446","f","true","match","img/ellipse.png","椭圆","椭圆","ALT1_1","prac_ALT1_1","","","","","","","","","","","",""
"null","<span style='color:GreenYellow; font-size: 70px;'>正确! </span>","null","html-keyboard-response","74","364910","0.0-7.0-0.0-1.0-0.0-1.32","4","3","4","3","3","4","3","3","4","4","4","4","2","3","4","4","4","4","5","4","2","3","3","2","2","2","2","4","1","1","0","1","1","0","0","1","1","0","1","1","0","1","0","1","5","2","4","2","2","1","2","4","3","2","1","786688590502694913","柳","648","","","","","","","","","","","","","","","","","","","","","","","","","","","","","","feedback_test","","","","","","","","","","","",""
"878","","j","psychophysics","75","366789","0.0-7.0-0.0-1.0-0.0-0.33","4","3","4","3","3","4","3","3","4","4","4","4","2","3","4","4","4","4","5","4","2","3","3","2","2","2","2","4","1","1","0","1","1","0","0","1","1","0","1","1","0","1","0","1","5","2","4","2","2","1","2","4","3","2","1","786688590502694913","柳","648","","","","nonmatch","","","","","","","","","","","","","","key","j","16.663063063062854","720","446","j","true","nonmatch","img/trapezoid.png","六边","梯形","ALT1_1","prac_ALT1_1","","","","","","","","","","","",""
"null","<span style='color:GreenYellow; font-size: 70px;'>正确! </span>","null","html-keyboard-response","76","367290","0.0-7.0-0.0-1.0-0.0-1.33","4","3","4","3","3","4","3","3","4","4","4","4","2","3","4","4","4","4","5","4","2","3","3","2","2","2","2","4","1","1","0","1","1","0","0","1","1","0","1","1","0","1","0","1","5","2","4","2","2","1","2","4","3","2","1","786688590502694913","柳","648","","","","","","","","","","","","","","","","","","","","","","","","","","","","","","feedback_test","","","","","","","","","","","",""
"731","","f","psychophysics","77","369023","0.0-7.0-0.0-1.0-0.0-0.34","4","3","4","3","3","4","3","3","4","4","4","4","2","3","4","4","4","4","5","4","2","3","3","2","2","2","2","4","1","1","0","1","1","0","0","1","1","0","1","1","0","1","0","1","5","2","4","2","2","1","2","4","3","2","1","786688590502694913","柳","648","","","","match","","","","","","","","","","","","","","key","f","16.66310679611639","720","446","f","true","match","img/ellipse.png","椭圆","椭圆","ALT1_1","prac_ALT1_1","","","","","","","","","","","",""
"null","<span style='color:GreenYellow; font-size: 70px;'>正确! </span>","null","html-keyboard-response","78","369524","0.0-7.0-0.0-1.0-0.0-1.34","4","3","4","3","3","4","3","3","4","4","4","4","2","3","4","4","4","4","5","4","2","3","3","2","2","2","2","4","1","1","0","1","1","0","0","1","1","0","1","1","0","1","0","1","5","2","4","2","2","1","2","4","3","2","1","786688590502694913","柳","648","","","","","","","","","","","","","","","","","","","","","","","","","","","","","","feedback_test","","","","","","","","","","","",""
"958","","j","psychophysics","79","371484","0.0-7.0-0.0-1.0-0.0-0.35","4","3","4","3","3","4","3","3","4","4","4","4","2","3","4","4","4","4","5","4","2","3","3","2","2","2","2","4","1","1","0","1","1","0","0","1","1","0","1","1","0","1","0","1","5","2","4","2","2","1","2","4","3","2","1","786688590502694913","柳","648","","","","nonmatch","","","","","","","","","","","","","","key","j","16.660344827586005","720","446","j","true","nonmatch","img/ellipse.png","梯形","椭圆","ALT1_1","prac_ALT1_1","","","","","","","","","","","",""
"null","<span style='color:GreenYellow; font-size: 70px;'>正确! </span>","null","html-keyboard-response","80","371985","0.0-7.0-0.0-1.0-0.0-1.35","4","3","4","3","3","4","3","3","4","4","4","4","2","3","4","4","4","4","5","4","2","3","3","2","2","2","2","4","1","1","0","1","1","0","0","1","1","0","1","1","0","1","0","1","5","2","4","2","2","1","2","4","3","2","1","786688590502694913","柳","648","","","","","","","","","","","","","","","","","","","","","","","","","","","","","","feedback_test","","","","","","","","","","","",""
"1070","","j","psychophysics","81","374056","0.0-7.0-0.0-1.0-0.0-0.36","4","3","4","3","3","4","3","3","4","4","4","4","2","3","4","4","4","4","5","4","2","3","3","2","2","2","2","4","1","1","0","1","1","0","0","1","1","0","1","1","0","1","0","1","5","2","4","2","2","1","2","4","3","2","1","786688590502694913","柳","648","","","","nonmatch","","","","","","","","","","","","","","key","j","16.66260162601626","720","446","j","true","nonmatch","img/trapezoid.png","方形","梯形","ALT1_1","prac_ALT1_1","","","","","","","","","","","",""
"null","<span style='color:GreenYellow; font-size: 70px;'>正确! </span>","null","html-keyboard-response","82","374557","0.0-7.0-0.0-1.0-0.0-1.36","4","3","4","3","3","4","3","3","4","4","4","4","2","3","4","4","4","4","5","4","2","3","3","2","2","2","2","4","1","1","0","1","1","0","0","1","1","0","1","1","0","1","0","1","5","2","4","2","2","1","2","4","3","2","1","786688590502694913","柳","648","","","","","","","","","","","","","","","","","","","","","","","","","","","","","","feedback_test","","","","","","","","","","","",""
"674","","f","psychophysics","83","376232","0.0-7.0-0.0-1.0-0.0-0.37","4","3","4","3","3","4","3","3","4","4","4","4","2","3","4","4","4","4","5","4","2","3","3","2","2","2","2","4","1","1","0","1","1","0","0","1","1","0","1","1","0","1","0","1","5","2","4","2","2","1","2","4","3","2","1","786688590502694913","柳","648","","","","match","","","","","","","","","","","","","","key","f","16.662626262626617","720","446","f","true","match","img/ellipse.png","椭圆","椭圆","ALT1_1","prac_ALT1_1","","","","","","","","","","","",""
"null","<span style='color:GreenYellow; font-size: 70px;'>正确! </span>","null","html-keyboard-response","84","376733","0.0-7.0-0.0-1.0-0.0-1.37","4","3","4","3","3","4","3","3","4","4","4","4","2","3","4","4","4","4","5","4","2","3","3","2","2","2","2","4","1","1","0","1","1","0","0","1","1","0","1","1","0","1","0","1","5","2","4","2","2","1","2","4","3","2","1","786688590502694913","柳","648","","","","","","","","","","","","","","","","","","","","","","","","","","","","","","feedback_test","","","","","","","","","","","",""
"851","","j","psychophysics","85","378584","0.0-7.0-0.0-1.0-0.0-0.38","4","3","4","3","3","4","3","3","4","4","4","4","2","3","4","4","4","4","5","4","2","3","3","2","2","2","2","4","1","1","0","1","1","0","0","1","1","0","1","1","0","1","0","1","5","2","4","2","2","1","2","4","3","2","1","786688590502694913","柳","648","","","","nonmatch","","","","","","","","","","","","","","key","j","16.663636363636364","720","446","j","true","nonmatch","img/trapezoid.png","椭圆","梯形","ALT1_1","prac_ALT1_1","","","","","","","","","","","",""
"null","<span style='color:GreenYellow; font-size: 70px;'>正确! </span>","null","html-keyboard-response","86","379086","0.0-7.0-0.0-1.0-0.0-1.38","4","3","4","3","3","4","3","3","4","4","4","4","2","3","4","4","4","4","5","4","2","3","3","2","2","2","2","4","1","1","0","1","1","0","0","1","1","0","1","1","0","1","0","1","5","2","4","2","2","1","2","4","3","2","1","786688590502694913","柳","648","","","","","","","","","","","","","","","","","","","","","","","","","","","","","","feedback_test","","","","","","","","","","","",""
"863","","j","psychophysics","87","380950","0.0-7.0-0.0-1.0-0.0-0.39","4","3","4","3","3","4","3","3","4","4","4","4","2","3","4","4","4","4","5","4","2","3","3","2","2","2","2","4","1","1","0","1","1","0","0","1","1","0","1","1","0","1","0","1","5","2","4","2","2","1","2","4","3","2","1","786688590502694913","柳","648","","","","nonmatch","","","","","","","","","","","","","","key","j","16.663063063062854","720","446","j","true","nonmatch","img/ellipse.png","六边","椭圆","ALT1_1","prac_ALT1_1","","","","","","","","","","","",""
"null","<span style='color:GreenYellow; font-size: 70px;'>正确! </span>","null","html-keyboard-response","88","381451","0.0-7.0-0.0-1.0-0.0-1.39","4","3","4","3","3","4","3","3","4","4","4","4","2","3","4","4","4","4","5","4","2","3","3","2","2","2","2","4","1","1","0","1","1","0","0","1","1","0","1","1","0","1","0","1","5","2","4","2","2","1","2","4","3","2","1","786688590502694913","柳","648","","","","","","","","","","","","","","","","","","","","","","","","","","","","","","feedback_test","","","","","","","","","","","",""
"761","","f","psychophysics","89","383213","0.0-7.0-0.0-1.0-0.0-0.40","4","3","4","3","3","4","3","3","4","4","4","4","2","3","4","4","4","4","5","4","2","3","3","2","2","2","2","4","1","1","0","1","1","0","0","1","1","0","1","1","0","1","0","1","5","2","4","2","2","1","2","4","3","2","1","786688590502694913","柳","648","","","","match","","","","","","","","","","","","","","key","f","16.663809523809636","720","446","f","true","match","img/square.png","方形","方形","ALT1_1","prac_ALT1_1","","","","","","","","","","","",""
"null","<span style='color:GreenYellow; font-size: 70px;'>正确! </span>","null","html-keyboard-response","90","383714","0.0-7.0-0.0-1.0-0.0-1.40","4","3","4","3","3","4","3","3","4","4","4","4","2","3","4","4","4","4","5","4","2","3","3","2","2","2","2","4","1","1","0","1","1","0","0","1","1","0","1","1","0","1","0","1","5","2","4","2","2","1","2","4","3","2","1","786688590502694913","柳","648","","","","","","","","","","","","","","","","","","","","","","","","","","","","","","feedback_test","","","","","","","","","","","",""
"783","","j","psychophysics","91","385497","0.0-7.0-0.0-1.0-0.0-0.41","4","3","4","3","3","4","3","3","4","4","4","4","2","3","4","4","4","4","5","4","2","3","3","2","2","2","2","4","1","1","0","1","1","0","0","1","1","0","1","1","0","1","0","1","5","2","4","2","2","1","2","4","3","2","1","786688590502694913","柳","648","","","","nonmatch","","","","","","","","","","","","","","key","j","16.6632075471697","720","446","j","true","nonmatch","img/square.png","六边","方形","ALT1_1","prac_ALT1_1","","","","","","","","","","","",""
"null","<span style='color:GreenYellow; font-size: 70px;'>正确! </span>","null","html-keyboard-response","92","385998","0.0-7.0-0.0-1.0-0.0-1.41","4","3","4","3","3","4","3","3","4","4","4","4","2","3","4","4","4","4","5","4","2","3","3","2","2","2","2","4","1","1","0","1","1","0","0","1","1","0","1","1","0","1","0","1","5","2","4","2","2","1","2","4","3","2","1","786688590502694913","柳","648","","","","","","","","","","","","","","","","","","","","","","","","","","","","","","feedback_test","","","","","","","","","","","",""
"1012","","j","psychophysics","93","388012","0.0-7.0-0.0-1.0-0.0-0.42","4","3","4","3","3","4","3","3","4","4","4","4","2","3","4","4","4","4","5","4","2","3","3","2","2","2","2","4","1","1","0","1","1","0","0","1","1","0","1","1","0","1","0","1","5","2","4","2","2","1","2","4","3","2","1","786688590502694913","柳","648","","","","nonmatch","","","","","","","","","","","","","","key","j","16.664999999999903","720","446","j","true","nonmatch","img/hexagon.png","方形","六边","ALT1_1","prac_ALT1_1","","","","","","","","","","","",""
"null","<span style='color:GreenYellow; font-size: 70px;'>正确! </span>","null","html-keyboard-response","94","388512","0.0-7.0-0.0-1.0-0.0-1.42","4","3","4","3","3","4","3","3","4","4","4","4","2","3","4","4","4","4","5","4","2","3","3","2","2","2","2","4","1","1","0","1","1","0","0","1","1","0","1","1","0","1","0","1","5","2","4","2","2","1","2","4","3","2","1","786688590502694913","柳","648","","","","","","","","","","","","","","","","","","","","","","","","","","","","","","feedback_test","","","","","","","","","","","",""
"862","","f","psychophysics","95","390375","0.0-7.0-0.0-1.0-0.0-0.43","4","3","4","3","3","4","3","3","4","4","4","4","2","3","4","4","4","4","5","4","2","3","3","2","2","2","2","4","1","1","0","1","1","0","0","1","1","0","1","1","0","1","0","1","5","2","4","2","2","1","2","4","3","2","1","786688590502694913","柳","648","","","","match","","","","","","","","","","","","","","key","f","16.663063063062854","720","446","j","false","nonmatch","img/hexagon.png","椭圆","六边","ALT1_1","prac_ALT1_1","","","","","","","","","","","",""
"null","<span style='color:red; font-size: 70px;'>错误! </span>","null","html-keyboard-response","96","390876","0.0-7.0-0.0-1.0-0.0-1.43","4","3","4","3","3","4","3","3","4","4","4","4","2","3","4","4","4","4","5","4","2","3","3","2","2","2","2","4","1","1","0","1","1","0","0","1","1","0","1","1","0","1","0","1","5","2","4","2","2","1","2","4","3","2","1","786688590502694913","柳","648","","","","","","","","","","","","","","","","","","","","","","","","","","","","","","feedback_test","","","","","","","","","","","",""
"1079","","j","psychophysics","97","392957","0.0-7.0-0.0-1.0-0.0-0.44","4","3","4","3","3","4","3","3","4","4","4","4","2","3","4","4","4","4","5","4","2","3","3","2","2","2","2","4","1","1","0","1","1","0","0","1","1","0","1","1","0","1","0","1","5","2","4","2","2","1","2","4","3","2","1","786688590502694913","柳","648","","","","nonmatch","","","","","","","","","","","","","","key","j","16.66370967741926","720","446","j","true","nonmatch","img/square.png","椭圆","方形","ALT1_1","prac_ALT1_1","","","","","","","","","","","",""
"null","<span style='color:GreenYellow; font-size: 70px;'>正确! </span>","null","html-keyboard-response","98","393458","0.0-7.0-0.0-1.0-0.0-1.44","4","3","4","3","3","4","3","3","4","4","4","4","2","3","4","4","4","4","5","4","2","3","3","2","2","2","2","4","1","1","0","1","1","0","0","1","1","0","1","1","0","1","0","1","5","2","4","2","2","1","2","4","3","2","1","786688590502694913","柳","648","","","","","","","","","","","","","","","","","","","","","","","","","","","","","","feedback_test","","","","","","","","","","","",""
"1122","","f","psychophysics","99","395581","0.0-7.0-0.0-1.0-0.0-0.45","4","3","4","3","3","4","3","3","4","4","4","4","2","3","4","4","4","4","5","4","2","3","3","2","2","2","2","4","1","1","0","1","1","0","0","1","1","0","1","1","0","1","0","1","5","2","4","2","2","1","2","4","3","2","1","786688590502694913","柳","648","","","","match","","","","","","","","","","","","","","key","f","16.66349206349188","720","446","f","true","match","img/hexagon.png","六边","六边","ALT1_1","prac_ALT1_1","","","","","","","","","","","",""
"null","<span style='color:GreenYellow; font-size: 70px;'>正确! </span>","null","html-keyboard-response","100","396082","0.0-7.0-0.0-1.0-0.0-1.45","4","3","4","3","3","4","3","3","4","4","4","4","2","3","4","4","4","4","5","4","2","3","3","2","2","2","2","4","1","1","0","1","1","0","0","1","1","0","1","1","0","1","0","1","5","2","4","2","2","1","2","4","3","2","1","786688590502694913","柳","648","","","","","","","","","","","","","","","","","","","","","","","","","","","","","","feedback_test","","","","","","","","","","","",""
"1072","","j","psychophysics","101","398155","0.0-7.0-0.0-1.0-0.0-0.46","4","3","4","3","3","4","3","3","4","4","4","4","2","3","4","4","4","4","5","4","2","3","3","2","2","2","2","4","1","1","0","1","1","0","0","1","1","0","1","1","0","1","0","1","5","2","4","2","2","1","2","4","3","2","1","786688590502694913","柳","648","","","","nonmatch","","","","","","","","","","","","","","key","j","16.66370967741973","720","446","f","false","match","img/trapezoid.png","梯形","梯形","ALT1_1","prac_ALT1_1","","","","","","","","","","","",""
"null","<span style='color:red; font-size: 70px;'>错误! </span>","null","html-keyboard-response","102","398656","0.0-7.0-0.0-1.0-0.0-1.46","4","3","4","3","3","4","3","3","4","4","4","4","2","3","4","4","4","4","5","4","2","3","3","2","2","2","2","4","1","1","0","1","1","0","0","1","1","0","1","1","0","1","0","1","5","2","4","2","2","1","2","4","3","2","1","786688590502694913","柳","648","","","","","","","","","","","","","","","","","","","","","","","","","","","","","","feedback_test","","","","","","","","","","","",""
"1069","","f","psychophysics","103","400727","0.0-7.0-0.0-1.0-0.0-0.47","4","3","4","3","3","4","3","3","4","4","4","4","2","3","4","4","4","4","5","4","2","3","3","2","2","2","2","4","1","1","0","1","1","0","0","1","1","0","1","1","0","1","0","1","5","2","4","2","2","1","2","4","3","2","1","786688590502694913","柳","648","","","","match","","","","","","","","","","","","","","key","f","16.663414634146154","720","446","f","true","match","img/hexagon.png","六边","六边","ALT1_1","prac_ALT1_1","","","","","","","","","","","",""
"null","<span style='color:GreenYellow; font-size: 70px;'>正确! </span>","null","html-keyboard-response","104","401229","0.0-7.0-0.0-1.0-0.0-1.47","4","3","4","3","3","4","3","3","4","4","4","4","2","3","4","4","4","4","5","4","2","3","3","2","2","2","2","4","1","1","0","1","1","0","0","1","1","0","1","1","0","1","0","1","5","2","4","2","2","1","2","4","3","2","1","786688590502694913","柳","648","","","","","","","","","","","","","","","","","","","","","","","","","","","","","","feedback_test","","","","","","","","","","","",""
"10090","<style>.context{color:white; font-size: 35px; line-height:40px}</style>                            <div><p class='context'>您正确回答了73% 的试次。</p><p class='context'>您的平均反应时为865毫秒。</p><p class='context'>恭喜您完成练习。按空格键进入正式实验。</p><p class='footer' style='font-size: 35px; line-height:40px;'>请在进入正式实验之前将您的<span style='color: lightgreen;'>食指</span>放在电脑键盘的相应键位上进行按键。</p>"," ","html-keyboard-response","105","411321","0.0-7.0-0.0-2.0","4","3","4","3","3","4","3","3","4","4","4","4","2","3","4","4","4","4","5","4","2","3","3","2","2","2","2","4","1","1","0","1","1","0","0","1","1","0","1","1","0","1","0","1","5","2","4","2","2","1","2","4","3","2","1","786688590502694913","柳","648","","","","","","","","","","","","","","","","","","","","","","","","","","","","","","","","","","","","","","","","","",""
"2804","
    <p style='color: white; font-size: 22px'>请您将手指放在按键上，准备进入正式的匹配任务。</p>
    <p> <div style = ""color: green""><按空格键进入下一阶段的匹配任务></div></p>
    "," ","html-keyboard-response","106","414126","0.0-7.0-0.0-3.0","4","3","4","3","3","4","3","3","4","4","4","4","2","3","4","4","4","4","5","4","2","3","3","2","2","2","2","4","1","1","0","1","1","0","0","1","1","0","1","1","0","1","0","1","5","2","4","2","2","1","2","4","3","2","1","786688590502694913","柳","648","","","","","","","","","","","","","","","","","","","","","","","","","","","","","","","","","","","","","","","","","",""
"725","","f","psychophysics","107","415851","0.0-7.0-0.0-4.0-0.0-0.0","4","3","4","3","3","4","3","3","4","4","4","4","2","3","4","4","4","4","5","4","2","3","3","2","2","2","2","4","1","1","0","1","1","0","0","1","1","0","1","1","0","1","0","1","5","2","4","2","2","1","2","4","3","2","1","786688590502694913","柳","648","","","","match","","","","","","","","","","","","","","key","f","16.66310679611639","720","446","f","true","match","img/ellipse.png","椭圆","椭圆","ALT1","formal_ALT1_1","","","","","","","","","","","",""
"null","<span style='color:GreenYellow; font-size: 70px;'>正确! </span>","null","html-keyboard-response","108","416352","0.0-7.0-0.0-4.0-0.0-1.0","4","3","4","3","3","4","3","3","4","4","4","4","2","3","4","4","4","4","5","4","2","3","3","2","2","2","2","4","1","1","0","1","1","0","0","1","1","0","1","1","0","1","0","1","5","2","4","2","2","1","2","4","3","2","1","786688590502694913","柳","648","","","","","","","","","","","","","","","","","","","","","","","","","","","","","","feedback_test","","","","","","","","","","","",""
"535","","f","psychophysics","109","417888","0.0-7.0-0.0-4.0-0.0-0.1","4","3","4","3","3","4","3","3","4","4","4","4","2","3","4","4","4","4","5","4","2","3","3","2","2","2","2","4","1","1","0","1","1","0","0","1","1","0","1","1","0","1","0","1","5","2","4","2","2","1","2","4","3","2","1","786688590502694913","柳","648","","","","match","","","","","","","","","","","","","","key","f","16.664835164835164","720","446","f","true","match","img/square.png","方形","方形","ALT1","formal_ALT1_1","","","","","","","","","","","",""
"null","<span style='color:GreenYellow; font-size: 70px;'>正确! </span>","null","html-keyboard-response","110","418388","0.0-7.0-0.0-4.0-0.0-1.1","4","3","4","3","3","4","3","3","4","4","4","4","2","3","4","4","4","4","5","4","2","3","3","2","2","2","2","4","1","1","0","1","1","0","0","1","1","0","1","1","0","1","0","1","5","2","4","2","2","1","2","4","3","2","1","786688590502694913","柳","648","","","","","","","","","","","","","","","","","","","","","","","","","","","","","","feedback_test","","","","","","","","","","","",""
"641","","f","psychophysics","111","420030","0.0-7.0-0.0-4.0-0.0-0.2","4","3","4","3","3","4","3","3","4","4","4","4","2","3","4","4","4","4","5","4","2","3","3","2","2","2","2","4","1","1","0","1","1","0","0","1","1","0","1","1","0","1","0","1","5","2","4","2","2","1","2","4","3","2","1","786688590502694913","柳","648","","","","match","","","","","","","","","","","","","","key","f","16.664948453608247","720","446","f","true","match","img/trapezoid.png","梯形","梯形","ALT1","formal_ALT1_1","","","","","","","","","","","",""
"null","<span style='color:GreenYellow; font-size: 70px;'>正确! </span>","null","html-keyboard-response","112","420532","0.0-7.0-0.0-4.0-0.0-1.2","4","3","4","3","3","4","3","3","4","4","4","4","2","3","4","4","4","4","5","4","2","3","3","2","2","2","2","4","1","1","0","1","1","0","0","1","1","0","1","1","0","1","0","1","5","2","4","2","2","1","2","4","3","2","1","786688590502694913","柳","648","","","","","","","","","","","","","","","","","","","","","","","","","","","","","","feedback_test","","","","","","","","","","","",""
"828","","j","psychophysics","113","422361","0.0-7.0-0.0-4.0-0.0-0.3","4","3","4","3","3","4","3","3","4","4","4","4","2","3","4","4","4","4","5","4","2","3","3","2","2","2","2","4","1","1","0","1","1","0","0","1","1","0","1","1","0","1","0","1","5","2","4","2","2","1","2","4","3","2","1","786688590502694913","柳","648","","","","nonmatch","","","","","","","","","","","","","","key","j","16.660185185185078","720","446","j","true","nonmatch","img/square.png","六边","方形","ALT1","formal_ALT1_1","","","","","","","","","","","",""
"null","<span style='color:GreenYellow; font-size: 70px;'>正确! </span>","null","html-keyboard-response","114","422862","0.0-7.0-0.0-4.0-0.0-1.3","4","3","4","3","3","4","3","3","4","4","4","4","2","3","4","4","4","4","5","4","2","3","3","2","2","2","2","4","1","1","0","1","1","0","0","1","1","0","1","1","0","1","0","1","5","2","4","2","2","1","2","4","3","2","1","786688590502694913","柳","648","","","","","","","","","","","","","","","","","","","","","","","","","","","","","","feedback_test","","","","","","","","","","","",""
"897","","j","psychophysics","115","424761","0.0-7.0-0.0-4.0-0.0-0.4","4","3","4","3","3","4","3","3","4","4","4","4","2","3","4","4","4","4","5","4","2","3","3","2","2","2","2","4","1","1","0","1","1","0","0","1","1","0","1","1","0","1","0","1","5","2","4","2","2","1","2","4","3","2","1","786688590502694913","柳","648","","","","nonmatch","","","","","","","","","","","","","","key","j","16.662831858407287","720","446","j","true","nonmatch","img/trapezoid.png","方形","梯形","ALT1","formal_ALT1_1","","","","","","","","","","","",""
"null","<span style='color:GreenYellow; font-size: 70px;'>正确! </span>","null","html-keyboard-response","116","425262","0.0-7.0-0.0-4.0-0.0-1.4","4","3","4","3","3","4","3","3","4","4","4","4","2","3","4","4","4","4","5","4","2","3","3","2","2","2","2","4","1","1","0","1","1","0","0","1","1","0","1","1","0","1","0","1","5","2","4","2","2","1","2","4","3","2","1","786688590502694913","柳","648","","","","","","","","","","","","","","","","","","","","","","","","","","","","","","feedback_test","","","","","","","","","","","",""
"745","","j","psychophysics","117","427009","0.0-7.0-0.0-4.0-0.0-0.5","4","3","4","3","3","4","3","3","4","4","4","4","2","3","4","4","4","4","5","4","2","3","3","2","2","2","2","4","1","1","0","1","1","0","0","1","1","0","1","1","0","1","0","1","5","2","4","2","2","1","2","4","3","2","1","786688590502694913","柳","648","","","","nonmatch","","","","","","","","","","","","","","key","j","16.66346153846154","720","446","j","true","nonmatch","img/ellipse.png","方形","椭圆","ALT1","formal_ALT1_1","","","","","","","","","","","",""
"null","<span style='color:GreenYellow; font-size: 70px;'>正确! </span>","null","html-keyboard-response","118","427510","0.0-7.0-0.0-4.0-0.0-1.5","4","3","4","3","3","4","3","3","4","4","4","4","2","3","4","4","4","4","5","4","2","3","3","2","2","2","2","4","1","1","0","1","1","0","0","1","1","0","1","1","0","1","0","1","5","2","4","2","2","1","2","4","3","2","1","786688590502694913","柳","648","","","","","","","","","","","","","","","","","","","","","","","","","","","","","","feedback_test","","","","","","","","","","","",""
"1119","","j","psychophysics","119","429631","0.0-7.0-0.0-4.0-0.0-0.6","4","3","4","3","3","4","3","3","4","4","4","4","2","3","4","4","4","4","5","4","2","3","3","2","2","2","2","4","1","1","0","1","1","0","0","1","1","0","1","1","0","1","0","1","5","2","4","2","2","1","2","4","3","2","1","786688590502694913","柳","648","","","","nonmatch","","","","","","","","","","","","","","key","j","16.663492063492342","720","446","j","true","nonmatch","img/square.png","梯形","方形","ALT1","formal_ALT1_1","","","","","","","","","","","",""
"null","<span style='color:GreenYellow; font-size: 70px;'>正确! </span>","null","html-keyboard-response","120","430132","0.0-7.0-0.0-4.0-0.0-1.6","4","3","4","3","3","4","3","3","4","4","4","4","2","3","4","4","4","4","5","4","2","3","3","2","2","2","2","4","1","1","0","1","1","0","0","1","1","0","1","1","0","1","0","1","5","2","4","2","2","1","2","4","3","2","1","786688590502694913","柳","648","","","","","","","","","","","","","","","","","","","","","","","","","","","","","","feedback_test","","","","","","","","","","","",""
"696","","j","psychophysics","121","431830","0.0-7.0-0.0-4.0-0.0-0.7","4","3","4","3","3","4","3","3","4","4","4","4","2","3","4","4","4","4","5","4","2","3","3","2","2","2","2","4","1","1","0","1","1","0","0","1","1","0","1","1","0","1","0","1","5","2","4","2","2","1","2","4","3","2","1","786688590502694913","柳","648","","","","nonmatch","","","","","","","","","","","","","","key","j","16.665","720","446","j","true","nonmatch","img/hexagon.png","方形","六边","ALT1","formal_ALT1_1","","","","","","","","","","","",""
"null","<span style='color:GreenYellow; font-size: 70px;'>正确! </span>","null","html-keyboard-response","122","432331","0.0-7.0-0.0-4.0-0.0-1.7","4","3","4","3","3","4","3","3","4","4","4","4","2","3","4","4","4","4","5","4","2","3","3","2","2","2","2","4","1","1","0","1","1","0","0","1","1","0","1","1","0","1","0","1","5","2","4","2","2","1","2","4","3","2","1","786688590502694913","柳","648","","","","","","","","","","","","","","","","","","","","","","","","","","","","","","feedback_test","","","","","","","","","","","",""
"946","","j","psychophysics","123","434278","0.0-7.0-0.0-4.0-0.0-0.8","4","3","4","3","3","4","3","3","4","4","4","4","2","3","4","4","4","4","5","4","2","3","3","2","2","2","2","4","1","1","0","1","1","0","0","1","1","0","1","1","0","1","0","1","5","2","4","2","2","1","2","4","3","2","1","786688590502694913","柳","648","","","","nonmatch","","","","","","","","","","","","","","key","j","16.663478260869464","720","446","j","true","nonmatch","img/square.png","椭圆","方形","ALT1","formal_ALT1_1","","","","","","","","","","","",""
"null","<span style='color:GreenYellow; font-size: 70px;'>正确! </span>","null","html-keyboard-response","124","434780","0.0-7.0-0.0-4.0-0.0-1.8","4","3","4","3","3","4","3","3","4","4","4","4","2","3","4","4","4","4","5","4","2","3","3","2","2","2","2","4","1","1","0","1","1","0","0","1","1","0","1","1","0","1","0","1","5","2","4","2","2","1","2","4","3","2","1","786688590502694913","柳","648","","","","","","","","","","","","","","","","","","","","","","","","","","","","","","feedback_test","","","","","","","","","","","",""
"695","","j","psychophysics","125","436476","0.0-7.0-0.0-4.0-0.0-0.9","4","3","4","3","3","4","3","3","4","4","4","4","2","3","4","4","4","4","5","4","2","3","3","2","2","2","2","4","1","1","0","1","1","0","0","1","1","0","1","1","0","1","0","1","5","2","4","2","2","1","2","4","3","2","1","786688590502694913","柳","648","","","","nonmatch","","","","","","","","","","","","","","key","j","16.66","720","446","j","true","nonmatch","img/hexagon.png","椭圆","六边","ALT1","formal_ALT1_1","","","","","","","","","","","",""
"null","<span style='color:GreenYellow; font-size: 70px;'>正确! </span>","null","html-keyboard-response","126","436977","0.0-7.0-0.0-4.0-0.0-1.9","4","3","4","3","3","4","3","3","4","4","4","4","2","3","4","4","4","4","5","4","2","3","3","2","2","2","2","4","1","1","0","1","1","0","0","1","1","0","1","1","0","1","0","1","5","2","4","2","2","1","2","4","3","2","1","786688590502694913","柳","648","","","","","","","","","","","","","","","","","","","","","","","","","","","","","","feedback_test","","","","","","","","","","","",""
"649","","j","psychophysics","127","438627","0.0-7.0-0.0-4.0-0.0-0.10","4","3","4","3","3","4","3","3","4","4","4","4","2","3","4","4","4","4","5","4","2","3","3","2","2","2","2","4","1","1","0","1","1","0","0","1","1","0","1","1","0","1","0","1","5","2","4","2","2","1","2","4","3","2","1","786688590502694913","柳","648","","","","nonmatch","","","","","","","","","","","","","","key","j","16.66224489795942","720","446","f","false","match","img/square.png","方形","方形","ALT1","formal_ALT1_1","","","","","","","","","","","",""
"null","<span style='color:red; font-size: 70px;'>错误! </span>","null","html-keyboard-response","128","439128","0.0-7.0-0.0-4.0-0.0-1.10","4","3","4","3","3","4","3","3","4","4","4","4","2","3","4","4","4","4","5","4","2","3","3","2","2","2","2","4","1","1","0","1","1","0","0","1","1","0","1","1","0","1","0","1","5","2","4","2","2","1","2","4","3","2","1","786688590502694913","柳","648","","","","","","","","","","","","","","","","","","","","","","","","","","","","","","feedback_test","","","","","","","","","","","",""
"874","","j","psychophysics","129","441003","0.0-7.0-0.0-4.0-0.0-0.11","4","3","4","3","3","4","3","3","4","4","4","4","2","3","4","4","4","4","5","4","2","3","3","2","2","2","2","4","1","1","0","1","1","0","0","1","1","0","1","1","0","1","0","1","5","2","4","2","2","1","2","4","3","2","1","786688590502694913","柳","648","","","","nonmatch","","","","","","","","","","","","","","key","j","16.66607142857174","720","446","f","false","match","img/hexagon.png","六边","六边","ALT1","formal_ALT1_1","","","","","","","","","","","",""
"null","<span style='color:red; font-size: 70px;'>错误! </span>","null","html-keyboard-response","130","441504","0.0-7.0-0.0-4.0-0.0-1.11","4","3","4","3","3","4","3","3","4","4","4","4","2","3","4","4","4","4","5","4","2","3","3","2","2","2","2","4","1","1","0","1","1","0","0","1","1","0","1","1","0","1","0","1","5","2","4","2","2","1","2","4","3","2","1","786688590502694913","柳","648","","","","","","","","","","","","","","","","","","","","","","","","","","","","","","feedback_test","","","","","","","","","","","",""
"843","","f","psychophysics","131","443350","0.0-7.0-0.0-4.0-0.0-0.12","4","3","4","3","3","4","3","3","4","4","4","4","2","3","4","4","4","4","5","4","2","3","3","2","2","2","2","4","1","1","0","1","1","0","0","1","1","0","1","1","0","1","0","1","5","2","4","2","2","1","2","4","3","2","1","786688590502694913","柳","648","","","","match","","","","","","","","","","","","","","key","f","16.667272727272408","720","446","f","true","match","img/hexagon.png","六边","六边","ALT1","formal_ALT1_1","","","","","","","","","","","",""
"null","<span style='color:GreenYellow; font-size: 70px;'>正确! </span>","null","html-keyboard-response","132","443851","0.0-7.0-0.0-4.0-0.0-1.12","4","3","4","3","3","4","3","3","4","4","4","4","2","3","4","4","4","4","5","4","2","3","3","2","2","2","2","4","1","1","0","1","1","0","0","1","1","0","1","1","0","1","0","1","5","2","4","2","2","1","2","4","3","2","1","786688590502694913","柳","648","","","","","","","","","","","","","","","","","","","","","","","","","","","","","","feedback_test","","","","","","","","","","","",""
"786","","f","psychophysics","133","445638","0.0-7.0-0.0-4.0-0.0-0.13","4","3","4","3","3","4","3","3","4","4","4","4","2","3","4","4","4","4","5","4","2","3","3","2","2","2","2","4","1","1","0","1","1","0","0","1","1","0","1","1","0","1","0","1","5","2","4","2","2","1","2","4","3","2","1","786688590502694913","柳","648","","","","match","","","","","","","","","","","","","","key","f","16.6632075471697","720","446","f","true","match","img/square.png","方形","方形","ALT1","formal_ALT1_1","","","","","","","","","","","",""
"null","<span style='color:GreenYellow; font-size: 70px;'>正确! </span>","null","html-keyboard-response","134","446139","0.0-7.0-0.0-4.0-0.0-1.13","4","3","4","3","3","4","3","3","4","4","4","4","2","3","4","4","4","4","5","4","2","3","3","2","2","2","2","4","1","1","0","1","1","0","0","1","1","0","1","1","0","1","0","1","5","2","4","2","2","1","2","4","3","2","1","786688590502694913","柳","648","","","","","","","","","","","","","","","","","","","","","","","","","","","","","","feedback_test","","","","","","","","","","","",""
"888","","j","psychophysics","135","448028","0.0-7.0-0.0-4.0-0.0-0.14","4","3","4","3","3","4","3","3","4","4","4","4","2","3","4","4","4","4","5","4","2","3","3","2","2","2","2","4","1","1","0","1","1","0","0","1","1","0","1","1","0","1","0","1","5","2","4","2","2","1","2","4","3","2","1","786688590502694913","柳","648","","","","nonmatch","","","","","","","","","","","","","","key","j","16.664285714285402","720","446","j","true","nonmatch","img/ellipse.png","梯形","椭圆","ALT1","formal_ALT1_1","","","","","","","","","","","",""
"null","<span style='color:GreenYellow; font-size: 70px;'>正确! </span>","null","html-keyboard-response","136","448529","0.0-7.0-0.0-4.0-0.0-1.14","4","3","4","3","3","4","3","3","4","4","4","4","2","3","4","4","4","4","5","4","2","3","3","2","2","2","2","4","1","1","0","1","1","0","0","1","1","0","1","1","0","1","0","1","5","2","4","2","2","1","2","4","3","2","1","786688590502694913","柳","648","","","","","","","","","","","","","","","","","","","","","","","","","","","","","","feedback_test","","","","","","","","","","","",""
"1151","","f","psychophysics","137","450682","0.0-7.0-0.0-4.0-0.0-0.15","4","3","4","3","3","4","3","3","4","4","4","4","2","3","4","4","4","4","5","4","2","3","3","2","2","2","2","4","1","1","0","1","1","0","0","1","1","0","1","1","0","1","0","1","5","2","4","2","2","1","2","4","3","2","1","786688590502694913","柳","648","","","","match","","","","","","","","","","","","","","key","f","16.663281249999727","720","446","f","true","match","img/trapezoid.png","梯形","梯形","ALT1","formal_ALT1_1","","","","","","","","","","","",""
"null","<span style='color:GreenYellow; font-size: 70px;'>正确! </span>","null","html-keyboard-response","138","451183","0.0-7.0-0.0-4.0-0.0-1.15","4","3","4","3","3","4","3","3","4","4","4","4","2","3","4","4","4","4","5","4","2","3","3","2","2","2","2","4","1","1","0","1","1","0","0","1","1","0","1","1","0","1","0","1","5","2","4","2","2","1","2","4","3","2","1","786688590502694913","柳","648","","","","","","","","","","","","","","","","","","","","","","","","","","","","","","feedback_test","","","","","","","","","","","",""
"782","","f","psychophysics","139","452966","0.0-7.0-0.0-4.0-0.0-0.16","4","3","4","3","3","4","3","3","4","4","4","4","2","3","4","4","4","4","5","4","2","3","3","2","2","2","2","4","1","1","0","1","1","0","0","1","1","0","1","1","0","1","0","1","5","2","4","2","2","1","2","4","3","2","1","786688590502694913","柳","648","","","","match","","","","","","","","","","","","","","key","f","16.66509433962264","720","446","f","true","match","img/trapezoid.png","梯形","梯形","ALT1","formal_ALT1_1","","","","","","","","","","","",""
"null","<span style='color:GreenYellow; font-size: 70px;'>正确! </span>","null","html-keyboard-response","140","453467","0.0-7.0-0.0-4.0-0.0-1.16","4","3","4","3","3","4","3","3","4","4","4","4","2","3","4","4","4","4","5","4","2","3","3","2","2","2","2","4","1","1","0","1","1","0","0","1","1","0","1","1","0","1","0","1","5","2","4","2","2","1","2","4","3","2","1","786688590502694913","柳","648","","","","","","","","","","","","","","","","","","","","","","","","","","","","","","feedback_test","","","","","","","","","","","",""
"745","","f","psychophysics","141","455214","0.0-7.0-0.0-4.0-0.0-0.17","4","3","4","3","3","4","3","3","4","4","4","4","2","3","4","4","4","4","5","4","2","3","3","2","2","2","2","4","1","1","0","1","1","0","0","1","1","0","1","1","0","1","0","1","5","2","4","2","2","1","2","4","3","2","1","786688590502694913","柳","648","","","","match","","","","","","","","","","","","","","key","f","16.662499999999664","720","446","f","true","match","img/ellipse.png","椭圆","椭圆","ALT1","formal_ALT1_1","","","","","","","","","","","",""
"null","<span style='color:GreenYellow; font-size: 70px;'>正确! </span>","null","html-keyboard-response","142","455715","0.0-7.0-0.0-4.0-0.0-1.17","4","3","4","3","3","4","3","3","4","4","4","4","2","3","4","4","4","4","5","4","2","3","3","2","2","2","2","4","1","1","0","1","1","0","0","1","1","0","1","1","0","1","0","1","5","2","4","2","2","1","2","4","3","2","1","786688590502694913","柳","648","","","","","","","","","","","","","","","","","","","","","","","","","","","","","","feedback_test","","","","","","","","","","","",""
"null","","null","psychophysics","143","457921","0.0-7.0-0.0-4.0-0.0-0.18","4","3","4","3","3","4","3","3","4","4","4","4","2","3","4","4","4","4","5","4","2","3","3","2","2","2","2","4","1","1","0","1","1","0","0","1","1","0","1","1","0","1","0","1","5","2","4","2","2","1","2","4","3","2","1","786688590502694913","柳","648","","","","null","","","","","","","","","","","","","","key","null","16.663358778626133","720","446","j","false","nonmatch","img/hexagon.png","梯形","六边","ALT1","formal_ALT1_1","","","","","","","","","","","",""
"null","<span class='add_' style='color:yellow; font-size: 70px;'> 太慢! </span>","null","html-keyboard-response","144","458422","0.0-7.0-0.0-4.0-0.0-1.18","4","3","4","3","3","4","3","3","4","4","4","4","2","3","4","4","4","4","5","4","2","3","3","2","2","2","2","4","1","1","0","1","1","0","0","1","1","0","1","1","0","1","0","1","5","2","4","2","2","1","2","4","3","2","1","786688590502694913","柳","648","","","","","","","","","","","","","","","","","","","","","","","","","","","","","","feedback_test","","","","","","","","","","","",""
"783","","f","psychophysics","145","460206","0.0-7.0-0.0-4.0-0.0-0.19","4","3","4","3","3","4","3","3","4","4","4","4","2","3","4","4","4","4","5","4","2","3","3","2","2","2","2","4","1","1","0","1","1","0","0","1","1","0","1","1","0","1","0","1","5","2","4","2","2","1","2","4","3","2","1","786688590502694913","柳","648","","","","match","","","","","","","","","","","","","","key","f","16.660377358490567","720","446","f","true","match","img/hexagon.png","六边","六边","ALT1","formal_ALT1_1","","","","","","","","","","","",""
"null","<span style='color:GreenYellow; font-size: 70px;'>正确! </span>","null","html-keyboard-response","146","460707","0.0-7.0-0.0-4.0-0.0-1.19","4","3","4","3","3","4","3","3","4","4","4","4","2","3","4","4","4","4","5","4","2","3","3","2","2","2","2","4","1","1","0","1","1","0","0","1","1","0","1","1","0","1","0","1","5","2","4","2","2","1","2","4","3","2","1","786688590502694913","柳","648","","","","","","","","","","","","","","","","","","","","","","","","","","","","","","feedback_test","","","","","","","","","","","",""
"650","","f","psychophysics","147","462359","0.0-7.0-0.0-4.0-0.0-0.20","4","3","4","3","3","4","3","3","4","4","4","4","2","3","4","4","4","4","5","4","2","3","3","2","2","2","2","4","1","1","0","1","1","0","0","1","1","0","1","1","0","1","0","1","5","2","4","2","2","1","2","4","3","2","1","786688590502694913","柳","648","","","","match","","","","","","","","","","","","","","key","f","16.66224489795942","720","446","f","true","match","img/ellipse.png","椭圆","椭圆","ALT1","formal_ALT1_1","","","","","","","","","","","",""
"null","<span style='color:GreenYellow; font-size: 70px;'>正确! </span>","null","html-keyboard-response","148","462860","0.0-7.0-0.0-4.0-0.0-1.20","4","3","4","3","3","4","3","3","4","4","4","4","2","3","4","4","4","4","5","4","2","3","3","2","2","2","2","4","1","1","0","1","1","0","0","1","1","0","1","1","0","1","0","1","5","2","4","2","2","1","2","4","3","2","1","786688590502694913","柳","648","","","","","","","","","","","","","","","","","","","","","","","","","","","","","","feedback_test","","","","","","","","","","","",""
"727","","j","psychophysics","149","464588","0.0-7.0-0.0-4.0-0.0-0.21","4","3","4","3","3","4","3","3","4","4","4","4","2","3","4","4","4","4","5","4","2","3","3","2","2","2","2","4","1","1","0","1","1","0","0","1","1","0","1","1","0","1","0","1","5","2","4","2","2","1","2","4","3","2","1","786688590502694913","柳","648","","","","nonmatch","","","","","","","","","","","","","","key","j","16.662745098039558","720","446","j","true","nonmatch","img/trapezoid.png","六边","梯形","ALT1","formal_ALT1_1","","","","","","","","","","","",""
"null","<span style='color:GreenYellow; font-size: 70px;'>正确! </span>","null","html-keyboard-response","150","465090","0.0-7.0-0.0-4.0-0.0-1.21","4","3","4","3","3","4","3","3","4","4","4","4","2","3","4","4","4","4","5","4","2","3","3","2","2","2","2","4","1","1","0","1","1","0","0","1","1","0","1","1","0","1","0","1","5","2","4","2","2","1","2","4","3","2","1","786688590502694913","柳","648","","","","","","","","","","","","","","","","","","","","","","","","","","","","","","feedback_test","","","","","","","","","","","",""
"726","","j","psychophysics","151","466818","0.0-7.0-0.0-4.0-0.0-0.22","4","3","4","3","3","4","3","3","4","4","4","4","2","3","4","4","4","4","5","4","2","3","3","2","2","2","2","4","1","1","0","1","1","0","0","1","1","0","1","1","0","1","0","1","5","2","4","2","2","1","2","4","3","2","1","786688590502694913","柳","648","","","","nonmatch","","","","","","","","","","","","","","key","j","16.66407766990314","720","446","j","true","nonmatch","img/ellipse.png","六边","椭圆","ALT1","formal_ALT1_1","","","","","","","","","","","",""
"null","<span style='color:GreenYellow; font-size: 70px;'>正确! </span>","null","html-keyboard-response","152","467318","0.0-7.0-0.0-4.0-0.0-1.22","4","3","4","3","3","4","3","3","4","4","4","4","2","3","4","4","4","4","5","4","2","3","3","2","2","2","2","4","1","1","0","1","1","0","0","1","1","0","1","1","0","1","0","1","5","2","4","2","2","1","2","4","3","2","1","786688590502694913","柳","648","","","","","","","","","","","","","","","","","","","","","","","","","","","","","","feedback_test","","","","","","","","","","","",""
"767","","f","psychophysics","153","469087","0.0-7.0-0.0-4.0-0.0-0.23","4","3","4","3","3","4","3","3","4","4","4","4","2","3","4","4","4","4","5","4","2","3","3","2","2","2","2","4","1","1","0","1","1","0","0","1","1","0","1","1","0","1","0","1","5","2","4","2","2","1","2","4","3","2","1","786688590502694913","柳","648","","","","match","","","","","","","","","","","","","","key","f","16.662857142857476","720","446","j","false","nonmatch","img/trapezoid.png","椭圆","梯形","ALT1","formal_ALT1_1","","","","","","","","","","","",""
"null","<span style='color:red; font-size: 70px;'>错误! </span>","null","html-keyboard-response","154","469588","0.0-7.0-0.0-4.0-0.0-1.23","4","3","4","3","3","4","3","3","4","4","4","4","2","3","4","4","4","4","5","4","2","3","3","2","2","2","2","4","1","1","0","1","1","0","0","1","1","0","1","1","0","1","0","1","5","2","4","2","2","1","2","4","3","2","1","786688590502694913","柳","648","","","","","","","","","","","","","","","","","","","","","","","","","","","","","","feedback_test","","","","","","","","","","","",""
"827","","f","psychophysics","155","471418","0.0-7.0-0.0-4.0-0.0-0.24","4","3","4","3","3","4","3","3","4","4","4","4","2","3","4","4","4","4","5","4","2","3","3","2","2","2","2","4","1","1","0","1","1","0","0","1","1","0","1","1","0","1","0","1","5","2","4","2","2","1","2","4","3","2","1","786688590502694913","柳","648","","","","match","","","","","","","","","","","","","","key","f","16.664220183486453","720","446","f","true","match","img/square.png","方形","方形","ALT1","formal_ALT1_1","","","","","","","","","","","",""
"null","<span style='color:GreenYellow; font-size: 70px;'>正确! </span>","null","html-keyboard-response","156","471919","0.0-7.0-0.0-4.0-0.0-1.24","4","3","4","3","3","4","3","3","4","4","4","4","2","3","4","4","4","4","5","4","2","3","3","2","2","2","2","4","1","1","0","1","1","0","0","1","1","0","1","1","0","1","0","1","5","2","4","2","2","1","2","4","3","2","1","786688590502694913","柳","648","","","","","","","","","","","","","","","","","","","","","","","","","","","","","","feedback_test","","","","","","","","","","","",""
"856","","j","psychophysics","157","473776","0.0-7.0-0.0-4.0-0.0-0.25","4","3","4","3","3","4","3","3","4","4","4","4","2","3","4","4","4","4","5","4","2","3","3","2","2","2","2","4","1","1","0","1","1","0","0","1","1","0","1","1","0","1","0","1","5","2","4","2","2","1","2","4","3","2","1","786688590502694913","柳","648","","","","nonmatch","","","","","","","","","","","","","","key","j","16.66396396396407","720","446","j","true","nonmatch","img/hexagon.png","方形","六边","ALT1","formal_ALT1_1","","","","","","","","","","","",""
"null","<span style='color:GreenYellow; font-size: 70px;'>正确! </span>","null","html-keyboard-response","158","474277","0.0-7.0-0.0-4.0-0.0-1.25","4","3","4","3","3","4","3","3","4","4","4","4","2","3","4","4","4","4","5","4","2","3","3","2","2","2","2","4","1","1","0","1","1","0","0","1","1","0","1","1","0","1","0","1","5","2","4","2","2","1","2","4","3","2","1","786688590502694913","柳","648","","","","","","","","","","","","","","","","","","","","","","","","","","","","","","feedback_test","","","","","","","","","","","",""
"853","","f","psychophysics","159","476131","0.0-7.0-0.0-4.0-0.0-0.26","4","3","4","3","3","4","3","3","4","4","4","4","2","3","4","4","4","4","5","4","2","3","3","2","2","2","2","4","1","1","0","1","1","0","0","1","1","0","1","1","0","1","0","1","5","2","4","2","2","1","2","4","3","2","1","786688590502694913","柳","648","","","","match","","","","","","","","","","","","","","key","f","16.663636363636364","720","446","f","true","match","img/hexagon.png","六边","六边","ALT1","formal_ALT1_1","","","","","","","","","","","",""
"null","<span style='color:GreenYellow; font-size: 70px;'>正确! </span>","null","html-keyboard-response","160","476631","0.0-7.0-0.0-4.0-0.0-1.26","4","3","4","3","3","4","3","3","4","4","4","4","2","3","4","4","4","4","5","4","2","3","3","2","2","2","2","4","1","1","0","1","1","0","0","1","1","0","1","1","0","1","0","1","5","2","4","2","2","1","2","4","3","2","1","786688590502694913","柳","648","","","","","","","","","","","","","","","","","","","","","","","","","","","","","","feedback_test","","","","","","","","","","","",""
"753","","f","psychophysics","161","478385","0.0-7.0-0.0-4.0-0.0-0.27","4","3","4","3","3","4","3","3","4","4","4","4","2","3","4","4","4","4","5","4","2","3","3","2","2","2","2","4","1","1","0","1","1","0","0","1","1","0","1","1","0","1","0","1","5","2","4","2","2","1","2","4","3","2","1","786688590502694913","柳","648","","","","match","","","","","","","","","","","","","","key","f","16.66346153846154","720","446","f","true","match","img/square.png","方形","方形","ALT1","formal_ALT1_1","","","","","","","","","","","",""
"null","<span style='color:GreenYellow; font-size: 70px;'>正确! </span>","null","html-keyboard-response","162","478898","0.0-7.0-0.0-4.0-0.0-1.27","4","3","4","3","3","4","3","3","4","4","4","4","2","3","4","4","4","4","5","4","2","3","3","2","2","2","2","4","1","1","0","1","1","0","0","1","1","0","1","1","0","1","0","1","5","2","4","2","2","1","2","4","3","2","1","786688590502694913","柳","648","","","","","","","","","","","","","","","","","","","","","","","","","","","","","","feedback_test","","","","","","","","","","","",""
"639","","f","psychophysics","163","480539","0.0-7.0-0.0-4.0-0.0-0.28","4","3","4","3","3","4","3","3","4","4","4","4","2","3","4","4","4","4","5","4","2","3","3","2","2","2","2","4","1","1","0","1","1","0","0","1","1","0","1","1","0","1","0","1","5","2","4","2","2","1","2","4","3","2","1","786688590502694913","柳","648","","","","match","","","","","","","","","","","","","","key","f","16.662886597938023","720","446","f","true","match","img/ellipse.png","椭圆","椭圆","ALT1","formal_ALT1_1","","","","","","","","","","","",""
"null","<span style='color:GreenYellow; font-size: 70px;'>正确! </span>","null","html-keyboard-response","164","481041","0.0-7.0-0.0-4.0-0.0-1.28","4","3","4","3","3","4","3","3","4","4","4","4","2","3","4","4","4","4","5","4","2","3","3","2","2","2","2","4","1","1","0","1","1","0","0","1","1","0","1","1","0","1","0","1","5","2","4","2","2","1","2","4","3","2","1","786688590502694913","柳","648","","","","","","","","","","","","","","","","","","","","","","","","","","","","","","feedback_test","","","","","","","","","","","",""
"541","","f","psychophysics","165","482584","0.0-7.0-0.0-4.0-0.0-0.29","4","3","4","3","3","4","3","3","4","4","4","4","2","3","4","4","4","4","5","4","2","3","3","2","2","2","2","4","1","1","0","1","1","0","0","1","1","0","1","1","0","1","0","1","5","2","4","2","2","1","2","4","3","2","1","786688590502694913","柳","648","","","","match","","","","","","","","","","","","","","key","f","16.66373626373652","720","446","f","true","match","img/ellipse.png","椭圆","椭圆","ALT1","formal_ALT1_1","","","","","","","","","","","",""
"null","<span style='color:GreenYellow; font-size: 70px;'>正确! </span>","null","html-keyboard-response","166","483086","0.0-7.0-0.0-4.0-0.0-1.29","4","3","4","3","3","4","3","3","4","4","4","4","2","3","4","4","4","4","5","4","2","3","3","2","2","2","2","4","1","1","0","1","1","0","0","1","1","0","1","1","0","1","0","1","5","2","4","2","2","1","2","4","3","2","1","786688590502694913","柳","648","","","","","","","","","","","","","","","","","","","","","","","","","","","","","","feedback_test","","","","","","","","","","","",""
"730","","f","psychophysics","167","484818","0.0-7.0-0.0-4.0-0.0-0.30","4","3","4","3","3","4","3","3","4","4","4","4","2","3","4","4","4","4","5","4","2","3","3","2","2","2","2","4","1","1","0","1","1","0","0","1","1","0","1","1","0","1","0","1","5","2","4","2","2","1","2","4","3","2","1","786688590502694913","柳","648","","","","match","","","","","","","","","","","","","","key","f","16.66407766990314","720","446","f","true","match","img/square.png","方形","方形","ALT1","formal_ALT1_1","","","","","","","","","","","",""
"null","<span style='color:GreenYellow; font-size: 70px;'>正确! </span>","null","html-keyboard-response","168","485319","0.0-7.0-0.0-4.0-0.0-1.30","4","3","4","3","3","4","3","3","4","4","4","4","2","3","4","4","4","4","5","4","2","3","3","2","2","2","2","4","1","1","0","1","1","0","0","1","1","0","1","1","0","1","0","1","5","2","4","2","2","1","2","4","3","2","1","786688590502694913","柳","648","","","","","","","","","","","","","","","","","","","","","","","","","","","","","","feedback_test","","","","","","","","","","","",""
"859","","j","psychophysics","169","487178","0.0-7.0-0.0-4.0-0.0-0.31","4","3","4","3","3","4","3","3","4","4","4","4","2","3","4","4","4","4","5","4","2","3","3","2","2","2","2","4","1","1","0","1","1","0","0","1","1","0","1","1","0","1","0","1","5","2","4","2","2","1","2","4","3","2","1","786688590502694913","柳","648","","","","nonmatch","","","","","","","","","","","","","","key","j","16.66216216216216","720","446","j","true","nonmatch","img/hexagon.png","椭圆","六边","ALT1","formal_ALT1_1","","","","","","","","","","","",""
"null","<span style='color:GreenYellow; font-size: 70px;'>正确! </span>","null","html-keyboard-response","170","487679","0.0-7.0-0.0-4.0-0.0-1.31","4","3","4","3","3","4","3","3","4","4","4","4","2","3","4","4","4","4","5","4","2","3","3","2","2","2","2","4","1","1","0","1","1","0","0","1","1","0","1","1","0","1","0","1","5","2","4","2","2","1","2","4","3","2","1","786688590502694913","柳","648","","","","","","","","","","","","","","","","","","","","","","","","","","","","","","feedback_test","","","","","","","","","","","",""
"919","","f","psychophysics","171","489599","0.0-7.0-0.0-4.0-0.0-0.32","4","3","4","3","3","4","3","3","4","4","4","4","2","3","4","4","4","4","5","4","2","3","3","2","2","2","2","4","1","1","0","1","1","0","0","1","1","0","1","1","0","1","0","1","5","2","4","2","2","1","2","4","3","2","1","786688590502694913","柳","648","","","","match","","","","","","","","","","","","","","key","f","16.666666666666668","720","446","f","true","match","img/trapezoid.png","梯形","梯形","ALT1","formal_ALT1_1","","","","","","","","","","","",""
"null","<span style='color:GreenYellow; font-size: 70px;'>正确! </span>","null","html-keyboard-response","172","490100","0.0-7.0-0.0-4.0-0.0-1.32","4","3","4","3","3","4","3","3","4","4","4","4","2","3","4","4","4","4","5","4","2","3","3","2","2","2","2","4","1","1","0","1","1","0","0","1","1","0","1","1","0","1","0","1","5","2","4","2","2","1","2","4","3","2","1","786688590502694913","柳","648","","","","","","","","","","","","","","","","","","","","","","","","","","","","","","feedback_test","","","","","","","","","","","",""
"597","","f","psychophysics","173","491699","0.0-7.0-0.0-4.0-0.0-0.33","4","3","4","3","3","4","3","3","4","4","4","4","2","3","4","4","4","4","5","4","2","3","3","2","2","2","2","4","1","1","0","1","1","0","0","1","1","0","1","1","0","1","0","1","5","2","4","2","2","1","2","4","3","2","1","786688590502694913","柳","648","","","","match","","","","","","","","","","","","","","key","f","16.664210526315543","720","446","f","true","match","img/trapezoid.png","梯形","梯形","ALT1","formal_ALT1_1","","","","","","","","","","","",""
"null","<span style='color:GreenYellow; font-size: 70px;'>正确! </span>","null","html-keyboard-response","174","492199","0.0-7.0-0.0-4.0-0.0-1.33","4","3","4","3","3","4","3","3","4","4","4","4","2","3","4","4","4","4","5","4","2","3","3","2","2","2","2","4","1","1","0","1","1","0","0","1","1","0","1","1","0","1","0","1","5","2","4","2","2","1","2","4","3","2","1","786688590502694913","柳","648","","","","","","","","","","","","","","","","","","","","","","","","","","","","","","feedback_test","","","","","","","","","","","",""
"745","","j","psychophysics","175","493946","0.0-7.0-0.0-4.0-0.0-0.34","4","3","4","3","3","4","3","3","4","4","4","4","2","3","4","4","4","4","5","4","2","3","3","2","2","2","2","4","1","1","0","1","1","0","0","1","1","0","1","1","0","1","0","1","5","2","4","2","2","1","2","4","3","2","1","786688590502694913","柳","648","","","","nonmatch","","","","","","","","","","","","","","key","j","16.662499999999664","720","446","j","true","nonmatch","img/square.png","椭圆","方形","ALT1","formal_ALT1_1","","","","","","","","","","","",""
"null","<span style='color:GreenYellow; font-size: 70px;'>正确! </span>","null","html-keyboard-response","176","494446","0.0-7.0-0.0-4.0-0.0-1.34","4","3","4","3","3","4","3","3","4","4","4","4","2","3","4","4","4","4","5","4","2","3","3","2","2","2","2","4","1","1","0","1","1","0","0","1","1","0","1","1","0","1","0","1","5","2","4","2","2","1","2","4","3","2","1","786688590502694913","柳","648","","","","","","","","","","","","","","","","","","","","","","","","","","","","","","feedback_test","","","","","","","","","","","",""
"818","","f","psychophysics","177","496265","0.0-7.0-0.0-4.0-0.0-0.35","4","3","4","3","3","4","3","3","4","4","4","4","2","3","4","4","4","4","5","4","2","3","3","2","2","2","2","4","1","1","0","1","1","0","0","1","1","0","1","1","0","1","0","1","5","2","4","2","2","1","2","4","3","2","1","786688590502694913","柳","648","","","","match","","","","","","","","","","","","","","key","f","16.663888888888998","720","446","j","false","nonmatch","img/square.png","六边","方形","ALT1","formal_ALT1_1","","","","","","","","","","","",""
"null","<span style='color:red; font-size: 70px;'>错误! </span>","null","html-keyboard-response","178","496778","0.0-7.0-0.0-4.0-0.0-1.35","4","3","4","3","3","4","3","3","4","4","4","4","2","3","4","4","4","4","5","4","2","3","3","2","2","2","2","4","1","1","0","1","1","0","0","1","1","0","1","1","0","1","0","1","5","2","4","2","2","1","2","4","3","2","1","786688590502694913","柳","648","","","","","","","","","","","","","","","","","","","","","","","","","","","","","","feedback_test","","","","","","","","","","","",""
"872","","f","psychophysics","179","498657","0.0-7.0-0.0-4.0-0.0-0.36","4","3","4","3","3","4","3","3","4","4","4","4","2","3","4","4","4","4","5","4","2","3","3","2","2","2","2","4","1","1","0","1","1","0","0","1","1","0","1","1","0","1","0","1","5","2","4","2","2","1","2","4","3","2","1","786688590502694913","柳","648","","","","match","","","","","","","","","","","","","","key","f","16.664285714285402","720","446","f","true","match","img/hexagon.png","六边","六边","ALT1","formal_ALT1_1","","","","","","","","","","","",""
"null","<span style='color:GreenYellow; font-size: 70px;'>正确! </span>","null","html-keyboard-response","180","499157","0.0-7.0-0.0-4.0-0.0-1.36","4","3","4","3","3","4","3","3","4","4","4","4","2","3","4","4","4","4","5","4","2","3","3","2","2","2","2","4","1","1","0","1","1","0","0","1","1","0","1","1","0","1","0","1","5","2","4","2","2","1","2","4","3","2","1","786688590502694913","柳","648","","","","","","","","","","","","","","","","","","","","","","","","","","","","","","feedback_test","","","","","","","","","","","",""
