"rt","stimulus","response","trial_type","trial_index","time_elapsed","internal_node_id","ses_1","ses_2","ses_3","ses_4","ses_5","ses_6","ses_7","ses_8","ses_9","ses_10","coreself_1","coreself_2","coreself_3","coreself_4","coreself_5","coreself_6","coreself_7","coreself_8","coreself_9","coreself_10","SGPS_1","SGPS_2","SGPS_3","SGPS_4","SGPS_5","SGPS_6","SGPS_7","SGPS_8","SGPS_9","NPI1","NPI2","NPI3","NPI4","NPI5","NPI6","NPI7","NPI8","NPI9","NPI10","NPI11","NPI12","NPI13","NPI14","NPI15","hsns_1","hsns_2","hsns_3","hsns_4","hsns_5","trap1","hsns_6","hsns_7","hsns_8","hsns_9","hsns_10","subj_idx","friend_name","ParticipantID","value","success","user_agent","responses","item_order","radio_event_ids","radio_event_times","key_event_times","mouse_event_times","straightlining","zigzagging","honeypot","timeout","failed_images","failed_audio","failed_video","version_attrib2","version_target2","correct","IAT","screen_id","task_id","RT","condition","word","varname","summary","version_attrib","version_target","time_stamp","view_history","response_type","key_press","avg_frame_time","center_x","center_y","correct_response","identity","Image","question_order","correct_answer","trap1_item"
"4537","
   <p><div style = ""color: white;font-size:25px;"">您好，欢迎参加本次实验。</div> </p>
   <p><div style = ""color: white;font-size:25px;"">为充分保障您的权利，请确保您已经知晓并同意《参与实验同意书》以及《数据公开知情同意书》。</div></p>
   <p><div style = ""color: white;font-size:25px;"">如果您未见过上述内容，请咨询实验员。</div></p>
   <p><div style = ""color: white;font-size:25px;"">如果您选择继续实验，则表示您已经清楚两份知情同意书的内容并同意。</div></p>
   <p><div style = ""color: pink;font-size:30px;"">请确保您记得day0的实验编号，您将在本次实验输入该编号，若您忘记，请咨询实验员后作答。</div></p>
   <p><div style = ""color: lightblue;font-size:25px;"">请您尽可能认真地作答，我们将依据您在各问卷和按键任务中的作答质量发放报酬。</div></p>
   <p> <div style = ""color: green;font-size:25px;""><按空格键至下页></div> </p>
   "," ","html-keyboard-response","0","4539","0.0-0.0","4","3","3","4","2","3","3","2","3","3","3","2","2","4","2","4","4","2","4","2","1","2","2","2","2","1","1","1","1","1","1","0","0","0","1","1","1","0","0","1","0","1","0","1","5","1","4","1","4","2","4","","4","2","2","746306344851869697","李","534","","","","","","","","","","","","","","","","","","","","","","","","","","","","","","","","","","","","","","","","","",""
"","","","call-function","1","4539","0.0-1.0-0.0","4","3","3","4","2","3","3","2","3","3","3","2","2","4","2","4","4","2","4","2","1","2","2","2","2","1","1","1","1","1","1","0","0","0","1","1","1","0","0","1","0","1","0","1","5","1","4","1","4","2","4","","4","2","2","746306344851869697","李","534","","","","","","","","","","","","","","","","","","","","","","","","","","","","","","","","","","","","","","","","","",""
"18628","","{""friend_name"":""李"",""ParticipantID"":""534""}","survey-html-form","2","23168","0.0-1.0-1.0","4","3","3","4","2","3","3","2","3","3","3","2","2","4","2","4","4","2","4","2","1","2","2","2","2","1","1","1","1","1","1","0","0","0","1","1","1","0","0","1","0","1","0","1","5","1","4","1","4","2","4","","4","2","2","746306344851869697","李","534","","","","","","","","","","","","","","","","","","","","","","","","","","","","","","","","","","","","","","","","","",""
"","","","fullscreen","3","54203","0.0-2.0","4","3","3","4","2","3","3","2","3","3","3","2","2","4","2","4","4","2","4","2","1","2","2","2","2","1","1","1","1","1","1","0","0","0","1","1","1","0","0","1","0","1","0","1","5","1","4","1","4","2","4","","4","2","2","746306344851869697","李","534","","true","{}","","","","","","","","","","","","","","","","","","","","","","","","","","","","","","","","","","","","","","",""
"22632.59999999404","","{""Q01"":""4"",""Q02"":""3"",""Q03"":""3"",""Q04"":""4"",""Q05"":""2"",""Q06"":""3"",""Q07"":""3"",""Q08"":""2"",""Q09"":""3"",""Q10"":""3""}","survey-template","4","76838","0.0-3.0","4","3","3","4","2","3","3","2","3","3","3","2","2","4","2","4","4","2","4","2","1","2","2","2","2","1","1","1","1","1","1","0","0","0","1","1","1","0","0","1","0","1","0","1","5","1","4","1","4","2","4","","4","2","2","746306344851869697","李","534","","","","{""Q01"":""4"",""Q02"":""3"",""Q03"":""3"",""Q04"":""4"",""Q05"":""2"",""Q06"":""3"",""Q07"":""3"",""Q08"":""2"",""Q09"":""3"",""Q10"":""3""}","[0,1,2,3,4,5,6,7,8,9]","[""Q01"",""Q02"",""Q03"",""Q04"",""Q06"",""Q05"",""Q07"",""Q08"",""Q09"",""Q10"",""Q02""]","[3625.5,4496.39999999851,7221.69999999553,8417.79999999702,12223.79999999702,13527.19999999553,14825.39999999851,16145.19999999553,17457.19999999553,18303.69999999553,20759.5]","[]","[3625.5,4496.39999999851,7221.69999999553,8417.79999999702,10599.79999999702,11656.59999999404,12223.79999999702,12921.69999999553,13527.19999999553,14825.39999999851,16145.19999999553,17457.19999999553,18303.69999999553,20759.5,22631.29999999702]","0.5","0.4444444444444444","0","","","","","","","","","","","","","","","","","","","","","","","","","","","","","",""
"25239.20000000298","","{""Q01"":""3"",""Q02"":""2"",""Q03"":""2"",""Q04"":""4"",""Q05"":""2"",""Q06"":""4"",""Q07"":""4"",""Q08"":""2"",""Q09"":""4"",""Q10"":""2""}","survey-template","5","102082","0.0-4.0","4","3","3","4","2","3","3","2","3","3","3","2","2","4","2","4","4","2","4","2","1","2","2","2","2","1","1","1","1","1","1","0","0","0","1","1","1","0","0","1","0","1","0","1","5","1","4","1","4","2","4","","4","2","2","746306344851869697","李","534","","","","{""Q01"":""3"",""Q02"":""2"",""Q03"":""2"",""Q04"":""4"",""Q05"":""2"",""Q06"":""4"",""Q07"":""4"",""Q08"":""2"",""Q09"":""4"",""Q10"":""2""}","[0,1,2,3,4,5,6,7,8,9]","[""Q01"",""Q02"",""Q03"",""Q04"",""Q05"",""Q06"",""Q07"",""Q08"",""Q09"",""Q10""]","[4344.10000000149,5422.20000000298,7294.70000000298,9478.20000000298,11350.10000000149,12933.70000000298,18612.70000000298,21890.20000000298,23078,24057.30000000447]","[]","[4344.10000000149,5422.20000000298,5998.4000000059605,7294.70000000298,9478.20000000298,11350.10000000149,12933.70000000298,18612.70000000298,20321.80000000447,21890.20000000298,23078,24057.30000000447,25237.80000000447]","0.8","0.1111111111111111","0","","","","","","","","","","","","","","","","","","","","","","","","","","","","","",""
"","","","preload","6","102394","0.0-5.0","4","3","3","4","2","3","3","2","3","3","3","2","2","4","2","4","4","2","4","2","1","2","2","2","2","1","1","1","1","1","1","0","0","0","1","1","1","0","0","1","0","1","0","1","5","1","4","1","4","2","4","","4","2","2","746306344851869697","李","534","","true","","","","","","","","","","","false","[]","[]","[]","","","","","","","","","","","","","","","","","","","","","","","","","",""
"13435","
    <h3>词语分类任务</h3>
    <p>在接下来的任务中，你需要对一系列词语进行分类。<p/>
    请先熟悉这些词语，这有利于你完成接下来的任务。</p>
    <table align=""center"" border=1 cellpadding=3 cellspacing=0>
    <tr> <th>类别</th> <th>词语</th> </tr>
    <tr> <td>&emsp;积极&emsp;</td> <td>&emsp;高尚、诚信、善良、君子、廉正、正直&emsp;</td> </tr>
    <tr> <td>&emsp;消极&emsp;</td> <td>&emsp;缺德、卑鄙、不孝、不仁、小人、黑心&emsp;</td> </tr>
    <tr> <td>&emsp;自我&emsp;</td> <td>&emsp;我、我的、自己、自己的、本人、本人的&emsp;</td> </tr>
    <tr> <td>&emsp;他人&emsp;</td> <td>&emsp;他、他的、别人、别人的、他人、他人的&emsp;</td> </tr>
    </table><br/>","0","html-button-response","7","115830","0.0-6.0-1.0-0.0","4","3","3","4","2","3","3","2","3","3","3","2","2","4","2","4","4","2","4","2","1","2","2","2","2","1","1","1","1","1","1","0","0","0","1","1","1","0","0","1","0","1","0","1","5","1","4","1","4","2","4","","4","2","2","746306344851869697","李","534","","","","","","","","","","","","","","","","","2","1","","","","","","","","","","","","","","","","","","","","","","","",""
"15689","
    <div class=""tag-bottom""><p>
    —— 任务1：对“自我”词和“他人”词分类 ——<p/>
    不同词语会出现在屏幕中央，类别标签将始终显示在屏幕上方<p/>   
    <span style=""color:#FFD866""><b>请根据上方标签的提示，尽可能正确并且快速地做出按键反应</b></span><p/>
    当按键错误时屏幕中会出现<span style=""color:red""> X </span>，需要按另一个键纠正才能继续<br/><p/>
    请把双手食指分别放在键盘的“E”键和“I”键上<p/>
    按<空格键>开始
    </p></div>"," ","html-keyboard-response","8","131523","0.0-6.0-1.0-1.0","4","3","3","4","2","3","3","2","3","3","3","2","2","4","2","4","4","2","4","2","1","2","2","2","2","1","1","1","1","1","1","0","0","0","1","1","1","0","0","1","0","1","0","1","5","1","4","1","4","2","4","","4","2","2","746306344851869697","李","534","","","","","","","","","","","","","","","","","","","","","","","","","","","","","","","","","","","","","","","","","",""
"null","","null","html-keyboard-response","9","131774","0.0-6.0-1.0-2.0-0.0","4","3","3","4","2","3","3","2","3","3","3","2","2","4","2","4","4","2","4","2","1","2","2","2","2","1","1","1","1","1","1","0","0","0","1","1","1","0","0","1","0","1","0","1","5","1","4","1","4","2","4","","4","2","2","746306344851869697","李","534","","","","","","","","","","","","","","","","","","","","","","","","","","","","","","","","","","","","","","","","","",""
"783","<p style=""color:rgb(150, 250, 100); font-size: 35px;"">他人</p>","i","categorize-html","10","132561","0.0-6.0-1.0-2.0-1.0","4","3","3","4","2","3","3","2","3","3","3","2","2","4","2","4","4","2","4","2","1","2","2","2","2","1","1","1","1","1","1","0","0","0","1","1","1","0","0","1","0","1","0","1","5","1","4","1","4","2","4","","4","2","2","746306344851869697","李","534","","","","","","","","","","","","","","","","","","","true","11","1","moral","783","other","他人","","","","","","","","","","","","","","","","",""
"null","","null","html-keyboard-response","11","132811","0.0-6.0-1.0-2.0-0.1","4","3","3","4","2","3","3","2","3","3","3","2","2","4","2","4","4","2","4","2","1","2","2","2","2","1","1","1","1","1","1","0","0","0","1","1","1","0","0","1","0","1","0","1","5","1","4","1","4","2","4","","4","2","2","746306344851869697","李","534","","","","","","","","","","","","","","","","","","","","","","","","","","","","","","","","","","","","","","","","","",""
"527","<p style=""color:rgb(150, 250, 100); font-size: 35px;"">我</p>","e","categorize-html","12","133341","0.0-6.0-1.0-2.0-1.1","4","3","3","4","2","3","3","2","3","3","3","2","2","4","2","4","4","2","4","2","1","2","2","2","2","1","1","1","1","1","1","0","0","0","1","1","1","0","0","1","0","1","0","1","5","1","4","1","4","2","4","","4","2","2","746306344851869697","李","534","","","","","","","","","","","","","","","","","","","true","11","1","moral","527","self","我","","","","","","","","","","","","","","","","",""
"null","","null","html-keyboard-response","13","133592","0.0-6.0-1.0-2.0-0.2","4","3","3","4","2","3","3","2","3","3","3","2","2","4","2","4","4","2","4","2","1","2","2","2","2","1","1","1","1","1","1","0","0","0","1","1","1","0","0","1","0","1","0","1","5","1","4","1","4","2","4","","4","2","2","746306344851869697","李","534","","","","","","","","","","","","","","","","","","","","","","","","","","","","","","","","","","","","","","","","","",""
"618","<p style=""color:rgb(150, 250, 100); font-size: 35px;"">自己</p>","e","categorize-html","14","134211","0.0-6.0-1.0-2.0-1.2","4","3","3","4","2","3","3","2","3","3","3","2","2","4","2","4","4","2","4","2","1","2","2","2","2","1","1","1","1","1","1","0","0","0","1","1","1","0","0","1","0","1","0","1","5","1","4","1","4","2","4","","4","2","2","746306344851869697","李","534","","","","","","","","","","","","","","","","","","","true","11","1","moral","618","self","自己","","","","","","","","","","","","","","","","",""
"null","","null","html-keyboard-response","15","134462","0.0-6.0-1.0-2.0-0.3","4","3","3","4","2","3","3","2","3","3","3","2","2","4","2","4","4","2","4","2","1","2","2","2","2","1","1","1","1","1","1","0","0","0","1","1","1","0","0","1","0","1","0","1","5","1","4","1","4","2","4","","4","2","2","746306344851869697","李","534","","","","","","","","","","","","","","","","","","","","","","","","","","","","","","","","","","","","","","","","","",""
"481","<p style=""color:rgb(150, 250, 100); font-size: 35px;"">本人的</p>","e","categorize-html","16","134944","0.0-6.0-1.0-2.0-1.3","4","3","3","4","2","3","3","2","3","3","3","2","2","4","2","4","4","2","4","2","1","2","2","2","2","1","1","1","1","1","1","0","0","0","1","1","1","0","0","1","0","1","0","1","5","1","4","1","4","2","4","","4","2","2","746306344851869697","李","534","","","","","","","","","","","","","","","","","","","true","11","1","moral","481","self","本人的","","","","","","","","","","","","","","","","",""
"null","","null","html-keyboard-response","17","135195","0.0-6.0-1.0-2.0-0.4","4","3","3","4","2","3","3","2","3","3","3","2","2","4","2","4","4","2","4","2","1","2","2","2","2","1","1","1","1","1","1","0","0","0","1","1","1","0","0","1","0","1","0","1","5","1","4","1","4","2","4","","4","2","2","746306344851869697","李","534","","","","","","","","","","","","","","","","","","","","","","","","","","","","","","","","","","","","","","","","","",""
"509","<p style=""color:rgb(150, 250, 100); font-size: 35px;"">他的</p>","i","categorize-html","18","135705","0.0-6.0-1.0-2.0-1.4","4","3","3","4","2","3","3","2","3","3","3","2","2","4","2","4","4","2","4","2","1","2","2","2","2","1","1","1","1","1","1","0","0","0","1","1","1","0","0","1","0","1","0","1","5","1","4","1","4","2","4","","4","2","2","746306344851869697","李","534","","","","","","","","","","","","","","","","","","","true","11","1","moral","509","other","他的","","","","","","","","","","","","","","","","",""
"null","","null","html-keyboard-response","19","135957","0.0-6.0-1.0-2.0-0.5","4","3","3","4","2","3","3","2","3","3","3","2","2","4","2","4","4","2","4","2","1","2","2","2","2","1","1","1","1","1","1","0","0","0","1","1","1","0","0","1","0","1","0","1","5","1","4","1","4","2","4","","4","2","2","746306344851869697","李","534","","","","","","","","","","","","","","","","","","","","","","","","","","","","","","","","","","","","","","","","","",""
"629","<p style=""color:rgb(150, 250, 100); font-size: 35px;"">别人的</p>","i","categorize-html","20","136587","0.0-6.0-1.0-2.0-1.5","4","3","3","4","2","3","3","2","3","3","3","2","2","4","2","4","4","2","4","2","1","2","2","2","2","1","1","1","1","1","1","0","0","0","1","1","1","0","0","1","0","1","0","1","5","1","4","1","4","2","4","","4","2","2","746306344851869697","李","534","","","","","","","","","","","","","","","","","","","true","11","1","moral","629","other","别人的","","","","","","","","","","","","","","","","",""
"null","","null","html-keyboard-response","21","136838","0.0-6.0-1.0-2.0-0.6","4","3","3","4","2","3","3","2","3","3","3","2","2","4","2","4","4","2","4","2","1","2","2","2","2","1","1","1","1","1","1","0","0","0","1","1","1","0","0","1","0","1","0","1","5","1","4","1","4","2","4","","4","2","2","746306344851869697","李","534","","","","","","","","","","","","","","","","","","","","","","","","","","","","","","","","","","","","","","","","","",""
"572","<p style=""color:rgb(150, 250, 100); font-size: 35px;"">我的</p>","e","categorize-html","22","137411","0.0-6.0-1.0-2.0-1.6","4","3","3","4","2","3","3","2","3","3","3","2","2","4","2","4","4","2","4","2","1","2","2","2","2","1","1","1","1","1","1","0","0","0","1","1","1","0","0","1","0","1","0","1","5","1","4","1","4","2","4","","4","2","2","746306344851869697","李","534","","","","","","","","","","","","","","","","","","","true","11","1","moral","572","self","我的","","","","","","","","","","","","","","","","",""
"null","","null","html-keyboard-response","23","137663","0.0-6.0-1.0-2.0-0.7","4","3","3","4","2","3","3","2","3","3","3","2","2","4","2","4","4","2","4","2","1","2","2","2","2","1","1","1","1","1","1","0","0","0","1","1","1","0","0","1","0","1","0","1","5","1","4","1","4","2","4","","4","2","2","746306344851869697","李","534","","","","","","","","","","","","","","","","","","","","","","","","","","","","","","","","","","","","","","","","","",""
"505","<p style=""color:rgb(150, 250, 100); font-size: 35px;"">本人</p>","e","categorize-html","24","138170","0.0-6.0-1.0-2.0-1.7","4","3","3","4","2","3","3","2","3","3","3","2","2","4","2","4","4","2","4","2","1","2","2","2","2","1","1","1","1","1","1","0","0","0","1","1","1","0","0","1","0","1","0","1","5","1","4","1","4","2","4","","4","2","2","746306344851869697","李","534","","","","","","","","","","","","","","","","","","","true","11","1","moral","505","self","本人","","","","","","","","","","","","","","","","",""
"null","","null","html-keyboard-response","25","138421","0.0-6.0-1.0-2.0-0.8","4","3","3","4","2","3","3","2","3","3","3","2","2","4","2","4","4","2","4","2","1","2","2","2","2","1","1","1","1","1","1","0","0","0","1","1","1","0","0","1","0","1","0","1","5","1","4","1","4","2","4","","4","2","2","746306344851869697","李","534","","","","","","","","","","","","","","","","","","","","","","","","","","","","","","","","","","","","","","","","","",""
"495","<p style=""color:rgb(150, 250, 100); font-size: 35px;"">他</p>","i","categorize-html","26","138918","0.0-6.0-1.0-2.0-1.8","4","3","3","4","2","3","3","2","3","3","3","2","2","4","2","4","4","2","4","2","1","2","2","2","2","1","1","1","1","1","1","0","0","0","1","1","1","0","0","1","0","1","0","1","5","1","4","1","4","2","4","","4","2","2","746306344851869697","李","534","","","","","","","","","","","","","","","","","","","true","11","1","moral","495","other","他","","","","","","","","","","","","","","","","",""
"null","","null","html-keyboard-response","27","139169","0.0-6.0-1.0-2.0-0.9","4","3","3","4","2","3","3","2","3","3","3","2","2","4","2","4","4","2","4","2","1","2","2","2","2","1","1","1","1","1","1","0","0","0","1","1","1","0","0","1","0","1","0","1","5","1","4","1","4","2","4","","4","2","2","746306344851869697","李","534","","","","","","","","","","","","","","","","","","","","","","","","","","","","","","","","","","","","","","","","","",""
"555","<p style=""color:rgb(150, 250, 100); font-size: 35px;"">别人</p>","i","categorize-html","28","139725","0.0-6.0-1.0-2.0-1.9","4","3","3","4","2","3","3","2","3","3","3","2","2","4","2","4","4","2","4","2","1","2","2","2","2","1","1","1","1","1","1","0","0","0","1","1","1","0","0","1","0","1","0","1","5","1","4","1","4","2","4","","4","2","2","746306344851869697","李","534","","","","","","","","","","","","","","","","","","","true","11","1","moral","555","other","别人","","","","","","","","","","","","","","","","",""
"null","","null","html-keyboard-response","29","139976","0.0-6.0-1.0-2.0-0.10","4","3","3","4","2","3","3","2","3","3","3","2","2","4","2","4","4","2","4","2","1","2","2","2","2","1","1","1","1","1","1","0","0","0","1","1","1","0","0","1","0","1","0","1","5","1","4","1","4","2","4","","4","2","2","746306344851869697","李","534","","","","","","","","","","","","","","","","","","","","","","","","","","","","","","","","","","","","","","","","","",""
"472","<p style=""color:rgb(150, 250, 100); font-size: 35px;"">他人的</p>","i","categorize-html","30","140450","0.0-6.0-1.0-2.0-1.10","4","3","3","4","2","3","3","2","3","3","3","2","2","4","2","4","4","2","4","2","1","2","2","2","2","1","1","1","1","1","1","0","0","0","1","1","1","0","0","1","0","1","0","1","5","1","4","1","4","2","4","","4","2","2","746306344851869697","李","534","","","","","","","","","","","","","","","","","","","true","11","1","moral","472","other","他人的","","","","","","","","","","","","","","","","",""
"null","","null","html-keyboard-response","31","140700","0.0-6.0-1.0-2.0-0.11","4","3","3","4","2","3","3","2","3","3","3","2","2","4","2","4","4","2","4","2","1","2","2","2","2","1","1","1","1","1","1","0","0","0","1","1","1","0","0","1","0","1","0","1","5","1","4","1","4","2","4","","4","2","2","746306344851869697","李","534","","","","","","","","","","","","","","","","","","","","","","","","","","","","","","","","","","","","","","","","","",""
"816","<p style=""color:rgb(150, 250, 100); font-size: 35px;"">自己的</p>","e","categorize-html","32","141517","0.0-6.0-1.0-2.0-1.11","4","3","3","4","2","3","3","2","3","3","3","2","2","4","2","4","4","2","4","2","1","2","2","2","2","1","1","1","1","1","1","0","0","0","1","1","1","0","0","1","0","1","0","1","5","1","4","1","4","2","4","","4","2","2","746306344851869697","李","534","","","","","","","","","","","","","","","","","","","true","11","1","moral","816","self","自己的","","","","","","","","","","","","","","","","",""
"4449","
    <div class=""tag-bottom""><p>
    —— 任务2：对“消极”词和“积极”词分类 ——<p/>   
    <span style=""color:#78DCE8""><b>注意上方，类别标签和需要分类的词语都已经改变</b></span><p/>
    <span style=""color:#FFD866""><b>请根据上方标签的提示，尽可能正确并且快速地做出按键反应</b></span><p/>
    当按键错误时屏幕中会出现<span style=""color:red""> X </span>，需要按另一个键纠正才能继续<br/><p/>
    请把双手食指分别放在键盘的“E”键和“I”键上<p/>
    按<空格键>开始
    </p></div>"," ","html-keyboard-response","33","145967","0.0-6.0-1.0-3.0","4","3","3","4","2","3","3","2","3","3","3","2","2","4","2","4","4","2","4","2","1","2","2","2","2","1","1","1","1","1","1","0","0","0","1","1","1","0","0","1","0","1","0","1","5","1","4","1","4","2","4","","4","2","2","746306344851869697","李","534","","","","","","","","","","","","","","","","","","","","","","","","","","","","","","","","","","","","","","","","","",""
"null","","null","html-keyboard-response","34","146218","0.0-6.0-1.0-4.0-0.0","4","3","3","4","2","3","3","2","3","3","3","2","2","4","2","4","4","2","4","2","1","2","2","2","2","1","1","1","1","1","1","0","0","0","1","1","1","0","0","1","0","1","0","1","5","1","4","1","4","2","4","","4","2","2","746306344851869697","李","534","","","","","","","","","","","","","","","","","","","","","","","","","","","","","","","","","","","","","","","","","",""
"827","<p style=""color:white; font-size: 35px;"">正直</p>","e","categorize-html","35","150166","0.0-6.0-1.0-4.0-1.0","4","3","3","4","2","3","3","2","3","3","3","2","2","4","2","4","4","2","4","2","1","2","2","2","2","1","1","1","1","1","1","0","0","0","1","1","1","0","0","1","0","1","0","1","5","1","4","1","4","2","4","","4","2","2","746306344851869697","李","534","","","","","","","","","","","","","","","","","","","false","12","2","moral","827","positive","正直","","","","","","","","","","","","","","","","",""
"null","","null","html-keyboard-response","36","150417","0.0-6.0-1.0-4.0-0.1","4","3","3","4","2","3","3","2","3","3","3","2","2","4","2","4","4","2","4","2","1","2","2","2","2","1","1","1","1","1","1","0","0","0","1","1","1","0","0","1","0","1","0","1","5","1","4","1","4","2","4","","4","2","2","746306344851869697","李","534","","","","","","","","","","","","","","","","","","","","","","","","","","","","","","","","","","","","","","","","","",""
"723","<p style=""color:white; font-size: 35px;"">缺德</p>","i","categorize-html","37","152747","0.0-6.0-1.0-4.0-1.1","4","3","3","4","2","3","3","2","3","3","3","2","2","4","2","4","4","2","4","2","1","2","2","2","2","1","1","1","1","1","1","0","0","0","1","1","1","0","0","1","0","1","0","1","5","1","4","1","4","2","4","","4","2","2","746306344851869697","李","534","","","","","","","","","","","","","","","","","","","false","12","2","moral","723","negative","缺德","","","","","","","","","","","","","","","","",""
"null","","null","html-keyboard-response","38","153000","0.0-6.0-1.0-4.0-0.2","4","3","3","4","2","3","3","2","3","3","3","2","2","4","2","4","4","2","4","2","1","2","2","2","2","1","1","1","1","1","1","0","0","0","1","1","1","0","0","1","0","1","0","1","5","1","4","1","4","2","4","","4","2","2","746306344851869697","李","534","","","","","","","","","","","","","","","","","","","","","","","","","","","","","","","","","","","","","","","","","",""
"2022","<p style=""color:white; font-size: 35px;"">廉正</p>","i","categorize-html","39","155022","0.0-6.0-1.0-4.0-1.2","4","3","3","4","2","3","3","2","3","3","3","2","2","4","2","4","4","2","4","2","1","2","2","2","2","1","1","1","1","1","1","0","0","0","1","1","1","0","0","1","0","1","0","1","5","1","4","1","4","2","4","","4","2","2","746306344851869697","李","534","","","","","","","","","","","","","","","","","","","true","12","2","moral","2022","positive","廉正","","","","","","","","","","","","","","","","",""
"null","","null","html-keyboard-response","40","155273","0.0-6.0-1.0-4.0-0.3","4","3","3","4","2","3","3","2","3","3","3","2","2","4","2","4","4","2","4","2","1","2","2","2","2","1","1","1","1","1","1","0","0","0","1","1","1","0","0","1","0","1","0","1","5","1","4","1","4","2","4","","4","2","2","746306344851869697","李","534","","","","","","","","","","","","","","","","","","","","","","","","","","","","","","","","","","","","","","","","","",""
"598","<p style=""color:white; font-size: 35px;"">高尚</p>","i","categorize-html","41","155872","0.0-6.0-1.0-4.0-1.3","4","3","3","4","2","3","3","2","3","3","3","2","2","4","2","4","4","2","4","2","1","2","2","2","2","1","1","1","1","1","1","0","0","0","1","1","1","0","0","1","0","1","0","1","5","1","4","1","4","2","4","","4","2","2","746306344851869697","李","534","","","","","","","","","","","","","","","","","","","true","12","2","moral","598","positive","高尚","","","","","","","","","","","","","","","","",""
"null","","null","html-keyboard-response","42","156123","0.0-6.0-1.0-4.0-0.4","4","3","3","4","2","3","3","2","3","3","3","2","2","4","2","4","4","2","4","2","1","2","2","2","2","1","1","1","1","1","1","0","0","0","1","1","1","0","0","1","0","1","0","1","5","1","4","1","4","2","4","","4","2","2","746306344851869697","李","534","","","","","","","","","","","","","","","","","","","","","","","","","","","","","","","","","","","","","","","","","",""
"605","<p style=""color:white; font-size: 35px;"">君子</p>","i","categorize-html","43","156729","0.0-6.0-1.0-4.0-1.4","4","3","3","4","2","3","3","2","3","3","3","2","2","4","2","4","4","2","4","2","1","2","2","2","2","1","1","1","1","1","1","0","0","0","1","1","1","0","0","1","0","1","0","1","5","1","4","1","4","2","4","","4","2","2","746306344851869697","李","534","","","","","","","","","","","","","","","","","","","true","12","2","moral","605","positive","君子","","","","","","","","","","","","","","","","",""
"null","","null","html-keyboard-response","44","156981","0.0-6.0-1.0-4.0-0.5","4","3","3","4","2","3","3","2","3","3","3","2","2","4","2","4","4","2","4","2","1","2","2","2","2","1","1","1","1","1","1","0","0","0","1","1","1","0","0","1","0","1","0","1","5","1","4","1","4","2","4","","4","2","2","746306344851869697","李","534","","","","","","","","","","","","","","","","","","","","","","","","","","","","","","","","","","","","","","","","","",""
"456","<p style=""color:white; font-size: 35px;"">善良</p>","i","categorize-html","45","157438","0.0-6.0-1.0-4.0-1.5","4","3","3","4","2","3","3","2","3","3","3","2","2","4","2","4","4","2","4","2","1","2","2","2","2","1","1","1","1","1","1","0","0","0","1","1","1","0","0","1","0","1","0","1","5","1","4","1","4","2","4","","4","2","2","746306344851869697","李","534","","","","","","","","","","","","","","","","","","","true","12","2","moral","456","positive","善良","","","","","","","","","","","","","","","","",""
"null","","null","html-keyboard-response","46","157690","0.0-6.0-1.0-4.0-0.6","4","3","3","4","2","3","3","2","3","3","3","2","2","4","2","4","4","2","4","2","1","2","2","2","2","1","1","1","1","1","1","0","0","0","1","1","1","0","0","1","0","1","0","1","5","1","4","1","4","2","4","","4","2","2","746306344851869697","李","534","","","","","","","","","","","","","","","","","","","","","","","","","","","","","","","","","","","","","","","","","",""
"1149","<p style=""color:white; font-size: 35px;"">不仁</p>","e","categorize-html","47","158840","0.0-6.0-1.0-4.0-1.6","4","3","3","4","2","3","3","2","3","3","3","2","2","4","2","4","4","2","4","2","1","2","2","2","2","1","1","1","1","1","1","0","0","0","1","1","1","0","0","1","0","1","0","1","5","1","4","1","4","2","4","","4","2","2","746306344851869697","李","534","","","","","","","","","","","","","","","","","","","true","12","2","moral","1149","negative","不仁","","","","","","","","","","","","","","","","",""
"null","","null","html-keyboard-response","48","159090","0.0-6.0-1.0-4.0-0.7","4","3","3","4","2","3","3","2","3","3","3","2","2","4","2","4","4","2","4","2","1","2","2","2","2","1","1","1","1","1","1","0","0","0","1","1","1","0","0","1","0","1","0","1","5","1","4","1","4","2","4","","4","2","2","746306344851869697","李","534","","","","","","","","","","","","","","","","","","","","","","","","","","","","","","","","","","","","","","","","","",""
"645","<p style=""color:white; font-size: 35px;"">不孝</p>","e","categorize-html","49","159736","0.0-6.0-1.0-4.0-1.7","4","3","3","4","2","3","3","2","3","3","3","2","2","4","2","4","4","2","4","2","1","2","2","2","2","1","1","1","1","1","1","0","0","0","1","1","1","0","0","1","0","1","0","1","5","1","4","1","4","2","4","","4","2","2","746306344851869697","李","534","","","","","","","","","","","","","","","","","","","true","12","2","moral","645","negative","不孝","","","","","","","","","","","","","","","","",""
"null","","null","html-keyboard-response","50","159987","0.0-6.0-1.0-4.0-0.8","4","3","3","4","2","3","3","2","3","3","3","2","2","4","2","4","4","2","4","2","1","2","2","2","2","1","1","1","1","1","1","0","0","0","1","1","1","0","0","1","0","1","0","1","5","1","4","1","4","2","4","","4","2","2","746306344851869697","李","534","","","","","","","","","","","","","","","","","","","","","","","","","","","","","","","","","","","","","","","","","",""
"533","<p style=""color:white; font-size: 35px;"">卑鄙</p>","e","categorize-html","51","160521","0.0-6.0-1.0-4.0-1.8","4","3","3","4","2","3","3","2","3","3","3","2","2","4","2","4","4","2","4","2","1","2","2","2","2","1","1","1","1","1","1","0","0","0","1","1","1","0","0","1","0","1","0","1","5","1","4","1","4","2","4","","4","2","2","746306344851869697","李","534","","","","","","","","","","","","","","","","","","","true","12","2","moral","533","negative","卑鄙","","","","","","","","","","","","","","","","",""
"null","","null","html-keyboard-response","52","160772","0.0-6.0-1.0-4.0-0.9","4","3","3","4","2","3","3","2","3","3","3","2","2","4","2","4","4","2","4","2","1","2","2","2","2","1","1","1","1","1","1","0","0","0","1","1","1","0","0","1","0","1","0","1","5","1","4","1","4","2","4","","4","2","2","746306344851869697","李","534","","","","","","","","","","","","","","","","","","","","","","","","","","","","","","","","","","","","","","","","","",""
"452","<p style=""color:white; font-size: 35px;"">小人</p>","e","categorize-html","53","161225","0.0-6.0-1.0-4.0-1.9","4","3","3","4","2","3","3","2","3","3","3","2","2","4","2","4","4","2","4","2","1","2","2","2","2","1","1","1","1","1","1","0","0","0","1","1","1","0","0","1","0","1","0","1","5","1","4","1","4","2","4","","4","2","2","746306344851869697","李","534","","","","","","","","","","","","","","","","","","","true","12","2","moral","452","negative","小人","","","","","","","","","","","","","","","","",""
"null","","null","html-keyboard-response","54","161476","0.0-6.0-1.0-4.0-0.10","4","3","3","4","2","3","3","2","3","3","3","2","2","4","2","4","4","2","4","2","1","2","2","2","2","1","1","1","1","1","1","0","0","0","1","1","1","0","0","1","0","1","0","1","5","1","4","1","4","2","4","","4","2","2","746306344851869697","李","534","","","","","","","","","","","","","","","","","","","","","","","","","","","","","","","","","","","","","","","","","",""
"351","<p style=""color:white; font-size: 35px;"">黑心</p>","e","categorize-html","55","161828","0.0-6.0-1.0-4.0-1.10","4","3","3","4","2","3","3","2","3","3","3","2","2","4","2","4","4","2","4","2","1","2","2","2","2","1","1","1","1","1","1","0","0","0","1","1","1","0","0","1","0","1","0","1","5","1","4","1","4","2","4","","4","2","2","746306344851869697","李","534","","","","","","","","","","","","","","","","","","","true","12","2","moral","351","negative","黑心","","","","","","","","","","","","","","","","",""
"null","","null","html-keyboard-response","56","162082","0.0-6.0-1.0-4.0-0.11","4","3","3","4","2","3","3","2","3","3","3","2","2","4","2","4","4","2","4","2","1","2","2","2","2","1","1","1","1","1","1","0","0","0","1","1","1","0","0","1","0","1","0","1","5","1","4","1","4","2","4","","4","2","2","746306344851869697","李","534","","","","","","","","","","","","","","","","","","","","","","","","","","","","","","","","","","","","","","","","","",""
"472","<p style=""color:white; font-size: 35px;"">诚信</p>","i","categorize-html","57","162555","0.0-6.0-1.0-4.0-1.11","4","3","3","4","2","3","3","2","3","3","3","2","2","4","2","4","4","2","4","2","1","2","2","2","2","1","1","1","1","1","1","0","0","0","1","1","1","0","0","1","0","1","0","1","5","1","4","1","4","2","4","","4","2","2","746306344851869697","李","534","","","","","","","","","","","","","","","","","","","true","12","2","moral","472","positive","诚信","","","","","","","","","","","","","","","","",""
"6727","
    <div class=""tag-bottom""><p>
    —— 任务3：对“自我/消极”词和“他人/积极”词分类 ——<p/>
    <span style=""color:#78DCE8""><b>注意上方，之前的四类词语将混合在一起交替呈现</b></span><p/>
    <span style=""color:#FFD866""><b>请根据上方标签的提示，尽可能正确并且快速地做出按键反应</b></span><p/>
    当按键错误时屏幕中会出现<span style=""color:red""> X </span>，需要按另一个键纠正才能继续<br/><p/>
    请把双手食指分别放在键盘的“E”键和“I”键上<p/>
    按<空格键>开始
    </p></div>"," ","html-keyboard-response","58","169283","0.0-6.0-1.0-5.0","4","3","3","4","2","3","3","2","3","3","3","2","2","4","2","4","4","2","4","2","1","2","2","2","2","1","1","1","1","1","1","0","0","0","1","1","1","0","0","1","0","1","0","1","5","1","4","1","4","2","4","","4","2","2","746306344851869697","李","534","","","","","","","","","","","","","","","","","","","","","","","","","","","","","","","","","","","","","","","","","",""
"null","","null","html-keyboard-response","59","169534","0.0-6.0-1.0-6.0-0.0","4","3","3","4","2","3","3","2","3","3","3","2","2","4","2","4","4","2","4","2","1","2","2","2","2","1","1","1","1","1","1","0","0","0","1","1","1","0","0","1","0","1","0","1","5","1","4","1","4","2","4","","4","2","2","746306344851869697","李","534","","","","","","","","","","","","","","","","","","","","","","","","","","","","","","","","","","","","","","","","","",""
"1150","<p style=""color:rgb(150, 250, 100); font-size: 35px;"">别人</p>","i","categorize-html","60","170685","0.0-6.0-1.0-6.0-1.0","4","3","3","4","2","3","3","2","3","3","3","2","2","4","2","4","4","2","4","2","1","2","2","2","2","1","1","1","1","1","1","0","0","0","1","1","1","0","0","1","0","1","0","1","5","1","4","1","4","2","4","","4","2","2","746306344851869697","李","534","","","","","","","","","","","","","","","","","","","true","13","3","moral","1150","other","别人","","","","","","","","","","","","","","","","",""
"null","","null","html-keyboard-response","61","170937","0.0-6.0-1.0-6.0-0.1","4","3","3","4","2","3","3","2","3","3","3","2","2","4","2","4","4","2","4","2","1","2","2","2","2","1","1","1","1","1","1","0","0","0","1","1","1","0","0","1","0","1","0","1","5","1","4","1","4","2","4","","4","2","2","746306344851869697","李","534","","","","","","","","","","","","","","","","","","","","","","","","","","","","","","","","","","","","","","","","","",""
"602","<p style=""color:white; font-size: 35px;"">卑鄙</p>","e","categorize-html","62","171540","0.0-6.0-1.0-6.0-1.1","4","3","3","4","2","3","3","2","3","3","3","2","2","4","2","4","4","2","4","2","1","2","2","2","2","1","1","1","1","1","1","0","0","0","1","1","1","0","0","1","0","1","0","1","5","1","4","1","4","2","4","","4","2","2","746306344851869697","李","534","","","","","","","","","","","","","","","","","","","true","13","3","moral","602","negative","卑鄙","","","","","","","","","","","","","","","","",""
"null","","null","html-keyboard-response","63","171792","0.0-6.0-1.0-6.0-0.2","4","3","3","4","2","3","3","2","3","3","3","2","2","4","2","4","4","2","4","2","1","2","2","2","2","1","1","1","1","1","1","0","0","0","1","1","1","0","0","1","0","1","0","1","5","1","4","1","4","2","4","","4","2","2","746306344851869697","李","534","","","","","","","","","","","","","","","","","","","","","","","","","","","","","","","","","","","","","","","","","",""
"591","<p style=""color:rgb(150, 250, 100); font-size: 35px;"">自己的</p>","e","categorize-html","64","172384","0.0-6.0-1.0-6.0-1.2","4","3","3","4","2","3","3","2","3","3","3","2","2","4","2","4","4","2","4","2","1","2","2","2","2","1","1","1","1","1","1","0","0","0","1","1","1","0","0","1","0","1","0","1","5","1","4","1","4","2","4","","4","2","2","746306344851869697","李","534","","","","","","","","","","","","","","","","","","","true","13","3","moral","591","self","自己的","","","","","","","","","","","","","","","","",""
"null","","null","html-keyboard-response","65","172636","0.0-6.0-1.0-6.0-0.3","4","3","3","4","2","3","3","2","3","3","3","2","2","4","2","4","4","2","4","2","1","2","2","2","2","1","1","1","1","1","1","0","0","0","1","1","1","0","0","1","0","1","0","1","5","1","4","1","4","2","4","","4","2","2","746306344851869697","李","534","","","","","","","","","","","","","","","","","","","","","","","","","","","","","","","","","","","","","","","","","",""
"511","<p style=""color:white; font-size: 35px;"">正直</p>","e","categorize-html","66","173599","0.0-6.0-1.0-6.0-1.3","4","3","3","4","2","3","3","2","3","3","3","2","2","4","2","4","4","2","4","2","1","2","2","2","2","1","1","1","1","1","1","0","0","0","1","1","1","0","0","1","0","1","0","1","5","1","4","1","4","2","4","","4","2","2","746306344851869697","李","534","","","","","","","","","","","","","","","","","","","false","13","3","moral","1308.65","positive","正直","","","","","","","","","","","","","","","","",""
"null","","null","html-keyboard-response","67","173851","0.0-6.0-1.0-6.0-0.4","4","3","3","4","2","3","3","2","3","3","3","2","2","4","2","4","4","2","4","2","1","2","2","2","2","1","1","1","1","1","1","0","0","0","1","1","1","0","0","1","0","1","0","1","5","1","4","1","4","2","4","","4","2","2","746306344851869697","李","534","","","","","","","","","","","","","","","","","","","","","","","","","","","","","","","","","","","","","","","","","",""
"1025","<p style=""color:rgb(150, 250, 100); font-size: 35px;"">他人的</p>","i","categorize-html","68","174877","0.0-6.0-1.0-6.0-1.4","4","3","3","4","2","3","3","2","3","3","3","2","2","4","2","4","4","2","4","2","1","2","2","2","2","1","1","1","1","1","1","0","0","0","1","1","1","0","0","1","0","1","0","1","5","1","4","1","4","2","4","","4","2","2","746306344851869697","李","534","","","","","","","","","","","","","","","","","","","true","13","3","moral","1025","other","他人的","","","","","","","","","","","","","","","","",""
"null","","null","html-keyboard-response","69","175129","0.0-6.0-1.0-6.0-0.5","4","3","3","4","2","3","3","2","3","3","3","2","2","4","2","4","4","2","4","2","1","2","2","2","2","1","1","1","1","1","1","0","0","0","1","1","1","0","0","1","0","1","0","1","5","1","4","1","4","2","4","","4","2","2","746306344851869697","李","534","","","","","","","","","","","","","","","","","","","","","","","","","","","","","","","","","","","","","","","","","",""
"613","<p style=""color:white; font-size: 35px;"">缺德</p>","i","categorize-html","70","176196","0.0-6.0-1.0-6.0-1.5","4","3","3","4","2","3","3","2","3","3","3","2","2","4","2","4","4","2","4","2","1","2","2","2","2","1","1","1","1","1","1","0","0","0","1","1","1","0","0","1","0","1","0","1","5","1","4","1","4","2","4","","4","2","2","746306344851869697","李","534","","","","","","","","","","","","","","","","","","","false","13","3","moral","1308.65","negative","缺德","","","","","","","","","","","","","","","","",""
"null","","null","html-keyboard-response","71","176446","0.0-6.0-1.0-6.0-0.6","4","3","3","4","2","3","3","2","3","3","3","2","2","4","2","4","4","2","4","2","1","2","2","2","2","1","1","1","1","1","1","0","0","0","1","1","1","0","0","1","0","1","0","1","5","1","4","1","4","2","4","","4","2","2","746306344851869697","李","534","","","","","","","","","","","","","","","","","","","","","","","","","","","","","","","","","","","","","","","","","",""
"1251","<p style=""color:rgb(150, 250, 100); font-size: 35px;"">本人</p>","i","categorize-html","72","178471","0.0-6.0-1.0-6.0-1.6","4","3","3","4","2","3","3","2","3","3","3","2","2","4","2","4","4","2","4","2","1","2","2","2","2","1","1","1","1","1","1","0","0","0","1","1","1","0","0","1","0","1","0","1","5","1","4","1","4","2","4","","4","2","2","746306344851869697","李","534","","","","","","","","","","","","","","","","","","","false","13","3","moral","1308.65","self","本人","","","","","","","","","","","","","","","","",""
"null","","null","html-keyboard-response","73","178722","0.0-6.0-1.0-6.0-0.7","4","3","3","4","2","3","3","2","3","3","3","2","2","4","2","4","4","2","4","2","1","2","2","2","2","1","1","1","1","1","1","0","0","0","1","1","1","0","0","1","0","1","0","1","5","1","4","1","4","2","4","","4","2","2","746306344851869697","李","534","","","","","","","","","","","","","","","","","","","","","","","","","","","","","","","","","","","","","","","","","",""
"951","<p style=""color:white; font-size: 35px;"">善良</p>","i","categorize-html","74","179675","0.0-6.0-1.0-6.0-1.7","4","3","3","4","2","3","3","2","3","3","3","2","2","4","2","4","4","2","4","2","1","2","2","2","2","1","1","1","1","1","1","0","0","0","1","1","1","0","0","1","0","1","0","1","5","1","4","1","4","2","4","","4","2","2","746306344851869697","李","534","","","","","","","","","","","","","","","","","","","true","13","3","moral","951","positive","善良","","","","","","","","","","","","","","","","",""
"null","","null","html-keyboard-response","75","179926","0.0-6.0-1.0-6.0-0.8","4","3","3","4","2","3","3","2","3","3","3","2","2","4","2","4","4","2","4","2","1","2","2","2","2","1","1","1","1","1","1","0","0","0","1","1","1","0","0","1","0","1","0","1","5","1","4","1","4","2","4","","4","2","2","746306344851869697","李","534","","","","","","","","","","","","","","","","","","","","","","","","","","","","","","","","","","","","","","","","","",""
"966","<p style=""color:rgb(150, 250, 100); font-size: 35px;"">我</p>","e","categorize-html","76","180894","0.0-6.0-1.0-6.0-1.8","4","3","3","4","2","3","3","2","3","3","3","2","2","4","2","4","4","2","4","2","1","2","2","2","2","1","1","1","1","1","1","0","0","0","1","1","1","0","0","1","0","1","0","1","5","1","4","1","4","2","4","","4","2","2","746306344851869697","李","534","","","","","","","","","","","","","","","","","","","true","13","3","moral","966","self","我","","","","","","","","","","","","","","","","",""
"null","","null","html-keyboard-response","77","181144","0.0-6.0-1.0-6.0-0.9","4","3","3","4","2","3","3","2","3","3","3","2","2","4","2","4","4","2","4","2","1","2","2","2","2","1","1","1","1","1","1","0","0","0","1","1","1","0","0","1","0","1","0","1","5","1","4","1","4","2","4","","4","2","2","746306344851869697","李","534","","","","","","","","","","","","","","","","","","","","","","","","","","","","","","","","","","","","","","","","","",""
"737","<p style=""color:white; font-size: 35px;"">不仁</p>","e","categorize-html","78","181882","0.0-6.0-1.0-6.0-1.9","4","3","3","4","2","3","3","2","3","3","3","2","2","4","2","4","4","2","4","2","1","2","2","2","2","1","1","1","1","1","1","0","0","0","1","1","1","0","0","1","0","1","0","1","5","1","4","1","4","2","4","","4","2","2","746306344851869697","李","534","","","","","","","","","","","","","","","","","","","true","13","3","moral","737","negative","不仁","","","","","","","","","","","","","","","","",""
"null","","null","html-keyboard-response","79","182134","0.0-6.0-1.0-6.0-0.10","4","3","3","4","2","3","3","2","3","3","3","2","2","4","2","4","4","2","4","2","1","2","2","2","2","1","1","1","1","1","1","0","0","0","1","1","1","0","0","1","0","1","0","1","5","1","4","1","4","2","4","","4","2","2","746306344851869697","李","534","","","","","","","","","","","","","","","","","","","","","","","","","","","","","","","","","","","","","","","","","",""
"571","<p style=""color:rgb(150, 250, 100); font-size: 35px;"">他</p>","i","categorize-html","80","182706","0.0-6.0-1.0-6.0-1.10","4","3","3","4","2","3","3","2","3","3","3","2","2","4","2","4","4","2","4","2","1","2","2","2","2","1","1","1","1","1","1","0","0","0","1","1","1","0","0","1","0","1","0","1","5","1","4","1","4","2","4","","4","2","2","746306344851869697","李","534","","","","","","","","","","","","","","","","","","","true","13","3","moral","571","other","他","","","","","","","","","","","","","","","","",""
"null","","null","html-keyboard-response","81","182957","0.0-6.0-1.0-6.0-0.11","4","3","3","4","2","3","3","2","3","3","3","2","2","4","2","4","4","2","4","2","1","2","2","2","2","1","1","1","1","1","1","0","0","0","1","1","1","0","0","1","0","1","0","1","5","1","4","1","4","2","4","","4","2","2","746306344851869697","李","534","","","","","","","","","","","","","","","","","","","","","","","","","","","","","","","","","","","","","","","","","",""
"1117","<p style=""color:white; font-size: 35px;"">高尚</p>","i","categorize-html","82","184075","0.0-6.0-1.0-6.0-1.11","4","3","3","4","2","3","3","2","3","3","3","2","2","4","2","4","4","2","4","2","1","2","2","2","2","1","1","1","1","1","1","0","0","0","1","1","1","0","0","1","0","1","0","1","5","1","4","1","4","2","4","","4","2","2","746306344851869697","李","534","","","","","","","","","","","","","","","","","","","true","13","3","moral","1117","positive","高尚","","","","","","","","","","","","","","","","",""
"null","","null","html-keyboard-response","83","184326","0.0-6.0-1.0-6.0-0.12","4","3","3","4","2","3","3","2","3","3","3","2","2","4","2","4","4","2","4","2","1","2","2","2","2","1","1","1","1","1","1","0","0","0","1","1","1","0","0","1","0","1","0","1","5","1","4","1","4","2","4","","4","2","2","746306344851869697","李","534","","","","","","","","","","","","","","","","","","","","","","","","","","","","","","","","","","","","","","","","","",""
"786","<p style=""color:rgb(150, 250, 100); font-size: 35px;"">自己</p>","e","categorize-html","84","185113","0.0-6.0-1.0-6.0-1.12","4","3","3","4","2","3","3","2","3","3","3","2","2","4","2","4","4","2","4","2","1","2","2","2","2","1","1","1","1","1","1","0","0","0","1","1","1","0","0","1","0","1","0","1","5","1","4","1","4","2","4","","4","2","2","746306344851869697","李","534","","","","","","","","","","","","","","","","","","","true","13","3","moral","786","self","自己","","","","","","","","","","","","","","","","",""
"null","","null","html-keyboard-response","85","185365","0.0-6.0-1.0-6.0-0.13","4","3","3","4","2","3","3","2","3","3","3","2","2","4","2","4","4","2","4","2","1","2","2","2","2","1","1","1","1","1","1","0","0","0","1","1","1","0","0","1","0","1","0","1","5","1","4","1","4","2","4","","4","2","2","746306344851869697","李","534","","","","","","","","","","","","","","","","","","","","","","","","","","","","","","","","","","","","","","","","","",""
"493","<p style=""color:white; font-size: 35px;"">小人</p>","e","categorize-html","86","185859","0.0-6.0-1.0-6.0-1.13","4","3","3","4","2","3","3","2","3","3","3","2","2","4","2","4","4","2","4","2","1","2","2","2","2","1","1","1","1","1","1","0","0","0","1","1","1","0","0","1","0","1","0","1","5","1","4","1","4","2","4","","4","2","2","746306344851869697","李","534","","","","","","","","","","","","","","","","","","","true","13","3","moral","493","negative","小人","","","","","","","","","","","","","","","","",""
"null","","null","html-keyboard-response","87","186111","0.0-6.0-1.0-6.0-0.14","4","3","3","4","2","3","3","2","3","3","3","2","2","4","2","4","4","2","4","2","1","2","2","2","2","1","1","1","1","1","1","0","0","0","1","1","1","0","0","1","0","1","0","1","5","1","4","1","4","2","4","","4","2","2","746306344851869697","李","534","","","","","","","","","","","","","","","","","","","","","","","","","","","","","","","","","","","","","","","","","",""
"617","<p style=""color:rgb(150, 250, 100); font-size: 35px;"">别人的</p>","i","categorize-html","88","186729","0.0-6.0-1.0-6.0-1.14","4","3","3","4","2","3","3","2","3","3","3","2","2","4","2","4","4","2","4","2","1","2","2","2","2","1","1","1","1","1","1","0","0","0","1","1","1","0","0","1","0","1","0","1","5","1","4","1","4","2","4","","4","2","2","746306344851869697","李","534","","","","","","","","","","","","","","","","","","","true","13","3","moral","617","other","别人的","","","","","","","","","","","","","","","","",""
"null","","null","html-keyboard-response","89","186981","0.0-6.0-1.0-6.0-0.15","4","3","3","4","2","3","3","2","3","3","3","2","2","4","2","4","4","2","4","2","1","2","2","2","2","1","1","1","1","1","1","0","0","0","1","1","1","0","0","1","0","1","0","1","5","1","4","1","4","2","4","","4","2","2","746306344851869697","李","534","","","","","","","","","","","","","","","","","","","","","","","","","","","","","","","","","","","","","","","","","",""
"642","<p style=""color:white; font-size: 35px;"">诚信</p>","i","categorize-html","90","187624","0.0-6.0-1.0-6.0-1.15","4","3","3","4","2","3","3","2","3","3","3","2","2","4","2","4","4","2","4","2","1","2","2","2","2","1","1","1","1","1","1","0","0","0","1","1","1","0","0","1","0","1","0","1","5","1","4","1","4","2","4","","4","2","2","746306344851869697","李","534","","","","","","","","","","","","","","","","","","","true","13","3","moral","642","positive","诚信","","","","","","","","","","","","","","","","",""
"null","","null","html-keyboard-response","91","187876","0.0-6.0-1.0-6.0-0.16","4","3","3","4","2","3","3","2","3","3","3","2","2","4","2","4","4","2","4","2","1","2","2","2","2","1","1","1","1","1","1","0","0","0","1","1","1","0","0","1","0","1","0","1","5","1","4","1","4","2","4","","4","2","2","746306344851869697","李","534","","","","","","","","","","","","","","","","","","","","","","","","","","","","","","","","","","","","","","","","","",""
"518","<p style=""color:rgb(150, 250, 100); font-size: 35px;"">他的</p>","i","categorize-html","92","188394","0.0-6.0-1.0-6.0-1.16","4","3","3","4","2","3","3","2","3","3","3","2","2","4","2","4","4","2","4","2","1","2","2","2","2","1","1","1","1","1","1","0","0","0","1","1","1","0","0","1","0","1","0","1","5","1","4","1","4","2","4","","4","2","2","746306344851869697","李","534","","","","","","","","","","","","","","","","","","","true","13","3","moral","518","other","他的","","","","","","","","","","","","","","","","",""
"null","","null","html-keyboard-response","93","188645","0.0-6.0-1.0-6.0-0.17","4","3","3","4","2","3","3","2","3","3","3","2","2","4","2","4","4","2","4","2","1","2","2","2","2","1","1","1","1","1","1","0","0","0","1","1","1","0","0","1","0","1","0","1","5","1","4","1","4","2","4","","4","2","2","746306344851869697","李","534","","","","","","","","","","","","","","","","","","","","","","","","","","","","","","","","","","","","","","","","","",""
"790","<p style=""color:white; font-size: 35px;"">廉正</p>","e","categorize-html","94","189814","0.0-6.0-1.0-6.0-1.17","4","3","3","4","2","3","3","2","3","3","3","2","2","4","2","4","4","2","4","2","1","2","2","2","2","1","1","1","1","1","1","0","0","0","1","1","1","0","0","1","0","1","0","1","5","1","4","1","4","2","4","","4","2","2","746306344851869697","李","534","","","","","","","","","","","","","","","","","","","false","13","3","moral","1308.65","positive","廉正","","","","","","","","","","","","","","","","",""
"null","","null","html-keyboard-response","95","190065","0.0-6.0-1.0-6.0-0.18","4","3","3","4","2","3","3","2","3","3","3","2","2","4","2","4","4","2","4","2","1","2","2","2","2","1","1","1","1","1","1","0","0","0","1","1","1","0","0","1","0","1","0","1","5","1","4","1","4","2","4","","4","2","2","746306344851869697","李","534","","","","","","","","","","","","","","","","","","","","","","","","","","","","","","","","","","","","","","","","","",""
"631","<p style=""color:rgb(150, 250, 100); font-size: 35px;"">本人的</p>","e","categorize-html","96","190697","0.0-6.0-1.0-6.0-1.18","4","3","3","4","2","3","3","2","3","3","3","2","2","4","2","4","4","2","4","2","1","2","2","2","2","1","1","1","1","1","1","0","0","0","1","1","1","0","0","1","0","1","0","1","5","1","4","1","4","2","4","","4","2","2","746306344851869697","李","534","","","","","","","","","","","","","","","","","","","true","13","3","moral","631","self","本人的","","","","","","","","","","","","","","","","",""
"null","","null","html-keyboard-response","97","190949","0.0-6.0-1.0-6.0-0.19","4","3","3","4","2","3","3","2","3","3","3","2","2","4","2","4","4","2","4","2","1","2","2","2","2","1","1","1","1","1","1","0","0","0","1","1","1","0","0","1","0","1","0","1","5","1","4","1","4","2","4","","4","2","2","746306344851869697","李","534","","","","","","","","","","","","","","","","","","","","","","","","","","","","","","","","","","","","","","","","","",""
"703","<p style=""color:white; font-size: 35px;"">黑心</p>","e","categorize-html","98","191652","0.0-6.0-1.0-6.0-1.19","4","3","3","4","2","3","3","2","3","3","3","2","2","4","2","4","4","2","4","2","1","2","2","2","2","1","1","1","1","1","1","0","0","0","1","1","1","0","0","1","0","1","0","1","5","1","4","1","4","2","4","","4","2","2","746306344851869697","李","534","","","","","","","","","","","","","","","","","","","true","13","3","moral","703","negative","黑心","","","","","","","","","","","","","","","","",""
"null","","null","html-keyboard-response","99","191903","0.0-6.0-1.0-6.0-0.20","4","3","3","4","2","3","3","2","3","3","3","2","2","4","2","4","4","2","4","2","1","2","2","2","2","1","1","1","1","1","1","0","0","0","1","1","1","0","0","1","0","1","0","1","5","1","4","1","4","2","4","","4","2","2","746306344851869697","李","534","","","","","","","","","","","","","","","","","","","","","","","","","","","","","","","","","","","","","","","","","",""
"504","<p style=""color:rgb(150, 250, 100); font-size: 35px;"">他人</p>","i","categorize-html","100","192408","0.0-6.0-1.0-6.0-1.20","4","3","3","4","2","3","3","2","3","3","3","2","2","4","2","4","4","2","4","2","1","2","2","2","2","1","1","1","1","1","1","0","0","0","1","1","1","0","0","1","0","1","0","1","5","1","4","1","4","2","4","","4","2","2","746306344851869697","李","534","","","","","","","","","","","","","","","","","","","true","13","3","moral","504","other","他人","","","","","","","","","","","","","","","","",""
"null","","null","html-keyboard-response","101","192660","0.0-6.0-1.0-6.0-0.21","4","3","3","4","2","3","3","2","3","3","3","2","2","4","2","4","4","2","4","2","1","2","2","2","2","1","1","1","1","1","1","0","0","0","1","1","1","0","0","1","0","1","0","1","5","1","4","1","4","2","4","","4","2","2","746306344851869697","李","534","","","","","","","","","","","","","","","","","","","","","","","","","","","","","","","","","","","","","","","","","",""
"546","<p style=""color:white; font-size: 35px;"">不孝</p>","e","categorize-html","102","193207","0.0-6.0-1.0-6.0-1.21","4","3","3","4","2","3","3","2","3","3","3","2","2","4","2","4","4","2","4","2","1","2","2","2","2","1","1","1","1","1","1","0","0","0","1","1","1","0","0","1","0","1","0","1","5","1","4","1","4","2","4","","4","2","2","746306344851869697","李","534","","","","","","","","","","","","","","","","","","","true","13","3","moral","546","negative","不孝","","","","","","","","","","","","","","","","",""
"null","","null","html-keyboard-response","103","193458","0.0-6.0-1.0-6.0-0.22","4","3","3","4","2","3","3","2","3","3","3","2","2","4","2","4","4","2","4","2","1","2","2","2","2","1","1","1","1","1","1","0","0","0","1","1","1","0","0","1","0","1","0","1","5","1","4","1","4","2","4","","4","2","2","746306344851869697","李","534","","","","","","","","","","","","","","","","","","","","","","","","","","","","","","","","","","","","","","","","","",""
"508","<p style=""color:rgb(150, 250, 100); font-size: 35px;"">我的</p>","e","categorize-html","104","193967","0.0-6.0-1.0-6.0-1.22","4","3","3","4","2","3","3","2","3","3","3","2","2","4","2","4","4","2","4","2","1","2","2","2","2","1","1","1","1","1","1","0","0","0","1","1","1","0","0","1","0","1","0","1","5","1","4","1","4","2","4","","4","2","2","746306344851869697","李","534","","","","","","","","","","","","","","","","","","","true","13","3","moral","508","self","我的","","","","","","","","","","","","","","","","",""
"null","","null","html-keyboard-response","105","194218","0.0-6.0-1.0-6.0-0.23","4","3","3","4","2","3","3","2","3","3","3","2","2","4","2","4","4","2","4","2","1","2","2","2","2","1","1","1","1","1","1","0","0","0","1","1","1","0","0","1","0","1","0","1","5","1","4","1","4","2","4","","4","2","2","746306344851869697","李","534","","","","","","","","","","","","","","","","","","","","","","","","","","","","","","","","","","","","","","","","","",""
"515","<p style=""color:white; font-size: 35px;"">君子</p>","i","categorize-html","106","194734","0.0-6.0-1.0-6.0-1.23","4","3","3","4","2","3","3","2","3","3","3","2","2","4","2","4","4","2","4","2","1","2","2","2","2","1","1","1","1","1","1","0","0","0","1","1","1","0","0","1","0","1","0","1","5","1","4","1","4","2","4","","4","2","2","746306344851869697","李","534","","","","","","","","","","","","","","","","","","","true","13","3","moral","515","positive","君子","","","","","","","","","","","","","","","","",""
"4531","
    <div class=""tag-bottom""><p>
    —— 任务4：对“自我/消极”词和“他人/积极”词分类 ——<p/>
    <span style=""color:#78DCE8""><b>与刚才的任务完全相同，请再次对这四类词语分类</b></span><p/>
    <span style=""color:#FFD866""><b>请根据上方标签的提示，尽可能正确并且快速地做出按键反应</b></span><p/>
    当按键错误时屏幕中会出现<span style=""color:red""> X </span>，需要按另一个键纠正才能继续<br/><p/>
    请把双手食指分别放在键盘的“E”键和“I”键上<p/>
    按<空格键>开始
    </p></div>"," ","html-keyboard-response","107","199266","0.0-6.0-1.0-7.0","4","3","3","4","2","3","3","2","3","3","3","2","2","4","2","4","4","2","4","2","1","2","2","2","2","1","1","1","1","1","1","0","0","0","1","1","1","0","0","1","0","1","0","1","5","1","4","1","4","2","4","","4","2","2","746306344851869697","李","534","","","","","","","","","","","","","","","","","","","","","","","","","","","","","","","","","","","","","","","","","",""
"null","","null","html-keyboard-response","108","199517","0.0-6.0-1.0-8.0-0.0","4","3","3","4","2","3","3","2","3","3","3","2","2","4","2","4","4","2","4","2","1","2","2","2","2","1","1","1","1","1","1","0","0","0","1","1","1","0","0","1","0","1","0","1","5","1","4","1","4","2","4","","4","2","2","746306344851869697","李","534","","","","","","","","","","","","","","","","","","","","","","","","","","","","","","","","","","","","","","","","","",""
"668","<p style=""color:rgb(150, 250, 100); font-size: 35px;"">他</p>","i","categorize-html","109","200187","0.0-6.0-1.0-8.0-1.0","4","3","3","4","2","3","3","2","3","3","3","2","2","4","2","4","4","2","4","2","1","2","2","2","2","1","1","1","1","1","1","0","0","0","1","1","1","0","0","1","0","1","0","1","5","1","4","1","4","2","4","","4","2","2","746306344851869697","李","534","","","","","","","","","","","","","","","","","","","true","14","4","moral","668","other","他","","","","","","","","","","","","","","","","",""
"null","","null","html-keyboard-response","110","200439","0.0-6.0-1.0-8.0-0.1","4","3","3","4","2","3","3","2","3","3","3","2","2","4","2","4","4","2","4","2","1","2","2","2","2","1","1","1","1","1","1","0","0","0","1","1","1","0","0","1","0","1","0","1","5","1","4","1","4","2","4","","4","2","2","746306344851869697","李","534","","","","","","","","","","","","","","","","","","","","","","","","","","","","","","","","","","","","","","","","","",""
"818","<p style=""color:white; font-size: 35px;"">廉正</p>","i","categorize-html","111","201257","0.0-6.0-1.0-8.0-1.1","4","3","3","4","2","3","3","2","3","3","3","2","2","4","2","4","4","2","4","2","1","2","2","2","2","1","1","1","1","1","1","0","0","0","1","1","1","0","0","1","0","1","0","1","5","1","4","1","4","2","4","","4","2","2","746306344851869697","李","534","","","","","","","","","","","","","","","","","","","true","14","4","moral","818","positive","廉正","","","","","","","","","","","","","","","","",""
"null","","null","html-keyboard-response","112","201508","0.0-6.0-1.0-8.0-0.2","4","3","3","4","2","3","3","2","3","3","3","2","2","4","2","4","4","2","4","2","1","2","2","2","2","1","1","1","1","1","1","0","0","0","1","1","1","0","0","1","0","1","0","1","5","1","4","1","4","2","4","","4","2","2","746306344851869697","李","534","","","","","","","","","","","","","","","","","","","","","","","","","","","","","","","","","","","","","","","","","",""
"564","<p style=""color:rgb(150, 250, 100); font-size: 35px;"">本人的</p>","e","categorize-html","113","202073","0.0-6.0-1.0-8.0-1.2","4","3","3","4","2","3","3","2","3","3","3","2","2","4","2","4","4","2","4","2","1","2","2","2","2","1","1","1","1","1","1","0","0","0","1","1","1","0","0","1","0","1","0","1","5","1","4","1","4","2","4","","4","2","2","746306344851869697","李","534","","","","","","","","","","","","","","","","","","","true","14","4","moral","564","self","本人的","","","","","","","","","","","","","","","","",""
"null","","null","html-keyboard-response","114","202324","0.0-6.0-1.0-8.0-0.3","4","3","3","4","2","3","3","2","3","3","3","2","2","4","2","4","4","2","4","2","1","2","2","2","2","1","1","1","1","1","1","0","0","0","1","1","1","0","0","1","0","1","0","1","5","1","4","1","4","2","4","","4","2","2","746306344851869697","李","534","","","","","","","","","","","","","","","","","","","","","","","","","","","","","","","","","","","","","","","","","",""
"437","<p style=""color:white; font-size: 35px;"">黑心</p>","e","categorize-html","115","202761","0.0-6.0-1.0-8.0-1.3","4","3","3","4","2","3","3","2","3","3","3","2","2","4","2","4","4","2","4","2","1","2","2","2","2","1","1","1","1","1","1","0","0","0","1","1","1","0","0","1","0","1","0","1","5","1","4","1","4","2","4","","4","2","2","746306344851869697","李","534","","","","","","","","","","","","","","","","","","","true","14","4","moral","437","negative","黑心","","","","","","","","","","","","","","","","",""
"null","","null","html-keyboard-response","116","203014","0.0-6.0-1.0-8.0-0.4","4","3","3","4","2","3","3","2","3","3","3","2","2","4","2","4","4","2","4","2","1","2","2","2","2","1","1","1","1","1","1","0","0","0","1","1","1","0","0","1","0","1","0","1","5","1","4","1","4","2","4","","4","2","2","746306344851869697","李","534","","","","","","","","","","","","","","","","","","","","","","","","","","","","","","","","","","","","","","","","","",""
"529","<p style=""color:rgb(150, 250, 100); font-size: 35px;"">本人</p>","e","categorize-html","117","203544","0.0-6.0-1.0-8.0-1.4","4","3","3","4","2","3","3","2","3","3","3","2","2","4","2","4","4","2","4","2","1","2","2","2","2","1","1","1","1","1","1","0","0","0","1","1","1","0","0","1","0","1","0","1","5","1","4","1","4","2","4","","4","2","2","746306344851869697","李","534","","","","","","","","","","","","","","","","","","","true","14","4","moral","529","self","本人","","","","","","","","","","","","","","","","",""
"null","","null","html-keyboard-response","118","203795","0.0-6.0-1.0-8.0-0.5","4","3","3","4","2","3","3","2","3","3","3","2","2","4","2","4","4","2","4","2","1","2","2","2","2","1","1","1","1","1","1","0","0","0","1","1","1","0","0","1","0","1","0","1","5","1","4","1","4","2","4","","4","2","2","746306344851869697","李","534","","","","","","","","","","","","","","","","","","","","","","","","","","","","","","","","","","","","","","","","","",""
"425","<p style=""color:white; font-size: 35px;"">不孝</p>","e","categorize-html","119","204221","0.0-6.0-1.0-8.0-1.5","4","3","3","4","2","3","3","2","3","3","3","2","2","4","2","4","4","2","4","2","1","2","2","2","2","1","1","1","1","1","1","0","0","0","1","1","1","0","0","1","0","1","0","1","5","1","4","1","4","2","4","","4","2","2","746306344851869697","李","534","","","","","","","","","","","","","","","","","","","true","14","4","moral","425","negative","不孝","","","","","","","","","","","","","","","","",""
"null","","null","html-keyboard-response","120","204472","0.0-6.0-1.0-8.0-0.6","4","3","3","4","2","3","3","2","3","3","3","2","2","4","2","4","4","2","4","2","1","2","2","2","2","1","1","1","1","1","1","0","0","0","1","1","1","0","0","1","0","1","0","1","5","1","4","1","4","2","4","","4","2","2","746306344851869697","李","534","","","","","","","","","","","","","","","","","","","","","","","","","","","","","","","","","","","","","","","","","",""
"470","<p style=""color:rgb(150, 250, 100); font-size: 35px;"">别人</p>","i","categorize-html","121","204943","0.0-6.0-1.0-8.0-1.6","4","3","3","4","2","3","3","2","3","3","3","2","2","4","2","4","4","2","4","2","1","2","2","2","2","1","1","1","1","1","1","0","0","0","1","1","1","0","0","1","0","1","0","1","5","1","4","1","4","2","4","","4","2","2","746306344851869697","李","534","","","","","","","","","","","","","","","","","","","true","14","4","moral","470","other","别人","","","","","","","","","","","","","","","","",""
"null","","null","html-keyboard-response","122","205194","0.0-6.0-1.0-8.0-0.7","4","3","3","4","2","3","3","2","3","3","3","2","2","4","2","4","4","2","4","2","1","2","2","2","2","1","1","1","1","1","1","0","0","0","1","1","1","0","0","1","0","1","0","1","5","1","4","1","4","2","4","","4","2","2","746306344851869697","李","534","","","","","","","","","","","","","","","","","","","","","","","","","","","","","","","","","","","","","","","","","",""
"594","<p style=""color:white; font-size: 35px;"">高尚</p>","i","categorize-html","123","205789","0.0-6.0-1.0-8.0-1.7","4","3","3","4","2","3","3","2","3","3","3","2","2","4","2","4","4","2","4","2","1","2","2","2","2","1","1","1","1","1","1","0","0","0","1","1","1","0","0","1","0","1","0","1","5","1","4","1","4","2","4","","4","2","2","746306344851869697","李","534","","","","","","","","","","","","","","","","","","","true","14","4","moral","594","positive","高尚","","","","","","","","","","","","","","","","",""
"null","","null","html-keyboard-response","124","206040","0.0-6.0-1.0-8.0-0.8","4","3","3","4","2","3","3","2","3","3","3","2","2","4","2","4","4","2","4","2","1","2","2","2","2","1","1","1","1","1","1","0","0","0","1","1","1","0","0","1","0","1","0","1","5","1","4","1","4","2","4","","4","2","2","746306344851869697","李","534","","","","","","","","","","","","","","","","","","","","","","","","","","","","","","","","","","","","","","","","","",""
"446","<p style=""color:rgb(150, 250, 100); font-size: 35px;"">他的</p>","i","categorize-html","125","206487","0.0-6.0-1.0-8.0-1.8","4","3","3","4","2","3","3","2","3","3","3","2","2","4","2","4","4","2","4","2","1","2","2","2","2","1","1","1","1","1","1","0","0","0","1","1","1","0","0","1","0","1","0","1","5","1","4","1","4","2","4","","4","2","2","746306344851869697","李","534","","","","","","","","","","","","","","","","","","","true","14","4","moral","446","other","他的","","","","","","","","","","","","","","","","",""
"null","","null","html-keyboard-response","126","206738","0.0-6.0-1.0-8.0-0.9","4","3","3","4","2","3","3","2","3","3","3","2","2","4","2","4","4","2","4","2","1","2","2","2","2","1","1","1","1","1","1","0","0","0","1","1","1","0","0","1","0","1","0","1","5","1","4","1","4","2","4","","4","2","2","746306344851869697","李","534","","","","","","","","","","","","","","","","","","","","","","","","","","","","","","","","","","","","","","","","","",""
"429","<p style=""color:white; font-size: 35px;"">诚信</p>","i","categorize-html","127","207168","0.0-6.0-1.0-8.0-1.9","4","3","3","4","2","3","3","2","3","3","3","2","2","4","2","4","4","2","4","2","1","2","2","2","2","1","1","1","1","1","1","0","0","0","1","1","1","0","0","1","0","1","0","1","5","1","4","1","4","2","4","","4","2","2","746306344851869697","李","534","","","","","","","","","","","","","","","","","","","true","14","4","moral","429","positive","诚信","","","","","","","","","","","","","","","","",""
"null","","null","html-keyboard-response","128","207419","0.0-6.0-1.0-8.0-0.10","4","3","3","4","2","3","3","2","3","3","3","2","2","4","2","4","4","2","4","2","1","2","2","2","2","1","1","1","1","1","1","0","0","0","1","1","1","0","0","1","0","1","0","1","5","1","4","1","4","2","4","","4","2","2","746306344851869697","李","534","","","","","","","","","","","","","","","","","","","","","","","","","","","","","","","","","","","","","","","","","",""
"438","<p style=""color:rgb(150, 250, 100); font-size: 35px;"">我</p>","i","categorize-html","129","208287","0.0-6.0-1.0-8.0-1.10","4","3","3","4","2","3","3","2","3","3","3","2","2","4","2","4","4","2","4","2","1","2","2","2","2","1","1","1","1","1","1","0","0","0","1","1","1","0","0","1","0","1","0","1","5","1","4","1","4","2","4","","4","2","2","746306344851869697","李","534","","","","","","","","","","","","","","","","","","","false","14","4","moral","1276.046511627907","self","我","","","","","","","","","","","","","","","","",""
"null","","null","html-keyboard-response","130","208538","0.0-6.0-1.0-8.0-0.11","4","3","3","4","2","3","3","2","3","3","3","2","2","4","2","4","4","2","4","2","1","2","2","2","2","1","1","1","1","1","1","0","0","0","1","1","1","0","0","1","0","1","0","1","5","1","4","1","4","2","4","","4","2","2","746306344851869697","李","534","","","","","","","","","","","","","","","","","","","","","","","","","","","","","","","","","","","","","","","","","",""
"569","<p style=""color:white; font-size: 35px;"">黑心</p>","e","categorize-html","131","209108","0.0-6.0-1.0-8.0-1.11","4","3","3","4","2","3","3","2","3","3","3","2","2","4","2","4","4","2","4","2","1","2","2","2","2","1","1","1","1","1","1","0","0","0","1","1","1","0","0","1","0","1","0","1","5","1","4","1","4","2","4","","4","2","2","746306344851869697","李","534","","","","","","","","","","","","","","","","","","","true","14","4","moral","569","negative","黑心","","","","","","","","","","","","","","","","",""
"null","","null","html-keyboard-response","132","209360","0.0-6.0-1.0-8.0-0.12","4","3","3","4","2","3","3","2","3","3","3","2","2","4","2","4","4","2","4","2","1","2","2","2","2","1","1","1","1","1","1","0","0","0","1","1","1","0","0","1","0","1","0","1","5","1","4","1","4","2","4","","4","2","2","746306344851869697","李","534","","","","","","","","","","","","","","","","","","","","","","","","","","","","","","","","","","","","","","","","","",""
"1176","<p style=""color:rgb(150, 250, 100); font-size: 35px;"">本人</p>","i","categorize-html","133","210917","0.0-6.0-1.0-8.0-1.12","4","3","3","4","2","3","3","2","3","3","3","2","2","4","2","4","4","2","4","2","1","2","2","2","2","1","1","1","1","1","1","0","0","0","1","1","1","0","0","1","0","1","0","1","5","1","4","1","4","2","4","","4","2","2","746306344851869697","李","534","","","","","","","","","","","","","","","","","","","false","14","4","moral","1276.046511627907","self","本人","","","","","","","","","","","","","","","","",""
"null","","null","html-keyboard-response","134","211168","0.0-6.0-1.0-8.0-0.13","4","3","3","4","2","3","3","2","3","3","3","2","2","4","2","4","4","2","4","2","1","2","2","2","2","1","1","1","1","1","1","0","0","0","1","1","1","0","0","1","0","1","0","1","5","1","4","1","4","2","4","","4","2","2","746306344851869697","李","534","","","","","","","","","","","","","","","","","","","","","","","","","","","","","","","","","","","","","","","","","",""
"1220","<p style=""color:white; font-size: 35px;"">诚信</p>","i","categorize-html","135","212389","0.0-6.0-1.0-8.0-1.13","4","3","3","4","2","3","3","2","3","3","3","2","2","4","2","4","4","2","4","2","1","2","2","2","2","1","1","1","1","1","1","0","0","0","1","1","1","0","0","1","0","1","0","1","5","1","4","1","4","2","4","","4","2","2","746306344851869697","李","534","","","","","","","","","","","","","","","","","","","true","14","4","moral","1220","positive","诚信","","","","","","","","","","","","","","","","",""
"null","","null","html-keyboard-response","136","212640","0.0-6.0-1.0-8.0-0.14","4","3","3","4","2","3","3","2","3","3","3","2","2","4","2","4","4","2","4","2","1","2","2","2","2","1","1","1","1","1","1","0","0","0","1","1","1","0","0","1","0","1","0","1","5","1","4","1","4","2","4","","4","2","2","746306344851869697","李","534","","","","","","","","","","","","","","","","","","","","","","","","","","","","","","","","","","","","","","","","","",""
"597","<p style=""color:rgb(150, 250, 100); font-size: 35px;"">他的</p>","i","categorize-html","137","213239","0.0-6.0-1.0-8.0-1.14","4","3","3","4","2","3","3","2","3","3","3","2","2","4","2","4","4","2","4","2","1","2","2","2","2","1","1","1","1","1","1","0","0","0","1","1","1","0","0","1","0","1","0","1","5","1","4","1","4","2","4","","4","2","2","746306344851869697","李","534","","","","","","","","","","","","","","","","","","","true","14","4","moral","597","other","他的","","","","","","","","","","","","","","","","",""
"null","","null","html-keyboard-response","138","213490","0.0-6.0-1.0-8.0-0.15","4","3","3","4","2","3","3","2","3","3","3","2","2","4","2","4","4","2","4","2","1","2","2","2","2","1","1","1","1","1","1","0","0","0","1","1","1","0","0","1","0","1","0","1","5","1","4","1","4","2","4","","4","2","2","746306344851869697","李","534","","","","","","","","","","","","","","","","","","","","","","","","","","","","","","","","","","","","","","","","","",""
"937","<p style=""color:white; font-size: 35px;"">卑鄙</p>","e","categorize-html","139","214429","0.0-6.0-1.0-8.0-1.15","4","3","3","4","2","3","3","2","3","3","3","2","2","4","2","4","4","2","4","2","1","2","2","2","2","1","1","1","1","1","1","0","0","0","1","1","1","0","0","1","0","1","0","1","5","1","4","1","4","2","4","","4","2","2","746306344851869697","李","534","","","","","","","","","","","","","","","","","","","true","14","4","moral","937","negative","卑鄙","","","","","","","","","","","","","","","","",""
"null","","null","html-keyboard-response","140","214681","0.0-6.0-1.0-8.0-0.16","4","3","3","4","2","3","3","2","3","3","3","2","2","4","2","4","4","2","4","2","1","2","2","2","2","1","1","1","1","1","1","0","0","0","1","1","1","0","0","1","0","1","0","1","5","1","4","1","4","2","4","","4","2","2","746306344851869697","李","534","","","","","","","","","","","","","","","","","","","","","","","","","","","","","","","","","","","","","","","","","",""
"537","<p style=""color:rgb(150, 250, 100); font-size: 35px;"">自己的</p>","e","categorize-html","141","215219","0.0-6.0-1.0-8.0-1.16","4","3","3","4","2","3","3","2","3","3","3","2","2","4","2","4","4","2","4","2","1","2","2","2","2","1","1","1","1","1","1","0","0","0","1","1","1","0","0","1","0","1","0","1","5","1","4","1","4","2","4","","4","2","2","746306344851869697","李","534","","","","","","","","","","","","","","","","","","","true","14","4","moral","537","self","自己的","","","","","","","","","","","","","","","","",""
"null","","null","html-keyboard-response","142","215470","0.0-6.0-1.0-8.0-0.17","4","3","3","4","2","3","3","2","3","3","3","2","2","4","2","4","4","2","4","2","1","2","2","2","2","1","1","1","1","1","1","0","0","0","1","1","1","0","0","1","0","1","0","1","5","1","4","1","4","2","4","","4","2","2","746306344851869697","李","534","","","","","","","","","","","","","","","","","","","","","","","","","","","","","","","","","","","","","","","","","",""
"541","<p style=""color:white; font-size: 35px;"">高尚</p>","i","categorize-html","143","216013","0.0-6.0-1.0-8.0-1.17","4","3","3","4","2","3","3","2","3","3","3","2","2","4","2","4","4","2","4","2","1","2","2","2","2","1","1","1","1","1","1","0","0","0","1","1","1","0","0","1","0","1","0","1","5","1","4","1","4","2","4","","4","2","2","746306344851869697","李","534","","","","","","","","","","","","","","","","","","","true","14","4","moral","541","positive","高尚","","","","","","","","","","","","","","","","",""
"null","","null","html-keyboard-response","144","216265","0.0-6.0-1.0-8.0-0.18","4","3","3","4","2","3","3","2","3","3","3","2","2","4","2","4","4","2","4","2","1","2","2","2","2","1","1","1","1","1","1","0","0","0","1","1","1","0","0","1","0","1","0","1","5","1","4","1","4","2","4","","4","2","2","746306344851869697","李","534","","","","","","","","","","","","","","","","","","","","","","","","","","","","","","","","","","","","","","","","","",""
"597","<p style=""color:rgb(150, 250, 100); font-size: 35px;"">他人</p>","i","categorize-html","145","216863","0.0-6.0-1.0-8.0-1.18","4","3","3","4","2","3","3","2","3","3","3","2","2","4","2","4","4","2","4","2","1","2","2","2","2","1","1","1","1","1","1","0","0","0","1","1","1","0","0","1","0","1","0","1","5","1","4","1","4","2","4","","4","2","2","746306344851869697","李","534","","","","","","","","","","","","","","","","","","","true","14","4","moral","597","other","他人","","","","","","","","","","","","","","","","",""
"null","","null","html-keyboard-response","146","217114","0.0-6.0-1.0-8.0-0.19","4","3","3","4","2","3","3","2","3","3","3","2","2","4","2","4","4","2","4","2","1","2","2","2","2","1","1","1","1","1","1","0","0","0","1","1","1","0","0","1","0","1","0","1","5","1","4","1","4","2","4","","4","2","2","746306344851869697","李","534","","","","","","","","","","","","","","","","","","","","","","","","","","","","","","","","","","","","","","","","","",""
"543","<p style=""color:white; font-size: 35px;"">小人</p>","e","categorize-html","147","217658","0.0-6.0-1.0-8.0-1.19","4","3","3","4","2","3","3","2","3","3","3","2","2","4","2","4","4","2","4","2","1","2","2","2","2","1","1","1","1","1","1","0","0","0","1","1","1","0","0","1","0","1","0","1","5","1","4","1","4","2","4","","4","2","2","746306344851869697","李","534","","","","","","","","","","","","","","","","","","","true","14","4","moral","543","negative","小人","","","","","","","","","","","","","","","","",""
"null","","null","html-keyboard-response","148","217910","0.0-6.0-1.0-8.0-0.20","4","3","3","4","2","3","3","2","3","3","3","2","2","4","2","4","4","2","4","2","1","2","2","2","2","1","1","1","1","1","1","0","0","0","1","1","1","0","0","1","0","1","0","1","5","1","4","1","4","2","4","","4","2","2","746306344851869697","李","534","","","","","","","","","","","","","","","","","","","","","","","","","","","","","","","","","","","","","","","","","",""
"608","<p style=""color:rgb(150, 250, 100); font-size: 35px;"">我</p>","e","categorize-html","149","218521","0.0-6.0-1.0-8.0-1.20","4","3","3","4","2","3","3","2","3","3","3","2","2","4","2","4","4","2","4","2","1","2","2","2","2","1","1","1","1","1","1","0","0","0","1","1","1","0","0","1","0","1","0","1","5","1","4","1","4","2","4","","4","2","2","746306344851869697","李","534","","","","","","","","","","","","","","","","","","","true","14","4","moral","608","self","我","","","","","","","","","","","","","","","","",""
"null","","null","html-keyboard-response","150","218773","0.0-6.0-1.0-8.0-0.21","4","3","3","4","2","3","3","2","3","3","3","2","2","4","2","4","4","2","4","2","1","2","2","2","2","1","1","1","1","1","1","0","0","0","1","1","1","0","0","1","0","1","0","1","5","1","4","1","4","2","4","","4","2","2","746306344851869697","李","534","","","","","","","","","","","","","","","","","","","","","","","","","","","","","","","","","","","","","","","","","",""
"629","<p style=""color:white; font-size: 35px;"">善良</p>","i","categorize-html","151","219402","0.0-6.0-1.0-8.0-1.21","4","3","3","4","2","3","3","2","3","3","3","2","2","4","2","4","4","2","4","2","1","2","2","2","2","1","1","1","1","1","1","0","0","0","1","1","1","0","0","1","0","1","0","1","5","1","4","1","4","2","4","","4","2","2","746306344851869697","李","534","","","","","","","","","","","","","","","","","","","true","14","4","moral","629","positive","善良","","","","","","","","","","","","","","","","",""
"null","","null","html-keyboard-response","152","219652","0.0-6.0-1.0-8.0-0.22","4","3","3","4","2","3","3","2","3","3","3","2","2","4","2","4","4","2","4","2","1","2","2","2","2","1","1","1","1","1","1","0","0","0","1","1","1","0","0","1","0","1","0","1","5","1","4","1","4","2","4","","4","2","2","746306344851869697","李","534","","","","","","","","","","","","","","","","","","","","","","","","","","","","","","","","","","","","","","","","","",""
"553","<p style=""color:rgb(150, 250, 100); font-size: 35px;"">别人的</p>","i","categorize-html","153","220208","0.0-6.0-1.0-8.0-1.22","4","3","3","4","2","3","3","2","3","3","3","2","2","4","2","4","4","2","4","2","1","2","2","2","2","1","1","1","1","1","1","0","0","0","1","1","1","0","0","1","0","1","0","1","5","1","4","1","4","2","4","","4","2","2","746306344851869697","李","534","","","","","","","","","","","","","","","","","","","true","14","4","moral","553","other","别人的","","","","","","","","","","","","","","","","",""
"null","","null","html-keyboard-response","154","220460","0.0-6.0-1.0-8.0-0.23","4","3","3","4","2","3","3","2","3","3","3","2","2","4","2","4","4","2","4","2","1","2","2","2","2","1","1","1","1","1","1","0","0","0","1","1","1","0","0","1","0","1","0","1","5","1","4","1","4","2","4","","4","2","2","746306344851869697","李","534","","","","","","","","","","","","","","","","","","","","","","","","","","","","","","","","","","","","","","","","","",""
"708","<p style=""color:white; font-size: 35px;"">缺德</p>","e","categorize-html","155","221168","0.0-6.0-1.0-8.0-1.23","4","3","3","4","2","3","3","2","3","3","3","2","2","4","2","4","4","2","4","2","1","2","2","2","2","1","1","1","1","1","1","0","0","0","1","1","1","0","0","1","0","1","0","1","5","1","4","1","4","2","4","","4","2","2","746306344851869697","李","534","","","","","","","","","","","","","","","","","","","true","14","4","moral","708","negative","缺德","","","","","","","","","","","","","","","","",""
"null","","null","html-keyboard-response","156","221420","0.0-6.0-1.0-8.0-0.24","4","3","3","4","2","3","3","2","3","3","3","2","2","4","2","4","4","2","4","2","1","2","2","2","2","1","1","1","1","1","1","0","0","0","1","1","1","0","0","1","0","1","0","1","5","1","4","1","4","2","4","","4","2","2","746306344851869697","李","534","","","","","","","","","","","","","","","","","","","","","","","","","","","","","","","","","","","","","","","","","",""
"589","<p style=""color:rgb(150, 250, 100); font-size: 35px;"">他</p>","i","categorize-html","157","222011","0.0-6.0-1.0-8.0-1.24","4","3","3","4","2","3","3","2","3","3","3","2","2","4","2","4","4","2","4","2","1","2","2","2","2","1","1","1","1","1","1","0","0","0","1","1","1","0","0","1","0","1","0","1","5","1","4","1","4","2","4","","4","2","2","746306344851869697","李","534","","","","","","","","","","","","","","","","","","","true","14","4","moral","589","other","他","","","","","","","","","","","","","","","","",""
"null","","null","html-keyboard-response","158","222261","0.0-6.0-1.0-8.0-0.25","4","3","3","4","2","3","3","2","3","3","3","2","2","4","2","4","4","2","4","2","1","2","2","2","2","1","1","1","1","1","1","0","0","0","1","1","1","0","0","1","0","1","0","1","5","1","4","1","4","2","4","","4","2","2","746306344851869697","李","534","","","","","","","","","","","","","","","","","","","","","","","","","","","","","","","","","","","","","","","","","",""
"560","<p style=""color:white; font-size: 35px;"">卑鄙</p>","i","categorize-html","159","223160","0.0-6.0-1.0-8.0-1.25","4","3","3","4","2","3","3","2","3","3","3","2","2","4","2","4","4","2","4","2","1","2","2","2","2","1","1","1","1","1","1","0","0","0","1","1","1","0","0","1","0","1","0","1","5","1","4","1","4","2","4","","4","2","2","746306344851869697","李","534","","","","","","","","","","","","","","","","","","","false","14","4","moral","1276.046511627907","negative","卑鄙","","","","","","","","","","","","","","","","",""
"null","","null","html-keyboard-response","160","223417","0.0-6.0-1.0-8.0-0.26","4","3","3","4","2","3","3","2","3","3","3","2","2","4","2","4","4","2","4","2","1","2","2","2","2","1","1","1","1","1","1","0","0","0","1","1","1","0","0","1","0","1","0","1","5","1","4","1","4","2","4","","4","2","2","746306344851869697","李","534","","","","","","","","","","","","","","","","","","","","","","","","","","","","","","","","","","","","","","","","","",""
"452","<p style=""color:rgb(150, 250, 100); font-size: 35px;"">自己的</p>","e","categorize-html","161","223871","0.0-6.0-1.0-8.0-1.26","4","3","3","4","2","3","3","2","3","3","3","2","2","4","2","4","4","2","4","2","1","2","2","2","2","1","1","1","1","1","1","0","0","0","1","1","1","0","0","1","0","1","0","1","5","1","4","1","4","2","4","","4","2","2","746306344851869697","李","534","","","","","","","","","","","","","","","","","","","true","14","4","moral","452","self","自己的","","","","","","","","","","","","","","","","",""
"null","","null","html-keyboard-response","162","224122","0.0-6.0-1.0-8.0-0.27","4","3","3","4","2","3","3","2","3","3","3","2","2","4","2","4","4","2","4","2","1","2","2","2","2","1","1","1","1","1","1","0","0","0","1","1","1","0","0","1","0","1","0","1","5","1","4","1","4","2","4","","4","2","2","746306344851869697","李","534","","","","","","","","","","","","","","","","","","","","","","","","","","","","","","","","","","","","","","","","","",""
"700","<p style=""color:white; font-size: 35px;"">善良</p>","i","categorize-html","163","224824","0.0-6.0-1.0-8.0-1.27","4","3","3","4","2","3","3","2","3","3","3","2","2","4","2","4","4","2","4","2","1","2","2","2","2","1","1","1","1","1","1","0","0","0","1","1","1","0","0","1","0","1","0","1","5","1","4","1","4","2","4","","4","2","2","746306344851869697","李","534","","","","","","","","","","","","","","","","","","","true","14","4","moral","700","positive","善良","","","","","","","","","","","","","","","","",""
"null","","null","html-keyboard-response","164","225075","0.0-6.0-1.0-8.0-0.28","4","3","3","4","2","3","3","2","3","3","3","2","2","4","2","4","4","2","4","2","1","2","2","2","2","1","1","1","1","1","1","0","0","0","1","1","1","0","0","1","0","1","0","1","5","1","4","1","4","2","4","","4","2","2","746306344851869697","李","534","","","","","","","","","","","","","","","","","","","","","","","","","","","","","","","","","","","","","","","","","",""
"715","<p style=""color:rgb(150, 250, 100); font-size: 35px;"">他人的</p>","e","categorize-html","165","226187","0.0-6.0-1.0-8.0-1.28","4","3","3","4","2","3","3","2","3","3","3","2","2","4","2","4","4","2","4","2","1","2","2","2","2","1","1","1","1","1","1","0","0","0","1","1","1","0","0","1","0","1","0","1","5","1","4","1","4","2","4","","4","2","2","746306344851869697","李","534","","","","","","","","","","","","","","","","","","","false","14","4","moral","1276.046511627907","other","他人的","","","","","","","","","","","","","","","","",""
"null","","null","html-keyboard-response","166","226439","0.0-6.0-1.0-8.0-0.29","4","3","3","4","2","3","3","2","3","3","3","2","2","4","2","4","4","2","4","2","1","2","2","2","2","1","1","1","1","1","1","0","0","0","1","1","1","0","0","1","0","1","0","1","5","1","4","1","4","2","4","","4","2","2","746306344851869697","李","534","","","","","","","","","","","","","","","","","","","","","","","","","","","","","","","","","","","","","","","","","",""
"1142","<p style=""color:white; font-size: 35px;"">君子</p>","i","categorize-html","167","227582","0.0-6.0-1.0-8.0-1.29","4","3","3","4","2","3","3","2","3","3","3","2","2","4","2","4","4","2","4","2","1","2","2","2","2","1","1","1","1","1","1","0","0","0","1","1","1","0","0","1","0","1","0","1","5","1","4","1","4","2","4","","4","2","2","746306344851869697","李","534","","","","","","","","","","","","","","","","","","","true","14","4","moral","1142","positive","君子","","","","","","","","","","","","","","","","",""
"null","","null","html-keyboard-response","168","227833","0.0-6.0-1.0-8.0-0.30","4","3","3","4","2","3","3","2","3","3","3","2","2","4","2","4","4","2","4","2","1","2","2","2","2","1","1","1","1","1","1","0","0","0","1","1","1","0","0","1","0","1","0","1","5","1","4","1","4","2","4","","4","2","2","746306344851869697","李","534","","","","","","","","","","","","","","","","","","","","","","","","","","","","","","","","","","","","","","","","","",""
"605","<p style=""color:rgb(150, 250, 100); font-size: 35px;"">我的</p>","e","categorize-html","169","228439","0.0-6.0-1.0-8.0-1.30","4","3","3","4","2","3","3","2","3","3","3","2","2","4","2","4","4","2","4","2","1","2","2","2","2","1","1","1","1","1","1","0","0","0","1","1","1","0","0","1","0","1","0","1","5","1","4","1","4","2","4","","4","2","2","746306344851869697","李","534","","","","","","","","","","","","","","","","","","","true","14","4","moral","605","self","我的","","","","","","","","","","","","","","","","",""
"null","","null","html-keyboard-response","170","228690","0.0-6.0-1.0-8.0-0.31","4","3","3","4","2","3","3","2","3","3","3","2","2","4","2","4","4","2","4","2","1","2","2","2","2","1","1","1","1","1","1","0","0","0","1","1","1","0","0","1","0","1","0","1","5","1","4","1","4","2","4","","4","2","2","746306344851869697","李","534","","","","","","","","","","","","","","","","","","","","","","","","","","","","","","","","","","","","","","","","","",""
"889","<p style=""color:white; font-size: 35px;"">不仁</p>","e","categorize-html","171","229580","0.0-6.0-1.0-8.0-1.31","4","3","3","4","2","3","3","2","3","3","3","2","2","4","2","4","4","2","4","2","1","2","2","2","2","1","1","1","1","1","1","0","0","0","1","1","1","0","0","1","0","1","0","1","5","1","4","1","4","2","4","","4","2","2","746306344851869697","李","534","","","","","","","","","","","","","","","","","","","true","14","4","moral","889","negative","不仁","","","","","","","","","","","","","","","","",""
"null","","null","html-keyboard-response","172","229831","0.0-6.0-1.0-8.0-0.32","4","3","3","4","2","3","3","2","3","3","3","2","2","4","2","4","4","2","4","2","1","2","2","2","2","1","1","1","1","1","1","0","0","0","1","1","1","0","0","1","0","1","0","1","5","1","4","1","4","2","4","","4","2","2","746306344851869697","李","534","","","","","","","","","","","","","","","","","","","","","","","","","","","","","","","","","","","","","","","","","",""
"715","<p style=""color:rgb(150, 250, 100); font-size: 35px;"">本人的</p>","e","categorize-html","173","230546","0.0-6.0-1.0-8.0-1.32","4","3","3","4","2","3","3","2","3","3","3","2","2","4","2","4","4","2","4","2","1","2","2","2","2","1","1","1","1","1","1","0","0","0","1","1","1","0","0","1","0","1","0","1","5","1","4","1","4","2","4","","4","2","2","746306344851869697","李","534","","","","","","","","","","","","","","","","","","","true","14","4","moral","715","self","本人的","","","","","","","","","","","","","","","","",""
"null","","null","html-keyboard-response","174","230799","0.0-6.0-1.0-8.0-0.33","4","3","3","4","2","3","3","2","3","3","3","2","2","4","2","4","4","2","4","2","1","2","2","2","2","1","1","1","1","1","1","0","0","0","1","1","1","0","0","1","0","1","0","1","5","1","4","1","4","2","4","","4","2","2","746306344851869697","李","534","","","","","","","","","","","","","","","","","","","","","","","","","","","","","","","","","","","","","","","","","",""
"615","<p style=""color:white; font-size: 35px;"">正直</p>","i","categorize-html","175","231415","0.0-6.0-1.0-8.0-1.33","4","3","3","4","2","3","3","2","3","3","3","2","2","4","2","4","4","2","4","2","1","2","2","2","2","1","1","1","1","1","1","0","0","0","1","1","1","0","0","1","0","1","0","1","5","1","4","1","4","2","4","","4","2","2","746306344851869697","李","534","","","","","","","","","","","","","","","","","","","true","14","4","moral","615","positive","正直","","","","","","","","","","","","","","","","",""
"null","","null","html-keyboard-response","176","231665","0.0-6.0-1.0-8.0-0.34","4","3","3","4","2","3","3","2","3","3","3","2","2","4","2","4","4","2","4","2","1","2","2","2","2","1","1","1","1","1","1","0","0","0","1","1","1","0","0","1","0","1","0","1","5","1","4","1","4","2","4","","4","2","2","746306344851869697","李","534","","","","","","","","","","","","","","","","","","","","","","","","","","","","","","","","","","","","","","","","","",""
"579","<p style=""color:rgb(150, 250, 100); font-size: 35px;"">别人</p>","i","categorize-html","177","232245","0.0-6.0-1.0-8.0-1.34","4","3","3","4","2","3","3","2","3","3","3","2","2","4","2","4","4","2","4","2","1","2","2","2","2","1","1","1","1","1","1","0","0","0","1","1","1","0","0","1","0","1","0","1","5","1","4","1","4","2","4","","4","2","2","746306344851869697","李","534","","","","","","","","","","","","","","","","","","","true","14","4","moral","579","other","别人","","","","","","","","","","","","","","","","",""
"null","","null","html-keyboard-response","178","232495","0.0-6.0-1.0-8.0-0.35","4","3","3","4","2","3","3","2","3","3","3","2","2","4","2","4","4","2","4","2","1","2","2","2","2","1","1","1","1","1","1","0","0","0","1","1","1","0","0","1","0","1","0","1","5","1","4","1","4","2","4","","4","2","2","746306344851869697","李","534","","","","","","","","","","","","","","","","","","","","","","","","","","","","","","","","","","","","","","","","","",""
"585","<p style=""color:white; font-size: 35px;"">缺德</p>","i","categorize-html","179","233382","0.0-6.0-1.0-8.0-1.35","4","3","3","4","2","3","3","2","3","3","3","2","2","4","2","4","4","2","4","2","1","2","2","2","2","1","1","1","1","1","1","0","0","0","1","1","1","0","0","1","0","1","0","1","5","1","4","1","4","2","4","","4","2","2","746306344851869697","李","534","","","","","","","","","","","","","","","","","","","false","14","4","moral","1276.046511627907","negative","缺德","","","","","","","","","","","","","","","","",""
"null","","null","html-keyboard-response","180","233634","0.0-6.0-1.0-8.0-0.36","4","3","3","4","2","3","3","2","3","3","3","2","2","4","2","4","4","2","4","2","1","2","2","2","2","1","1","1","1","1","1","0","0","0","1","1","1","0","0","1","0","1","0","1","5","1","4","1","4","2","4","","4","2","2","746306344851869697","李","534","","","","","","","","","","","","","","","","","","","","","","","","","","","","","","","","","","","","","","","","","",""
"518","<p style=""color:rgb(150, 250, 100); font-size: 35px;"">他人</p>","i","categorize-html","181","234152","0.0-6.0-1.0-8.0-1.36","4","3","3","4","2","3","3","2","3","3","3","2","2","4","2","4","4","2","4","2","1","2","2","2","2","1","1","1","1","1","1","0","0","0","1","1","1","0","0","1","0","1","0","1","5","1","4","1","4","2","4","","4","2","2","746306344851869697","李","534","","","","","","","","","","","","","","","","","","","true","14","4","moral","518","other","他人","","","","","","","","","","","","","","","","",""
"null","","null","html-keyboard-response","182","234406","0.0-6.0-1.0-8.0-0.37","4","3","3","4","2","3","3","2","3","3","3","2","2","4","2","4","4","2","4","2","1","2","2","2","2","1","1","1","1","1","1","0","0","0","1","1","1","0","0","1","0","1","0","1","5","1","4","1","4","2","4","","4","2","2","746306344851869697","李","534","","","","","","","","","","","","","","","","","","","","","","","","","","","","","","","","","","","","","","","","","",""
"1925","<p style=""color:white; font-size: 35px;"">正直</p>","i","categorize-html","183","236332","0.0-6.0-1.0-8.0-1.37","4","3","3","4","2","3","3","2","3","3","3","2","2","4","2","4","4","2","4","2","1","2","2","2","2","1","1","1","1","1","1","0","0","0","1","1","1","0","0","1","0","1","0","1","5","1","4","1","4","2","4","","4","2","2","746306344851869697","李","534","","","","","","","","","","","","","","","","","","","true","14","4","moral","1925","positive","正直","","","","","","","","","","","","","","","","",""
"null","","null","html-keyboard-response","184","236583","0.0-6.0-1.0-8.0-0.38","4","3","3","4","2","3","3","2","3","3","3","2","2","4","2","4","4","2","4","2","1","2","2","2","2","1","1","1","1","1","1","0","0","0","1","1","1","0","0","1","0","1","0","1","5","1","4","1","4","2","4","","4","2","2","746306344851869697","李","534","","","","","","","","","","","","","","","","","","","","","","","","","","","","","","","","","","","","","","","","","",""
"779","<p style=""color:rgb(150, 250, 100); font-size: 35px;"">自己</p>","e","categorize-html","185","237363","0.0-6.0-1.0-8.0-1.38","4","3","3","4","2","3","3","2","3","3","3","2","2","4","2","4","4","2","4","2","1","2","2","2","2","1","1","1","1","1","1","0","0","0","1","1","1","0","0","1","0","1","0","1","5","1","4","1","4","2","4","","4","2","2","746306344851869697","李","534","","","","","","","","","","","","","","","","","","","true","14","4","moral","779","self","自己","","","","","","","","","","","","","","","","",""
"null","","null","html-keyboard-response","186","237614","0.0-6.0-1.0-8.0-0.39","4","3","3","4","2","3","3","2","3","3","3","2","2","4","2","4","4","2","4","2","1","2","2","2","2","1","1","1","1","1","1","0","0","0","1","1","1","0","0","1","0","1","0","1","5","1","4","1","4","2","4","","4","2","2","746306344851869697","李","534","","","","","","","","","","","","","","","","","","","","","","","","","","","","","","","","","","","","","","","","","",""
"696","<p style=""color:white; font-size: 35px;"">小人</p>","e","categorize-html","187","238310","0.0-6.0-1.0-8.0-1.39","4","3","3","4","2","3","3","2","3","3","3","2","2","4","2","4","4","2","4","2","1","2","2","2","2","1","1","1","1","1","1","0","0","0","1","1","1","0","0","1","0","1","0","1","5","1","4","1","4","2","4","","4","2","2","746306344851869697","李","534","","","","","","","","","","","","","","","","","","","true","14","4","moral","696","negative","小人","","","","","","","","","","","","","","","","",""
"null","","null","html-keyboard-response","188","238563","0.0-6.0-1.0-8.0-0.40","4","3","3","4","2","3","3","2","3","3","3","2","2","4","2","4","4","2","4","2","1","2","2","2","2","1","1","1","1","1","1","0","0","0","1","1","1","0","0","1","0","1","0","1","5","1","4","1","4","2","4","","4","2","2","746306344851869697","李","534","","","","","","","","","","","","","","","","","","","","","","","","","","","","","","","","","","","","","","","","","",""
"653","<p style=""color:rgb(150, 250, 100); font-size: 35px;"">他人的</p>","i","categorize-html","189","239216","0.0-6.0-1.0-8.0-1.40","4","3","3","4","2","3","3","2","3","3","3","2","2","4","2","4","4","2","4","2","1","2","2","2","2","1","1","1","1","1","1","0","0","0","1","1","1","0","0","1","0","1","0","1","5","1","4","1","4","2","4","","4","2","2","746306344851869697","李","534","","","","","","","","","","","","","","","","","","","true","14","4","moral","653","other","他人的","","","","","","","","","","","","","","","","",""
"null","","null","html-keyboard-response","190","239467","0.0-6.0-1.0-8.0-0.41","4","3","3","4","2","3","3","2","3","3","3","2","2","4","2","4","4","2","4","2","1","2","2","2","2","1","1","1","1","1","1","0","0","0","1","1","1","0","0","1","0","1","0","1","5","1","4","1","4","2","4","","4","2","2","746306344851869697","李","534","","","","","","","","","","","","","","","","","","","","","","","","","","","","","","","","","","","","","","","","","",""
"540","<p style=""color:white; font-size: 35px;"">不孝</p>","e","categorize-html","191","240008","0.0-6.0-1.0-8.0-1.41","4","3","3","4","2","3","3","2","3","3","3","2","2","4","2","4","4","2","4","2","1","2","2","2","2","1","1","1","1","1","1","0","0","0","1","1","1","0","0","1","0","1","0","1","5","1","4","1","4","2","4","","4","2","2","746306344851869697","李","534","","","","","","","","","","","","","","","","","","","true","14","4","moral","540","negative","不孝","","","","","","","","","","","","","","","","",""
"null","","null","html-keyboard-response","192","240259","0.0-6.0-1.0-8.0-0.42","4","3","3","4","2","3","3","2","3","3","3","2","2","4","2","4","4","2","4","2","1","2","2","2","2","1","1","1","1","1","1","0","0","0","1","1","1","0","0","1","0","1","0","1","5","1","4","1","4","2","4","","4","2","2","746306344851869697","李","534","","","","","","","","","","","","","","","","","","","","","","","","","","","","","","","","","","","","","","","","","",""
"427","<p style=""color:rgb(150, 250, 100); font-size: 35px;"">自己</p>","e","categorize-html","193","240687","0.0-6.0-1.0-8.0-1.42","4","3","3","4","2","3","3","2","3","3","3","2","2","4","2","4","4","2","4","2","1","2","2","2","2","1","1","1","1","1","1","0","0","0","1","1","1","0","0","1","0","1","0","1","5","1","4","1","4","2","4","","4","2","2","746306344851869697","李","534","","","","","","","","","","","","","","","","","","","true","14","4","moral","427","self","自己","","","","","","","","","","","","","","","","",""
