"rt","stimulus","response","trial_type","trial_index","time_elapsed","internal_node_id","ses_1","ses_2","ses_3","ses_4","ses_5","ses_6","ses_7","ses_8","ses_9","ses_10","coreself_1","coreself_2","coreself_3","coreself_4","coreself_5","coreself_6","coreself_7","coreself_8","coreself_9","coreself_10","SGPS_1","SGPS_2","SGPS_3","SGPS_4","SGPS_5","SGPS_6","SGPS_7","SGPS_8","SGPS_9","NPI1","NPI2","NPI3","NPI4","NPI5","NPI6","NPI7","NPI8","NPI9","NPI10","NPI11","NPI12","NPI13","NPI14","NPI15","hsns_1","hsns_2","hsns_3","hsns_4","hsns_5","trap1","hsns_6","hsns_7","hsns_8","hsns_9","hsns_10","subj_idx","friend_name","ParticipantID","value","success","user_agent","responses","item_order","radio_event_ids","radio_event_times","key_event_times","mouse_event_times","straightlining","zigzagging","honeypot","timeout","failed_images","failed_audio","failed_video","view_history","response_type","key_press","avg_frame_time","center_x","center_y","correct_response","correct","identity","Image","word","condition","task_id","screen_id","time_stamp","version_attrib2","version_target2","IAT","RT","varname","summary","version_attrib","version_target","question_order","correct_answer","trap1_item"
"30233","
   <p><div style = ""color: white;font-size:25px;"">您好，欢迎参加本次实验。</div> </p>
   <p><div style = ""color: white;font-size:25px;"">为充分保障您的权利，请确保您已经知晓并同意《参与实验同意书》以及《数据公开知情同意书》。</div></p>
   <p><div style = ""color: white;font-size:25px;"">如果您未见过上述内容，请咨询实验员。</div></p>
   <p><div style = ""color: white;font-size:25px;"">如果您选择继续实验，则表示您已经清楚两份知情同意书的内容并同意。</div></p>
   <p><div style = ""color: pink;font-size:30px;"">请确保您记得day0的实验编号，您将在本次实验输入该编号，若您忘记，请咨询实验员后作答。</div></p>
   <p><div style = ""color: lightblue;font-size:25px;"">请您尽可能认真地作答，我们将依据您在各问卷和按键任务中的作答质量发放报酬。</div></p>
   <p> <div style = ""color: green;font-size:25px;""><按空格键至下页></div> </p>
   "," ","html-keyboard-response","0","30238","0.0-0.0","3","3","3","3","1","3","3","3","4","3","4","4","2","4","4","4","4","4","4","5","4","5","4","4","5","4","4","4","5","1","0","1","1","0","0","1","1","1","1","1","0","1","0","1","4","2","1","3","2","2","3","2","1","4","2","776797303246950402","韦","279","","","","","","","","","","","","","","","","","","","","","","","","","","","","","","","","","","","","","","","","","",""
"","","","call-function","1","30240","0.0-1.0-0.0","3","3","3","3","1","3","3","3","4","3","4","4","2","4","4","4","4","4","4","5","4","5","4","4","5","4","4","4","5","1","0","1","1","0","0","1","1","1","1","1","0","1","0","1","4","2","1","3","2","2","3","2","1","4","2","776797303246950402","韦","279","","","","","","","","","","","","","","","","","","","","","","","","","","","","","","","","","","","","","","","","","",""
"33547","","{""friend_name"":""韦"",""ParticipantID"":""279""}","survey-html-form","2","63789","0.0-1.0-1.0","3","3","3","3","1","3","3","3","4","3","4","4","2","4","4","4","4","4","4","5","4","5","4","4","5","4","4","4","5","1","0","1","1","0","0","1","1","1","1","1","0","1","0","1","4","2","1","3","2","2","3","2","1","4","2","776797303246950402","韦","279","","","","","","","","","","","","","","","","","","","","","","","","","","","","","","","","","","","","","","","","","",""
"","","","fullscreen","3","81000","0.0-2.0","3","3","3","3","1","3","3","3","4","3","4","4","2","4","4","4","4","4","4","5","4","5","4","4","5","4","4","4","5","1","0","1","1","0","0","1","1","1","1","1","0","1","0","1","4","2","1","3","2","2","3","2","1","4","2","776797303246950402","韦","279","","true","{}","","","","","","","","","","","","","","","","","","","","","","","","","","","","","","","","","","","","","","",""
"71709.6000000001","","{""Q01"":""3"",""Q02"":""3"",""Q03"":""3"",""Q04"":""3"",""Q05"":""1"",""Q06"":""3"",""Q07"":""3"",""Q08"":""3"",""Q09"":""4"",""Q10"":""3""}","survey-template","4","152717","0.0-3.0","3","3","3","3","1","3","3","3","4","3","4","4","2","4","4","4","4","4","4","5","4","5","4","4","5","4","4","4","5","1","0","1","1","0","0","1","1","1","1","1","0","1","0","1","4","2","1","3","2","2","3","2","1","4","2","776797303246950402","韦","279","","","","{""Q01"":""3"",""Q02"":""3"",""Q03"":""3"",""Q04"":""3"",""Q05"":""1"",""Q06"":""3"",""Q07"":""3"",""Q08"":""3"",""Q09"":""4"",""Q10"":""3""}","[0,1,2,3,4,5,6,7,8,9]","[""Q01"",""Q02"",""Q03"",""Q04"",""Q05"",""Q06"",""Q07"",""Q04"",""Q04"",""Q05"",""Q08"",""Q09"",""Q10"",""Q10""]","[6874.399999999907,13668.299999999814,15064.600000000093,19394.299999999814,23706.100000000093,24418.299999999814,28843.899999999907,29528,34942,35662.19999999972,51968.39999999991,54287.89999999991,57057.5,59053.89999999991]","[]","[6874.399999999907,12736.399999999907,13668.299999999814,15064.600000000093,19394.299999999814,23706.100000000093,24418.299999999814,27036,28843.899999999907,29528,34942,35662.19999999972,51968.39999999991,54287.89999999991,55472.10000000009,55697.60000000009,57057.5,58757.69999999972,59053.89999999991,71706.19999999972]","0.5","0.7777777777777778","0","","","","","","","","","","","","","","","","","","","","","","","","","","","","","",""
"98003.5","","{""Q01"":""4"",""Q02"":""4"",""Q03"":""2"",""Q04"":""4"",""Q05"":""4"",""Q06"":""4"",""Q07"":""4"",""Q08"":""4"",""Q09"":""4"",""Q10"":""5""}","survey-template","5","250733","0.0-4.0","3","3","3","3","1","3","3","3","4","3","4","4","2","4","4","4","4","4","4","5","4","5","4","4","5","4","4","4","5","1","0","1","1","0","0","1","1","1","1","1","0","1","0","1","4","2","1","3","2","2","3","2","1","4","2","776797303246950402","韦","279","","","","{""Q01"":""4"",""Q02"":""4"",""Q03"":""2"",""Q04"":""4"",""Q05"":""4"",""Q06"":""4"",""Q07"":""4"",""Q08"":""4"",""Q09"":""4"",""Q10"":""5""}","[0,1,2,3,4,5,6,7,8,9]","[""Q01"",""Q02"",""Q03"",""Q04"",""Q05"",""Q06"",""Q07"",""Q08"",""Q09"",""Q10""]","[4010.6999999997206,21824.299999999814,25744.19999999972,33154.39999999991,35748.19999999972,38516.10000000009,40250.19999999972,43738,47736,50300]","[]","[4010.6999999997206,21824.299999999814,25744.19999999972,33154.39999999991,35748.19999999972,38516.10000000009,40250.19999999972,43738,47736,49775.89999999991,50300,98000.6000000001]","0.5","0","0","","","","","","","","","","","","","","","","","","","","","","","","","","","","","",""
"","","","preload","6","250998","0.0-5.0","3","3","3","3","1","3","3","3","4","3","4","4","2","4","4","4","4","4","4","5","4","5","4","4","5","4","4","4","5","1","0","1","1","0","0","1","1","1","1","1","0","1","0","1","4","2","1","3","2","2","3","2","1","4","2","776797303246950402","韦","279","","true","","","","","","","","","","","false","[]","[]","[]","","","","","","","","","","","","","","","","","","","","","","","","","",""
"33162","","","instructions","7","284163","0.0-6.0","3","3","3","3","1","3","3","3","4","3","4","4","2","4","4","4","4","4","4","5","4","5","4","4","5","4","4","4","5","1","0","1","1","0","0","1","1","1","1","1","0","1","0","1","4","2","1","3","2","2","3","2","1","4","2","776797303246950402","韦","279","","","","","","","","","","","","","","","","","[{""page_index"":0,""viewing_time"":33162}]","","","","","","","","","","","","","","","","","","","","","","","","",""
"37586","","","instructions","8","321751","0.0-7.0-1.0-0.0","3","3","3","3","1","3","3","3","4","3","4","4","2","4","4","4","4","4","4","5","4","5","4","4","5","4","4","4","5","1","0","1","1","0","0","1","1","1","1","1","0","1","0","1","4","2","1","3","2","2","3","2","1","4","2","776797303246950402","韦","279","","","","","","","","","","","","","","","","","[{""page_index"":0,""viewing_time"":24313},{""page_index"":1,""viewing_time"":10996},{""page_index"":2,""viewing_time"":2276}]","","","","","","","","","","","","","","","","","","","","","","","","",""
"null","","null","psychophysics","9","323962","0.0-7.0-1.0-1.0-0.0-0.0","3","3","3","3","1","3","3","3","4","3","4","4","2","4","4","4","4","4","4","5","4","5","4","4","5","4","4","4","5","1","0","1","1","0","0","1","1","1","1","1","0","1","0","1","4","2","1","3","2","2","3","2","1","4","2","776797303246950402","韦","279","","","","null","","","","","","","","","","","","","","key","null","17.251559055117912","683","380","j","false","match","img/square.png","方形","方形","ALT1_2","prac_ALT1_2","","","","","","","","","","","",""
"null","<span class='add_' style='color:yellow; font-size: 70px;'> 太慢! </span>","null","html-keyboard-response","10","324464","0.0-7.0-1.0-1.0-0.0-1.0","3","3","3","3","1","3","3","3","4","3","4","4","2","4","4","4","4","4","4","5","4","5","4","4","5","4","4","4","5","1","0","1","1","0","0","1","1","1","1","1","0","1","0","1","4","2","1","3","2","2","3","2","1","4","2","776797303246950402","韦","279","","","","","","","","","","","","","","","","","","","","","","","","","","","","","","feedback_test","","","","","","","","","","","",""
"506","","j","psychophysics","11","325972","0.0-7.0-1.0-1.0-0.0-0.1","3","3","3","3","1","3","3","3","4","3","4","4","2","4","4","4","4","4","4","5","4","5","4","4","5","4","4","4","5","1","0","1","1","0","0","1","1","1","1","1","0","1","0","1","4","2","1","3","2","2","3","2","1","4","2","776797303246950402","韦","279","","","","match","","","","","","","","","","","","","","key","j","16.91664772727315","683","380","f","false","nonmatch","img/square.png","菱形","方形","ALT1_2","prac_ALT1_2","","","","","","","","","","","",""
"null","<span style='color:red; font-size: 70px;'>错误! </span>","null","html-keyboard-response","12","326474","0.0-7.0-1.0-1.0-0.0-1.1","3","3","3","3","1","3","3","3","4","3","4","4","2","4","4","4","4","4","4","5","4","5","4","4","5","4","4","4","5","1","0","1","1","0","0","1","1","1","1","1","0","1","0","1","4","2","1","3","2","2","3","2","1","4","2","776797303246950402","韦","279","","","","","","","","","","","","","","","","","","","","","","","","","","","","","","feedback_test","","","","","","","","","","","",""
"746","","f","psychophysics","13","328221","0.0-7.0-1.0-1.0-0.0-0.2","3","3","3","3","1","3","3","3","4","3","4","4","2","4","4","4","4","4","4","5","4","5","4","4","5","4","4","4","5","1","0","1","1","0","0","1","1","1","1","1","0","1","0","1","4","2","1","3","2","2","3","2","1","4","2","776797303246950402","韦","279","","","","nonmatch","","","","","","","","","","","","","","key","f","16.887883495145537","683","380","j","false","match","img/hexagon.png","六边","六边","ALT1_2","prac_ALT1_2","","","","","","","","","","","",""
"null","<span style='color:red; font-size: 70px;'>错误! </span>","null","html-keyboard-response","14","328723","0.0-7.0-1.0-1.0-0.0-1.2","3","3","3","3","1","3","3","3","4","3","4","4","2","4","4","4","4","4","4","5","4","5","4","4","5","4","4","4","5","1","0","1","1","0","0","1","1","1","1","1","0","1","0","1","4","2","1","3","2","2","3","2","1","4","2","776797303246950402","韦","279","","","","","","","","","","","","","","","","","","","","","","","","","","","","","","feedback_test","","","","","","","","","","","",""
"927","","j","psychophysics","15","330653","0.0-7.0-1.0-1.0-0.0-0.3","3","3","3","3","1","3","3","3","4","3","4","4","2","4","4","4","4","4","4","5","4","5","4","4","5","4","4","4","5","1","0","1","1","0","0","1","1","1","1","1","0","1","0","1","4","2","1","3","2","2","3","2","1","4","2","776797303246950402","韦","279","","","","match","","","","","","","","","","","","","","key","j","16.874964601769776","683","380","j","true","match","img/hexagon.png","六边","六边","ALT1_2","prac_ALT1_2","","","","","","","","","","","",""
"null","<span style='color:GreenYellow; font-size: 70px;'>正确! </span>","null","html-keyboard-response","16","331154","0.0-7.0-1.0-1.0-0.0-1.3","3","3","3","3","1","3","3","3","4","3","4","4","2","4","4","4","4","4","4","5","4","5","4","4","5","4","4","4","5","1","0","1","1","0","0","1","1","1","1","1","0","1","0","1","4","2","1","3","2","2","3","2","1","4","2","776797303246950402","韦","279","","","","","","","","","","","","","","","","","","","","","","","","","","","","","","feedback_test","","","","","","","","","","","",""
"1131","","j","psychophysics","17","333287","0.0-7.0-1.0-1.0-0.0-0.4","3","3","3","3","1","3","3","3","4","3","4","4","2","4","4","4","4","4","4","5","4","5","4","4","5","4","4","4","5","1","0","1","1","0","0","1","1","1","1","1","0","1","0","1","4","2","1","3","2","2","3","2","1","4","2","776797303246950402","韦","279","","","","match","","","","","","","","","","","","","","key","j","16.724023809523917","683","380","f","false","nonmatch","img/diamond.png","六边","菱形","ALT1_2","prac_ALT1_2","","","","","","","","","","","",""
"null","<span style='color:red; font-size: 70px;'>错误! </span>","null","html-keyboard-response","18","333789","0.0-7.0-1.0-1.0-0.0-1.4","3","3","3","3","1","3","3","3","4","3","4","4","2","4","4","4","4","4","4","5","4","5","4","4","5","4","4","4","5","1","0","1","1","0","0","1","1","1","1","1","0","1","0","1","4","2","1","3","2","2","3","2","1","4","2","776797303246950402","韦","279","","","","","","","","","","","","","","","","","","","","","","","","","","","","","","feedback_test","","","","","","","","","","","",""
"780","","j","psychophysics","19","335572","0.0-7.0-1.0-1.0-0.0-0.5","3","3","3","3","1","3","3","3","4","3","4","4","2","4","4","4","4","4","4","5","4","5","4","4","5","4","4","4","5","1","0","1","1","0","0","1","1","1","1","1","0","1","0","1","4","2","1","3","2","2","3","2","1","4","2","776797303246950402","韦","279","","","","match","","","","","","","","","","","","","","key","j","16.72632380952349","683","380","j","true","match","img/square.png","方形","方形","ALT1_2","prac_ALT1_2","","","","","","","","","","","",""
"null","<span style='color:GreenYellow; font-size: 70px;'>正确! </span>","null","html-keyboard-response","20","336073","0.0-7.0-1.0-1.0-0.0-1.5","3","3","3","3","1","3","3","3","4","3","4","4","2","4","4","4","4","4","4","5","4","5","4","4","5","4","4","4","5","1","0","1","1","0","0","1","1","1","1","1","0","1","0","1","4","2","1","3","2","2","3","2","1","4","2","776797303246950402","韦","279","","","","","","","","","","","","","","","","","","","","","","","","","","","","","","feedback_test","","","","","","","","","","","",""
"970","","f","psychophysics","21","338044","0.0-7.0-1.0-1.0-0.0-0.6","3","3","3","3","1","3","3","3","4","3","4","4","2","4","4","4","4","4","4","5","4","5","4","4","5","4","4","4","5","1","0","1","1","0","0","1","1","1","1","1","0","1","0","1","4","2","1","3","2","2","3","2","1","4","2","776797303246950402","韦","279","","","","nonmatch","","","","","","","","","","","","","","key","f","16.725487179487533","683","380","f","true","nonmatch","img/square.png","六边","方形","ALT1_2","prac_ALT1_2","","","","","","","","","","","",""
"null","<span style='color:GreenYellow; font-size: 70px;'>正确! </span>","null","html-keyboard-response","22","338546","0.0-7.0-1.0-1.0-0.0-1.6","3","3","3","3","1","3","3","3","4","3","4","4","2","4","4","4","4","4","4","5","4","5","4","4","5","4","4","4","5","1","0","1","1","0","0","1","1","1","1","1","0","1","0","1","4","2","1","3","2","2","3","2","1","4","2","776797303246950402","韦","279","","","","","","","","","","","","","","","","","","","","","","","","","","","","","","feedback_test","","","","","","","","","","","",""
"946","","j","psychophysics","23","340494","0.0-7.0-1.0-1.0-0.0-0.7","3","3","3","3","1","3","3","3","4","3","4","4","2","4","4","4","4","4","4","5","4","5","4","4","5","4","4","4","5","1","0","1","1","0","0","1","1","1","1","1","0","1","0","1","4","2","1","3","2","2","3","2","1","4","2","776797303246950402","韦","279","","","","match","","","","","","","","","","","","","","key","j","17.49268807339431","683","380","j","true","match","img/diamond.png","菱形","菱形","ALT1_2","prac_ALT1_2","","","","","","","","","","","",""
"null","<span style='color:GreenYellow; font-size: 70px;'>正确! </span>","null","html-keyboard-response","24","340996","0.0-7.0-1.0-1.0-0.0-1.7","3","3","3","3","1","3","3","3","4","3","4","4","2","4","4","4","4","4","4","5","4","5","4","4","5","4","4","4","5","1","0","1","1","0","0","1","1","1","1","1","0","1","0","1","4","2","1","3","2","2","3","2","1","4","2","776797303246950402","韦","279","","","","","","","","","","","","","","","","","","","","","","","","","","","","","","feedback_test","","","","","","","","","","","",""
"797","","j","psychophysics","25","342796","0.0-7.0-1.0-1.0-0.0-0.8","3","3","3","3","1","3","3","3","4","3","4","4","2","4","4","4","4","4","4","5","4","5","4","4","5","4","4","4","5","1","0","1","1","0","0","1","1","1","1","1","0","1","0","1","4","2","1","3","2","2","3","2","1","4","2","776797303246950402","韦","279","","","","match","","","","","","","","","","","","","","key","j","16.721207547169573","683","380","j","true","match","img/circle.png","圆形","圆形","ALT1_2","prac_ALT1_2","","","","","","","","","","","",""
"null","<span style='color:GreenYellow; font-size: 70px;'>正确! </span>","null","html-keyboard-response","26","343298","0.0-7.0-1.0-1.0-0.0-1.8","3","3","3","3","1","3","3","3","4","3","4","4","2","4","4","4","4","4","4","5","4","5","4","4","5","4","4","4","5","1","0","1","1","0","0","1","1","1","1","1","0","1","0","1","4","2","1","3","2","2","3","2","1","4","2","776797303246950402","韦","279","","","","","","","","","","","","","","","","","","","","","","","","","","","","","","feedback_test","","","","","","","","","","","",""
"968","","j","psychophysics","27","345268","0.0-7.0-1.0-1.0-0.0-0.9","3","3","3","3","1","3","3","3","4","3","4","4","2","4","4","4","4","4","4","5","4","5","4","4","5","4","4","4","5","1","0","1","1","0","0","1","1","1","1","1","0","1","0","1","4","2","1","3","2","2","3","2","1","4","2","776797303246950402","韦","279","","","","match","","","","","","","","","","","","","","key","j","16.72419658119683","683","380","j","true","match","img/diamond.png","菱形","菱形","ALT1_2","prac_ALT1_2","","","","","","","","","","","",""
"null","<span style='color:GreenYellow; font-size: 70px;'>正确! </span>","null","html-keyboard-response","28","345769","0.0-7.0-1.0-1.0-0.0-1.9","3","3","3","3","1","3","3","3","4","3","4","4","2","4","4","4","4","4","4","5","4","5","4","4","5","4","4","4","5","1","0","1","1","0","0","1","1","1","1","1","0","1","0","1","4","2","1","3","2","2","3","2","1","4","2","776797303246950402","韦","279","","","","","","","","","","","","","","","","","","","","","","","","","","","","","","feedback_test","","","","","","","","","","","",""
"null","","null","psychophysics","29","347974","0.0-7.0-1.0-1.0-0.0-0.10","3","3","3","3","1","3","3","3","4","3","4","4","2","4","4","4","4","4","4","5","4","5","4","4","5","4","4","4","5","1","0","1","1","0","0","1","1","1","1","1","0","1","0","1","4","2","1","3","2","2","3","2","1","4","2","776797303246950402","韦","279","","","","null","","","","","","","","","","","","","","key","null","16.724755725191056","683","380","f","false","nonmatch","img/hexagon.png","圆形","六边","ALT1_2","prac_ALT1_2","","","","","","","","","","","",""
"null","<span class='add_' style='color:yellow; font-size: 70px;'> 太慢! </span>","null","html-keyboard-response","30","348475","0.0-7.0-1.0-1.0-0.0-1.10","3","3","3","3","1","3","3","3","4","3","4","4","2","4","4","4","4","4","4","5","4","5","4","4","5","4","4","4","5","1","0","1","1","0","0","1","1","1","1","1","0","1","0","1","4","2","1","3","2","2","3","2","1","4","2","776797303246950402","韦","279","","","","","","","","","","","","","","","","","","","","","","","","","","","","","","feedback_test","","","","","","","","","","","",""
"911","","f","psychophysics","31","350397","0.0-7.0-1.0-1.0-0.0-0.11","3","3","3","3","1","3","3","3","4","3","4","4","2","4","4","4","4","4","4","5","4","5","4","4","5","4","4","4","5","1","0","1","1","0","0","1","1","1","1","1","0","1","0","1","4","2","1","3","2","2","3","2","1","4","2","776797303246950402","韦","279","","","","nonmatch","","","","","","","","","","","","","","key","f","16.725131578947185","683","380","f","true","nonmatch","img/diamond.png","圆形","菱形","ALT1_2","prac_ALT1_2","","","","","","","","","","","",""
"null","<span style='color:GreenYellow; font-size: 70px;'>正确! </span>","null","html-keyboard-response","32","350899","0.0-7.0-1.0-1.0-0.0-1.11","3","3","3","3","1","3","3","3","4","3","4","4","2","4","4","4","4","4","4","5","4","5","4","4","5","4","4","4","5","1","0","1","1","0","0","1","1","1","1","1","0","1","0","1","4","2","1","3","2","2","3","2","1","4","2","776797303246950402","韦","279","","","","","","","","","","","","","","","","","","","","","","","","","","","","","","feedback_test","","","","","","","","","","","",""
"696","","j","psychophysics","33","352596","0.0-7.0-1.0-1.0-0.0-0.12","3","3","3","3","1","3","3","3","4","3","4","4","2","4","4","4","4","4","4","5","4","5","4","4","5","4","4","4","5","1","0","1","1","0","0","1","1","1","1","1","0","1","0","1","4","2","1","3","2","2","3","2","1","4","2","776797303246950402","韦","279","","","","match","","","","","","","","","","","","","","key","j","16.724710000000197","683","380","j","true","match","img/circle.png","圆形","圆形","ALT1_2","prac_ALT1_2","","","","","","","","","","","",""
"null","<span style='color:GreenYellow; font-size: 70px;'>正确! </span>","null","html-keyboard-response","34","353098","0.0-7.0-1.0-1.0-0.0-1.12","3","3","3","3","1","3","3","3","4","3","4","4","2","4","4","4","4","4","4","5","4","5","4","4","5","4","4","4","5","1","0","1","1","0","0","1","1","1","1","1","0","1","0","1","4","2","1","3","2","2","3","2","1","4","2","776797303246950402","韦","279","","","","","","","","","","","","","","","","","","","","","","","","","","","","","","feedback_test","","","","","","","","","","","",""
"824","","f","psychophysics","35","354924","0.0-7.0-1.0-1.0-0.0-0.13","3","3","3","3","1","3","3","3","4","3","4","4","2","4","4","4","4","4","4","5","4","5","4","4","5","4","4","4","5","1","0","1","1","0","0","1","1","1","1","1","0","1","0","1","4","2","1","3","2","2","3","2","1","4","2","776797303246950402","韦","279","","","","nonmatch","","","","","","","","","","","","","","key","f","16.88257009345792","683","380","f","true","nonmatch","img/hexagon.png","方形","六边","ALT1_2","prac_ALT1_2","","","","","","","","","","","",""
"null","<span style='color:GreenYellow; font-size: 70px;'>正确! </span>","null","html-keyboard-response","36","355430","0.0-7.0-1.0-1.0-0.0-1.13","3","3","3","3","1","3","3","3","4","3","4","4","2","4","4","4","4","4","4","5","4","5","4","4","5","4","4","4","5","1","0","1","1","0","0","1","1","1","1","1","0","1","0","1","4","2","1","3","2","2","3","2","1","4","2","776797303246950402","韦","279","","","","","","","","","","","","","","","","","","","","","","","","","","","","","","feedback_test","","","","","","","","","","","",""
"777","","j","psychophysics","37","357212","0.0-7.0-1.0-1.0-0.0-0.14","3","3","3","3","1","3","3","3","4","3","4","4","2","4","4","4","4","4","4","5","4","5","4","4","5","4","4","4","5","1","0","1","1","0","0","1","1","1","1","1","0","1","0","1","4","2","1","3","2","2","3","2","1","4","2","776797303246950402","韦","279","","","","match","","","","","","","","","","","","","","key","j","16.72475238095226","683","380","j","true","match","img/circle.png","圆形","圆形","ALT1_2","prac_ALT1_2","","","","","","","","","","","",""
"null","<span style='color:GreenYellow; font-size: 70px;'>正确! </span>","null","html-keyboard-response","38","357713","0.0-7.0-1.0-1.0-0.0-1.14","3","3","3","3","1","3","3","3","4","3","4","4","2","4","4","4","4","4","4","5","4","5","4","4","5","4","4","4","5","1","0","1","1","0","0","1","1","1","1","1","0","1","0","1","4","2","1","3","2","2","3","2","1","4","2","776797303246950402","韦","279","","","","","","","","","","","","","","","","","","","","","","","","","","","","","","feedback_test","","","","","","","","","","","",""
"897","","f","psychophysics","39","359612","0.0-7.0-1.0-1.0-0.0-0.15","3","3","3","3","1","3","3","3","4","3","4","4","2","4","4","4","4","4","4","5","4","5","4","4","5","4","4","4","5","1","0","1","1","0","0","1","1","1","1","1","0","1","0","1","4","2","1","3","2","2","3","2","1","4","2","776797303246950402","韦","279","","","","nonmatch","","","","","","","","","","","","","","key","f","16.724238938052903","683","380","f","true","nonmatch","img/diamond.png","方形","菱形","ALT1_2","prac_ALT1_2","","","","","","","","","","","",""
"null","<span style='color:GreenYellow; font-size: 70px;'>正确! </span>","null","html-keyboard-response","40","360113","0.0-7.0-1.0-1.0-0.0-1.15","3","3","3","3","1","3","3","3","4","3","4","4","2","4","4","4","4","4","4","5","4","5","4","4","5","4","4","4","5","1","0","1","1","0","0","1","1","1","1","1","0","1","0","1","4","2","1","3","2","2","3","2","1","4","2","776797303246950402","韦","279","","","","","","","","","","","","","","","","","","","","","","","","","","","","","","feedback_test","","","","","","","","","","","",""
"729","","f","psychophysics","41","361844","0.0-7.0-1.0-1.0-0.0-0.16","3","3","3","3","1","3","3","3","4","3","4","4","2","4","4","4","4","4","4","5","4","5","4","4","5","4","4","4","5","1","0","1","1","0","0","1","1","1","1","1","0","1","0","1","4","2","1","3","2","2","3","2","1","4","2","776797303246950402","韦","279","","","","nonmatch","","","","","","","","","","","","","","key","f","17.058190000000177","683","380","f","true","nonmatch","img/circle.png","六边","圆形","ALT1_2","prac_ALT1_2","","","","","","","","","","","",""
"null","<span style='color:GreenYellow; font-size: 70px;'>正确! </span>","null","html-keyboard-response","42","362347","0.0-7.0-1.0-1.0-0.0-1.16","3","3","3","3","1","3","3","3","4","3","4","4","2","4","4","4","4","4","4","5","4","5","4","4","5","4","4","4","5","1","0","1","1","0","0","1","1","1","1","1","0","1","0","1","4","2","1","3","2","2","3","2","1","4","2","776797303246950402","韦","279","","","","","","","","","","","","","","","","","","","","","","","","","","","","","","feedback_test","","","","","","","","","","","",""
"1096","","f","psychophysics","43","364445","0.0-7.0-1.0-1.0-0.0-0.17","3","3","3","3","1","3","3","3","4","3","4","4","2","4","4","4","4","4","4","5","4","5","4","4","5","4","4","4","5","1","0","1","1","0","0","1","1","1","1","1","0","1","0","1","4","2","1","3","2","2","3","2","1","4","2","776797303246950402","韦","279","","","","nonmatch","","","","","","","","","","","","","","key","f","16.72536666666662","683","380","f","true","nonmatch","img/hexagon.png","菱形","六边","ALT1_2","prac_ALT1_2","","","","","","","","","","","",""
"null","<span style='color:GreenYellow; font-size: 70px;'>正确! </span>","null","html-keyboard-response","44","364947","0.0-7.0-1.0-1.0-0.0-1.17","3","3","3","3","1","3","3","3","4","3","4","4","2","4","4","4","4","4","4","5","4","5","4","4","5","4","4","4","5","1","0","1","1","0","0","1","1","1","1","1","0","1","0","1","4","2","1","3","2","2","3","2","1","4","2","776797303246950402","韦","279","","","","","","","","","","","","","","","","","","","","","","","","","","","","","","feedback_test","","","","","","","","","","","",""
"806","","f","psychophysics","45","366756","0.0-7.0-1.0-1.0-0.0-0.18","3","3","3","3","1","3","3","3","4","3","4","4","2","4","4","4","4","4","4","5","4","5","4","4","5","4","4","4","5","1","0","1","1","0","0","1","1","1","1","1","0","1","0","1","4","2","1","3","2","2","3","2","1","4","2","776797303246950402","韦","279","","","","nonmatch","","","","","","","","","","","","","","key","f","16.727280373831398","683","380","f","true","nonmatch","img/square.png","圆形","方形","ALT1_2","prac_ALT1_2","","","","","","","","","","","",""
"null","<span style='color:GreenYellow; font-size: 70px;'>正确! </span>","null","html-keyboard-response","46","367258","0.0-7.0-1.0-1.0-0.0-1.18","3","3","3","3","1","3","3","3","4","3","4","4","2","4","4","4","4","4","4","5","4","5","4","4","5","4","4","4","5","1","0","1","1","0","0","1","1","1","1","1","0","1","0","1","4","2","1","3","2","2","3","2","1","4","2","776797303246950402","韦","279","","","","","","","","","","","","","","","","","","","","","","","","","","","","","","feedback_test","","","","","","","","","","","",""
"737","","f","psychophysics","47","368996","0.0-7.0-1.0-1.0-0.0-0.19","3","3","3","3","1","3","3","3","4","3","4","4","2","4","4","4","4","4","4","5","4","5","4","4","5","4","4","4","5","1","0","1","1","0","0","1","1","1","1","1","0","1","0","1","4","2","1","3","2","2","3","2","1","4","2","776797303246950402","韦","279","","","","nonmatch","","","","","","","","","","","","","","key","f","16.72585436893238","683","380","f","true","nonmatch","img/circle.png","菱形","圆形","ALT1_2","prac_ALT1_2","","","","","","","","","","","",""
"null","<span style='color:GreenYellow; font-size: 70px;'>正确! </span>","null","html-keyboard-response","48","369498","0.0-7.0-1.0-1.0-0.0-1.19","3","3","3","3","1","3","3","3","4","3","4","4","2","4","4","4","4","4","4","5","4","5","4","4","5","4","4","4","5","1","0","1","1","0","0","1","1","1","1","1","0","1","0","1","4","2","1","3","2","2","3","2","1","4","2","776797303246950402","韦","279","","","","","","","","","","","","","","","","","","","","","","","","","","","","","","feedback_test","","","","","","","","","","","",""
"719","","f","psychophysics","49","371220","0.0-7.0-1.0-1.0-0.0-0.20","3","3","3","3","1","3","3","3","4","3","4","4","2","4","4","4","4","4","4","5","4","5","4","4","5","4","4","4","5","1","0","1","1","0","0","1","1","1","1","1","0","1","0","1","4","2","1","3","2","2","3","2","1","4","2","776797303246950402","韦","279","","","","nonmatch","","","","","","","","","","","","","","key","f","16.72426470588235","683","380","f","true","nonmatch","img/circle.png","方形","圆形","ALT1_2","prac_ALT1_2","","","","","","","","","","","",""
"null","<span style='color:GreenYellow; font-size: 70px;'>正确! </span>","null","html-keyboard-response","50","371722","0.0-7.0-1.0-1.0-0.0-1.20","3","3","3","3","1","3","3","3","4","3","4","4","2","4","4","4","4","4","4","5","4","5","4","4","5","4","4","4","5","1","0","1","1","0","0","1","1","1","1","1","0","1","0","1","4","2","1","3","2","2","3","2","1","4","2","776797303246950402","韦","279","","","","","","","","","","","","","","","","","","","","","","","","","","","","","","feedback_test","","","","","","","","","","","",""
"953","","j","psychophysics","51","373677","0.0-7.0-1.0-1.0-0.0-0.21","3","3","3","3","1","3","3","3","4","3","4","4","2","4","4","4","4","4","4","5","4","5","4","4","5","4","4","4","5","1","0","1","1","0","0","1","1","1","1","1","0","1","0","1","4","2","1","3","2","2","3","2","1","4","2","776797303246950402","韦","279","","","","match","","","","","","","","","","","","","","key","j","17.01834210526329","683","380","j","true","match","img/hexagon.png","六边","六边","ALT1_2","prac_ALT1_2","","","","","","","","","","","",""
"null","<span style='color:GreenYellow; font-size: 70px;'>正确! </span>","null","html-keyboard-response","52","374179","0.0-7.0-1.0-1.0-0.0-1.21","3","3","3","3","1","3","3","3","4","3","4","4","2","4","4","4","4","4","4","5","4","5","4","4","5","4","4","4","5","1","0","1","1","0","0","1","1","1","1","1","0","1","0","1","4","2","1","3","2","2","3","2","1","4","2","776797303246950402","韦","279","","","","","","","","","","","","","","","","","","","","","","","","","","","","","","feedback_test","","","","","","","","","","","",""
"822","","j","psychophysics","53","376004","0.0-7.0-1.0-1.0-0.0-0.22","3","3","3","3","1","3","3","3","4","3","4","4","2","4","4","4","4","4","4","5","4","5","4","4","5","4","4","4","5","1","0","1","1","0","0","1","1","1","1","1","0","1","0","1","4","2","1","3","2","2","3","2","1","4","2","776797303246950402","韦","279","","","","match","","","","","","","","","","","","","","key","j","16.725129629629752","683","380","j","true","match","img/diamond.png","菱形","菱形","ALT1_2","prac_ALT1_2","","","","","","","","","","","",""
"null","<span style='color:GreenYellow; font-size: 70px;'>正确! </span>","null","html-keyboard-response","54","376506","0.0-7.0-1.0-1.0-0.0-1.22","3","3","3","3","1","3","3","3","4","3","4","4","2","4","4","4","4","4","4","5","4","5","4","4","5","4","4","4","5","1","0","1","1","0","0","1","1","1","1","1","0","1","0","1","4","2","1","3","2","2","3","2","1","4","2","776797303246950402","韦","279","","","","","","","","","","","","","","","","","","","","","","","","","","","","","","feedback_test","","","","","","","","","","","",""
"922","","j","psychophysics","55","378429","0.0-7.0-1.0-1.0-0.0-0.23","3","3","3","3","1","3","3","3","4","3","4","4","2","4","4","4","4","4","4","5","4","5","4","4","5","4","4","4","5","1","0","1","1","0","0","1","1","1","1","1","0","1","0","1","4","2","1","3","2","2","3","2","1","4","2","776797303246950402","韦","279","","","","match","","","","","","","","","","","","","","key","j","16.725543859649118","683","380","j","true","match","img/square.png","方形","方形","ALT1_2","prac_ALT1_2","","","","","","","","","","","",""
"null","<span style='color:GreenYellow; font-size: 70px;'>正确! </span>","null","html-keyboard-response","56","378930","0.0-7.0-1.0-1.0-0.0-1.23","3","3","3","3","1","3","3","3","4","3","4","4","2","4","4","4","4","4","4","5","4","5","4","4","5","4","4","4","5","1","0","1","1","0","0","1","1","1","1","1","0","1","0","1","4","2","1","3","2","2","3","2","1","4","2","776797303246950402","韦","279","","","","","","","","","","","","","","","","","","","","","","","","","","","","","","feedback_test","","","","","","","","","","","",""
"951","","f","psychophysics","57","380885","0.0-7.0-1.0-1.0-0.0-0.24","3","3","3","3","1","3","3","3","4","3","4","4","2","4","4","4","4","4","4","5","4","5","4","4","5","4","4","4","5","1","0","1","1","0","0","1","1","1","1","1","0","1","0","1","4","2","1","3","2","2","3","2","1","4","2","776797303246950402","韦","279","","","","nonmatch","","","","","","","","","","","","","","key","f","16.874561403508363","683","380","f","true","nonmatch","img/hexagon.png","方形","六边","ALT1_2","prac_ALT1_2","","","","","","","","","","","",""
"null","<span style='color:GreenYellow; font-size: 70px;'>正确! </span>","null","html-keyboard-response","58","381387","0.0-7.0-1.0-1.0-0.0-1.24","3","3","3","3","1","3","3","3","4","3","4","4","2","4","4","4","4","4","4","5","4","5","4","4","5","4","4","4","5","1","0","1","1","0","0","1","1","1","1","1","0","1","0","1","4","2","1","3","2","2","3","2","1","4","2","776797303246950402","韦","279","","","","","","","","","","","","","","","","","","","","","","","","","","","","","","feedback_test","","","","","","","","","","","",""
"918","","j","psychophysics","59","383326","0.0-7.0-1.0-1.0-0.0-0.25","3","3","3","3","1","3","3","3","4","3","4","4","2","4","4","4","4","4","4","5","4","5","4","4","5","4","4","4","5","1","0","1","1","0","0","1","1","1","1","1","0","1","0","1","4","2","1","3","2","2","3","2","1","4","2","776797303246950402","韦","279","","","","match","","","","","","","","","","","","","","key","j","17.021937499999954","683","380","j","true","match","img/hexagon.png","六边","六边","ALT1_2","prac_ALT1_2","","","","","","","","","","","",""
"null","<span style='color:GreenYellow; font-size: 70px;'>正确! </span>","null","html-keyboard-response","60","383828","0.0-7.0-1.0-1.0-0.0-1.25","3","3","3","3","1","3","3","3","4","3","4","4","2","4","4","4","4","4","4","5","4","5","4","4","5","4","4","4","5","1","0","1","1","0","0","1","1","1","1","1","0","1","0","1","4","2","1","3","2","2","3","2","1","4","2","776797303246950402","韦","279","","","","","","","","","","","","","","","","","","","","","","","","","","","","","","feedback_test","","","","","","","","","","","",""
"796","","j","psychophysics","61","385628","0.0-7.0-1.0-1.0-0.0-0.26","3","3","3","3","1","3","3","3","4","3","4","4","2","4","4","4","4","4","4","5","4","5","4","4","5","4","4","4","5","1","0","1","1","0","0","1","1","1","1","1","0","1","0","1","4","2","1","3","2","2","3","2","1","4","2","776797303246950402","韦","279","","","","match","","","","","","","","","","","","","","key","j","16.88750476190499","683","380","j","true","match","img/circle.png","圆形","圆形","ALT1_2","prac_ALT1_2","","","","","","","","","","","",""
"null","<span style='color:GreenYellow; font-size: 70px;'>正确! </span>","null","html-keyboard-response","62","386129","0.0-7.0-1.0-1.0-0.0-1.26","3","3","3","3","1","3","3","3","4","3","4","4","2","4","4","4","4","4","4","5","4","5","4","4","5","4","4","4","5","1","0","1","1","0","0","1","1","1","1","1","0","1","0","1","4","2","1","3","2","2","3","2","1","4","2","776797303246950402","韦","279","","","","","","","","","","","","","","","","","","","","","","","","","","","","","","feedback_test","","","","","","","","","","","",""
"797","","j","psychophysics","63","387944","0.0-7.0-1.0-1.0-0.0-0.27","3","3","3","3","1","3","3","3","4","3","4","4","2","4","4","4","4","4","4","5","4","5","4","4","5","4","4","4","5","1","0","1","1","0","0","1","1","1","1","1","0","1","0","1","4","2","1","3","2","2","3","2","1","4","2","776797303246950402","韦","279","","","","match","","","","","","","","","","","","","","key","j","17.368096153846217","683","380","j","true","match","img/square.png","方形","方形","ALT1_2","prac_ALT1_2","","","","","","","","","","","",""
"null","<span style='color:GreenYellow; font-size: 70px;'>正确! </span>","null","html-keyboard-response","64","388447","0.0-7.0-1.0-1.0-0.0-1.27","3","3","3","3","1","3","3","3","4","3","4","4","2","4","4","4","4","4","4","5","4","5","4","4","5","4","4","4","5","1","0","1","1","0","0","1","1","1","1","1","0","1","0","1","4","2","1","3","2","2","3","2","1","4","2","776797303246950402","韦","279","","","","","","","","","","","","","","","","","","","","","","","","","","","","","","feedback_test","","","","","","","","","","","",""
"691","","f","psychophysics","65","390140","0.0-7.0-1.0-1.0-0.0-0.28","3","3","3","3","1","3","3","3","4","3","4","4","2","4","4","4","4","4","4","5","4","5","4","4","5","4","4","4","5","1","0","1","1","0","0","1","1","1","1","1","0","1","0","1","4","2","1","3","2","2","3","2","1","4","2","776797303246950402","韦","279","","","","nonmatch","","","","","","","","","","","","","","key","f","16.726659999999683","683","380","f","true","nonmatch","img/diamond.png","方形","菱形","ALT1_2","prac_ALT1_2","","","","","","","","","","","",""
"null","<span style='color:GreenYellow; font-size: 70px;'>正确! </span>","null","html-keyboard-response","66","390642","0.0-7.0-1.0-1.0-0.0-1.28","3","3","3","3","1","3","3","3","4","3","4","4","2","4","4","4","4","4","4","5","4","5","4","4","5","4","4","4","5","1","0","1","1","0","0","1","1","1","1","1","0","1","0","1","4","2","1","3","2","2","3","2","1","4","2","776797303246950402","韦","279","","","","","","","","","","","","","","","","","","","","","","","","","","","","","","feedback_test","","","","","","","","","","","",""
"971","","j","psychophysics","67","392620","0.0-7.0-1.0-1.0-0.0-0.29","3","3","3","3","1","3","3","3","4","3","4","4","2","4","4","4","4","4","4","5","4","5","4","4","5","4","4","4","5","1","0","1","1","0","0","1","1","1","1","1","0","1","0","1","4","2","1","3","2","2","3","2","1","4","2","776797303246950402","韦","279","","","","match","","","","","","","","","","","","","","key","j","16.724752136751906","683","380","f","false","nonmatch","img/hexagon.png","菱形","六边","ALT1_2","prac_ALT1_2","","","","","","","","","","","",""
"null","<span style='color:red; font-size: 70px;'>错误! </span>","null","html-keyboard-response","68","393122","0.0-7.0-1.0-1.0-0.0-1.29","3","3","3","3","1","3","3","3","4","3","4","4","2","4","4","4","4","4","4","5","4","5","4","4","5","4","4","4","5","1","0","1","1","0","0","1","1","1","1","1","0","1","0","1","4","2","1","3","2","2","3","2","1","4","2","776797303246950402","韦","279","","","","","","","","","","","","","","","","","","","","","","","","","","","","","","feedback_test","","","","","","","","","","","",""
"842","","j","psychophysics","69","394966","0.0-7.0-1.0-1.0-0.0-0.30","3","3","3","3","1","3","3","3","4","3","4","4","2","4","4","4","4","4","4","5","4","5","4","4","5","4","4","4","5","1","0","1","1","0","0","1","1","1","1","1","0","1","0","1","4","2","1","3","2","2","3","2","1","4","2","776797303246950402","韦","279","","","","match","","","","","","","","","","","","","","key","j","16.723266055045965","683","380","j","true","match","img/diamond.png","菱形","菱形","ALT1_2","prac_ALT1_2","","","","","","","","","","","",""
"null","<span style='color:GreenYellow; font-size: 70px;'>正确! </span>","null","html-keyboard-response","70","395470","0.0-7.0-1.0-1.0-0.0-1.30","3","3","3","3","1","3","3","3","4","3","4","4","2","4","4","4","4","4","4","5","4","5","4","4","5","4","4","4","5","1","0","1","1","0","0","1","1","1","1","1","0","1","0","1","4","2","1","3","2","2","3","2","1","4","2","776797303246950402","韦","279","","","","","","","","","","","","","","","","","","","","","","","","","","","","","","feedback_test","","","","","","","","","","","",""
"701","","f","psychophysics","71","397173","0.0-7.0-1.0-1.0-0.0-0.31","3","3","3","3","1","3","3","3","4","3","4","4","2","4","4","4","4","4","4","5","4","5","4","4","5","4","4","4","5","1","0","1","1","0","0","1","1","1","1","1","0","1","0","1","4","2","1","3","2","2","3","2","1","4","2","776797303246950402","韦","279","","","","nonmatch","","","","","","","","","","","","","","key","f","16.724739999999873","683","380","f","true","nonmatch","img/circle.png","六边","圆形","ALT1_2","prac_ALT1_2","","","","","","","","","","","",""
"null","<span style='color:GreenYellow; font-size: 70px;'>正确! </span>","null","html-keyboard-response","72","397676","0.0-7.0-1.0-1.0-0.0-1.31","3","3","3","3","1","3","3","3","4","3","4","4","2","4","4","4","4","4","4","5","4","5","4","4","5","4","4","4","5","1","0","1","1","0","0","1","1","1","1","1","0","1","0","1","4","2","1","3","2","2","3","2","1","4","2","776797303246950402","韦","279","","","","","","","","","","","","","","","","","","","","","","","","","","","","","","feedback_test","","","","","","","","","","","",""
"841","","j","psychophysics","73","399524","0.0-7.0-1.0-1.0-0.0-0.32","3","3","3","3","1","3","3","3","4","3","4","4","2","4","4","4","4","4","4","5","4","5","4","4","5","4","4","4","5","1","0","1","1","0","0","1","1","1","1","1","0","1","0","1","4","2","1","3","2","2","3","2","1","4","2","776797303246950402","韦","279","","","","match","","","","","","","","","","","","","","key","j","16.727224299065643","683","380","j","true","match","img/square.png","方形","方形","ALT1_2","prac_ALT1_2","","","","","","","","","","","",""
"null","<span style='color:GreenYellow; font-size: 70px;'>正确! </span>","null","html-keyboard-response","74","400025","0.0-7.0-1.0-1.0-0.0-1.32","3","3","3","3","1","3","3","3","4","3","4","4","2","4","4","4","4","4","4","5","4","5","4","4","5","4","4","4","5","1","0","1","1","0","0","1","1","1","1","1","0","1","0","1","4","2","1","3","2","2","3","2","1","4","2","776797303246950402","韦","279","","","","","","","","","","","","","","","","","","","","","","","","","","","","","","feedback_test","","","","","","","","","","","",""
"1010","","j","psychophysics","75","402037","0.0-7.0-1.0-1.0-0.0-0.33","3","3","3","3","1","3","3","3","4","3","4","4","2","4","4","4","4","4","4","5","4","5","4","4","5","4","4","4","5","1","0","1","1","0","0","1","1","1","1","1","0","1","0","1","4","2","1","3","2","2","3","2","1","4","2","776797303246950402","韦","279","","","","match","","","","","","","","","","","","","","key","j","16.868103448275964","683","380","j","true","match","img/hexagon.png","六边","六边","ALT1_2","prac_ALT1_2","","","","","","","","","","","",""
"null","<span style='color:GreenYellow; font-size: 70px;'>正确! </span>","null","html-keyboard-response","76","402539","0.0-7.0-1.0-1.0-0.0-1.33","3","3","3","3","1","3","3","3","4","3","4","4","2","4","4","4","4","4","4","5","4","5","4","4","5","4","4","4","5","1","0","1","1","0","0","1","1","1","1","1","0","1","0","1","4","2","1","3","2","2","3","2","1","4","2","776797303246950402","韦","279","","","","","","","","","","","","","","","","","","","","","","","","","","","","","","feedback_test","","","","","","","","","","","",""
"919","","f","psychophysics","77","404460","0.0-7.0-1.0-1.0-0.0-0.34","3","3","3","3","1","3","3","3","4","3","4","4","2","4","4","4","4","4","4","5","4","5","4","4","5","4","4","4","5","1","0","1","1","0","0","1","1","1","1","1","0","1","0","1","4","2","1","3","2","2","3","2","1","4","2","776797303246950402","韦","279","","","","nonmatch","","","","","","","","","","","","","","key","f","16.72421052631577","683","380","j","false","match","img/circle.png","圆形","圆形","ALT1_2","prac_ALT1_2","","","","","","","","","","","",""
"null","<span style='color:red; font-size: 70px;'>错误! </span>","null","html-keyboard-response","78","404961","0.0-7.0-1.0-1.0-0.0-1.34","3","3","3","3","1","3","3","3","4","3","4","4","2","4","4","4","4","4","4","5","4","5","4","4","5","4","4","4","5","1","0","1","1","0","0","1","1","1","1","1","0","1","0","1","4","2","1","3","2","2","3","2","1","4","2","776797303246950402","韦","279","","","","","","","","","","","","","","","","","","","","","","","","","","","","","","feedback_test","","","","","","","","","","","",""
"841","","f","psychophysics","79","406804","0.0-7.0-1.0-1.0-0.0-0.35","3","3","3","3","1","3","3","3","4","3","4","4","2","4","4","4","4","4","4","5","4","5","4","4","5","4","4","4","5","1","0","1","1","0","0","1","1","1","1","1","0","1","0","1","4","2","1","3","2","2","3","2","1","4","2","776797303246950402","韦","279","","","","nonmatch","","","","","","","","","","","","","","key","f","16.724633027522806","683","380","f","true","nonmatch","img/diamond.png","圆形","菱形","ALT1_2","prac_ALT1_2","","","","","","","","","","","",""
"null","<span style='color:GreenYellow; font-size: 70px;'>正确! </span>","null","html-keyboard-response","80","407306","0.0-7.0-1.0-1.0-0.0-1.35","3","3","3","3","1","3","3","3","4","3","4","4","2","4","4","4","4","4","4","5","4","5","4","4","5","4","4","4","5","1","0","1","1","0","0","1","1","1","1","1","0","1","0","1","4","2","1","3","2","2","3","2","1","4","2","776797303246950402","韦","279","","","","","","","","","","","","","","","","","","","","","","","","","","","","","","feedback_test","","","","","","","","","","","",""
"783","","j","psychophysics","81","409102","0.0-7.0-1.0-1.0-0.0-0.36","3","3","3","3","1","3","3","3","4","3","4","4","2","4","4","4","4","4","4","5","4","5","4","4","5","4","4","4","5","1","0","1","1","0","0","1","1","1","1","1","0","1","0","1","4","2","1","3","2","2","3","2","1","4","2","776797303246950402","韦","279","","","","match","","","","","","","","","","","","","","key","j","16.72565048543716","683","380","j","true","match","img/square.png","方形","方形","ALT1_2","prac_ALT1_2","","","","","","","","","","","",""
"null","<span style='color:GreenYellow; font-size: 70px;'>正确! </span>","null","html-keyboard-response","82","409603","0.0-7.0-1.0-1.0-0.0-1.36","3","3","3","3","1","3","3","3","4","3","4","4","2","4","4","4","4","4","4","5","4","5","4","4","5","4","4","4","5","1","0","1","1","0","0","1","1","1","1","1","0","1","0","1","4","2","1","3","2","2","3","2","1","4","2","776797303246950402","韦","279","","","","","","","","","","","","","","","","","","","","","","","","","","","","","","feedback_test","","","","","","","","","","","",""
"806","","j","psychophysics","83","411412","0.0-7.0-1.0-1.0-0.0-0.37","3","3","3","3","1","3","3","3","4","3","4","4","2","4","4","4","4","4","4","5","4","5","4","4","5","4","4","4","5","1","0","1","1","0","0","1","1","1","1","1","0","1","0","1","4","2","1","3","2","2","3","2","1","4","2","776797303246950402","韦","279","","","","match","","","","","","","","","","","","","","key","j","16.723757009345615","683","380","j","true","match","img/diamond.png","菱形","菱形","ALT1_2","prac_ALT1_2","","","","","","","","","","","",""
"null","<span style='color:GreenYellow; font-size: 70px;'>正确! </span>","null","html-keyboard-response","84","411913","0.0-7.0-1.0-1.0-0.0-1.37","3","3","3","3","1","3","3","3","4","3","4","4","2","4","4","4","4","4","4","5","4","5","4","4","5","4","4","4","5","1","0","1","1","0","0","1","1","1","1","1","0","1","0","1","4","2","1","3","2","2","3","2","1","4","2","776797303246950402","韦","279","","","","","","","","","","","","","","","","","","","","","","","","","","","","","","feedback_test","","","","","","","","","","","",""
"713","","f","psychophysics","85","413628","0.0-7.0-1.0-1.0-0.0-0.38","3","3","3","3","1","3","3","3","4","3","4","4","2","4","4","4","4","4","4","5","4","5","4","4","5","4","4","4","5","1","0","1","1","0","0","1","1","1","1","1","0","1","0","1","4","2","1","3","2","2","3","2","1","4","2","776797303246950402","韦","279","","","","nonmatch","","","","","","","","","","","","","","key","f","16.89048999999999","683","380","f","true","nonmatch","img/square.png","六边","方形","ALT1_2","prac_ALT1_2","","","","","","","","","","","",""
"null","<span style='color:GreenYellow; font-size: 70px;'>正确! </span>","null","html-keyboard-response","86","414134","0.0-7.0-1.0-1.0-0.0-1.38","3","3","3","3","1","3","3","3","4","3","4","4","2","4","4","4","4","4","4","5","4","5","4","4","5","4","4","4","5","1","0","1","1","0","0","1","1","1","1","1","0","1","0","1","4","2","1","3","2","2","3","2","1","4","2","776797303246950402","韦","279","","","","","","","","","","","","","","","","","","","","","","","","","","","","","","feedback_test","","","","","","","","","","","",""
"725","","j","psychophysics","87","415860","0.0-7.0-1.0-1.0-0.0-0.39","3","3","3","3","1","3","3","3","4","3","4","4","2","4","4","4","4","4","4","5","4","5","4","4","5","4","4","4","5","1","0","1","1","0","0","1","1","1","1","1","0","1","0","1","4","2","1","3","2","2","3","2","1","4","2","776797303246950402","韦","279","","","","match","","","","","","","","","","","","","","key","j","16.890207920792296","683","380","j","true","match","img/circle.png","圆形","圆形","ALT1_2","prac_ALT1_2","","","","","","","","","","","",""
"null","<span style='color:GreenYellow; font-size: 70px;'>正确! </span>","null","html-keyboard-response","88","416362","0.0-7.0-1.0-1.0-0.0-1.39","3","3","3","3","1","3","3","3","4","3","4","4","2","4","4","4","4","4","4","5","4","5","4","4","5","4","4","4","5","1","0","1","1","0","0","1","1","1","1","1","0","1","0","1","4","2","1","3","2","2","3","2","1","4","2","776797303246950402","韦","279","","","","","","","","","","","","","","","","","","","","","","","","","","","","","","feedback_test","","","","","","","","","","","",""
"697","","f","psychophysics","89","418060","0.0-7.0-1.0-1.0-0.0-0.40","3","3","3","3","1","3","3","3","4","3","4","4","2","4","4","4","4","4","4","5","4","5","4","4","5","4","4","4","5","1","0","1","1","0","0","1","1","1","1","1","0","1","0","1","4","2","1","3","2","2","3","2","1","4","2","776797303246950402","韦","279","","","","nonmatch","","","","","","","","","","","","","","key","f","17.06564285714305","683","380","f","true","nonmatch","img/circle.png","菱形","圆形","ALT1_2","prac_ALT1_2","","","","","","","","","","","",""
"null","<span style='color:GreenYellow; font-size: 70px;'>正确! </span>","null","html-keyboard-response","90","418564","0.0-7.0-1.0-1.0-0.0-1.40","3","3","3","3","1","3","3","3","4","3","4","4","2","4","4","4","4","4","4","5","4","5","4","4","5","4","4","4","5","1","0","1","1","0","0","1","1","1","1","1","0","1","0","1","4","2","1","3","2","2","3","2","1","4","2","776797303246950402","韦","279","","","","","","","","","","","","","","","","","","","","","","","","","","","","","","feedback_test","","","","","","","","","","","",""
"824","","j","psychophysics","91","420390","0.0-7.0-1.0-1.0-0.0-0.41","3","3","3","3","1","3","3","3","4","3","4","4","2","4","4","4","4","4","4","5","4","5","4","4","5","4","4","4","5","1","0","1","1","0","0","1","1","1","1","1","0","1","0","1","4","2","1","3","2","2","3","2","1","4","2","776797303246950402","韦","279","","","","match","","","","","","","","","","","","","","key","j","16.726611111111534","683","380","j","true","match","img/hexagon.png","六边","六边","ALT1_2","prac_ALT1_2","","","","","","","","","","","",""
"null","<span style='color:GreenYellow; font-size: 70px;'>正确! </span>","null","html-keyboard-response","92","420892","0.0-7.0-1.0-1.0-0.0-1.41","3","3","3","3","1","3","3","3","4","3","4","4","2","4","4","4","4","4","4","5","4","5","4","4","5","4","4","4","5","1","0","1","1","0","0","1","1","1","1","1","0","1","0","1","4","2","1","3","2","2","3","2","1","4","2","776797303246950402","韦","279","","","","","","","","","","","","","","","","","","","","","","","","","","","","","","feedback_test","","","","","","","","","","","",""
"889","","j","psychophysics","93","422783","0.0-7.0-1.0-1.0-0.0-0.42","3","3","3","3","1","3","3","3","4","3","4","4","2","4","4","4","4","4","4","5","4","5","4","4","5","4","4","4","5","1","0","1","1","0","0","1","1","1","1","1","0","1","0","1","4","2","1","3","2","2","3","2","1","4","2","776797303246950402","韦","279","","","","match","","","","","","","","","","","","","","key","j","16.87540540540526","683","380","j","true","match","img/diamond.png","菱形","菱形","ALT1_2","prac_ALT1_2","","","","","","","","","","","",""
"null","<span style='color:GreenYellow; font-size: 70px;'>正确! </span>","null","html-keyboard-response","94","423284","0.0-7.0-1.0-1.0-0.0-1.42","3","3","3","3","1","3","3","3","4","3","4","4","2","4","4","4","4","4","4","5","4","5","4","4","5","4","4","4","5","1","0","1","1","0","0","1","1","1","1","1","0","1","0","1","4","2","1","3","2","2","3","2","1","4","2","776797303246950402","韦","279","","","","","","","","","","","","","","","","","","","","","","","","","","","","","","feedback_test","","","","","","","","","","","",""
"805","","f","psychophysics","95","425093","0.0-7.0-1.0-1.0-0.0-0.43","3","3","3","3","1","3","3","3","4","3","4","4","2","4","4","4","4","4","4","5","4","5","4","4","5","4","4","4","5","1","0","1","1","0","0","1","1","1","1","1","0","1","0","1","4","2","1","3","2","2","3","2","1","4","2","776797303246950402","韦","279","","","","nonmatch","","","","","","","","","","","","","","key","f","16.72445192307686","683","380","f","true","nonmatch","img/hexagon.png","圆形","六边","ALT1_2","prac_ALT1_2","","","","","","","","","","","",""
"null","<span style='color:GreenYellow; font-size: 70px;'>正确! </span>","null","html-keyboard-response","96","425595","0.0-7.0-1.0-1.0-0.0-1.43","3","3","3","3","1","3","3","3","4","3","4","4","2","4","4","4","4","4","4","5","4","5","4","4","5","4","4","4","5","1","0","1","1","0","0","1","1","1","1","1","0","1","0","1","4","2","1","3","2","2","3","2","1","4","2","776797303246950402","韦","279","","","","","","","","","","","","","","","","","","","","","","","","","","","","","","feedback_test","","","","","","","","","","","",""
"743","","f","psychophysics","97","427340","0.0-7.0-1.0-1.0-0.0-0.44","3","3","3","3","1","3","3","3","4","3","4","4","2","4","4","4","4","4","4","5","4","5","4","4","5","4","4","4","5","1","0","1","1","0","0","1","1","1","1","1","0","1","0","1","4","2","1","3","2","2","3","2","1","4","2","776797303246950402","韦","279","","","","nonmatch","","","","","","","","","","","","","","key","f","17.05591089108908","683","380","f","true","nonmatch","img/circle.png","方形","圆形","ALT1_2","prac_ALT1_2","","","","","","","","","","","",""
"null","<span style='color:GreenYellow; font-size: 70px;'>正确! </span>","null","html-keyboard-response","98","427841","0.0-7.0-1.0-1.0-0.0-1.44","3","3","3","3","1","3","3","3","4","3","4","4","2","4","4","4","4","4","4","5","4","5","4","4","5","4","4","4","5","1","0","1","1","0","0","1","1","1","1","1","0","1","0","1","4","2","1","3","2","2","3","2","1","4","2","776797303246950402","韦","279","","","","","","","","","","","","","","","","","","","","","","","","","","","","","","feedback_test","","","","","","","","","","","",""
"731","","f","psychophysics","99","429573","0.0-7.0-1.0-1.0-0.0-0.45","3","3","3","3","1","3","3","3","4","3","4","4","2","4","4","4","4","4","4","5","4","5","4","4","5","4","4","4","5","1","0","1","1","0","0","1","1","1","1","1","0","1","0","1","4","2","1","3","2","2","3","2","1","4","2","776797303246950402","韦","279","","","","nonmatch","","","","","","","","","","","","","","key","f","16.726009708737674","683","380","f","true","nonmatch","img/square.png","圆形","方形","ALT1_2","prac_ALT1_2","","","","","","","","","","","",""
"null","<span style='color:GreenYellow; font-size: 70px;'>正确! </span>","null","html-keyboard-response","100","430076","0.0-7.0-1.0-1.0-0.0-1.45","3","3","3","3","1","3","3","3","4","3","4","4","2","4","4","4","4","4","4","5","4","5","4","4","5","4","4","4","5","1","0","1","1","0","0","1","1","1","1","1","0","1","0","1","4","2","1","3","2","2","3","2","1","4","2","776797303246950402","韦","279","","","","","","","","","","","","","","","","","","","","","","","","","","","","","","feedback_test","","","","","","","","","","","",""
"862","","f","psychophysics","101","431940","0.0-7.0-1.0-1.0-0.0-0.46","3","3","3","3","1","3","3","3","4","3","4","4","2","4","4","4","4","4","4","5","4","5","4","4","5","4","4","4","5","1","0","1","1","0","0","1","1","1","1","1","0","1","0","1","4","2","1","3","2","2","3","2","1","4","2","776797303246950402","韦","279","","","","nonmatch","","","","","","","","","","","","","","key","f","16.87887155963268","683","380","f","true","nonmatch","img/square.png","菱形","方形","ALT1_2","prac_ALT1_2","","","","","","","","","","","",""
"null","<span style='color:GreenYellow; font-size: 70px;'>正确! </span>","null","html-keyboard-response","102","432441","0.0-7.0-1.0-1.0-0.0-1.46","3","3","3","3","1","3","3","3","4","3","4","4","2","4","4","4","4","4","4","5","4","5","4","4","5","4","4","4","5","1","0","1","1","0","0","1","1","1","1","1","0","1","0","1","4","2","1","3","2","2","3","2","1","4","2","776797303246950402","韦","279","","","","","","","","","","","","","","","","","","","","","","","","","","","","","","feedback_test","","","","","","","","","","","",""
"817","","j","psychophysics","103","434260","0.0-7.0-1.0-1.0-0.0-0.47","3","3","3","3","1","3","3","3","4","3","4","4","2","4","4","4","4","4","4","5","4","5","4","4","5","4","4","4","5","1","0","1","1","0","0","1","1","1","1","1","0","1","0","1","4","2","1","3","2","2","3","2","1","4","2","776797303246950402","韦","279","","","","match","","","","","","","","","","","","","","key","j","17.203857142856855","683","380","f","false","nonmatch","img/diamond.png","六边","菱形","ALT1_2","prac_ALT1_2","","","","","","","","","","","",""
"null","<span style='color:red; font-size: 70px;'>错误! </span>","null","html-keyboard-response","104","434761","0.0-7.0-1.0-1.0-0.0-1.47","3","3","3","3","1","3","3","3","4","3","4","4","2","4","4","4","4","4","4","5","4","5","4","4","5","4","4","4","5","1","0","1","1","0","0","1","1","1","1","1","0","1","0","1","4","2","1","3","2","2","3","2","1","4","2","776797303246950402","韦","279","","","","","","","","","","","","","","","","","","","","","","","","","","","","","","feedback_test","","","","","","","","","","","",""
"11479","<style>.context{color:white; font-size: 35px; line-height:40px}</style>                          <div><p class='context'>您正确回答了83% 的试次。</p><p class='context'>您的平均反应时为831毫秒。</p><p class='context'>恭喜您完成练习。按空格键进入正式实验。</p><p class='footer' style='font-size: 35px; line-height:40px;'>请在进入正式实验实验之前将您的<span style='color: lightgreen;'>食指</span>放在电脑键盘的相应键位上进行按键。</p>"," ","html-keyboard-response","105","446245","0.0-7.0-1.0-2.0","3","3","3","3","1","3","3","3","4","3","4","4","2","4","4","4","4","4","4","5","4","5","4","4","5","4","4","4","5","1","0","1","1","0","0","1","1","1","1","1","0","1","0","1","4","2","1","3","2","2","3","2","1","4","2","776797303246950402","韦","279","","","","","","","","","","","","","","","","","","","","","","","","","","","","","","","","","","","","","","","","","",""
"3336","
  <p style='color: white; font-size: 22px'>请您将手指放在按键上，准备进入正式的匹配任务。</p>
  <p> <div style = ""color: green""><按空格键进入下一阶段的匹配任务></div></p>
  "," ","html-keyboard-response","106","449588","0.0-7.0-1.0-3.0","3","3","3","3","1","3","3","3","4","3","4","4","2","4","4","4","4","4","4","5","4","5","4","4","5","4","4","4","5","1","0","1","1","0","0","1","1","1","1","1","0","1","0","1","4","2","1","3","2","2","3","2","1","4","2","776797303246950402","韦","279","","","","","","","","","","","","","","","","","","","","","","","","","","","","","","","","","","","","","","","","","",""
"879","","f","psychophysics","107","451468","0.0-7.0-1.0-4.0-0.0-0.0","3","3","3","3","1","3","3","3","4","3","4","4","2","4","4","4","4","4","4","5","4","5","4","4","5","4","4","4","5","1","0","1","1","0","0","1","1","1","1","1","0","1","0","1","4","2","1","3","2","2","3","2","1","4","2","776797303246950402","韦","279","","","","nonmatch","","","","","","","","","","","","","","key","f","16.72015315315294","683","380","f","true","nonmatch","img/diamond.png","六边","菱形","ALT1","formal_ALT1_2","","","","","","","","","","","",""
"null","<span style='color:GreenYellow; font-size: 70px;'>正确! </span>","null","html-keyboard-response","108","451969","0.0-7.0-1.0-4.0-0.0-1.0","3","3","3","3","1","3","3","3","4","3","4","4","2","4","4","4","4","4","4","5","4","5","4","4","5","4","4","4","5","1","0","1","1","0","0","1","1","1","1","1","0","1","0","1","4","2","1","3","2","2","3","2","1","4","2","776797303246950402","韦","279","","","","","","","","","","","","","","","","","","","","","","","","","","","","","","feedback_test","","","","","","","","","","","",""
"769","","f","psychophysics","109","453740","0.0-7.0-1.0-4.0-0.0-0.1","3","3","3","3","1","3","3","3","4","3","4","4","2","4","4","4","4","4","4","5","4","5","4","4","5","4","4","4","5","1","0","1","1","0","0","1","1","1","1","1","0","1","0","1","4","2","1","3","2","2","3","2","1","4","2","776797303246950402","韦","279","","","","nonmatch","","","","","","","","","","","","","","key","f","16.725238095238318","683","380","f","true","nonmatch","img/hexagon.png","圆形","六边","ALT1","formal_ALT1_2","","","","","","","","","","","",""
"null","<span style='color:GreenYellow; font-size: 70px;'>正确! </span>","null","html-keyboard-response","110","454241","0.0-7.0-1.0-4.0-0.0-1.1","3","3","3","3","1","3","3","3","4","3","4","4","2","4","4","4","4","4","4","5","4","5","4","4","5","4","4","4","5","1","0","1","1","0","0","1","1","1","1","1","0","1","0","1","4","2","1","3","2","2","3","2","1","4","2","776797303246950402","韦","279","","","","","","","","","","","","","","","","","","","","","","","","","","","","","","feedback_test","","","","","","","","","","","",""
"770","","j","psychophysics","111","456014","0.0-7.0-1.0-4.0-0.0-0.2","3","3","3","3","1","3","3","3","4","3","4","4","2","4","4","4","4","4","4","5","4","5","4","4","5","4","4","4","5","1","0","1","1","0","0","1","1","1","1","1","0","1","0","1","4","2","1","3","2","2","3","2","1","4","2","776797303246950402","韦","279","","","","match","","","","","","","","","","","","","","key","j","16.726114285713994","683","380","j","true","match","img/diamond.png","菱形","菱形","ALT1","formal_ALT1_2","","","","","","","","","","","",""
"null","<span style='color:GreenYellow; font-size: 70px;'>正确! </span>","null","html-keyboard-response","112","456515","0.0-7.0-1.0-4.0-0.0-1.2","3","3","3","3","1","3","3","3","4","3","4","4","2","4","4","4","4","4","4","5","4","5","4","4","5","4","4","4","5","1","0","1","1","0","0","1","1","1","1","1","0","1","0","1","4","2","1","3","2","2","3","2","1","4","2","776797303246950402","韦","279","","","","","","","","","","","","","","","","","","","","","","","","","","","","","","feedback_test","","","","","","","","","","","",""
"792","","j","psychophysics","113","458308","0.0-7.0-1.0-4.0-0.0-0.3","3","3","3","3","1","3","3","3","4","3","4","4","2","4","4","4","4","4","4","5","4","5","4","4","5","4","4","4","5","1","0","1","1","0","0","1","1","1","1","1","0","1","0","1","4","2","1","3","2","2","3","2","1","4","2","776797303246950402","韦","279","","","","match","","","","","","","","","","","","","","key","j","16.66841509433975","683","380","j","true","match","img/diamond.png","菱形","菱形","ALT1","formal_ALT1_2","","","","","","","","","","","",""
"null","<span style='color:GreenYellow; font-size: 70px;'>正确! </span>","null","html-keyboard-response","114","458810","0.0-7.0-1.0-4.0-0.0-1.3","3","3","3","3","1","3","3","3","4","3","4","4","2","4","4","4","4","4","4","5","4","5","4","4","5","4","4","4","5","1","0","1","1","0","0","1","1","1","1","1","0","1","0","1","4","2","1","3","2","2","3","2","1","4","2","776797303246950402","韦","279","","","","","","","","","","","","","","","","","","","","","","","","","","","","","","feedback_test","","","","","","","","","","","",""
"771","","j","psychophysics","115","460584","0.0-7.0-1.0-4.0-0.0-0.4","3","3","3","3","1","3","3","3","4","3","4","4","2","4","4","4","4","4","4","5","4","5","4","4","5","4","4","4","5","1","0","1","1","0","0","1","1","1","1","1","0","1","0","1","4","2","1","3","2","2","3","2","1","4","2","776797303246950402","韦","279","","","","match","","","","","","","","","","","","","","key","j","16.94513461538456","683","380","j","true","match","img/diamond.png","菱形","菱形","ALT1","formal_ALT1_2","","","","","","","","","","","",""
"null","<span style='color:GreenYellow; font-size: 70px;'>正确! </span>","null","html-keyboard-response","116","461086","0.0-7.0-1.0-4.0-0.0-1.4","3","3","3","3","1","3","3","3","4","3","4","4","2","4","4","4","4","4","4","5","4","5","4","4","5","4","4","4","5","1","0","1","1","0","0","1","1","1","1","1","0","1","0","1","4","2","1","3","2","2","3","2","1","4","2","776797303246950402","韦","279","","","","","","","","","","","","","","","","","","","","","","","","","","","","","","feedback_test","","","","","","","","","","","",""
"790","","j","psychophysics","117","462877","0.0-7.0-1.0-4.0-0.0-0.5","3","3","3","3","1","3","3","3","4","3","4","4","2","4","4","4","4","4","4","5","4","5","4","4","5","4","4","4","5","1","0","1","1","0","0","1","1","1","1","1","0","1","0","1","4","2","1","3","2","2","3","2","1","4","2","776797303246950402","韦","279","","","","match","","","","","","","","","","","","","","key","j","17.049796116505004","683","380","j","true","match","img/circle.png","圆形","圆形","ALT1","formal_ALT1_2","","","","","","","","","","","",""
"null","<span style='color:GreenYellow; font-size: 70px;'>正确! </span>","null","html-keyboard-response","118","463378","0.0-7.0-1.0-4.0-0.0-1.5","3","3","3","3","1","3","3","3","4","3","4","4","2","4","4","4","4","4","4","5","4","5","4","4","5","4","4","4","5","1","0","1","1","0","0","1","1","1","1","1","0","1","0","1","4","2","1","3","2","2","3","2","1","4","2","776797303246950402","韦","279","","","","","","","","","","","","","","","","","","","","","","","","","","","","","","feedback_test","","","","","","","","","","","",""
"668","","f","psychophysics","119","465047","0.0-7.0-1.0-4.0-0.0-0.6","3","3","3","3","1","3","3","3","4","3","4","4","2","4","4","4","4","4","4","5","4","5","4","4","5","4","4","4","5","1","0","1","1","0","0","1","1","1","1","1","0","1","0","1","4","2","1","3","2","2","3","2","1","4","2","776797303246950402","韦","279","","","","nonmatch","","","","","","","","","","","","","","key","f","16.723464646464862","683","380","f","true","nonmatch","img/circle.png","六边","圆形","ALT1","formal_ALT1_2","","","","","","","","","","","",""
"null","<span style='color:GreenYellow; font-size: 70px;'>正确! </span>","null","html-keyboard-response","120","465548","0.0-7.0-1.0-4.0-0.0-1.6","3","3","3","3","1","3","3","3","4","3","4","4","2","4","4","4","4","4","4","5","4","5","4","4","5","4","4","4","5","1","0","1","1","0","0","1","1","1","1","1","0","1","0","1","4","2","1","3","2","2","3","2","1","4","2","776797303246950402","韦","279","","","","","","","","","","","","","","","","","","","","","","","","","","","","","","feedback_test","","","","","","","","","","","",""
"896","","j","psychophysics","121","467454","0.0-7.0-1.0-4.0-0.0-0.7","3","3","3","3","1","3","3","3","4","3","4","4","2","4","4","4","4","4","4","5","4","5","4","4","5","4","4","4","5","1","0","1","1","0","0","1","1","1","1","1","0","1","0","1","4","2","1","3","2","2","3","2","1","4","2","776797303246950402","韦","279","","","","match","","","","","","","","","","","","","","key","j","16.879499999999773","683","380","j","true","match","img/hexagon.png","六边","六边","ALT1","formal_ALT1_2","","","","","","","","","","","",""
"null","<span style='color:GreenYellow; font-size: 70px;'>正确! </span>","null","html-keyboard-response","122","467955","0.0-7.0-1.0-4.0-0.0-1.7","3","3","3","3","1","3","3","3","4","3","4","4","2","4","4","4","4","4","4","5","4","5","4","4","5","4","4","4","5","1","0","1","1","0","0","1","1","1","1","1","0","1","0","1","4","2","1","3","2","2","3","2","1","4","2","776797303246950402","韦","279","","","","","","","","","","","","","","","","","","","","","","","","","","","","","","feedback_test","","","","","","","","","","","",""
"813","","f","psychophysics","123","469773","0.0-7.0-1.0-4.0-0.0-0.8","3","3","3","3","1","3","3","3","4","3","4","4","2","4","4","4","4","4","4","5","4","5","4","4","5","4","4","4","5","1","0","1","1","0","0","1","1","1","1","1","0","1","0","1","4","2","1","3","2","2","3","2","1","4","2","776797303246950402","韦","279","","","","nonmatch","","","","","","","","","","","","","","key","f","16.881333333333135","683","380","f","true","nonmatch","img/square.png","菱形","方形","ALT1","formal_ALT1_2","","","","","","","","","","","",""
"null","<span style='color:GreenYellow; font-size: 70px;'>正确! </span>","null","html-keyboard-response","124","470275","0.0-7.0-1.0-4.0-0.0-1.8","3","3","3","3","1","3","3","3","4","3","4","4","2","4","4","4","4","4","4","5","4","5","4","4","5","4","4","4","5","1","0","1","1","0","0","1","1","1","1","1","0","1","0","1","4","2","1","3","2","2","3","2","1","4","2","776797303246950402","韦","279","","","","","","","","","","","","","","","","","","","","","","","","","","","","","","feedback_test","","","","","","","","","","","",""
"888","","f","psychophysics","125","472165","0.0-7.0-1.0-4.0-0.0-0.9","3","3","3","3","1","3","3","3","4","3","4","4","2","4","4","4","4","4","4","5","4","5","4","4","5","4","4","4","5","1","0","1","1","0","0","1","1","1","1","1","0","1","0","1","4","2","1","3","2","2","3","2","1","4","2","776797303246950402","韦","279","","","","nonmatch","","","","","","","","","","","","","","key","f","16.7249285714284","683","380","f","true","nonmatch","img/hexagon.png","菱形","六边","ALT1","formal_ALT1_2","","","","","","","","","","","",""
"null","<span style='color:GreenYellow; font-size: 70px;'>正确! </span>","null","html-keyboard-response","126","472666","0.0-7.0-1.0-4.0-0.0-1.9","3","3","3","3","1","3","3","3","4","3","4","4","2","4","4","4","4","4","4","5","4","5","4","4","5","4","4","4","5","1","0","1","1","0","0","1","1","1","1","1","0","1","0","1","4","2","1","3","2","2","3","2","1","4","2","776797303246950402","韦","279","","","","","","","","","","","","","","","","","","","","","","","","","","","","","","feedback_test","","","","","","","","","","","",""
"768","","j","psychophysics","127","474437","0.0-7.0-1.0-4.0-0.0-0.10","3","3","3","3","1","3","3","3","4","3","4","4","2","4","4","4","4","4","4","5","4","5","4","4","5","4","4","4","5","1","0","1","1","0","0","1","1","1","1","1","0","1","0","1","4","2","1","3","2","2","3","2","1","4","2","776797303246950402","韦","279","","","","match","","","","","","","","","","","","","","key","j","16.72708571428555","683","380","j","true","match","img/hexagon.png","六边","六边","ALT1","formal_ALT1_2","","","","","","","","","","","",""
"null","<span style='color:GreenYellow; font-size: 70px;'>正确! </span>","null","html-keyboard-response","128","474939","0.0-7.0-1.0-4.0-0.0-1.10","3","3","3","3","1","3","3","3","4","3","4","4","2","4","4","4","4","4","4","5","4","5","4","4","5","4","4","4","5","1","0","1","1","0","0","1","1","1","1","1","0","1","0","1","4","2","1","3","2","2","3","2","1","4","2","776797303246950402","韦","279","","","","","","","","","","","","","","","","","","","","","","","","","","","","","","feedback_test","","","","","","","","","","","",""
"640","","j","psychophysics","129","476581","0.0-7.0-1.0-4.0-0.0-0.11","3","3","3","3","1","3","3","3","4","3","4","4","2","4","4","4","4","4","4","5","4","5","4","4","5","4","4","4","5","1","0","1","1","0","0","1","1","1","1","1","0","1","0","1","4","2","1","3","2","2","3","2","1","4","2","776797303246950402","韦","279","","","","match","","","","","","","","","","","","","","key","j","16.72492783505184","683","380","f","false","nonmatch","img/diamond.png","圆形","菱形","ALT1","formal_ALT1_2","","","","","","","","","","","",""
"null","<span style='color:red; font-size: 70px;'>错误! </span>","null","html-keyboard-response","130","477082","0.0-7.0-1.0-4.0-0.0-1.11","3","3","3","3","1","3","3","3","4","3","4","4","2","4","4","4","4","4","4","5","4","5","4","4","5","4","4","4","5","1","0","1","1","0","0","1","1","1","1","1","0","1","0","1","4","2","1","3","2","2","3","2","1","4","2","776797303246950402","韦","279","","","","","","","","","","","","","","","","","","","","","","","","","","","","","","feedback_test","","","","","","","","","","","",""
"737","","j","psychophysics","131","478821","0.0-7.0-1.0-4.0-0.0-0.12","3","3","3","3","1","3","3","3","4","3","4","4","2","4","4","4","4","4","4","5","4","5","4","4","5","4","4","4","5","1","0","1","1","0","0","1","1","1","1","1","0","1","0","1","4","2","1","3","2","2","3","2","1","4","2","776797303246950402","韦","279","","","","match","","","","","","","","","","","","","","key","j","16.890401960784278","683","380","j","true","match","img/circle.png","圆形","圆形","ALT1","formal_ALT1_2","","","","","","","","","","","",""
"null","<span style='color:GreenYellow; font-size: 70px;'>正确! </span>","null","html-keyboard-response","132","479322","0.0-7.0-1.0-4.0-0.0-1.12","3","3","3","3","1","3","3","3","4","3","4","4","2","4","4","4","4","4","4","5","4","5","4","4","5","4","4","4","5","1","0","1","1","0","0","1","1","1","1","1","0","1","0","1","4","2","1","3","2","2","3","2","1","4","2","776797303246950402","韦","279","","","","","","","","","","","","","","","","","","","","","","","","","","","","","","feedback_test","","","","","","","","","","","",""
"802","","f","psychophysics","133","481125","0.0-7.0-1.0-4.0-0.0-0.13","3","3","3","3","1","3","3","3","4","3","4","4","2","4","4","4","4","4","4","5","4","5","4","4","5","4","4","4","5","1","0","1","1","0","0","1","1","1","1","1","0","1","0","1","4","2","1","3","2","2","3","2","1","4","2","776797303246950402","韦","279","","","","nonmatch","","","","","","","","","","","","","","key","f","16.889774509803757","683","380","f","true","nonmatch","img/square.png","六边","方形","ALT1","formal_ALT1_2","","","","","","","","","","","",""
"null","<span style='color:GreenYellow; font-size: 70px;'>正确! </span>","null","html-keyboard-response","134","481626","0.0-7.0-1.0-4.0-0.0-1.13","3","3","3","3","1","3","3","3","4","3","4","4","2","4","4","4","4","4","4","5","4","5","4","4","5","4","4","4","5","1","0","1","1","0","0","1","1","1","1","1","0","1","0","1","4","2","1","3","2","2","3","2","1","4","2","776797303246950402","韦","279","","","","","","","","","","","","","","","","","","","","","","","","","","","","","","feedback_test","","","","","","","","","","","",""
"753","","j","psychophysics","135","483381","0.0-7.0-1.0-4.0-0.0-0.14","3","3","3","3","1","3","3","3","4","3","4","4","2","4","4","4","4","4","4","5","4","5","4","4","5","4","4","4","5","1","0","1","1","0","0","1","1","1","1","1","0","1","0","1","4","2","1","3","2","2","3","2","1","4","2","776797303246950402","韦","279","","","","match","","","","","","","","","","","","","","key","j","16.726394230769074","683","380","j","true","match","img/hexagon.png","六边","六边","ALT1","formal_ALT1_2","","","","","","","","","","","",""
"null","<span style='color:GreenYellow; font-size: 70px;'>正确! </span>","null","html-keyboard-response","136","483882","0.0-7.0-1.0-4.0-0.0-1.14","3","3","3","3","1","3","3","3","4","3","4","4","2","4","4","4","4","4","4","5","4","5","4","4","5","4","4","4","5","1","0","1","1","0","0","1","1","1","1","1","0","1","0","1","4","2","1","3","2","2","3","2","1","4","2","776797303246950402","韦","279","","","","","","","","","","","","","","","","","","","","","","","","","","","","","","feedback_test","","","","","","","","","","","",""
"826","","j","psychophysics","137","485718","0.0-7.0-1.0-4.0-0.0-0.15","3","3","3","3","1","3","3","3","4","3","4","4","2","4","4","4","4","4","4","5","4","5","4","4","5","4","4","4","5","1","0","1","1","0","0","1","1","1","1","1","0","1","0","1","4","2","1","3","2","2","3","2","1","4","2","776797303246950402","韦","279","","","","match","","","","","","","","","","","","","","key","j","16.72706481481469","683","380","j","true","match","img/square.png","方形","方形","ALT1","formal_ALT1_2","","","","","","","","","","","",""
"null","<span style='color:GreenYellow; font-size: 70px;'>正确! </span>","null","html-keyboard-response","138","486220","0.0-7.0-1.0-4.0-0.0-1.15","3","3","3","3","1","3","3","3","4","3","4","4","2","4","4","4","4","4","4","5","4","5","4","4","5","4","4","4","5","1","0","1","1","0","0","1","1","1","1","1","0","1","0","1","4","2","1","3","2","2","3","2","1","4","2","776797303246950402","韦","279","","","","","","","","","","","","","","","","","","","","","","","","","","","","","","feedback_test","","","","","","","","","","","",""
"725","","f","psychophysics","139","487949","0.0-7.0-1.0-4.0-0.0-0.16","3","3","3","3","1","3","3","3","4","3","4","4","2","4","4","4","4","4","4","5","4","5","4","4","5","4","4","4","5","1","0","1","1","0","0","1","1","1","1","1","0","1","0","1","4","2","1","3","2","2","3","2","1","4","2","776797303246950402","韦","279","","","","nonmatch","","","","","","","","","","","","","","key","f","16.72455555555585","683","380","f","true","nonmatch","img/circle.png","菱形","圆形","ALT1","formal_ALT1_2","","","","","","","","","","","",""
"null","<span style='color:GreenYellow; font-size: 70px;'>正确! </span>","null","html-keyboard-response","140","488450","0.0-7.0-1.0-4.0-0.0-1.16","3","3","3","3","1","3","3","3","4","3","4","4","2","4","4","4","4","4","4","5","4","5","4","4","5","4","4","4","5","1","0","1","1","0","0","1","1","1","1","1","0","1","0","1","4","2","1","3","2","2","3","2","1","4","2","776797303246950402","韦","279","","","","","","","","","","","","","","","","","","","","","","","","","","","","","","feedback_test","","","","","","","","","","","",""
"728","","j","psychophysics","141","490183","0.0-7.0-1.0-4.0-0.0-0.17","3","3","3","3","1","3","3","3","4","3","4","4","2","4","4","4","4","4","4","5","4","5","4","4","5","4","4","4","5","1","0","1","1","0","0","1","1","1","1","1","0","1","0","1","4","2","1","3","2","2","3","2","1","4","2","776797303246950402","韦","279","","","","match","","","","","","","","","","","","","","key","j","16.72367961165095","683","380","j","true","match","img/square.png","方形","方形","ALT1","formal_ALT1_2","","","","","","","","","","","",""
"null","<span style='color:GreenYellow; font-size: 70px;'>正确! </span>","null","html-keyboard-response","142","490685","0.0-7.0-1.0-4.0-0.0-1.17","3","3","3","3","1","3","3","3","4","3","4","4","2","4","4","4","4","4","4","5","4","5","4","4","5","4","4","4","5","1","0","1","1","0","0","1","1","1","1","1","0","1","0","1","4","2","1","3","2","2","3","2","1","4","2","776797303246950402","韦","279","","","","","","","","","","","","","","","","","","","","","","","","","","","","","","feedback_test","","","","","","","","","","","",""
"747","","f","psychophysics","143","492437","0.0-7.0-1.0-4.0-0.0-0.18","3","3","3","3","1","3","3","3","4","3","4","4","2","4","4","4","4","4","4","5","4","5","4","4","5","4","4","4","5","1","0","1","1","0","0","1","1","1","1","1","0","1","0","1","4","2","1","3","2","2","3","2","1","4","2","776797303246950402","韦","279","","","","nonmatch","","","","","","","","","","","","","","key","f","16.72483495145627","683","380","f","true","nonmatch","img/hexagon.png","方形","六边","ALT1","formal_ALT1_2","","","","","","","","","","","",""
"null","<span style='color:GreenYellow; font-size: 70px;'>正确! </span>","null","html-keyboard-response","144","492942","0.0-7.0-1.0-4.0-0.0-1.18","3","3","3","3","1","3","3","3","4","3","4","4","2","4","4","4","4","4","4","5","4","5","4","4","5","4","4","4","5","1","0","1","1","0","0","1","1","1","1","1","0","1","0","1","4","2","1","3","2","2","3","2","1","4","2","776797303246950402","韦","279","","","","","","","","","","","","","","","","","","","","","","","","","","","","","","feedback_test","","","","","","","","","","","",""
"706","","j","psychophysics","145","494653","0.0-7.0-1.0-4.0-0.0-0.19","3","3","3","3","1","3","3","3","4","3","4","4","2","4","4","4","4","4","4","5","4","5","4","4","5","4","4","4","5","1","0","1","1","0","0","1","1","1","1","1","0","1","0","1","4","2","1","3","2","2","3","2","1","4","2","776797303246950402","韦","279","","","","match","","","","","","","","","","","","","","key","j","17.059505050504495","683","380","j","true","match","img/square.png","方形","方形","ALT1","formal_ALT1_2","","","","","","","","","","","",""
"null","<span style='color:GreenYellow; font-size: 70px;'>正确! </span>","null","html-keyboard-response","146","495154","0.0-7.0-1.0-4.0-0.0-1.19","3","3","3","3","1","3","3","3","4","3","4","4","2","4","4","4","4","4","4","5","4","5","4","4","5","4","4","4","5","1","0","1","1","0","0","1","1","1","1","1","0","1","0","1","4","2","1","3","2","2","3","2","1","4","2","776797303246950402","韦","279","","","","","","","","","","","","","","","","","","","","","","","","","","","","","","feedback_test","","","","","","","","","","","",""
"841","","f","psychophysics","147","496996","0.0-7.0-1.0-4.0-0.0-0.20","3","3","3","3","1","3","3","3","4","3","4","4","2","4","4","4","4","4","4","5","4","5","4","4","5","4","4","4","5","1","0","1","1","0","0","1","1","1","1","1","0","1","0","1","4","2","1","3","2","2","3","2","1","4","2","776797303246950402","韦","279","","","","nonmatch","","","","","","","","","","","","","","key","f","16.724926605504518","683","380","f","true","nonmatch","img/circle.png","方形","圆形","ALT1","formal_ALT1_2","","","","","","","","","","","",""
"null","<span style='color:GreenYellow; font-size: 70px;'>正确! </span>","null","html-keyboard-response","148","497498","0.0-7.0-1.0-4.0-0.0-1.20","3","3","3","3","1","3","3","3","4","3","4","4","2","4","4","4","4","4","4","5","4","5","4","4","5","4","4","4","5","1","0","1","1","0","0","1","1","1","1","1","0","1","0","1","4","2","1","3","2","2","3","2","1","4","2","776797303246950402","韦","279","","","","","","","","","","","","","","","","","","","","","","","","","","","","","","feedback_test","","","","","","","","","","","",""
"1186","","f","psychophysics","149","499684","0.0-7.0-1.0-4.0-0.0-0.21","3","3","3","3","1","3","3","3","4","3","4","4","2","4","4","4","4","4","4","5","4","5","4","4","5","4","4","4","5","1","0","1","1","0","0","1","1","1","1","1","0","1","0","1","4","2","1","3","2","2","3","2","1","4","2","776797303246950402","韦","279","","","","nonmatch","","","","","","","","","","","","","","key","f","16.721785714285307","683","380","j","false","match","img/circle.png","圆形","圆形","ALT1","formal_ALT1_2","","","","","","","","","","","",""
"null","<span style='color:red; font-size: 70px;'>错误! </span>","null","html-keyboard-response","150","500186","0.0-7.0-1.0-4.0-0.0-1.21","3","3","3","3","1","3","3","3","4","3","4","4","2","4","4","4","4","4","4","5","4","5","4","4","5","4","4","4","5","1","0","1","1","0","0","1","1","1","1","1","0","1","0","1","4","2","1","3","2","2","3","2","1","4","2","776797303246950402","韦","279","","","","","","","","","","","","","","","","","","","","","","","","","","","","","","feedback_test","","","","","","","","","","","",""
"786","","f","psychophysics","151","501974","0.0-7.0-1.0-4.0-0.0-0.22","3","3","3","3","1","3","3","3","4","3","4","4","2","4","4","4","4","4","4","5","4","5","4","4","5","4","4","4","5","1","0","1","1","0","0","1","1","1","1","1","0","1","0","1","4","2","1","3","2","2","3","2","1","4","2","776797303246950402","韦","279","","","","nonmatch","","","","","","","","","","","","","","key","f","16.725915094339488","683","380","f","true","nonmatch","img/square.png","圆形","方形","ALT1","formal_ALT1_2","","","","","","","","","","","",""
"null","<span style='color:GreenYellow; font-size: 70px;'>正确! </span>","null","html-keyboard-response","152","502476","0.0-7.0-1.0-4.0-0.0-1.22","3","3","3","3","1","3","3","3","4","3","4","4","2","4","4","4","4","4","4","5","4","5","4","4","5","4","4","4","5","1","0","1","1","0","0","1","1","1","1","1","0","1","0","1","4","2","1","3","2","2","3","2","1","4","2","776797303246950402","韦","279","","","","","","","","","","","","","","","","","","","","","","","","","","","","","","feedback_test","","","","","","","","","","","",""
"768","","f","psychophysics","153","504246","0.0-7.0-1.0-4.0-0.0-0.23","3","3","3","3","1","3","3","3","4","3","4","4","2","4","4","4","4","4","4","5","4","5","4","4","5","4","4","4","5","1","0","1","1","0","0","1","1","1","1","1","0","1","0","1","4","2","1","3","2","2","3","2","1","4","2","776797303246950402","韦","279","","","","nonmatch","","","","","","","","","","","","","","key","f","17.05334313725482","683","380","f","true","nonmatch","img/diamond.png","方形","菱形","ALT1","formal_ALT1_2","","","","","","","","","","","",""
"null","<span style='color:GreenYellow; font-size: 70px;'>正确! </span>","null","html-keyboard-response","154","504748","0.0-7.0-1.0-4.0-0.0-1.23","3","3","3","3","1","3","3","3","4","3","4","4","2","4","4","4","4","4","4","5","4","5","4","4","5","4","4","4","5","1","0","1","1","0","0","1","1","1","1","1","0","1","0","1","4","2","1","3","2","2","3","2","1","4","2","776797303246950402","韦","279","","","","","","","","","","","","","","","","","","","","","","","","","","","","","","feedback_test","","","","","","","","","","","",""
"834","","j","psychophysics","155","506590","0.0-7.0-1.0-4.0-0.0-0.24","3","3","3","3","1","3","3","3","4","3","4","4","2","4","4","4","4","4","4","5","4","5","4","4","5","4","4","4","5","1","0","1","1","0","0","1","1","1","1","1","0","1","0","1","4","2","1","3","2","2","3","2","1","4","2","776797303246950402","韦","279","","","","match","","","","","","","","","","","","","","key","j","16.72509259259257","683","380","j","true","match","img/hexagon.png","六边","六边","ALT1","formal_ALT1_2","","","","","","","","","","","",""
"null","<span style='color:GreenYellow; font-size: 70px;'>正确! </span>","null","html-keyboard-response","156","507092","0.0-7.0-1.0-4.0-0.0-1.24","3","3","3","3","1","3","3","3","4","3","4","4","2","4","4","4","4","4","4","5","4","5","4","4","5","4","4","4","5","1","0","1","1","0","0","1","1","1","1","1","0","1","0","1","4","2","1","3","2","2","3","2","1","4","2","776797303246950402","韦","279","","","","","","","","","","","","","","","","","","","","","","","","","","","","","","feedback_test","","","","","","","","","","","",""
"1005","","f","psychophysics","157","509100","0.0-7.0-1.0-4.0-0.0-0.25","3","3","3","3","1","3","3","3","4","3","4","4","2","4","4","4","4","4","4","5","4","5","4","4","5","4","4","4","5","1","0","1","1","0","0","1","1","1","1","1","0","1","0","1","4","2","1","3","2","2","3","2","1","4","2","776797303246950402","韦","279","","","","nonmatch","","","","","","","","","","","","","","key","f","16.72660504201644","683","380","f","true","nonmatch","img/diamond.png","六边","菱形","ALT1","formal_ALT1_2","","","","","","","","","","","",""
"null","<span style='color:GreenYellow; font-size: 70px;'>正确! </span>","null","html-keyboard-response","158","509601","0.0-7.0-1.0-4.0-0.0-1.25","3","3","3","3","1","3","3","3","4","3","4","4","2","4","4","4","4","4","4","5","4","5","4","4","5","4","4","4","5","1","0","1","1","0","0","1","1","1","1","1","0","1","0","1","4","2","1","3","2","2","3","2","1","4","2","776797303246950402","韦","279","","","","","","","","","","","","","","","","","","","","","","","","","","","","","","feedback_test","","","","","","","","","","","",""
"736","","j","psychophysics","159","511342","0.0-7.0-1.0-4.0-0.0-0.26","3","3","3","3","1","3","3","3","4","3","4","4","2","4","4","4","4","4","4","5","4","5","4","4","5","4","4","4","5","1","0","1","1","0","0","1","1","1","1","1","0","1","0","1","4","2","1","3","2","2","3","2","1","4","2","776797303246950402","韦","279","","","","match","","","","","","","","","","","","","","key","j","16.726669902912707","683","380","j","true","match","img/circle.png","圆形","圆形","ALT1","formal_ALT1_2","","","","","","","","","","","",""
"null","<span style='color:GreenYellow; font-size: 70px;'>正确! </span>","null","html-keyboard-response","160","511843","0.0-7.0-1.0-4.0-0.0-1.26","3","3","3","3","1","3","3","3","4","3","4","4","2","4","4","4","4","4","4","5","4","5","4","4","5","4","4","4","5","1","0","1","1","0","0","1","1","1","1","1","0","1","0","1","4","2","1","3","2","2","3","2","1","4","2","776797303246950402","韦","279","","","","","","","","","","","","","","","","","","","","","","","","","","","","","","feedback_test","","","","","","","","","","","",""
"839","","j","psychophysics","161","513684","0.0-7.0-1.0-4.0-0.0-0.27","3","3","3","3","1","3","3","3","4","3","4","4","2","4","4","4","4","4","4","5","4","5","4","4","5","4","4","4","5","1","0","1","1","0","0","1","1","1","1","1","0","1","0","1","4","2","1","3","2","2","3","2","1","4","2","776797303246950402","韦","279","","","","match","","","","","","","","","","","","","","key","j","17.042754716981193","683","380","j","true","match","img/square.png","方形","方形","ALT1","formal_ALT1_2","","","","","","","","","","","",""
"null","<span style='color:GreenYellow; font-size: 70px;'>正确! </span>","null","html-keyboard-response","162","514185","0.0-7.0-1.0-4.0-0.0-1.27","3","3","3","3","1","3","3","3","4","3","4","4","2","4","4","4","4","4","4","5","4","5","4","4","5","4","4","4","5","1","0","1","1","0","0","1","1","1","1","1","0","1","0","1","4","2","1","3","2","2","3","2","1","4","2","776797303246950402","韦","279","","","","","","","","","","","","","","","","","","","","","","","","","","","","","","feedback_test","","","","","","","","","","","",""
"864","","j","psychophysics","163","516055","0.0-7.0-1.0-4.0-0.0-0.28","3","3","3","3","1","3","3","3","4","3","4","4","2","4","4","4","4","4","4","5","4","5","4","4","5","4","4","4","5","1","0","1","1","0","0","1","1","1","1","1","0","1","0","1","4","2","1","3","2","2","3","2","1","4","2","776797303246950402","韦","279","","","","match","","","","","","","","","","","","","","key","j","17.038542056074867","683","380","j","true","match","img/hexagon.png","六边","六边","ALT1","formal_ALT1_2","","","","","","","","","","","",""
"null","<span style='color:GreenYellow; font-size: 70px;'>正确! </span>","null","html-keyboard-response","164","516557","0.0-7.0-1.0-4.0-0.0-1.28","3","3","3","3","1","3","3","3","4","3","4","4","2","4","4","4","4","4","4","5","4","5","4","4","5","4","4","4","5","1","0","1","1","0","0","1","1","1","1","1","0","1","0","1","4","2","1","3","2","2","3","2","1","4","2","776797303246950402","韦","279","","","","","","","","","","","","","","","","","","","","","","","","","","","","","","feedback_test","","","","","","","","","","","",""
"808","","f","psychophysics","165","518367","0.0-7.0-1.0-4.0-0.0-0.29","3","3","3","3","1","3","3","3","4","3","4","4","2","4","4","4","4","4","4","5","4","5","4","4","5","4","4","4","5","1","0","1","1","0","0","1","1","1","1","1","0","1","0","1","4","2","1","3","2","2","3","2","1","4","2","776797303246950402","韦","279","","","","nonmatch","","","","","","","","","","","","","","key","f","16.722905660377055","683","380","f","true","nonmatch","img/hexagon.png","菱形","六边","ALT1","formal_ALT1_2","","","","","","","","","","","",""
"null","<span style='color:GreenYellow; font-size: 70px;'>正确! </span>","null","html-keyboard-response","166","518869","0.0-7.0-1.0-4.0-0.0-1.29","3","3","3","3","1","3","3","3","4","3","4","4","2","4","4","4","4","4","4","5","4","5","4","4","5","4","4","4","5","1","0","1","1","0","0","1","1","1","1","1","0","1","0","1","4","2","1","3","2","2","3","2","1","4","2","776797303246950402","韦","279","","","","","","","","","","","","","","","","","","","","","","","","","","","","","","feedback_test","","","","","","","","","","","",""
"834","","j","psychophysics","167","520708","0.0-7.0-1.0-4.0-0.0-0.30","3","3","3","3","1","3","3","3","4","3","4","4","2","4","4","4","4","4","4","5","4","5","4","4","5","4","4","4","5","1","0","1","1","0","0","1","1","1","1","1","0","1","0","1","4","2","1","3","2","2","3","2","1","4","2","776797303246950402","韦","279","","","","match","","","","","","","","","","","","","","key","j","16.726449541284044","683","380","j","true","match","img/diamond.png","菱形","菱形","ALT1","formal_ALT1_2","","","","","","","","","","","",""
"null","<span style='color:GreenYellow; font-size: 70px;'>正确! </span>","null","html-keyboard-response","168","521210","0.0-7.0-1.0-4.0-0.0-1.30","3","3","3","3","1","3","3","3","4","3","4","4","2","4","4","4","4","4","4","5","4","5","4","4","5","4","4","4","5","1","0","1","1","0","0","1","1","1","1","1","0","1","0","1","4","2","1","3","2","2","3","2","1","4","2","776797303246950402","韦","279","","","","","","","","","","","","","","","","","","","","","","","","","","","","","","feedback_test","","","","","","","","","","","",""
"709","","j","psychophysics","169","522921","0.0-7.0-1.0-4.0-0.0-0.31","3","3","3","3","1","3","3","3","4","3","4","4","2","4","4","4","4","4","4","5","4","5","4","4","5","4","4","4","5","1","0","1","1","0","0","1","1","1","1","1","0","1","0","1","4","2","1","3","2","2","3","2","1","4","2","776797303246950402","韦","279","","","","match","","","","","","","","","","","","","","key","j","16.722010000000008","683","380","j","true","match","img/circle.png","圆形","圆形","ALT1","formal_ALT1_2","","","","","","","","","","","",""
"null","<span style='color:GreenYellow; font-size: 70px;'>正确! </span>","null","html-keyboard-response","170","523426","0.0-7.0-1.0-4.0-0.0-1.31","3","3","3","3","1","3","3","3","4","3","4","4","2","4","4","4","4","4","4","5","4","5","4","4","5","4","4","4","5","1","0","1","1","0","0","1","1","1","1","1","0","1","0","1","4","2","1","3","2","2","3","2","1","4","2","776797303246950402","韦","279","","","","","","","","","","","","","","","","","","","","","","","","","","","","","","feedback_test","","","","","","","","","","","",""
"680","","j","psychophysics","171","525108","0.0-7.0-1.0-4.0-0.0-0.32","3","3","3","3","1","3","3","3","4","3","4","4","2","4","4","4","4","4","4","5","4","5","4","4","5","4","4","4","5","1","0","1","1","0","0","1","1","1","1","1","0","1","0","1","4","2","1","3","2","2","3","2","1","4","2","776797303246950402","韦","279","","","","match","","","","","","","","","","","","","","key","j","16.73082999999984","683","380","j","true","match","img/circle.png","圆形","圆形","ALT1","formal_ALT1_2","","","","","","","","","","","",""
"null","<span style='color:GreenYellow; font-size: 70px;'>正确! </span>","null","html-keyboard-response","172","525610","0.0-7.0-1.0-4.0-0.0-1.32","3","3","3","3","1","3","3","3","4","3","4","4","2","4","4","4","4","4","4","5","4","5","4","4","5","4","4","4","5","1","0","1","1","0","0","1","1","1","1","1","0","1","0","1","4","2","1","3","2","2","3","2","1","4","2","776797303246950402","韦","279","","","","","","","","","","","","","","","","","","","","","","","","","","","","","","feedback_test","","","","","","","","","","","",""
"870","","j","psychophysics","173","527482","0.0-7.0-1.0-4.0-0.0-0.33","3","3","3","3","1","3","3","3","4","3","4","4","2","4","4","4","4","4","4","5","4","5","4","4","5","4","4","4","5","1","0","1","1","0","0","1","1","1","1","1","0","1","0","1","4","2","1","3","2","2","3","2","1","4","2","776797303246950402","韦","279","","","","match","","","","","","","","","","","","","","key","j","16.878293577982156","683","380","j","true","match","img/square.png","方形","方形","ALT1","formal_ALT1_2","","","","","","","","","","","",""
"null","<span style='color:GreenYellow; font-size: 70px;'>正确! </span>","null","html-keyboard-response","174","527984","0.0-7.0-1.0-4.0-0.0-1.33","3","3","3","3","1","3","3","3","4","3","4","4","2","4","4","4","4","4","4","5","4","5","4","4","5","4","4","4","5","1","0","1","1","0","0","1","1","1","1","1","0","1","0","1","4","2","1","3","2","2","3","2","1","4","2","776797303246950402","韦","279","","","","","","","","","","","","","","","","","","","","","","","","","","","","","","feedback_test","","","","","","","","","","","",""
"791","","j","psychophysics","175","529789","0.0-7.0-1.0-4.0-0.0-0.34","3","3","3","3","1","3","3","3","4","3","4","4","2","4","4","4","4","4","4","5","4","5","4","4","5","4","4","4","5","1","0","1","1","0","0","1","1","1","1","1","0","1","0","1","4","2","1","3","2","2","3","2","1","4","2","776797303246950402","韦","279","","","","match","","","","","","","","","","","","","","key","j","16.726514018691258","683","380","j","true","match","img/diamond.png","菱形","菱形","ALT1","formal_ALT1_2","","","","","","","","","","","",""
"null","<span style='color:GreenYellow; font-size: 70px;'>正确! </span>","null","html-keyboard-response","176","530290","0.0-7.0-1.0-4.0-0.0-1.34","3","3","3","3","1","3","3","3","4","3","4","4","2","4","4","4","4","4","4","5","4","5","4","4","5","4","4","4","5","1","0","1","1","0","0","1","1","1","1","1","0","1","0","1","4","2","1","3","2","2","3","2","1","4","2","776797303246950402","韦","279","","","","","","","","","","","","","","","","","","","","","","","","","","","","","","feedback_test","","","","","","","","","","","",""
"743","","j","psychophysics","177","532036","0.0-7.0-1.0-4.0-0.0-0.35","3","3","3","3","1","3","3","3","4","3","4","4","2","4","4","4","4","4","4","5","4","5","4","4","5","4","4","4","5","1","0","1","1","0","0","1","1","1","1","1","0","1","0","1","4","2","1","3","2","2","3","2","1","4","2","776797303246950402","韦","279","","","","match","","","","","","","","","","","","","","key","j","16.724388349514218","683","380","j","true","match","img/hexagon.png","六边","六边","ALT1","formal_ALT1_2","","","","","","","","","","","",""
"null","<span style='color:GreenYellow; font-size: 70px;'>正确! </span>","null","html-keyboard-response","178","532538","0.0-7.0-1.0-4.0-0.0-1.35","3","3","3","3","1","3","3","3","4","3","4","4","2","4","4","4","4","4","4","5","4","5","4","4","5","4","4","4","5","1","0","1","1","0","0","1","1","1","1","1","0","1","0","1","4","2","1","3","2","2","3","2","1","4","2","776797303246950402","韦","279","","","","","","","","","","","","","","","","","","","","","","","","","","","","","","feedback_test","","","","","","","","","","","",""
"784","","f","psychophysics","179","534324","0.0-7.0-1.0-4.0-0.0-0.36","3","3","3","3","1","3","3","3","4","3","4","4","2","4","4","4","4","4","4","5","4","5","4","4","5","4","4","4","5","1","0","1","1","0","0","1","1","1","1","1","0","1","0","1","4","2","1","3","2","2","3","2","1","4","2","776797303246950402","韦","279","","","","nonmatch","","","","","","","","","","","","","","key","f","16.717127450980364","683","380","f","true","nonmatch","img/hexagon.png","方形","六边","ALT1","formal_ALT1_2","","","","","","","","","","","",""
"null","<span style='color:GreenYellow; font-size: 70px;'>正确! </span>","null","html-keyboard-response","180","534825","0.0-7.0-1.0-4.0-0.0-1.36","3","3","3","3","1","3","3","3","4","3","4","4","2","4","4","4","4","4","4","5","4","5","4","4","5","4","4","4","5","1","0","1","1","0","0","1","1","1","1","1","0","1","0","1","4","2","1","3","2","2","3","2","1","4","2","776797303246950402","韦","279","","","","","","","","","","","","","","","","","","","","","","","","","","","","","","feedback_test","","","","","","","","","","","",""
"824","","f","psychophysics","181","536652","0.0-7.0-1.0-4.0-0.0-0.37","3","3","3","3","1","3","3","3","4","3","4","4","2","4","4","4","4","4","4","5","4","5","4","4","5","4","4","4","5","1","0","1","1","0","0","1","1","1","1","1","0","1","0","1","4","2","1","3","2","2","3","2","1","4","2","776797303246950402","韦","279","","","","nonmatch","","","","","","","","","","","","","","key","f","16.726120370370122","683","380","f","true","nonmatch","img/square.png","六边","方形","ALT1","formal_ALT1_2","","","","","","","","","","","",""
