"rt","stimulus","response","trial_type","trial_index","time_elapsed","internal_node_id","ses_1","ses_2","ses_3","ses_4","ses_5","ses_6","ses_7","ses_8","ses_9","ses_10","coreself_1","coreself_2","coreself_3","coreself_4","coreself_5","coreself_6","coreself_7","coreself_8","coreself_9","coreself_10","SGPS_1","SGPS_2","SGPS_3","SGPS_4","SGPS_5","SGPS_6","SGPS_7","SGPS_8","SGPS_9","NPI1","NPI2","NPI3","NPI4","NPI5","NPI6","NPI7","NPI8","NPI9","NPI10","NPI11","NPI12","NPI13","NPI14","NPI15","hsns_1","hsns_2","hsns_3","hsns_4","hsns_5","trap1","hsns_6","hsns_7","hsns_8","hsns_9","hsns_10","subj_idx","friend_name","ParticipantID","value","success","user_agent","responses","item_order","radio_event_ids","radio_event_times","key_event_times","mouse_event_times","straightlining","zigzagging","honeypot","timeout","failed_images","failed_audio","failed_video","view_history","response_type","key_press","avg_frame_time","center_x","center_y","correct_response","correct","identity","Image","word","condition","task_id","screen_id","time_stamp","version_attrib2","version_target2","IAT","RT","varname","summary","version_attrib","version_target","question_order","correct_answer","trap1_item"
"8908","
   <p><div style = ""color: white;font-size:25px;"">您好，欢迎参加本次实验。</div> </p>
   <p><div style = ""color: white;font-size:25px;"">为充分保障您的权利，请确保您已经知晓并同意《参与实验同意书》以及《数据公开知情同意书》。</div></p>
   <p><div style = ""color: white;font-size:25px;"">如果您未见过上述内容，请咨询实验员。</div></p>
   <p><div style = ""color: white;font-size:25px;"">如果您选择继续实验，则表示您已经清楚两份知情同意书的内容并同意。</div></p>
   <p><div style = ""color: pink;font-size:30px;"">请确保您记得day0的实验编号，您将在本次实验输入该编号，若您忘记，请咨询实验员后作答。</div></p>
   <p><div style = ""color: lightblue;font-size:25px;"">请您尽可能认真地作答，我们将依据您在各问卷和按键任务中的作答质量发放报酬。</div></p>
   <p> <div style = ""color: green;font-size:25px;""><按空格键至下页></div> </p>
   "," ","html-keyboard-response","0","8911","0.0-0.0","3","4","4","3","3","3","4","3","4","4","4","4","3","4","5","4","4","4","5","5","3","2","2","2","3","1","4","4","2","1","0","1","1","0","1","0","0","1","1","1","0","1","0","1","5","3","2","4","4","","2","4","5","2","4","769979838697312258","吴","587","","","","","","","","","","","","","","","","","","","","","","","","","","","","","","","","","","","","","","","","","",""
"","","","call-function","1","8915","0.0-1.0-0.0","3","4","4","3","3","3","4","3","4","4","4","4","3","4","5","4","4","4","5","5","3","2","2","2","3","1","4","4","2","1","0","1","1","0","1","0","0","1","1","1","0","1","0","1","5","3","2","4","4","","2","4","5","2","4","769979838697312258","吴","587","","","","","","","","","","","","","","","","","","","","","","","","","","","","","","","","","","","","","","","","","",""
"34647","","{""friend_name"":""吴"",""ParticipantID"":""587""}","survey-html-form","2","43563","0.0-1.0-1.0","3","4","4","3","3","3","4","3","4","4","4","4","3","4","5","4","4","4","5","5","3","2","2","2","3","1","4","4","2","1","0","1","1","0","1","0","0","1","1","1","0","1","0","1","5","3","2","4","4","","2","4","5","2","4","769979838697312258","吴","587","","","","","","","","","","","","","","","","","","","","","","","","","","","","","","","","","","","","","","","","","",""
"","","","fullscreen","3","97892","0.0-2.0","3","4","4","3","3","3","4","3","4","4","4","4","3","4","5","4","4","4","5","5","3","2","2","2","3","1","4","4","2","1","0","1","1","0","1","0","0","1","1","1","0","1","0","1","5","3","2","4","4","","2","4","5","2","4","769979838697312258","吴","587","","true","{}","","","","","","","","","","","","","","","","","","","","","","","","","","","","","","","","","","","","","","",""
"29965.600000023842","","{""Q01"":""3"",""Q02"":""4"",""Q03"":""4"",""Q04"":""3"",""Q05"":""3"",""Q06"":""3"",""Q07"":""4"",""Q08"":""3"",""Q09"":""4"",""Q10"":""4""}","survey-template","4","127859","0.0-3.0","3","4","4","3","3","3","4","3","4","4","4","4","3","4","5","4","4","4","5","5","3","2","2","2","3","1","4","4","2","1","0","1","1","0","1","0","0","1","1","1","0","1","0","1","5","3","2","4","4","","2","4","5","2","4","769979838697312258","吴","587","","","","{""Q01"":""3"",""Q02"":""4"",""Q03"":""4"",""Q04"":""3"",""Q05"":""3"",""Q06"":""3"",""Q07"":""4"",""Q08"":""3"",""Q09"":""4"",""Q10"":""4""}","[0,1,2,3,4,5,6,7,8,9]","[""Q01"",""Q02"",""Q03"",""Q04"",""Q05"",""Q06"",""Q07"",""Q08"",""Q09"",""Q10""]","[4338.4000000059605,6506.4000000059605,8274.5,9521.300000011921,10652.800000011921,12868.300000011921,16287.600000023842,17791.90000000596,19038.20000001788,19793.90000000596]","[]","[3753.300000011921,4338.4000000059605,6506.4000000059605,8274.5,9521.300000011921,10652.800000011921,12868.300000011921,16287.600000023842,17791.90000000596,19038.20000001788,19793.90000000596,29964.30000001192]","0.3","0.6666666666666666","0","","","","","","","","","","","","","","","","","","","","","","","","","","","","","",""
"23209.09999999404","","{""Q01"":""4"",""Q02"":""4"",""Q03"":""3"",""Q04"":""4"",""Q05"":""5"",""Q06"":""4"",""Q07"":""4"",""Q08"":""4"",""Q09"":""5"",""Q10"":""5""}","survey-template","5","151073","0.0-4.0","3","4","4","3","3","3","4","3","4","4","4","4","3","4","5","4","4","4","5","5","3","2","2","2","3","1","4","4","2","1","0","1","1","0","1","0","0","1","1","1","0","1","0","1","5","3","2","4","4","","2","4","5","2","4","769979838697312258","吴","587","","","","{""Q01"":""4"",""Q02"":""4"",""Q03"":""3"",""Q04"":""4"",""Q05"":""5"",""Q06"":""4"",""Q07"":""4"",""Q08"":""4"",""Q09"":""5"",""Q10"":""5""}","[0,1,2,3,4,5,6,7,8,9]","[""Q01"",""Q02"",""Q03"",""Q04"",""Q05"",""Q06"",""Q07"",""Q08"",""Q09"",""Q10""]","[3982.2999999821186,5099.699999988079,6931.699999988079,8013.4000000059605,12119.799999982119,13401.90000000596,14339.5,18009.90000000596,20024.40000000596,21323.90000000596]","[]","[3982.2999999821186,5099.699999988079,6931.699999988079,8013.4000000059605,11359.799999982119,12119.799999982119,13401.90000000596,14339.5,18009.90000000596,20024.40000000596,21323.90000000596,23207.79999998212]","0.3","0.3333333333333333","0","","","","","","","","","","","","","","","","","","","","","","","","","","","","","",""
"","","","preload","6","151445","0.0-5.0","3","4","4","3","3","3","4","3","4","4","4","4","3","4","5","4","4","4","5","5","3","2","2","2","3","1","4","4","2","1","0","1","1","0","1","0","0","1","1","1","0","1","0","1","5","3","2","4","4","","2","4","5","2","4","769979838697312258","吴","587","","true","","","","","","","","","","","false","[]","[]","[]","","","","","","","","","","","","","","","","","","","","","","","","","",""
"28283","","","instructions","7","179728","0.0-6.0","3","4","4","3","3","3","4","3","4","4","4","4","3","4","5","4","4","4","5","5","3","2","2","2","3","1","4","4","2","1","0","1","1","0","1","0","0","1","1","1","0","1","0","1","5","3","2","4","4","","2","4","5","2","4","769979838697312258","吴","587","","","","","","","","","","","","","","","","","[{""page_index"":0,""viewing_time"":28282}]","","","","","","","","","","","","","","","","","","","","","","","","",""
"65367","","","instructions","8","245096","0.0-7.0-1.0-0.0","3","4","4","3","3","3","4","3","4","4","4","4","3","4","5","4","4","4","5","5","3","2","2","2","3","1","4","4","2","1","0","1","1","0","1","0","0","1","1","1","0","1","0","1","5","3","2","4","4","","2","4","5","2","4","769979838697312258","吴","587","","","","","","","","","","","","","","","","","[{""page_index"":0,""viewing_time"":38235},{""page_index"":1,""viewing_time"":23029},{""page_index"":2,""viewing_time"":4103}]","","","","","","","","","","","","","","","","","","","","","","","","",""
"null","","null","psychophysics","9","247305","0.0-7.0-1.0-1.0-0.0-0.0","3","4","4","3","3","3","4","3","4","4","4","4","3","4","5","4","4","4","5","5","3","2","2","2","3","1","4","4","2","1","0","1","1","0","1","0","0","1","1","1","0","1","0","1","5","3","2","4","4","","2","4","5","2","4","769979838697312258","吴","587","","","","null","","","","","","","","","","","","","","key","null","16.66488549618325","640","356","j","false","match","img/hexagon.png","六边","六边","ALT1_2","prac_ALT1_2","","","","","","","","","","","",""
"null","<span class='add_' style='color:yellow; font-size: 70px;'> 太慢! </span>","null","html-keyboard-response","10","247806","0.0-7.0-1.0-1.0-0.0-1.0","3","4","4","3","3","3","4","3","4","4","4","4","3","4","5","4","4","4","5","5","3","2","2","2","3","1","4","4","2","1","0","1","1","0","1","0","0","1","1","1","0","1","0","1","5","3","2","4","4","","2","4","5","2","4","769979838697312258","吴","587","","","","","","","","","","","","","","","","","","","","","","","","","","","","","","feedback_test","","","","","","","","","","","",""
"722","","f","psychophysics","11","249531","0.0-7.0-1.0-1.0-0.0-0.1","3","4","4","3","3","3","4","3","4","4","4","4","3","4","5","4","4","4","5","5","3","2","2","2","3","1","4","4","2","1","0","1","1","0","1","0","0","1","1","1","0","1","0","1","5","3","2","4","4","","2","4","5","2","4","769979838697312258","吴","587","","","","nonmatch","","","","","","","","","","","","","","key","f","16.666019417475784","640","356","j","false","match","img/square.png","方形","方形","ALT1_2","prac_ALT1_2","","","","","","","","","","","",""
"null","<span style='color:red; font-size: 70px;'>错误! </span>","null","html-keyboard-response","12","250033","0.0-7.0-1.0-1.0-0.0-1.1","3","4","4","3","3","3","4","3","4","4","4","4","3","4","5","4","4","4","5","5","3","2","2","2","3","1","4","4","2","1","0","1","1","0","1","0","0","1","1","1","0","1","0","1","5","3","2","4","4","","2","4","5","2","4","769979838697312258","吴","587","","","","","","","","","","","","","","","","","","","","","","","","","","","","","","feedback_test","","","","","","","","","","","",""
"null","","null","psychophysics","13","252236","0.0-7.0-1.0-1.0-0.0-0.2","3","4","4","3","3","3","4","3","4","4","4","4","3","4","5","4","4","4","5","5","3","2","2","2","3","1","4","4","2","1","0","1","1","0","1","0","0","1","1","1","0","1","0","1","5","3","2","4","4","","2","4","5","2","4","769979838697312258","吴","587","","","","null","","","","","","","","","","","","","","key","null","16.66488549618325","640","356","f","false","nonmatch","img/ellipse.png","方形","椭圆","ALT1_2","prac_ALT1_2","","","","","","","","","","","",""
"null","<span class='add_' style='color:yellow; font-size: 70px;'> 太慢! </span>","null","html-keyboard-response","14","252737","0.0-7.0-1.0-1.0-0.0-1.2","3","4","4","3","3","3","4","3","4","4","4","4","3","4","5","4","4","4","5","5","3","2","2","2","3","1","4","4","2","1","0","1","1","0","1","0","0","1","1","1","0","1","0","1","5","3","2","4","4","","2","4","5","2","4","769979838697312258","吴","587","","","","","","","","","","","","","","","","","","","","","","","","","","","","","","feedback_test","","","","","","","","","","","",""
"null","","null","psychophysics","15","254939","0.0-7.0-1.0-1.0-0.0-0.3","3","4","4","3","3","3","4","3","4","4","4","4","3","4","5","4","4","4","5","5","3","2","2","2","3","1","4","4","2","1","0","1","1","0","1","0","0","1","1","1","0","1","0","1","5","3","2","4","4","","2","4","5","2","4","769979838697312258","吴","587","","","","null","","","","","","","","","","","","","","key","null","16.665648854961923","640","356","f","false","nonmatch","img/diamond.png","六边","菱形","ALT1_2","prac_ALT1_2","","","","","","","","","","","",""
"null","<span class='add_' style='color:yellow; font-size: 70px;'> 太慢! </span>","null","html-keyboard-response","16","255440","0.0-7.0-1.0-1.0-0.0-1.3","3","4","4","3","3","3","4","3","4","4","4","4","3","4","5","4","4","4","5","5","3","2","2","2","3","1","4","4","2","1","0","1","1","0","1","0","0","1","1","1","0","1","0","1","5","3","2","4","4","","2","4","5","2","4","769979838697312258","吴","587","","","","","","","","","","","","","","","","","","","","","","","","","","","","","","feedback_test","","","","","","","","","","","",""
"1155","","j","psychophysics","17","257596","0.0-7.0-1.0-1.0-0.0-0.4","3","4","4","3","3","3","4","3","4","4","4","4","3","4","5","4","4","4","5","5","3","2","2","2","3","1","4","4","2","1","0","1","1","0","1","0","0","1","1","1","0","1","0","1","5","3","2","4","4","","2","4","5","2","4","769979838697312258","吴","587","","","","match","","","","","","","","","","","","","","key","j","16.66589147286817","640","356","j","true","match","img/diamond.png","菱形","菱形","ALT1_2","prac_ALT1_2","","","","","","","","","","","",""
"null","<span style='color:GreenYellow; font-size: 70px;'>正确! </span>","null","html-keyboard-response","18","258098","0.0-7.0-1.0-1.0-0.0-1.4","3","4","4","3","3","3","4","3","4","4","4","4","3","4","5","4","4","4","5","5","3","2","2","2","3","1","4","4","2","1","0","1","1","0","1","0","0","1","1","1","0","1","0","1","5","3","2","4","4","","2","4","5","2","4","769979838697312258","吴","587","","","","","","","","","","","","","","","","","","","","","","","","","","","","","","feedback_test","","","","","","","","","","","",""
"937","","f","psychophysics","19","260038","0.0-7.0-1.0-1.0-0.0-0.5","3","4","4","3","3","3","4","3","4","4","4","4","3","4","5","4","4","4","5","5","3","2","2","2","3","1","4","4","2","1","0","1","1","0","1","0","0","1","1","1","0","1","0","1","5","3","2","4","4","","2","4","5","2","4","769979838697312258","吴","587","","","","nonmatch","","","","","","","","","","","","","","key","f","16.66521739130435","640","356","j","false","match","img/hexagon.png","六边","六边","ALT1_2","prac_ALT1_2","","","","","","","","","","","",""
"null","<span style='color:red; font-size: 70px;'>错误! </span>","null","html-keyboard-response","20","260547","0.0-7.0-1.0-1.0-0.0-1.5","3","4","4","3","3","3","4","3","4","4","4","4","3","4","5","4","4","4","5","5","3","2","2","2","3","1","4","4","2","1","0","1","1","0","1","0","0","1","1","1","0","1","0","1","5","3","2","4","4","","2","4","5","2","4","769979838697312258","吴","587","","","","","","","","","","","","","","","","","","","","","","","","","","","","","","feedback_test","","","","","","","","","","","",""
"899","","j","psychophysics","21","262447","0.0-7.0-1.0-1.0-0.0-0.6","3","4","4","3","3","3","4","3","4","4","4","4","3","4","5","4","4","4","5","5","3","2","2","2","3","1","4","4","2","1","0","1","1","0","1","0","0","1","1","1","0","1","0","1","5","3","2","4","4","","2","4","5","2","4","769979838697312258","吴","587","","","","match","","","","","","","","","","","","","","key","j","16.664601769911812","640","356","j","true","match","img/square.png","方形","方形","ALT1_2","prac_ALT1_2","","","","","","","","","","","",""
"null","<span style='color:GreenYellow; font-size: 70px;'>正确! </span>","null","html-keyboard-response","22","262948","0.0-7.0-1.0-1.0-0.0-1.6","3","4","4","3","3","3","4","3","4","4","4","4","3","4","5","4","4","4","5","5","3","2","2","2","3","1","4","4","2","1","0","1","1","0","1","0","0","1","1","1","0","1","0","1","5","3","2","4","4","","2","4","5","2","4","769979838697312258","吴","587","","","","","","","","","","","","","","","","","","","","","","","","","","","","","","feedback_test","","","","","","","","","","","",""
"474","","j","psychophysics","23","264424","0.0-7.0-1.0-1.0-0.0-0.7","3","4","4","3","3","3","4","3","4","4","4","4","3","4","5","4","4","4","5","5","3","2","2","2","3","1","4","4","2","1","0","1","1","0","1","0","0","1","1","1","0","1","0","1","5","3","2","4","4","","2","4","5","2","4","769979838697312258","吴","587","","","","match","","","","","","","","","","","","","","key","j","16.66551724137958","640","356","j","true","match","img/square.png","方形","方形","ALT1_2","prac_ALT1_2","","","","","","","","","","","",""
"null","<span style='color:GreenYellow; font-size: 70px;'>正确! </span>","null","html-keyboard-response","24","264925","0.0-7.0-1.0-1.0-0.0-1.7","3","4","4","3","3","3","4","3","4","4","4","4","3","4","5","4","4","4","5","5","3","2","2","2","3","1","4","4","2","1","0","1","1","0","1","0","0","1","1","1","0","1","0","1","5","3","2","4","4","","2","4","5","2","4","769979838697312258","吴","587","","","","","","","","","","","","","","","","","","","","","","","","","","","","","","feedback_test","","","","","","","","","","","",""
"598","","f","psychophysics","25","266524","0.0-7.0-1.0-1.0-0.0-0.8","3","4","4","3","3","3","4","3","4","4","4","4","3","4","5","4","4","4","5","5","3","2","2","2","3","1","4","4","2","1","0","1","1","0","1","0","0","1","1","1","0","1","0","1","5","3","2","4","4","","2","4","5","2","4","769979838697312258","吴","587","","","","nonmatch","","","","","","","","","","","","","","key","f","16.664893617021278","640","356","f","true","nonmatch","img/ellipse.png","六边","椭圆","ALT1_2","prac_ALT1_2","","","","","","","","","","","",""
"null","<span style='color:GreenYellow; font-size: 70px;'>正确! </span>","null","html-keyboard-response","26","267025","0.0-7.0-1.0-1.0-0.0-1.8","3","4","4","3","3","3","4","3","4","4","4","4","3","4","5","4","4","4","5","5","3","2","2","2","3","1","4","4","2","1","0","1","1","0","1","0","0","1","1","1","0","1","0","1","5","3","2","4","4","","2","4","5","2","4","769979838697312258","吴","587","","","","","","","","","","","","","","","","","","","","","","","","","","","","","","feedback_test","","","","","","","","","","","",""
"779","","f","psychophysics","27","268806","0.0-7.0-1.0-1.0-0.0-0.9","3","4","4","3","3","3","4","3","4","4","4","4","3","4","5","4","4","4","5","5","3","2","2","2","3","1","4","4","2","1","0","1","1","0","1","0","0","1","1","1","0","1","0","1","5","3","2","4","4","","2","4","5","2","4","769979838697312258","吴","587","","","","nonmatch","","","","","","","","","","","","","","key","f","16.665714285714508","640","356","f","true","nonmatch","img/diamond.png","方形","菱形","ALT1_2","prac_ALT1_2","","","","","","","","","","","",""
"null","<span style='color:GreenYellow; font-size: 70px;'>正确! </span>","null","html-keyboard-response","28","269308","0.0-7.0-1.0-1.0-0.0-1.9","3","4","4","3","3","3","4","3","4","4","4","4","3","4","5","4","4","4","5","5","3","2","2","2","3","1","4","4","2","1","0","1","1","0","1","0","0","1","1","1","0","1","0","1","5","3","2","4","4","","2","4","5","2","4","769979838697312258","吴","587","","","","","","","","","","","","","","","","","","","","","","","","","","","","","","feedback_test","","","","","","","","","","","",""
"579","","f","psychophysics","29","270888","0.0-7.0-1.0-1.0-0.0-0.10","3","4","4","3","3","3","4","3","4","4","4","4","3","4","5","4","4","4","5","5","3","2","2","2","3","1","4","4","2","1","0","1","1","0","1","0","0","1","1","1","0","1","0","1","5","3","2","4","4","","2","4","5","2","4","769979838697312258","吴","587","","","","nonmatch","","","","","","","","","","","","","","key","f","16.666666666666668","640","356","f","true","nonmatch","img/square.png","椭圆","方形","ALT1_2","prac_ALT1_2","","","","","","","","","","","",""
"null","<span style='color:GreenYellow; font-size: 70px;'>正确! </span>","null","html-keyboard-response","30","271390","0.0-7.0-1.0-1.0-0.0-1.10","3","4","4","3","3","3","4","3","4","4","4","4","3","4","5","4","4","4","5","5","3","2","2","2","3","1","4","4","2","1","0","1","1","0","1","0","0","1","1","1","0","1","0","1","5","3","2","4","4","","2","4","5","2","4","769979838697312258","吴","587","","","","","","","","","","","","","","","","","","","","","","","","","","","","","","feedback_test","","","","","","","","","","","",""
"722","","f","psychophysics","31","273113","0.0-7.0-1.0-1.0-0.0-0.11","3","4","4","3","3","3","4","3","4","4","4","4","3","4","5","4","4","4","5","5","3","2","2","2","3","1","4","4","2","1","0","1","1","0","1","0","0","1","1","1","0","1","0","1","5","3","2","4","4","","2","4","5","2","4","769979838697312258","吴","587","","","","nonmatch","","","","","","","","","","","","","","key","f","16.663725490196192","640","356","f","true","nonmatch","img/square.png","菱形","方形","ALT1_2","prac_ALT1_2","","","","","","","","","","","",""
"null","<span style='color:GreenYellow; font-size: 70px;'>正确! </span>","null","html-keyboard-response","32","273615","0.0-7.0-1.0-1.0-0.0-1.11","3","4","4","3","3","3","4","3","4","4","4","4","3","4","5","4","4","4","5","5","3","2","2","2","3","1","4","4","2","1","0","1","1","0","1","0","0","1","1","1","0","1","0","1","5","3","2","4","4","","2","4","5","2","4","769979838697312258","吴","587","","","","","","","","","","","","","","","","","","","","","","","","","","","","","","feedback_test","","","","","","","","","","","",""
"719","","f","psychophysics","33","275336","0.0-7.0-1.0-1.0-0.0-0.12","3","4","4","3","3","3","4","3","4","4","4","4","3","4","5","4","4","4","5","5","3","2","2","2","3","1","4","4","2","1","0","1","1","0","1","0","0","1","1","1","0","1","0","1","5","3","2","4","4","","2","4","5","2","4","769979838697312258","吴","587","","","","nonmatch","","","","","","","","","","","","","","key","f","16.665686274510033","640","356","j","false","match","img/ellipse.png","椭圆","椭圆","ALT1_2","prac_ALT1_2","","","","","","","","","","","",""
"null","<span style='color:red; font-size: 70px;'>错误! </span>","null","html-keyboard-response","34","275837","0.0-7.0-1.0-1.0-0.0-1.12","3","4","4","3","3","3","4","3","4","4","4","4","3","4","5","4","4","4","5","5","3","2","2","2","3","1","4","4","2","1","0","1","1","0","1","0","0","1","1","1","0","1","0","1","5","3","2","4","4","","2","4","5","2","4","769979838697312258","吴","587","","","","","","","","","","","","","","","","","","","","","","","","","","","","","","feedback_test","","","","","","","","","","","",""
"784","","f","psychophysics","35","277622","0.0-7.0-1.0-1.0-0.0-0.13","3","4","4","3","3","3","4","3","4","4","4","4","3","4","5","4","4","4","5","5","3","2","2","2","3","1","4","4","2","1","0","1","1","0","1","0","0","1","1","1","0","1","0","1","5","3","2","4","4","","2","4","5","2","4","769979838697312258","吴","587","","","","nonmatch","","","","","","","","","","","","","","key","f","16.666037735848835","640","356","f","true","nonmatch","img/hexagon.png","方形","六边","ALT1_2","prac_ALT1_2","","","","","","","","","","","",""
"null","<span style='color:GreenYellow; font-size: 70px;'>正确! </span>","null","html-keyboard-response","36","278124","0.0-7.0-1.0-1.0-0.0-1.13","3","4","4","3","3","3","4","3","4","4","4","4","3","4","5","4","4","4","5","5","3","2","2","2","3","1","4","4","2","1","0","1","1","0","1","0","0","1","1","1","0","1","0","1","5","3","2","4","4","","2","4","5","2","4","769979838697312258","吴","587","","","","","","","","","","","","","","","","","","","","","","","","","","","","","","feedback_test","","","","","","","","","","","",""
"953","","j","psychophysics","37","280080","0.0-7.0-1.0-1.0-0.0-0.14","3","4","4","3","3","3","4","3","4","4","4","4","3","4","5","4","4","4","5","5","3","2","2","2","3","1","4","4","2","1","0","1","1","0","1","0","0","1","1","1","0","1","0","1","5","3","2","4","4","","2","4","5","2","4","769979838697312258","吴","587","","","","match","","","","","","","","","","","","","","key","j","16.666379310345228","640","356","f","false","nonmatch","img/hexagon.png","菱形","六边","ALT1_2","prac_ALT1_2","","","","","","","","","","","",""
"null","<span style='color:red; font-size: 70px;'>错误! </span>","null","html-keyboard-response","38","280582","0.0-7.0-1.0-1.0-0.0-1.14","3","4","4","3","3","3","4","3","4","4","4","4","3","4","5","4","4","4","5","5","3","2","2","2","3","1","4","4","2","1","0","1","1","0","1","0","0","1","1","1","0","1","0","1","5","3","2","4","4","","2","4","5","2","4","769979838697312258","吴","587","","","","","","","","","","","","","","","","","","","","","","","","","","","","","","feedback_test","","","","","","","","","","","",""
"636","","j","psychophysics","39","282220","0.0-7.0-1.0-1.0-0.0-0.15","3","4","4","3","3","3","4","3","4","4","4","4","3","4","5","4","4","4","5","5","3","2","2","2","3","1","4","4","2","1","0","1","1","0","1","0","0","1","1","1","0","1","0","1","5","3","2","4","4","","2","4","5","2","4","769979838697312258","吴","587","","","","match","","","","","","","","","","","","","","key","j","16.66701030927847","640","356","j","true","match","img/diamond.png","菱形","菱形","ALT1_2","prac_ALT1_2","","","","","","","","","","","",""
"null","<span style='color:GreenYellow; font-size: 70px;'>正确! </span>","null","html-keyboard-response","40","282721","0.0-7.0-1.0-1.0-0.0-1.15","3","4","4","3","3","3","4","3","4","4","4","4","3","4","5","4","4","4","5","5","3","2","2","2","3","1","4","4","2","1","0","1","1","0","1","0","0","1","1","1","0","1","0","1","5","3","2","4","4","","2","4","5","2","4","769979838697312258","吴","587","","","","","","","","","","","","","","","","","","","","","","","","","","","","","","feedback_test","","","","","","","","","","","",""
"540","","f","psychophysics","41","284262","0.0-7.0-1.0-1.0-0.0-0.16","3","4","4","3","3","3","4","3","4","4","4","4","3","4","5","4","4","4","5","5","3","2","2","2","3","1","4","4","2","1","0","1","1","0","1","0","0","1","1","1","0","1","0","1","5","3","2","4","4","","2","4","5","2","4","769979838697312258","吴","587","","","","nonmatch","","","","","","","","","","","","","","key","f","16.66521739130384","640","356","j","false","match","img/ellipse.png","椭圆","椭圆","ALT1_2","prac_ALT1_2","","","","","","","","","","","",""
"null","<span style='color:red; font-size: 70px;'>错误! </span>","null","html-keyboard-response","42","284764","0.0-7.0-1.0-1.0-0.0-1.16","3","4","4","3","3","3","4","3","4","4","4","4","3","4","5","4","4","4","5","5","3","2","2","2","3","1","4","4","2","1","0","1","1","0","1","0","0","1","1","1","0","1","0","1","5","3","2","4","4","","2","4","5","2","4","769979838697312258","吴","587","","","","","","","","","","","","","","","","","","","","","","","","","","","","","","feedback_test","","","","","","","","","","","",""
"728","","f","psychophysics","43","286494","0.0-7.0-1.0-1.0-0.0-0.17","3","4","4","3","3","3","4","3","4","4","4","4","3","4","5","4","4","4","5","5","3","2","2","2","3","1","4","4","2","1","0","1","1","0","1","0","0","1","1","1","0","1","0","1","5","3","2","4","4","","2","4","5","2","4","769979838697312258","吴","587","","","","nonmatch","","","","","","","","","","","","","","key","f","16.66504854368932","640","356","f","true","nonmatch","img/diamond.png","椭圆","菱形","ALT1_2","prac_ALT1_2","","","","","","","","","","","",""
"null","<span style='color:GreenYellow; font-size: 70px;'>正确! </span>","null","html-keyboard-response","44","286996","0.0-7.0-1.0-1.0-0.0-1.17","3","4","4","3","3","3","4","3","4","4","4","4","3","4","5","4","4","4","5","5","3","2","2","2","3","1","4","4","2","1","0","1","1","0","1","0","0","1","1","1","0","1","0","1","5","3","2","4","4","","2","4","5","2","4","769979838697312258","吴","587","","","","","","","","","","","","","","","","","","","","","","","","","","","","","","feedback_test","","","","","","","","","","","",""
"731","","f","psychophysics","45","288729","0.0-7.0-1.0-1.0-0.0-0.18","3","4","4","3","3","3","4","3","4","4","4","4","3","4","5","4","4","4","5","5","3","2","2","2","3","1","4","4","2","1","0","1","1","0","1","0","0","1","1","1","0","1","0","1","5","3","2","4","4","","2","4","5","2","4","769979838697312258","吴","587","","","","nonmatch","","","","","","","","","","","","","","key","f","16.666019417475503","640","356","f","true","nonmatch","img/square.png","六边","方形","ALT1_2","prac_ALT1_2","","","","","","","","","","","",""
"null","<span style='color:GreenYellow; font-size: 70px;'>正确! </span>","null","html-keyboard-response","46","289230","0.0-7.0-1.0-1.0-0.0-1.18","3","4","4","3","3","3","4","3","4","4","4","4","3","4","5","4","4","4","5","5","3","2","2","2","3","1","4","4","2","1","0","1","1","0","1","0","0","1","1","1","0","1","0","1","5","3","2","4","4","","2","4","5","2","4","769979838697312258","吴","587","","","","","","","","","","","","","","","","","","","","","","","","","","","","","","feedback_test","","","","","","","","","","","",""
"791","","j","psychophysics","47","291024","0.0-7.0-1.0-1.0-0.0-0.19","3","4","4","3","3","3","4","3","4","4","4","4","3","4","5","4","4","4","5","5","3","2","2","2","3","1","4","4","2","1","0","1","1","0","1","0","0","1","1","1","0","1","0","1","5","3","2","4","4","","2","4","5","2","4","769979838697312258","吴","587","","","","match","","","","","","","","","","","","","","key","j","16.664485981308736","640","356","j","true","match","img/diamond.png","菱形","菱形","ALT1_2","prac_ALT1_2","","","","","","","","","","","",""
"null","<span style='color:GreenYellow; font-size: 70px;'>正确! </span>","null","html-keyboard-response","48","291526","0.0-7.0-1.0-1.0-0.0-1.19","3","4","4","3","3","3","4","3","4","4","4","4","3","4","5","4","4","4","5","5","3","2","2","2","3","1","4","4","2","1","0","1","1","0","1","0","0","1","1","1","0","1","0","1","5","3","2","4","4","","2","4","5","2","4","769979838697312258","吴","587","","","","","","","","","","","","","","","","","","","","","","","","","","","","","","feedback_test","","","","","","","","","","","",""
"744","","f","psychophysics","49","293272","0.0-7.0-1.0-1.0-0.0-0.20","3","4","4","3","3","3","4","3","4","4","4","4","3","4","5","4","4","4","5","5","3","2","2","2","3","1","4","4","2","1","0","1","1","0","1","0","0","1","1","1","0","1","0","1","5","3","2","4","4","","2","4","5","2","4","769979838697312258","吴","587","","","","nonmatch","","","","","","","","","","","","","","key","f","16.66442307692285","640","356","f","true","nonmatch","img/hexagon.png","椭圆","六边","ALT1_2","prac_ALT1_2","","","","","","","","","","","",""
"null","<span style='color:GreenYellow; font-size: 70px;'>正确! </span>","null","html-keyboard-response","50","293773","0.0-7.0-1.0-1.0-0.0-1.20","3","4","4","3","3","3","4","3","4","4","4","4","3","4","5","4","4","4","5","5","3","2","2","2","3","1","4","4","2","1","0","1","1","0","1","0","0","1","1","1","0","1","0","1","5","3","2","4","4","","2","4","5","2","4","769979838697312258","吴","587","","","","","","","","","","","","","","","","","","","","","","","","","","","","","","feedback_test","","","","","","","","","","","",""
"601","","f","psychophysics","51","295375","0.0-7.0-1.0-1.0-0.0-0.21","3","4","4","3","3","3","4","3","4","4","4","4","3","4","5","4","4","4","5","5","3","2","2","2","3","1","4","4","2","1","0","1","1","0","1","0","0","1","1","1","0","1","0","1","5","3","2","4","4","","2","4","5","2","4","769979838697312258","吴","587","","","","nonmatch","","","","","","","","","","","","","","key","f","16.664210526316158","640","356","j","false","match","img/ellipse.png","椭圆","椭圆","ALT1_2","prac_ALT1_2","","","","","","","","","","","",""
"null","<span style='color:red; font-size: 70px;'>错误! </span>","null","html-keyboard-response","52","295877","0.0-7.0-1.0-1.0-0.0-1.21","3","4","4","3","3","3","4","3","4","4","4","4","3","4","5","4","4","4","5","5","3","2","2","2","3","1","4","4","2","1","0","1","1","0","1","0","0","1","1","1","0","1","0","1","5","3","2","4","4","","2","4","5","2","4","769979838697312258","吴","587","","","","","","","","","","","","","","","","","","","","","","","","","","","","","","feedback_test","","","","","","","","","","","",""
"686","","f","psychophysics","53","297564","0.0-7.0-1.0-1.0-0.0-0.22","3","4","4","3","3","3","4","3","4","4","4","4","3","4","5","4","4","4","5","5","3","2","2","2","3","1","4","4","2","1","0","1","1","0","1","0","0","1","1","1","0","1","0","1","5","3","2","4","4","","2","4","5","2","4","769979838697312258","吴","587","","","","nonmatch","","","","","","","","","","","","","","key","f","16.66600000000035","640","356","j","false","match","img/hexagon.png","六边","六边","ALT1_2","prac_ALT1_2","","","","","","","","","","","",""
"null","<span style='color:red; font-size: 70px;'>错误! </span>","null","html-keyboard-response","54","298065","0.0-7.0-1.0-1.0-0.0-1.22","3","4","4","3","3","3","4","3","4","4","4","4","3","4","5","4","4","4","5","5","3","2","2","2","3","1","4","4","2","1","0","1","1","0","1","0","0","1","1","1","0","1","0","1","5","3","2","4","4","","2","4","5","2","4","769979838697312258","吴","587","","","","","","","","","","","","","","","","","","","","","","","","","","","","","","feedback_test","","","","","","","","","","","",""
"779","","j","psychophysics","55","299846","0.0-7.0-1.0-1.0-0.0-0.23","3","4","4","3","3","3","4","3","4","4","4","4","3","4","5","4","4","4","5","5","3","2","2","2","3","1","4","4","2","1","0","1","1","0","1","0","0","1","1","1","0","1","0","1","5","3","2","4","4","","2","4","5","2","4","769979838697312258","吴","587","","","","match","","","","","","","","","","","","","","key","j","16.666037735849386","640","356","f","false","nonmatch","img/ellipse.png","菱形","椭圆","ALT1_2","prac_ALT1_2","","","","","","","","","","","",""
"null","<span style='color:red; font-size: 70px;'>错误! </span>","null","html-keyboard-response","56","300347","0.0-7.0-1.0-1.0-0.0-1.23","3","4","4","3","3","3","4","3","4","4","4","4","3","4","5","4","4","4","5","5","3","2","2","2","3","1","4","4","2","1","0","1","1","0","1","0","0","1","1","1","0","1","0","1","5","3","2","4","4","","2","4","5","2","4","769979838697312258","吴","587","","","","","","","","","","","","","","","","","","","","","","","","","","","","","","feedback_test","","","","","","","","","","","",""
"646","","j","psychophysics","57","301997","0.0-7.0-1.0-1.0-0.0-0.24","3","4","4","3","3","3","4","3","4","4","4","4","3","4","5","4","4","4","5","5","3","2","2","2","3","1","4","4","2","1","0","1","1","0","1","0","0","1","1","1","0","1","0","1","5","3","2","4","4","","2","4","5","2","4","769979838697312258","吴","587","","","","match","","","","","","","","","","","","","","key","j","16.664285714285477","640","356","j","true","match","img/diamond.png","菱形","菱形","ALT1_2","prac_ALT1_2","","","","","","","","","","","",""
"null","<span style='color:GreenYellow; font-size: 70px;'>正确! </span>","null","html-keyboard-response","58","302497","0.0-7.0-1.0-1.0-0.0-1.24","3","4","4","3","3","3","4","3","4","4","4","4","3","4","5","4","4","4","5","5","3","2","2","2","3","1","4","4","2","1","0","1","1","0","1","0","0","1","1","1","0","1","0","1","5","3","2","4","4","","2","4","5","2","4","769979838697312258","吴","587","","","","","","","","","","","","","","","","","","","","","","","","","","","","","","feedback_test","","","","","","","","","","","",""
"816","","f","psychophysics","59","304315","0.0-7.0-1.0-1.0-0.0-0.25","3","4","4","3","3","3","4","3","4","4","4","4","3","4","5","4","4","4","5","5","3","2","2","2","3","1","4","4","2","1","0","1","1","0","1","0","0","1","1","1","0","1","0","1","5","3","2","4","4","","2","4","5","2","4","769979838697312258","吴","587","","","","nonmatch","","","","","","","","","","","","","","key","f","16.665740740740958","640","356","j","false","match","img/square.png","方形","方形","ALT1_2","prac_ALT1_2","","","","","","","","","","","",""
"null","<span style='color:red; font-size: 70px;'>错误! </span>","null","html-keyboard-response","60","304816","0.0-7.0-1.0-1.0-0.0-1.25","3","4","4","3","3","3","4","3","4","4","4","4","3","4","5","4","4","4","5","5","3","2","2","2","3","1","4","4","2","1","0","1","1","0","1","0","0","1","1","1","0","1","0","1","5","3","2","4","4","","2","4","5","2","4","769979838697312258","吴","587","","","","","","","","","","","","","","","","","","","","","","","","","","","","","","feedback_test","","","","","","","","","","","",""
"714","","j","psychophysics","61","306532","0.0-7.0-1.0-1.0-0.0-0.26","3","4","4","3","3","3","4","3","4","4","4","4","3","4","5","4","4","4","5","5","3","2","2","2","3","1","4","4","2","1","0","1","1","0","1","0","0","1","1","1","0","1","0","1","5","3","2","4","4","","2","4","5","2","4","769979838697312258","吴","587","","","","match","","","","","","","","","","","","","","key","j","16.667647058823302","640","356","f","false","nonmatch","img/ellipse.png","菱形","椭圆","ALT1_2","prac_ALT1_2","","","","","","","","","","","",""
"null","<span style='color:red; font-size: 70px;'>错误! </span>","null","html-keyboard-response","62","307033","0.0-7.0-1.0-1.0-0.0-1.26","3","4","4","3","3","3","4","3","4","4","4","4","3","4","5","4","4","4","5","5","3","2","2","2","3","1","4","4","2","1","0","1","1","0","1","0","0","1","1","1","0","1","0","1","5","3","2","4","4","","2","4","5","2","4","769979838697312258","吴","587","","","","","","","","","","","","","","","","","","","","","","","","","","","","","","feedback_test","","","","","","","","","","","",""
"742","","f","psychophysics","63","308777","0.0-7.0-1.0-1.0-0.0-0.27","3","4","4","3","3","3","4","3","4","4","4","4","3","4","5","4","4","4","5","5","3","2","2","2","3","1","4","4","2","1","0","1","1","0","1","0","0","1","1","1","0","1","0","1","5","3","2","4","4","","2","4","5","2","4","769979838697312258","吴","587","","","","nonmatch","","","","","","","","","","","","","","key","f","16.66442307692285","640","356","f","true","nonmatch","img/diamond.png","六边","菱形","ALT1_2","prac_ALT1_2","","","","","","","","","","","",""
"null","<span style='color:GreenYellow; font-size: 70px;'>正确! </span>","null","html-keyboard-response","64","309278","0.0-7.0-1.0-1.0-0.0-1.27","3","4","4","3","3","3","4","3","4","4","4","4","3","4","5","4","4","4","5","5","3","2","2","2","3","1","4","4","2","1","0","1","1","0","1","0","0","1","1","1","0","1","0","1","5","3","2","4","4","","2","4","5","2","4","769979838697312258","吴","587","","","","","","","","","","","","","","","","","","","","","","","","","","","","","","feedback_test","","","","","","","","","","","",""
"966","","f","psychophysics","65","311246","0.0-7.0-1.0-1.0-0.0-0.28","3","4","4","3","3","3","4","3","4","4","4","4","3","4","5","4","4","4","5","5","3","2","2","2","3","1","4","4","2","1","0","1","1","0","1","0","0","1","1","1","0","1","0","1","5","3","2","4","4","","2","4","5","2","4","769979838697312258","吴","587","","","","nonmatch","","","","","","","","","","","","","","key","f","16.664102564102663","640","356","j","false","match","img/hexagon.png","六边","六边","ALT1_2","prac_ALT1_2","","","","","","","","","","","",""
"null","<span style='color:red; font-size: 70px;'>错误! </span>","null","html-keyboard-response","66","311749","0.0-7.0-1.0-1.0-0.0-1.28","3","4","4","3","3","3","4","3","4","4","4","4","3","4","5","4","4","4","5","5","3","2","2","2","3","1","4","4","2","1","0","1","1","0","1","0","0","1","1","1","0","1","0","1","5","3","2","4","4","","2","4","5","2","4","769979838697312258","吴","587","","","","","","","","","","","","","","","","","","","","","","","","","","","","","","feedback_test","","","","","","","","","","","",""
"772","","j","psychophysics","67","313523","0.0-7.0-1.0-1.0-0.0-0.29","3","4","4","3","3","3","4","3","4","4","4","4","3","4","5","4","4","4","5","5","3","2","2","2","3","1","4","4","2","1","0","1","1","0","1","0","0","1","1","1","0","1","0","1","5","3","2","4","4","","2","4","5","2","4","769979838697312258","吴","587","","","","match","","","","","","","","","","","","","","key","j","16.66509433962264","640","356","j","true","match","img/ellipse.png","椭圆","椭圆","ALT1_2","prac_ALT1_2","","","","","","","","","","","",""
"null","<span style='color:GreenYellow; font-size: 70px;'>正确! </span>","null","html-keyboard-response","68","314025","0.0-7.0-1.0-1.0-0.0-1.29","3","4","4","3","3","3","4","3","4","4","4","4","3","4","5","4","4","4","5","5","3","2","2","2","3","1","4","4","2","1","0","1","1","0","1","0","0","1","1","1","0","1","0","1","5","3","2","4","4","","2","4","5","2","4","769979838697312258","吴","587","","","","","","","","","","","","","","","","","","","","","","","","","","","","","","feedback_test","","","","","","","","","","","",""
"635","","f","psychophysics","69","315661","0.0-7.0-1.0-1.0-0.0-0.30","3","4","4","3","3","3","4","3","4","4","4","4","3","4","5","4","4","4","5","5","3","2","2","2","3","1","4","4","2","1","0","1","1","0","1","0","0","1","1","1","0","1","0","1","5","3","2","4","4","","2","4","5","2","4","769979838697312258","吴","587","","","","nonmatch","","","","","","","","","","","","","","key","f","16.664948453608247","640","356","f","true","nonmatch","img/ellipse.png","六边","椭圆","ALT1_2","prac_ALT1_2","","","","","","","","","","","",""
"null","<span style='color:GreenYellow; font-size: 70px;'>正确! </span>","null","html-keyboard-response","70","316166","0.0-7.0-1.0-1.0-0.0-1.30","3","4","4","3","3","3","4","3","4","4","4","4","3","4","5","4","4","4","5","5","3","2","2","2","3","1","4","4","2","1","0","1","1","0","1","0","0","1","1","1","0","1","0","1","5","3","2","4","4","","2","4","5","2","4","769979838697312258","吴","587","","","","","","","","","","","","","","","","","","","","","","","","","","","","","","feedback_test","","","","","","","","","","","",""
"735","","f","psychophysics","71","317902","0.0-7.0-1.0-1.0-0.0-0.31","3","4","4","3","3","3","4","3","4","4","4","4","3","4","5","4","4","4","5","5","3","2","2","2","3","1","4","4","2","1","0","1","1","0","1","0","0","1","1","1","0","1","0","1","5","3","2","4","4","","2","4","5","2","4","769979838697312258","吴","587","","","","nonmatch","","","","","","","","","","","","","","key","f","16.66442307692285","640","356","f","true","nonmatch","img/ellipse.png","方形","椭圆","ALT1_2","prac_ALT1_2","","","","","","","","","","","",""
"null","<span style='color:GreenYellow; font-size: 70px;'>正确! </span>","null","html-keyboard-response","72","318403","0.0-7.0-1.0-1.0-0.0-1.31","3","4","4","3","3","3","4","3","4","4","4","4","3","4","5","4","4","4","5","5","3","2","2","2","3","1","4","4","2","1","0","1","1","0","1","0","0","1","1","1","0","1","0","1","5","3","2","4","4","","2","4","5","2","4","769979838697312258","吴","587","","","","","","","","","","","","","","","","","","","","","","","","","","","","","","feedback_test","","","","","","","","","","","",""
"716","","f","psychophysics","73","320120","0.0-7.0-1.0-1.0-0.0-0.32","3","4","4","3","3","3","4","3","4","4","4","4","3","4","5","4","4","4","5","5","3","2","2","2","3","1","4","4","2","1","0","1","1","0","1","0","0","1","1","1","0","1","0","1","5","3","2","4","4","","2","4","5","2","4","769979838697312258","吴","587","","","","nonmatch","","","","","","","","","","","","","","key","f","16.66372549019562","640","356","j","false","match","img/ellipse.png","椭圆","椭圆","ALT1_2","prac_ALT1_2","","","","","","","","","","","",""
"null","<span style='color:red; font-size: 70px;'>错误! </span>","null","html-keyboard-response","74","320622","0.0-7.0-1.0-1.0-0.0-1.32","3","4","4","3","3","3","4","3","4","4","4","4","3","4","5","4","4","4","5","5","3","2","2","2","3","1","4","4","2","1","0","1","1","0","1","0","0","1","1","1","0","1","0","1","5","3","2","4","4","","2","4","5","2","4","769979838697312258","吴","587","","","","","","","","","","","","","","","","","","","","","","","","","","","","","","feedback_test","","","","","","","","","","","",""
"810","","j","psychophysics","75","322433","0.0-7.0-1.0-1.0-0.0-0.33","3","4","4","3","3","3","4","3","4","4","4","4","3","4","5","4","4","4","5","5","3","2","2","2","3","1","4","4","2","1","0","1","1","0","1","0","0","1","1","1","0","1","0","1","5","3","2","4","4","","2","4","5","2","4","769979838697312258","吴","587","","","","match","","","","","","","","","","","","","","key","j","16.664485981308193","640","356","j","true","match","img/diamond.png","菱形","菱形","ALT1_2","prac_ALT1_2","","","","","","","","","","","",""
"null","<span style='color:GreenYellow; font-size: 70px;'>正确! </span>","null","html-keyboard-response","76","322934","0.0-7.0-1.0-1.0-0.0-1.33","3","4","4","3","3","3","4","3","4","4","4","4","3","4","5","4","4","4","5","5","3","2","2","2","3","1","4","4","2","1","0","1","1","0","1","0","0","1","1","1","0","1","0","1","5","3","2","4","4","","2","4","5","2","4","769979838697312258","吴","587","","","","","","","","","","","","","","","","","","","","","","","","","","","","","","feedback_test","","","","","","","","","","","",""
"738","","f","psychophysics","77","324674","0.0-7.0-1.0-1.0-0.0-0.34","3","4","4","3","3","3","4","3","4","4","4","4","3","4","5","4","4","4","5","5","3","2","2","2","3","1","4","4","2","1","0","1","1","0","1","0","0","1","1","1","0","1","0","1","5","3","2","4","4","","2","4","5","2","4","769979838697312258","吴","587","","","","nonmatch","","","","","","","","","","","","","","key","f","16.666019417475503","640","356","f","true","nonmatch","img/hexagon.png","菱形","六边","ALT1_2","prac_ALT1_2","","","","","","","","","","","",""
"null","<span style='color:GreenYellow; font-size: 70px;'>正确! </span>","null","html-keyboard-response","78","325175","0.0-7.0-1.0-1.0-0.0-1.34","3","4","4","3","3","3","4","3","4","4","4","4","3","4","5","4","4","4","5","5","3","2","2","2","3","1","4","4","2","1","0","1","1","0","1","0","0","1","1","1","0","1","0","1","5","3","2","4","4","","2","4","5","2","4","769979838697312258","吴","587","","","","","","","","","","","","","","","","","","","","","","","","","","","","","","feedback_test","","","","","","","","","","","",""
"577","","j","psychophysics","79","326754","0.0-7.0-1.0-1.0-0.0-0.35","3","4","4","3","3","3","4","3","4","4","4","4","3","4","5","4","4","4","5","5","3","2","2","2","3","1","4","4","2","1","0","1","1","0","1","0","0","1","1","1","0","1","0","1","5","3","2","4","4","","2","4","5","2","4","769979838697312258","吴","587","","","","match","","","","","","","","","","","","","","key","j","16.662765957446684","640","356","j","true","match","img/square.png","方形","方形","ALT1_2","prac_ALT1_2","","","","","","","","","","","",""
"null","<span style='color:GreenYellow; font-size: 70px;'>正确! </span>","null","html-keyboard-response","80","327256","0.0-7.0-1.0-1.0-0.0-1.35","3","4","4","3","3","3","4","3","4","4","4","4","3","4","5","4","4","4","5","5","3","2","2","2","3","1","4","4","2","1","0","1","1","0","1","0","0","1","1","1","0","1","0","1","5","3","2","4","4","","2","4","5","2","4","769979838697312258","吴","587","","","","","","","","","","","","","","","","","","","","","","","","","","","","","","feedback_test","","","","","","","","","","","",""
"829","","j","psychophysics","81","329087","0.0-7.0-1.0-1.0-0.0-0.36","3","4","4","3","3","3","4","3","4","4","4","4","3","4","5","4","4","4","5","5","3","2","2","2","3","1","4","4","2","1","0","1","1","0","1","0","0","1","1","1","0","1","0","1","5","3","2","4","4","","2","4","5","2","4","769979838697312258","吴","587","","","","match","","","","","","","","","","","","","","key","j","16.664220183486453","640","356","j","true","match","img/diamond.png","菱形","菱形","ALT1_2","prac_ALT1_2","","","","","","","","","","","",""
"null","<span style='color:GreenYellow; font-size: 70px;'>正确! </span>","null","html-keyboard-response","82","329588","0.0-7.0-1.0-1.0-0.0-1.36","3","4","4","3","3","3","4","3","4","4","4","4","3","4","5","4","4","4","5","5","3","2","2","2","3","1","4","4","2","1","0","1","1","0","1","0","0","1","1","1","0","1","0","1","5","3","2","4","4","","2","4","5","2","4","769979838697312258","吴","587","","","","","","","","","","","","","","","","","","","","","","","","","","","","","","feedback_test","","","","","","","","","","","",""
"684","","f","psychophysics","83","331275","0.0-7.0-1.0-1.0-0.0-0.37","3","4","4","3","3","3","4","3","4","4","4","4","3","4","5","4","4","4","5","5","3","2","2","2","3","1","4","4","2","1","0","1","1","0","1","0","0","1","1","1","0","1","0","1","5","3","2","4","4","","2","4","5","2","4","769979838697312258","吴","587","","","","nonmatch","","","","","","","","","","","","","","key","f","16.665","640","356","f","true","nonmatch","img/diamond.png","椭圆","菱形","ALT1_2","prac_ALT1_2","","","","","","","","","","","",""
"null","<span style='color:GreenYellow; font-size: 70px;'>正确! </span>","null","html-keyboard-response","84","331777","0.0-7.0-1.0-1.0-0.0-1.37","3","4","4","3","3","3","4","3","4","4","4","4","3","4","5","4","4","4","5","5","3","2","2","2","3","1","4","4","2","1","0","1","1","0","1","0","0","1","1","1","0","1","0","1","5","3","2","4","4","","2","4","5","2","4","769979838697312258","吴","587","","","","","","","","","","","","","","","","","","","","","","","","","","","","","","feedback_test","","","","","","","","","","","",""
"824","","j","psychophysics","85","333603","0.0-7.0-1.0-1.0-0.0-0.38","3","4","4","3","3","3","4","3","4","4","4","4","3","4","5","4","4","4","5","5","3","2","2","2","3","1","4","4","2","1","0","1","1","0","1","0","0","1","1","1","0","1","0","1","5","3","2","4","4","","2","4","5","2","4","769979838697312258","吴","587","","","","match","","","","","","","","","","","","","","key","j","16.665137614678898","640","356","f","false","nonmatch","img/diamond.png","方形","菱形","ALT1_2","prac_ALT1_2","","","","","","","","","","","",""
"null","<span style='color:red; font-size: 70px;'>错误! </span>","null","html-keyboard-response","86","334104","0.0-7.0-1.0-1.0-0.0-1.38","3","4","4","3","3","3","4","3","4","4","4","4","3","4","5","4","4","4","5","5","3","2","2","2","3","1","4","4","2","1","0","1","1","0","1","0","0","1","1","1","0","1","0","1","5","3","2","4","4","","2","4","5","2","4","769979838697312258","吴","587","","","","","","","","","","","","","","","","","","","","","","","","","","","","","","feedback_test","","","","","","","","","","","",""
"581","","j","psychophysics","87","335687","0.0-7.0-1.0-1.0-0.0-0.39","3","4","4","3","3","3","4","3","4","4","4","4","3","4","5","4","4","4","5","5","3","2","2","2","3","1","4","4","2","1","0","1","1","0","1","0","0","1","1","1","0","1","0","1","5","3","2","4","4","","2","4","5","2","4","769979838697312258","吴","587","","","","match","","","","","","","","","","","","","","key","j","16.664893617021278","640","356","f","false","nonmatch","img/square.png","菱形","方形","ALT1_2","prac_ALT1_2","","","","","","","","","","","",""
"null","<span style='color:red; font-size: 70px;'>错误! </span>","null","html-keyboard-response","88","336189","0.0-7.0-1.0-1.0-0.0-1.39","3","4","4","3","3","3","4","3","4","4","4","4","3","4","5","4","4","4","5","5","3","2","2","2","3","1","4","4","2","1","0","1","1","0","1","0","0","1","1","1","0","1","0","1","5","3","2","4","4","","2","4","5","2","4","769979838697312258","吴","587","","","","","","","","","","","","","","","","","","","","","","","","","","","","","","feedback_test","","","","","","","","","","","",""
"784","","f","psychophysics","89","337974","0.0-7.0-1.0-1.0-0.0-0.40","3","4","4","3","3","3","4","3","4","4","4","4","3","4","5","4","4","4","5","5","3","2","2","2","3","1","4","4","2","1","0","1","1","0","1","0","0","1","1","1","0","1","0","1","5","3","2","4","4","","2","4","5","2","4","769979838697312258","吴","587","","","","nonmatch","","","","","","","","","","","","","","key","f","16.66509433962264","640","356","f","true","nonmatch","img/hexagon.png","椭圆","六边","ALT1_2","prac_ALT1_2","","","","","","","","","","","",""
"null","<span style='color:GreenYellow; font-size: 70px;'>正确! </span>","null","html-keyboard-response","90","338477","0.0-7.0-1.0-1.0-0.0-1.40","3","4","4","3","3","3","4","3","4","4","4","4","3","4","5","4","4","4","5","5","3","2","2","2","3","1","4","4","2","1","0","1","1","0","1","0","0","1","1","1","0","1","0","1","5","3","2","4","4","","2","4","5","2","4","769979838697312258","吴","587","","","","","","","","","","","","","","","","","","","","","","","","","","","","","","feedback_test","","","","","","","","","","","",""
"571","","j","psychophysics","91","340049","0.0-7.0-1.0-1.0-0.0-0.41","3","4","4","3","3","3","4","3","4","4","4","4","3","4","5","4","4","4","5","5","3","2","2","2","3","1","4","4","2","1","0","1","1","0","1","0","0","1","1","1","0","1","0","1","5","3","2","4","4","","2","4","5","2","4","769979838697312258","吴","587","","","","match","","","","","","","","","","","","","","key","j","16.664893617021278","640","356","j","true","match","img/square.png","方形","方形","ALT1_2","prac_ALT1_2","","","","","","","","","","","",""
"null","<span style='color:GreenYellow; font-size: 70px;'>正确! </span>","null","html-keyboard-response","92","340550","0.0-7.0-1.0-1.0-0.0-1.41","3","4","4","3","3","3","4","3","4","4","4","4","3","4","5","4","4","4","5","5","3","2","2","2","3","1","4","4","2","1","0","1","1","0","1","0","0","1","1","1","0","1","0","1","5","3","2","4","4","","2","4","5","2","4","769979838697312258","吴","587","","","","","","","","","","","","","","","","","","","","","","","","","","","","","","feedback_test","","","","","","","","","","","",""
"623","","f","psychophysics","93","342176","0.0-7.0-1.0-1.0-0.0-0.42","3","4","4","3","3","3","4","3","4","4","4","4","3","4","5","4","4","4","5","5","3","2","2","2","3","1","4","4","2","1","0","1","1","0","1","0","0","1","1","1","0","1","0","1","5","3","2","4","4","","2","4","5","2","4","769979838697312258","吴","587","","","","nonmatch","","","","","","","","","","","","","","key","f","16.665625000000244","640","356","f","true","nonmatch","img/square.png","六边","方形","ALT1_2","prac_ALT1_2","","","","","","","","","","","",""
"null","<span style='color:GreenYellow; font-size: 70px;'>正确! </span>","null","html-keyboard-response","94","342677","0.0-7.0-1.0-1.0-0.0-1.42","3","4","4","3","3","3","4","3","4","4","4","4","3","4","5","4","4","4","5","5","3","2","2","2","3","1","4","4","2","1","0","1","1","0","1","0","0","1","1","1","0","1","0","1","5","3","2","4","4","","2","4","5","2","4","769979838697312258","吴","587","","","","","","","","","","","","","","","","","","","","","","","","","","","","","","feedback_test","","","","","","","","","","","",""
"709","","f","psychophysics","95","344388","0.0-7.0-1.0-1.0-0.0-0.43","3","4","4","3","3","3","4","3","4","4","4","4","3","4","5","4","4","4","5","5","3","2","2","2","3","1","4","4","2","1","0","1","1","0","1","0","0","1","1","1","0","1","0","1","5","3","2","4","4","","2","4","5","2","4","769979838697312258","吴","587","","","","nonmatch","","","","","","","","","","","","","","key","f","16.666666666666668","640","356","f","true","nonmatch","img/hexagon.png","方形","六边","ALT1_2","prac_ALT1_2","","","","","","","","","","","",""
"null","<span style='color:GreenYellow; font-size: 70px;'>正确! </span>","null","html-keyboard-response","96","344889","0.0-7.0-1.0-1.0-0.0-1.43","3","4","4","3","3","3","4","3","4","4","4","4","3","4","5","4","4","4","5","5","3","2","2","2","3","1","4","4","2","1","0","1","1","0","1","0","0","1","1","1","0","1","0","1","5","3","2","4","4","","2","4","5","2","4","769979838697312258","吴","587","","","","","","","","","","","","","","","","","","","","","","","","","","","","","","feedback_test","","","","","","","","","","","",""
"754","","f","psychophysics","97","346645","0.0-7.0-1.0-1.0-0.0-0.44","3","4","4","3","3","3","4","3","4","4","4","4","3","4","5","4","4","4","5","5","3","2","2","2","3","1","4","4","2","1","0","1","1","0","1","0","0","1","1","1","0","1","0","1","5","3","2","4","4","","2","4","5","2","4","769979838697312258","吴","587","","","","nonmatch","","","","","","","","","","","","","","key","f","16.665384615384728","640","356","f","true","nonmatch","img/square.png","椭圆","方形","ALT1_2","prac_ALT1_2","","","","","","","","","","","",""
"null","<span style='color:GreenYellow; font-size: 70px;'>正确! </span>","null","html-keyboard-response","98","347146","0.0-7.0-1.0-1.0-0.0-1.44","3","4","4","3","3","3","4","3","4","4","4","4","3","4","5","4","4","4","5","5","3","2","2","2","3","1","4","4","2","1","0","1","1","0","1","0","0","1","1","1","0","1","0","1","5","3","2","4","4","","2","4","5","2","4","769979838697312258","吴","587","","","","","","","","","","","","","","","","","","","","","","","","","","","","","","feedback_test","","","","","","","","","","","",""
"645","","f","psychophysics","99","348793","0.0-7.0-1.0-1.0-0.0-0.45","3","4","4","3","3","3","4","3","4","4","4","4","3","4","5","4","4","4","5","5","3","2","2","2","3","1","4","4","2","1","0","1","1","0","1","0","0","1","1","1","0","1","0","1","5","3","2","4","4","","2","4","5","2","4","769979838697312258","吴","587","","","","nonmatch","","","","","","","","","","","","","","key","f","16.650515463917287","640","356","j","false","match","img/hexagon.png","六边","六边","ALT1_2","prac_ALT1_2","","","","","","","","","","","",""
"null","<span style='color:red; font-size: 70px;'>错误! </span>","null","html-keyboard-response","100","349295","0.0-7.0-1.0-1.0-0.0-1.45","3","4","4","3","3","3","4","3","4","4","4","4","3","4","5","4","4","4","5","5","3","2","2","2","3","1","4","4","2","1","0","1","1","0","1","0","0","1","1","1","0","1","0","1","5","3","2","4","4","","2","4","5","2","4","769979838697312258","吴","587","","","","","","","","","","","","","","","","","","","","","","","","","","","","","","feedback_test","","","","","","","","","","","",""
"601","","f","psychophysics","101","350898","0.0-7.0-1.0-1.0-0.0-0.46","3","4","4","3","3","3","4","3","4","4","4","4","3","4","5","4","4","4","5","5","3","2","2","2","3","1","4","4","2","1","0","1","1","0","1","0","0","1","1","1","0","1","0","1","5","3","2","4","4","","2","4","5","2","4","769979838697312258","吴","587","","","","nonmatch","","","","","","","","","","","","","","key","f","16.66458333333382","640","356","j","false","match","img/ellipse.png","椭圆","椭圆","ALT1_2","prac_ALT1_2","","","","","","","","","","","",""
"null","<span style='color:red; font-size: 70px;'>错误! </span>","null","html-keyboard-response","102","351399","0.0-7.0-1.0-1.0-0.0-1.46","3","4","4","3","3","3","4","3","4","4","4","4","3","4","5","4","4","4","5","5","3","2","2","2","3","1","4","4","2","1","0","1","1","0","1","0","0","1","1","1","0","1","0","1","5","3","2","4","4","","2","4","5","2","4","769979838697312258","吴","587","","","","","","","","","","","","","","","","","","","","","","","","","","","","","","feedback_test","","","","","","","","","","","",""
"606","","f","psychophysics","103","353006","0.0-7.0-1.0-1.0-0.0-0.47","3","4","4","3","3","3","4","3","4","4","4","4","3","4","5","4","4","4","5","5","3","2","2","2","3","1","4","4","2","1","0","1","1","0","1","0","0","1","1","1","0","1","0","1","5","3","2","4","4","","2","4","5","2","4","769979838697312258","吴","587","","","","nonmatch","","","","","","","","","","","","","","key","f","16.66526315789486","640","356","j","false","match","img/hexagon.png","六边","六边","ALT1_2","prac_ALT1_2","","","","","","","","","","","",""
"null","<span style='color:red; font-size: 70px;'>错误! </span>","null","html-keyboard-response","104","353507","0.0-7.0-1.0-1.0-0.0-1.47","3","4","4","3","3","3","4","3","4","4","4","4","3","4","5","4","4","4","5","5","3","2","2","2","3","1","4","4","2","1","0","1","1","0","1","0","0","1","1","1","0","1","0","1","5","3","2","4","4","","2","4","5","2","4","769979838697312258","吴","587","","","","","","","","","","","","","","","","","","","","","","","","","","","","","","feedback_test","","","","","","","","","","","",""
"3428","<style>.context{color:white; font-size: 35px; line-height:40px}</style>                          <div><p class='context'>您正确回答了58% 的试次。</p><p class='context'>您的平均反应时为722毫秒。</p><p class='context'>恭喜您完成练习。按空格键继续。</p></div>"," ","html-keyboard-response","105","356938","0.0-7.0-1.0-1.0-1.0-0.0","3","4","4","3","3","3","4","3","4","4","4","4","3","4","5","4","4","4","5","5","3","2","2","2","3","1","4","4","2","1","0","1","1","0","1","0","0","1","1","1","0","1","0","1","5","3","2","4","4","","2","4","5","2","4","769979838697312258","吴","587","","","","","","","","","","","","","","","","","","","","","","","","","","","","","","","","","","","","","","","","","",""
"20196","","","instructions","106","377139","0.0-7.0-1.0-1.0-1.0-1.0","3","4","4","3","3","3","4","3","4","4","4","4","3","4","5","4","4","4","5","5","3","2","2","2","3","1","4","4","2","1","0","1","1","0","1","0","0","1","1","1","0","1","0","1","5","3","2","4","4","","2","4","5","2","4","769979838697312258","吴","587","","","","","","","","","","","","","","","","","[{""page_index"":0,""viewing_time"":3472},{""page_index"":1,""viewing_time"":14477},{""page_index"":2,""viewing_time"":2246}]","","","","","","","","","","","","","","","","","","","","","","","","",""
"580","","j","psychophysics","107","378723","0.0-7.0-1.0-1.1-0.1-0.48","3","4","4","3","3","3","4","3","4","4","4","4","3","4","5","4","4","4","5","5","3","2","2","2","3","1","4","4","2","1","0","1","1","0","1","0","0","1","1","1","0","1","0","1","5","3","2","4","4","","2","4","5","2","4","769979838697312258","吴","587","","","","match","","","","","","","","","","","","","","key","j","16.662765957447302","640","356","j","true","match","img/square.png","方形","方形","ALT1_2","prac_ALT1_2","","","","","","","","","","","",""
"null","<span style='color:GreenYellow; font-size: 70px;'>正确! </span>","null","html-keyboard-response","108","379224","0.0-7.0-1.0-1.1-0.1-1.48","3","4","4","3","3","3","4","3","4","4","4","4","3","4","5","4","4","4","5","5","3","2","2","2","3","1","4","4","2","1","0","1","1","0","1","0","0","1","1","1","0","1","0","1","5","3","2","4","4","","2","4","5","2","4","769979838697312258","吴","587","","","","","","","","","","","","","","","","","","","","","","","","","","","","","","feedback_test","","","","","","","","","","","",""
"643","","f","psychophysics","109","380870","0.0-7.0-1.0-1.1-0.1-0.49","3","4","4","3","3","3","4","3","4","4","4","4","3","4","5","4","4","4","5","5","3","2","2","2","3","1","4","4","2","1","0","1","1","0","1","0","0","1","1","1","0","1","0","1","5","3","2","4","4","","2","4","5","2","4","769979838697312258","吴","587","","","","nonmatch","","","","","","","","","","","","","","key","f","16.66428571428607","640","356","f","true","nonmatch","img/ellipse.png","菱形","椭圆","ALT1_2","prac_ALT1_2","","","","","","","","","","","",""
"null","<span style='color:GreenYellow; font-size: 70px;'>正确! </span>","null","html-keyboard-response","110","381371","0.0-7.0-1.0-1.1-0.1-1.49","3","4","4","3","3","3","4","3","4","4","4","4","3","4","5","4","4","4","5","5","3","2","2","2","3","1","4","4","2","1","0","1","1","0","1","0","0","1","1","1","0","1","0","1","5","3","2","4","4","","2","4","5","2","4","769979838697312258","吴","587","","","","","","","","","","","","","","","","","","","","","","","","","","","","","","feedback_test","","","","","","","","","","","",""
"873","","j","psychophysics","111","383247","0.0-7.0-1.0-1.1-0.1-0.50","3","4","4","3","3","3","4","3","4","4","4","4","3","4","5","4","4","4","5","5","3","2","2","2","3","1","4","4","2","1","0","1","1","0","1","0","0","1","1","1","0","1","0","1","5","3","2","4","4","","2","4","5","2","4","769979838697312258","吴","587","","","","match","","","","","","","","","","","","","","key","j","16.66607142857122","640","356","j","true","match","img/diamond.png","菱形","菱形","ALT1_2","prac_ALT1_2","","","","","","","","","","","",""
"null","<span style='color:GreenYellow; font-size: 70px;'>正确! </span>","null","html-keyboard-response","112","383749","0.0-7.0-1.0-1.1-0.1-1.50","3","4","4","3","3","3","4","3","4","4","4","4","3","4","5","4","4","4","5","5","3","2","2","2","3","1","4","4","2","1","0","1","1","0","1","0","0","1","1","1","0","1","0","1","5","3","2","4","4","","2","4","5","2","4","769979838697312258","吴","587","","","","","","","","","","","","","","","","","","","","","","","","","","","","","","feedback_test","","","","","","","","","","","",""
"573","","f","psychophysics","113","385323","0.0-7.0-1.0-1.1-0.1-0.51","3","4","4","3","3","3","4","3","4","4","4","4","3","4","5","4","4","4","5","5","3","2","2","2","3","1","4","4","2","1","0","1","1","0","1","0","0","1","1","1","0","1","0","1","5","3","2","4","4","","2","4","5","2","4","769979838697312258","吴","587","","","","nonmatch","","","","","","","","","","","","","","key","f","16.666666666666668","640","356","j","false","match","img/ellipse.png","椭圆","椭圆","ALT1_2","prac_ALT1_2","","","","","","","","","","","",""
"null","<span style='color:red; font-size: 70px;'>错误! </span>","null","html-keyboard-response","114","385824","0.0-7.0-1.0-1.1-0.1-1.51","3","4","4","3","3","3","4","3","4","4","4","4","3","4","5","4","4","4","5","5","3","2","2","2","3","1","4","4","2","1","0","1","1","0","1","0","0","1","1","1","0","1","0","1","5","3","2","4","4","","2","4","5","2","4","769979838697312258","吴","587","","","","","","","","","","","","","","","","","","","","","","","","","","","","","","feedback_test","","","","","","","","","","","",""
"905","","f","psychophysics","115","387730","0.0-7.0-1.0-1.1-0.1-0.52","3","4","4","3","3","3","4","3","4","4","4","4","3","4","5","4","4","4","5","5","3","2","2","2","3","1","4","4","2","1","0","1","1","0","1","0","0","1","1","1","0","1","0","1","5","3","2","4","4","","2","4","5","2","4","769979838697312258","吴","587","","","","nonmatch","","","","","","","","","","","","","","key","f","16.657522123893703","640","356","f","true","nonmatch","img/hexagon.png","菱形","六边","ALT1_2","prac_ALT1_2","","","","","","","","","","","",""
"null","<span style='color:GreenYellow; font-size: 70px;'>正确! </span>","null","html-keyboard-response","116","388231","0.0-7.0-1.0-1.1-0.1-1.52","3","4","4","3","3","3","4","3","4","4","4","4","3","4","5","4","4","4","5","5","3","2","2","2","3","1","4","4","2","1","0","1","1","0","1","0","0","1","1","1","0","1","0","1","5","3","2","4","4","","2","4","5","2","4","769979838697312258","吴","587","","","","","","","","","","","","","","","","","","","","","","","","","","","","","","feedback_test","","","","","","","","","","","",""
"572","","j","psychophysics","117","389805","0.0-7.0-1.0-1.1-0.1-0.53","3","4","4","3","3","3","4","3","4","4","4","4","3","4","5","4","4","4","5","5","3","2","2","2","3","1","4","4","2","1","0","1","1","0","1","0","0","1","1","1","0","1","0","1","5","3","2","4","4","","2","4","5","2","4","769979838697312258","吴","587","","","","match","","","","","","","","","","","","","","key","j","16.666666666666668","640","356","f","false","nonmatch","img/diamond.png","六边","菱形","ALT1_2","prac_ALT1_2","","","","","","","","","","","",""
"null","<span style='color:red; font-size: 70px;'>错误! </span>","null","html-keyboard-response","118","390306","0.0-7.0-1.0-1.1-0.1-1.53","3","4","4","3","3","3","4","3","4","4","4","4","3","4","5","4","4","4","5","5","3","2","2","2","3","1","4","4","2","1","0","1","1","0","1","0","0","1","1","1","0","1","0","1","5","3","2","4","4","","2","4","5","2","4","769979838697312258","吴","587","","","","","","","","","","","","","","","","","","","","","","","","","","","","","","feedback_test","","","","","","","","","","","",""
"709","","j","psychophysics","119","392017","0.0-7.0-1.0-1.1-0.1-0.54","3","4","4","3","3","3","4","3","4","4","4","4","3","4","5","4","4","4","5","5","3","2","2","2","3","1","4","4","2","1","0","1","1","0","1","0","0","1","1","1","0","1","0","1","5","3","2","4","4","","2","4","5","2","4","769979838697312258","吴","587","","","","match","","","","","","","","","","","","","","key","j","16.660396039604077","640","356","j","true","match","img/diamond.png","菱形","菱形","ALT1_2","prac_ALT1_2","","","","","","","","","","","",""
"null","<span style='color:GreenYellow; font-size: 70px;'>正确! </span>","null","html-keyboard-response","120","392518","0.0-7.0-1.0-1.1-0.1-1.54","3","4","4","3","3","3","4","3","4","4","4","4","3","4","5","4","4","4","5","5","3","2","2","2","3","1","4","4","2","1","0","1","1","0","1","0","0","1","1","1","0","1","0","1","5","3","2","4","4","","2","4","5","2","4","769979838697312258","吴","587","","","","","","","","","","","","","","","","","","","","","","","","","","","","","","feedback_test","","","","","","","","","","","",""
"760","","j","psychophysics","121","394279","0.0-7.0-1.0-1.1-0.1-0.55","3","4","4","3","3","3","4","3","4","4","4","4","3","4","5","4","4","4","5","5","3","2","2","2","3","1","4","4","2","1","0","1","1","0","1","0","0","1","1","1","0","1","0","1","5","3","2","4","4","","2","4","5","2","4","769979838697312258","吴","587","","","","match","","","","","","","","","","","","","","key","j","16.666666666666668","640","356","j","true","match","img/ellipse.png","椭圆","椭圆","ALT1_2","prac_ALT1_2","","","","","","","","","","","",""
"null","<span style='color:GreenYellow; font-size: 70px;'>正确! </span>","null","html-keyboard-response","122","394780","0.0-7.0-1.0-1.1-0.1-1.55","3","4","4","3","3","3","4","3","4","4","4","4","3","4","5","4","4","4","5","5","3","2","2","2","3","1","4","4","2","1","0","1","1","0","1","0","0","1","1","1","0","1","0","1","5","3","2","4","4","","2","4","5","2","4","769979838697312258","吴","587","","","","","","","","","","","","","","","","","","","","","","","","","","","","","","feedback_test","","","","","","","","","","","",""
"810","","j","psychophysics","123","396593","0.0-7.0-1.0-1.1-0.1-0.56","3","4","4","3","3","3","4","3","4","4","4","4","3","4","5","4","4","4","5","5","3","2","2","2","3","1","4","4","2","1","0","1","1","0","1","0","0","1","1","1","0","1","0","1","5","3","2","4","4","","2","4","5","2","4","769979838697312258","吴","587","","","","match","","","","","","","","","","","","","","key","j","16.666666666666668","640","356","f","false","nonmatch","img/diamond.png","方形","菱形","ALT1_2","prac_ALT1_2","","","","","","","","","","","",""
"null","<span style='color:red; font-size: 70px;'>错误! </span>","null","html-keyboard-response","124","397103","0.0-7.0-1.0-1.1-0.1-1.56","3","4","4","3","3","3","4","3","4","4","4","4","3","4","5","4","4","4","5","5","3","2","2","2","3","1","4","4","2","1","0","1","1","0","1","0","0","1","1","1","0","1","0","1","5","3","2","4","4","","2","4","5","2","4","769979838697312258","吴","587","","","","","","","","","","","","","","","","","","","","","","","","","","","","","","feedback_test","","","","","","","","","","","",""
"673","","j","psychophysics","125","398779","0.0-7.0-1.0-1.1-0.1-0.57","3","4","4","3","3","3","4","3","4","4","4","4","3","4","5","4","4","4","5","5","3","2","2","2","3","1","4","4","2","1","0","1","1","0","1","0","0","1","1","1","0","1","0","1","5","3","2","4","4","","2","4","5","2","4","769979838697312258","吴","587","","","","match","","","","","","","","","","","","","","key","j","16.665999999999766","640","356","j","true","match","img/diamond.png","菱形","菱形","ALT1_2","prac_ALT1_2","","","","","","","","","","","",""
"null","<span style='color:GreenYellow; font-size: 70px;'>正确! </span>","null","html-keyboard-response","126","399280","0.0-7.0-1.0-1.1-0.1-1.57","3","4","4","3","3","3","4","3","4","4","4","4","3","4","5","4","4","4","5","5","3","2","2","2","3","1","4","4","2","1","0","1","1","0","1","0","0","1","1","1","0","1","0","1","5","3","2","4","4","","2","4","5","2","4","769979838697312258","吴","587","","","","","","","","","","","","","","","","","","","","","","","","","","","","","","feedback_test","","","","","","","","","","","",""
"509","","f","psychophysics","127","400792","0.0-7.0-1.0-1.1-0.1-0.58","3","4","4","3","3","3","4","3","4","4","4","4","3","4","5","4","4","4","5","5","3","2","2","2","3","1","4","4","2","1","0","1","1","0","1","0","0","1","1","1","0","1","0","1","5","3","2","4","4","","2","4","5","2","4","769979838697312258","吴","587","","","","nonmatch","","","","","","","","","","","","","","key","f","16.665555555555816","640","356","j","false","match","img/hexagon.png","六边","六边","ALT1_2","prac_ALT1_2","","","","","","","","","","","",""
"null","<span style='color:red; font-size: 70px;'>错误! </span>","null","html-keyboard-response","128","401294","0.0-7.0-1.0-1.1-0.1-1.58","3","4","4","3","3","3","4","3","4","4","4","4","3","4","5","4","4","4","5","5","3","2","2","2","3","1","4","4","2","1","0","1","1","0","1","0","0","1","1","1","0","1","0","1","5","3","2","4","4","","2","4","5","2","4","769979838697312258","吴","587","","","","","","","","","","","","","","","","","","","","","","","","","","","","","","feedback_test","","","","","","","","","","","",""
"500","","j","psychophysics","129","402796","0.0-7.0-1.0-1.1-0.1-0.59","3","4","4","3","3","3","4","3","4","4","4","4","3","4","5","4","4","4","5","5","3","2","2","2","3","1","4","4","2","1","0","1","1","0","1","0","0","1","1","1","0","1","0","1","5","3","2","4","4","","2","4","5","2","4","769979838697312258","吴","587","","","","match","","","","","","","","","","","","","","key","j","16.665168539325972","640","356","j","true","match","img/hexagon.png","六边","六边","ALT1_2","prac_ALT1_2","","","","","","","","","","","",""
"null","<span style='color:GreenYellow; font-size: 70px;'>正确! </span>","null","html-keyboard-response","130","403299","0.0-7.0-1.0-1.1-0.1-1.59","3","4","4","3","3","3","4","3","4","4","4","4","3","4","5","4","4","4","5","5","3","2","2","2","3","1","4","4","2","1","0","1","1","0","1","0","0","1","1","1","0","1","0","1","5","3","2","4","4","","2","4","5","2","4","769979838697312258","吴","587","","","","","","","","","","","","","","","","","","","","","","","","","","","","","","feedback_test","","","","","","","","","","","",""
"701","","f","psychophysics","131","405001","0.0-7.0-1.0-1.1-0.1-0.60","3","4","4","3","3","3","4","3","4","4","4","4","3","4","5","4","4","4","5","5","3","2","2","2","3","1","4","4","2","1","0","1","1","0","1","0","0","1","1","1","0","1","0","1","5","3","2","4","4","","2","4","5","2","4","769979838697312258","吴","587","","","","nonmatch","","","","","","","","","","","","","","key","f","16.66534653465358","640","356","f","true","nonmatch","img/square.png","椭圆","方形","ALT1_2","prac_ALT1_2","","","","","","","","","","","",""
"null","<span style='color:GreenYellow; font-size: 70px;'>正确! </span>","null","html-keyboard-response","132","405503","0.0-7.0-1.0-1.1-0.1-1.60","3","4","4","3","3","3","4","3","4","4","4","4","3","4","5","4","4","4","5","5","3","2","2","2","3","1","4","4","2","1","0","1","1","0","1","0","0","1","1","1","0","1","0","1","5","3","2","4","4","","2","4","5","2","4","769979838697312258","吴","587","","","","","","","","","","","","","","","","","","","","","","","","","","","","","","feedback_test","","","","","","","","","","","",""
"574","","j","psychophysics","133","407079","0.0-7.0-1.0-1.1-0.1-0.61","3","4","4","3","3","3","4","3","4","4","4","4","3","4","5","4","4","4","5","5","3","2","2","2","3","1","4","4","2","1","0","1","1","0","1","0","0","1","1","1","0","1","0","1","5","3","2","4","4","","2","4","5","2","4","769979838697312258","吴","587","","","","match","","","","","","","","","","","","","","key","j","16.664893617021278","640","356","j","true","match","img/hexagon.png","六边","六边","ALT1_2","prac_ALT1_2","","","","","","","","","","","",""
"null","<span style='color:GreenYellow; font-size: 70px;'>正确! </span>","null","html-keyboard-response","134","407581","0.0-7.0-1.0-1.1-0.1-1.61","3","4","4","3","3","3","4","3","4","4","4","4","3","4","5","4","4","4","5","5","3","2","2","2","3","1","4","4","2","1","0","1","1","0","1","0","0","1","1","1","0","1","0","1","5","3","2","4","4","","2","4","5","2","4","769979838697312258","吴","587","","","","","","","","","","","","","","","","","","","","","","","","","","","","","","feedback_test","","","","","","","","","","","",""
"686","","j","psychophysics","135","409269","0.0-7.0-1.0-1.1-0.1-0.62","3","4","4","3","3","3","4","3","4","4","4","4","3","4","5","4","4","4","5","5","3","2","2","2","3","1","4","4","2","1","0","1","1","0","1","0","0","1","1","1","0","1","0","1","5","3","2","4","4","","2","4","5","2","4","769979838697312258","吴","587","","","","match","","","","","","","","","","","","","","key","j","16.665","640","356","f","false","nonmatch","img/square.png","六边","方形","ALT1_2","prac_ALT1_2","","","","","","","","","","","",""
"null","<span style='color:red; font-size: 70px;'>错误! </span>","null","html-keyboard-response","136","409771","0.0-7.0-1.0-1.1-0.1-1.62","3","4","4","3","3","3","4","3","4","4","4","4","3","4","5","4","4","4","5","5","3","2","2","2","3","1","4","4","2","1","0","1","1","0","1","0","0","1","1","1","0","1","0","1","5","3","2","4","4","","2","4","5","2","4","769979838697312258","吴","587","","","","","","","","","","","","","","","","","","","","","","","","","","","","","","feedback_test","","","","","","","","","","","",""
"652","","f","psychophysics","137","411425","0.0-7.0-1.0-1.1-0.1-0.63","3","4","4","3","3","3","4","3","4","4","4","4","3","4","5","4","4","4","5","5","3","2","2","2","3","1","4","4","2","1","0","1","1","0","1","0","0","1","1","1","0","1","0","1","5","3","2","4","4","","2","4","5","2","4","769979838697312258","吴","587","","","","nonmatch","","","","","","","","","","","","","","key","f","16.6612244897958","640","356","f","true","nonmatch","img/hexagon.png","椭圆","六边","ALT1_2","prac_ALT1_2","","","","","","","","","","","",""
"null","<span style='color:GreenYellow; font-size: 70px;'>正确! </span>","null","html-keyboard-response","138","411927","0.0-7.0-1.0-1.1-0.1-1.63","3","4","4","3","3","3","4","3","4","4","4","4","3","4","5","4","4","4","5","5","3","2","2","2","3","1","4","4","2","1","0","1","1","0","1","0","0","1","1","1","0","1","0","1","5","3","2","4","4","","2","4","5","2","4","769979838697312258","吴","587","","","","","","","","","","","","","","","","","","","","","","","","","","","","","","feedback_test","","","","","","","","","","","",""
"572","","j","psychophysics","139","413500","0.0-7.0-1.0-1.1-0.1-0.64","3","4","4","3","3","3","4","3","4","4","4","4","3","4","5","4","4","4","5","5","3","2","2","2","3","1","4","4","2","1","0","1","1","0","1","0","0","1","1","1","0","1","0","1","5","3","2","4","4","","2","4","5","2","4","769979838697312258","吴","587","","","","match","","","","","","","","","","","","","","key","j","16.666666666666668","640","356","f","false","nonmatch","img/ellipse.png","六边","椭圆","ALT1_2","prac_ALT1_2","","","","","","","","","","","",""
"null","<span style='color:red; font-size: 70px;'>错误! </span>","null","html-keyboard-response","140","414002","0.0-7.0-1.0-1.1-0.1-1.64","3","4","4","3","3","3","4","3","4","4","4","4","3","4","5","4","4","4","5","5","3","2","2","2","3","1","4","4","2","1","0","1","1","0","1","0","0","1","1","1","0","1","0","1","5","3","2","4","4","","2","4","5","2","4","769979838697312258","吴","587","","","","","","","","","","","","","","","","","","","","","","","","","","","","","","feedback_test","","","","","","","","","","","",""
"759","","f","psychophysics","141","415763","0.0-7.0-1.0-1.1-0.1-0.65","3","4","4","3","3","3","4","3","4","4","4","4","3","4","5","4","4","4","5","5","3","2","2","2","3","1","4","4","2","1","0","1","1","0","1","0","0","1","1","1","0","1","0","1","5","3","2","4","4","","2","4","5","2","4","769979838697312258","吴","587","","","","nonmatch","","","","","","","","","","","","","","key","f","16.664761904761793","640","356","f","true","nonmatch","img/square.png","菱形","方形","ALT1_2","prac_ALT1_2","","","","","","","","","","","",""
"null","<span style='color:GreenYellow; font-size: 70px;'>正确! </span>","null","html-keyboard-response","142","416264","0.0-7.0-1.0-1.1-0.1-1.65","3","4","4","3","3","3","4","3","4","4","4","4","3","4","5","4","4","4","5","5","3","2","2","2","3","1","4","4","2","1","0","1","1","0","1","0","0","1","1","1","0","1","0","1","5","3","2","4","4","","2","4","5","2","4","769979838697312258","吴","587","","","","","","","","","","","","","","","","","","","","","","","","","","","","","","feedback_test","","","","","","","","","","","",""
"661","","f","psychophysics","143","417929","0.0-7.0-1.0-1.1-0.1-0.66","3","4","4","3","3","3","4","3","4","4","4","4","3","4","5","4","4","4","5","5","3","2","2","2","3","1","4","4","2","1","0","1","1","0","1","0","0","1","1","1","0","1","0","1","5","3","2","4","4","","2","4","5","2","4","769979838697312258","吴","587","","","","nonmatch","","","","","","","","","","","","","","key","f","16.665656565656214","640","356","f","true","nonmatch","img/ellipse.png","方形","椭圆","ALT1_2","prac_ALT1_2","","","","","","","","","","","",""
"null","<span style='color:GreenYellow; font-size: 70px;'>正确! </span>","null","html-keyboard-response","144","418430","0.0-7.0-1.0-1.1-0.1-1.66","3","4","4","3","3","3","4","3","4","4","4","4","3","4","5","4","4","4","5","5","3","2","2","2","3","1","4","4","2","1","0","1","1","0","1","0","0","1","1","1","0","1","0","1","5","3","2","4","4","","2","4","5","2","4","769979838697312258","吴","587","","","","","","","","","","","","","","","","","","","","","","","","","","","","","","feedback_test","","","","","","","","","","","",""
"658","","j","psychophysics","145","420090","0.0-7.0-1.0-1.1-0.1-0.67","3","4","4","3","3","3","4","3","4","4","4","4","3","4","5","4","4","4","5","5","3","2","2","2","3","1","4","4","2","1","0","1","1","0","1","0","0","1","1","1","0","1","0","1","5","3","2","4","4","","2","4","5","2","4","769979838697312258","吴","587","","","","match","","","","","","","","","","","","","","key","j","16.6656565656568","640","356","j","true","match","img/square.png","方形","方形","ALT1_2","prac_ALT1_2","","","","","","","","","","","",""
"null","<span style='color:GreenYellow; font-size: 70px;'>正确! </span>","null","html-keyboard-response","146","420591","0.0-7.0-1.0-1.1-0.1-1.67","3","4","4","3","3","3","4","3","4","4","4","4","3","4","5","4","4","4","5","5","3","2","2","2","3","1","4","4","2","1","0","1","1","0","1","0","0","1","1","1","0","1","0","1","5","3","2","4","4","","2","4","5","2","4","769979838697312258","吴","587","","","","","","","","","","","","","","","","","","","","","","","","","","","","","","feedback_test","","","","","","","","","","","",""
"649","","j","psychophysics","147","422242","0.0-7.0-1.0-1.1-0.1-0.68","3","4","4","3","3","3","4","3","4","4","4","4","3","4","5","4","4","4","5","5","3","2","2","2","3","1","4","4","2","1","0","1","1","0","1","0","0","1","1","1","0","1","0","1","5","3","2","4","4","","2","4","5","2","4","769979838697312258","吴","587","","","","match","","","","","","","","","","","","","","key","j","16.6653061224491","640","356","j","true","match","img/ellipse.png","椭圆","椭圆","ALT1_2","prac_ALT1_2","","","","","","","","","","","",""
"null","<span style='color:GreenYellow; font-size: 70px;'>正确! </span>","null","html-keyboard-response","148","422743","0.0-7.0-1.0-1.1-0.1-1.68","3","4","4","3","3","3","4","3","4","4","4","4","3","4","5","4","4","4","5","5","3","2","2","2","3","1","4","4","2","1","0","1","1","0","1","0","0","1","1","1","0","1","0","1","5","3","2","4","4","","2","4","5","2","4","769979838697312258","吴","587","","","","","","","","","","","","","","","","","","","","","","","","","","","","","","feedback_test","","","","","","","","","","","",""
"663","","f","psychophysics","149","424408","0.0-7.0-1.0-1.1-0.1-0.69","3","4","4","3","3","3","4","3","4","4","4","4","3","4","5","4","4","4","5","5","3","2","2","2","3","1","4","4","2","1","0","1","1","0","1","0","0","1","1","1","0","1","0","1","5","3","2","4","4","","2","4","5","2","4","769979838697312258","吴","587","","","","nonmatch","","","","","","","","","","","","","","key","f","16.664646464646346","640","356","f","true","nonmatch","img/hexagon.png","方形","六边","ALT1_2","prac_ALT1_2","","","","","","","","","","","",""
"null","<span style='color:GreenYellow; font-size: 70px;'>正确! </span>","null","html-keyboard-response","150","424909","0.0-7.0-1.0-1.1-0.1-1.69","3","4","4","3","3","3","4","3","4","4","4","4","3","4","5","4","4","4","5","5","3","2","2","2","3","1","4","4","2","1","0","1","1","0","1","0","0","1","1","1","0","1","0","1","5","3","2","4","4","","2","4","5","2","4","769979838697312258","吴","587","","","","","","","","","","","","","","","","","","","","","","","","","","","","","","feedback_test","","","","","","","","","","","",""
"518","","j","psychophysics","151","426429","0.0-7.0-1.0-1.1-0.1-0.70","3","4","4","3","3","3","4","3","4","4","4","4","3","4","5","4","4","4","5","5","3","2","2","2","3","1","4","4","2","1","0","1","1","0","1","0","0","1","1","1","0","1","0","1","5","3","2","4","4","","2","4","5","2","4","769979838697312258","吴","587","","","","match","","","","","","","","","","","","","","key","j","16.665555555555816","640","356","j","true","match","img/square.png","方形","方形","ALT1_2","prac_ALT1_2","","","","","","","","","","","",""
"null","<span style='color:GreenYellow; font-size: 70px;'>正确! </span>","null","html-keyboard-response","152","426930","0.0-7.0-1.0-1.1-0.1-1.70","3","4","4","3","3","3","4","3","4","4","4","4","3","4","5","4","4","4","5","5","3","2","2","2","3","1","4","4","2","1","0","1","1","0","1","0","0","1","1","1","0","1","0","1","5","3","2","4","4","","2","4","5","2","4","769979838697312258","吴","587","","","","","","","","","","","","","","","","","","","","","","","","","","","","","","feedback_test","","","","","","","","","","","",""
"614","","f","psychophysics","153","428547","0.0-7.0-1.0-1.1-0.1-0.71","3","4","4","3","3","3","4","3","4","4","4","4","3","4","5","4","4","4","5","5","3","2","2","2","3","1","4","4","2","1","0","1","1","0","1","0","0","1","1","1","0","1","0","1","5","3","2","4","4","","2","4","5","2","4","769979838697312258","吴","587","","","","nonmatch","","","","","","","","","","","","","","key","f","16.666666666666668","640","356","f","true","nonmatch","img/diamond.png","椭圆","菱形","ALT1_2","prac_ALT1_2","","","","","","","","","","","",""
"null","<span style='color:GreenYellow; font-size: 70px;'>正确! </span>","null","html-keyboard-response","154","429049","0.0-7.0-1.0-1.1-0.1-1.71","3","4","4","3","3","3","4","3","4","4","4","4","3","4","5","4","4","4","5","5","3","2","2","2","3","1","4","4","2","1","0","1","1","0","1","0","0","1","1","1","0","1","0","1","5","3","2","4","4","","2","4","5","2","4","769979838697312258","吴","587","","","","","","","","","","","","","","","","","","","","","","","","","","","","","","feedback_test","","","","","","","","","","","",""
"556","","j","psychophysics","155","430608","0.0-7.0-1.0-1.1-0.1-0.72","3","4","4","3","3","3","4","3","4","4","4","4","3","4","5","4","4","4","5","5","3","2","2","2","3","1","4","4","2","1","0","1","1","0","1","0","0","1","1","1","0","1","0","1","5","3","2","4","4","","2","4","5","2","4","769979838697312258","吴","587","","","","match","","","","","","","","","","","","","","key","j","16.665591397849713","640","356","j","true","match","img/hexagon.png","六边","六边","ALT1_2","prac_ALT1_2","","","","","","","","","","","",""
"null","<span style='color:GreenYellow; font-size: 70px;'>正确! </span>","null","html-keyboard-response","156","431110","0.0-7.0-1.0-1.1-0.1-1.72","3","4","4","3","3","3","4","3","4","4","4","4","3","4","5","4","4","4","5","5","3","2","2","2","3","1","4","4","2","1","0","1","1","0","1","0","0","1","1","1","0","1","0","1","5","3","2","4","4","","2","4","5","2","4","769979838697312258","吴","587","","","","","","","","","","","","","","","","","","","","","","","","","","","","","","feedback_test","","","","","","","","","","","",""
"744","","f","psychophysics","157","432855","0.0-7.0-1.0-1.1-0.1-0.73","3","4","4","3","3","3","4","3","4","4","4","4","3","4","5","4","4","4","5","5","3","2","2","2","3","1","4","4","2","1","0","1","1","0","1","0","0","1","1","1","0","1","0","1","5","3","2","4","4","","2","4","5","2","4","769979838697312258","吴","587","","","","nonmatch","","","","","","","","","","","","","","key","f","16.665384615384728","640","356","f","true","nonmatch","img/hexagon.png","菱形","六边","ALT1_2","prac_ALT1_2","","","","","","","","","","","",""
"null","<span style='color:GreenYellow; font-size: 70px;'>正确! </span>","null","html-keyboard-response","158","433356","0.0-7.0-1.0-1.1-0.1-1.73","3","4","4","3","3","3","4","3","4","4","4","4","3","4","5","4","4","4","5","5","3","2","2","2","3","1","4","4","2","1","0","1","1","0","1","0","0","1","1","1","0","1","0","1","5","3","2","4","4","","2","4","5","2","4","769979838697312258","吴","587","","","","","","","","","","","","","","","","","","","","","","","","","","","","","","feedback_test","","","","","","","","","","","",""
"602","","f","psychophysics","159","434959","0.0-7.0-1.0-1.1-0.1-0.74","3","4","4","3","3","3","4","3","4","4","4","4","3","4","5","4","4","4","5","5","3","2","2","2","3","1","4","4","2","1","0","1","1","0","1","0","0","1","1","1","0","1","0","1","5","3","2","4","4","","2","4","5","2","4","769979838697312258","吴","587","","","","nonmatch","","","","","","","","","","","","","","key","f","16.664210526316158","640","356","f","true","nonmatch","img/ellipse.png","六边","椭圆","ALT1_2","prac_ALT1_2","","","","","","","","","","","",""
"null","<span style='color:GreenYellow; font-size: 70px;'>正确! </span>","null","html-keyboard-response","160","435461","0.0-7.0-1.0-1.1-0.1-1.74","3","4","4","3","3","3","4","3","4","4","4","4","3","4","5","4","4","4","5","5","3","2","2","2","3","1","4","4","2","1","0","1","1","0","1","0","0","1","1","1","0","1","0","1","5","3","2","4","4","","2","4","5","2","4","769979838697312258","吴","587","","","","","","","","","","","","","","","","","","","","","","","","","","","","","","feedback_test","","","","","","","","","","","",""
"761","","f","psychophysics","161","437225","0.0-7.0-1.0-1.1-0.1-0.75","3","4","4","3","3","3","4","3","4","4","4","4","3","4","5","4","4","4","5","5","3","2","2","2","3","1","4","4","2","1","0","1","1","0","1","0","0","1","1","1","0","1","0","1","5","3","2","4","4","","2","4","5","2","4","769979838697312258","吴","587","","","","nonmatch","","","","","","","","","","","","","","key","f","16.663809523809636","640","356","f","true","nonmatch","img/square.png","六边","方形","ALT1_2","prac_ALT1_2","","","","","","","","","","","",""
"null","<span style='color:GreenYellow; font-size: 70px;'>正确! </span>","null","html-keyboard-response","162","437726","0.0-7.0-1.0-1.1-0.1-1.75","3","4","4","3","3","3","4","3","4","4","4","4","3","4","5","4","4","4","5","5","3","2","2","2","3","1","4","4","2","1","0","1","1","0","1","0","0","1","1","1","0","1","0","1","5","3","2","4","4","","2","4","5","2","4","769979838697312258","吴","587","","","","","","","","","","","","","","","","","","","","","","","","","","","","","","feedback_test","","","","","","","","","","","",""
"610","","f","psychophysics","163","439337","0.0-7.0-1.0-1.1-0.1-0.76","3","4","4","3","3","3","4","3","4","4","4","4","3","4","5","4","4","4","5","5","3","2","2","2","3","1","4","4","2","1","0","1","1","0","1","0","0","1","1","1","0","1","0","1","5","3","2","4","4","","2","4","5","2","4","769979838697312258","吴","587","","","","nonmatch","","","","","","","","","","","","","","key","f","16.665625000000244","640","356","f","true","nonmatch","img/square.png","椭圆","方形","ALT1_2","prac_ALT1_2","","","","","","","","","","","",""
"null","<span style='color:GreenYellow; font-size: 70px;'>正确! </span>","null","html-keyboard-response","164","439839","0.0-7.0-1.0-1.1-0.1-1.76","3","4","4","3","3","3","4","3","4","4","4","4","3","4","5","4","4","4","5","5","3","2","2","2","3","1","4","4","2","1","0","1","1","0","1","0","0","1","1","1","0","1","0","1","5","3","2","4","4","","2","4","5","2","4","769979838697312258","吴","587","","","","","","","","","","","","","","","","","","","","","","","","","","","","","","feedback_test","","","","","","","","","","","",""
"687","","f","psychophysics","165","441527","0.0-7.0-1.0-1.1-0.1-0.77","3","4","4","3","3","3","4","3","4","4","4","4","3","4","5","4","4","4","5","5","3","2","2","2","3","1","4","4","2","1","0","1","1","0","1","0","0","1","1","1","0","1","0","1","5","3","2","4","4","","2","4","5","2","4","769979838697312258","吴","587","","","","nonmatch","","","","","","","","","","","","","","key","f","16.665","640","356","f","true","nonmatch","img/diamond.png","椭圆","菱形","ALT1_2","prac_ALT1_2","","","","","","","","","","","",""
"null","<span style='color:GreenYellow; font-size: 70px;'>正确! </span>","null","html-keyboard-response","166","442029","0.0-7.0-1.0-1.1-0.1-1.77","3","4","4","3","3","3","4","3","4","4","4","4","3","4","5","4","4","4","5","5","3","2","2","2","3","1","4","4","2","1","0","1","1","0","1","0","0","1","1","1","0","1","0","1","5","3","2","4","4","","2","4","5","2","4","769979838697312258","吴","587","","","","","","","","","","","","","","","","","","","","","","","","","","","","","","feedback_test","","","","","","","","","","","",""
"683","","j","psychophysics","167","443714","0.0-7.0-1.0-1.1-0.1-0.78","3","4","4","3","3","3","4","3","4","4","4","4","3","4","5","4","4","4","5","5","3","2","2","2","3","1","4","4","2","1","0","1","1","0","1","0","0","1","1","1","0","1","0","1","5","3","2","4","4","","2","4","5","2","4","769979838697312258","吴","587","","","","match","","","","","","","","","","","","","","key","j","16.665","640","356","j","true","match","img/hexagon.png","六边","六边","ALT1_2","prac_ALT1_2","","","","","","","","","","","",""
"null","<span style='color:GreenYellow; font-size: 70px;'>正确! </span>","null","html-keyboard-response","168","444215","0.0-7.0-1.0-1.1-0.1-1.78","3","4","4","3","3","3","4","3","4","4","4","4","3","4","5","4","4","4","5","5","3","2","2","2","3","1","4","4","2","1","0","1","1","0","1","0","0","1","1","1","0","1","0","1","5","3","2","4","4","","2","4","5","2","4","769979838697312258","吴","587","","","","","","","","","","","","","","","","","","","","","","","","","","","","","","feedback_test","","","","","","","","","","","",""
"616","","j","psychophysics","169","445832","0.0-7.0-1.0-1.1-0.1-0.79","3","4","4","3","3","3","4","3","4","4","4","4","3","4","5","4","4","4","5","5","3","2","2","2","3","1","4","4","2","1","0","1","1","0","1","0","0","1","1","1","0","1","0","1","5","3","2","4","4","","2","4","5","2","4","769979838697312258","吴","587","","","","match","","","","","","","","","","","","","","key","j","16.666666666666668","640","356","j","true","match","img/square.png","方形","方形","ALT1_2","prac_ALT1_2","","","","","","","","","","","",""
"null","<span style='color:GreenYellow; font-size: 70px;'>正确! </span>","null","html-keyboard-response","170","446334","0.0-7.0-1.0-1.1-0.1-1.79","3","4","4","3","3","3","4","3","4","4","4","4","3","4","5","4","4","4","5","5","3","2","2","2","3","1","4","4","2","1","0","1","1","0","1","0","0","1","1","1","0","1","0","1","5","3","2","4","4","","2","4","5","2","4","769979838697312258","吴","587","","","","","","","","","","","","","","","","","","","","","","","","","","","","","","feedback_test","","","","","","","","","","","",""
"829","","f","psychophysics","171","448164","0.0-7.0-1.0-1.1-0.1-0.80","3","4","4","3","3","3","4","3","4","4","4","4","3","4","5","4","4","4","5","5","3","2","2","2","3","1","4","4","2","1","0","1","1","0","1","0","0","1","1","1","0","1","0","1","5","3","2","4","4","","2","4","5","2","4","769979838697312258","吴","587","","","","nonmatch","","","","","","","","","","","","","","key","f","16.661111111111328","640","356","f","true","nonmatch","img/diamond.png","六边","菱形","ALT1_2","prac_ALT1_2","","","","","","","","","","","",""
"null","<span style='color:GreenYellow; font-size: 70px;'>正确! </span>","null","html-keyboard-response","172","448665","0.0-7.0-1.0-1.1-0.1-1.80","3","4","4","3","3","3","4","3","4","4","4","4","3","4","5","4","4","4","5","5","3","2","2","2","3","1","4","4","2","1","0","1","1","0","1","0","0","1","1","1","0","1","0","1","5","3","2","4","4","","2","4","5","2","4","769979838697312258","吴","587","","","","","","","","","","","","","","","","","","","","","","","","","","","","","","feedback_test","","","","","","","","","","","",""
"585","","j","psychophysics","173","450252","0.0-7.0-1.0-1.1-0.1-0.81","3","4","4","3","3","3","4","3","4","4","4","4","3","4","5","4","4","4","5","5","3","2","2","2","3","1","4","4","2","1","0","1","1","0","1","0","0","1","1","1","0","1","0","1","5","3","2","4","4","","2","4","5","2","4","769979838697312258","吴","587","","","","match","","","","","","","","","","","","","","key","j","16.66315789473684","640","356","j","true","match","img/ellipse.png","椭圆","椭圆","ALT1_2","prac_ALT1_2","","","","","","","","","","","",""
"null","<span style='color:GreenYellow; font-size: 70px;'>正确! </span>","null","html-keyboard-response","174","450759","0.0-7.0-1.0-1.1-0.1-1.81","3","4","4","3","3","3","4","3","4","4","4","4","3","4","5","4","4","4","5","5","3","2","2","2","3","1","4","4","2","1","0","1","1","0","1","0","0","1","1","1","0","1","0","1","5","3","2","4","4","","2","4","5","2","4","769979838697312258","吴","587","","","","","","","","","","","","","","","","","","","","","","","","","","","","","","feedback_test","","","","","","","","","","","",""
"610","","j","psychophysics","175","452371","0.0-7.0-1.0-1.1-0.1-0.82","3","4","4","3","3","3","4","3","4","4","4","4","3","4","5","4","4","4","5","5","3","2","2","2","3","1","4","4","2","1","0","1","1","0","1","0","0","1","1","1","0","1","0","1","5","3","2","4","4","","2","4","5","2","4","769979838697312258","吴","587","","","","match","","","","","","","","","","","","","","key","j","16.665624999999636","640","356","j","true","match","img/square.png","方形","方形","ALT1_2","prac_ALT1_2","","","","","","","","","","","",""
"null","<span style='color:GreenYellow; font-size: 70px;'>正确! </span>","null","html-keyboard-response","176","452872","0.0-7.0-1.0-1.1-0.1-1.82","3","4","4","3","3","3","4","3","4","4","4","4","3","4","5","4","4","4","5","5","3","2","2","2","3","1","4","4","2","1","0","1","1","0","1","0","0","1","1","1","0","1","0","1","5","3","2","4","4","","2","4","5","2","4","769979838697312258","吴","587","","","","","","","","","","","","","","","","","","","","","","","","","","","","","","feedback_test","","","","","","","","","","","",""
"724","","f","psychophysics","177","454597","0.0-7.0-1.0-1.1-0.1-0.83","3","4","4","3","3","3","4","3","4","4","4","4","3","4","5","4","4","4","5","5","3","2","2","2","3","1","4","4","2","1","0","1","1","0","1","0","0","1","1","1","0","1","0","1","5","3","2","4","4","","2","4","5","2","4","769979838697312258","吴","587","","","","nonmatch","","","","","","","","","","","","","","key","f","16.663725490196192","640","356","f","true","nonmatch","img/hexagon.png","椭圆","六边","ALT1_2","prac_ALT1_2","","","","","","","","","","","",""
"null","<span style='color:GreenYellow; font-size: 70px;'>正确! </span>","null","html-keyboard-response","178","455099","0.0-7.0-1.0-1.1-0.1-1.83","3","4","4","3","3","3","4","3","4","4","4","4","3","4","5","4","4","4","5","5","3","2","2","2","3","1","4","4","2","1","0","1","1","0","1","0","0","1","1","1","0","1","0","1","5","3","2","4","4","","2","4","5","2","4","769979838697312258","吴","587","","","","","","","","","","","","","","","","","","","","","","","","","","","","","","feedback_test","","","","","","","","","","","",""
"714","","j","psychophysics","179","456814","0.0-7.0-1.0-1.1-0.1-0.84","3","4","4","3","3","3","4","3","4","4","4","4","3","4","5","4","4","4","5","5","3","2","2","2","3","1","4","4","2","1","0","1","1","0","1","0","0","1","1","1","0","1","0","1","5","3","2","4","4","","2","4","5","2","4","769979838697312258","吴","587","","","","match","","","","","","","","","","","","","","key","j","16.656435643564816","640","356","j","true","match","img/square.png","方形","方形","ALT1_2","prac_ALT1_2","","","","","","","","","","","",""
"null","<span style='color:GreenYellow; font-size: 70px;'>正确! </span>","null","html-keyboard-response","180","457316","0.0-7.0-1.0-1.1-0.1-1.84","3","4","4","3","3","3","4","3","4","4","4","4","3","4","5","4","4","4","5","5","3","2","2","2","3","1","4","4","2","1","0","1","1","0","1","0","0","1","1","1","0","1","0","1","5","3","2","4","4","","2","4","5","2","4","769979838697312258","吴","587","","","","","","","","","","","","","","","","","","","","","","","","","","","","","","feedback_test","","","","","","","","","","","",""
"647","","f","psychophysics","181","458964","0.0-7.0-1.0-1.1-0.1-0.85","3","4","4","3","3","3","4","3","4","4","4","4","3","4","5","4","4","4","5","5","3","2","2","2","3","1","4","4","2","1","0","1","1","0","1","0","0","1","1","1","0","1","0","1","5","3","2","4","4","","2","4","5","2","4","769979838697312258","吴","587","","","","nonmatch","","","","","","","","","","","","","","key","f","16.664948453608247","640","356","f","true","nonmatch","img/square.png","菱形","方形","ALT1_2","prac_ALT1_2","","","","","","","","","","","",""
"null","<span style='color:GreenYellow; font-size: 70px;'>正确! </span>","null","html-keyboard-response","182","459475","0.0-7.0-1.0-1.1-0.1-1.85","3","4","4","3","3","3","4","3","4","4","4","4","3","4","5","4","4","4","5","5","3","2","2","2","3","1","4","4","2","1","0","1","1","0","1","0","0","1","1","1","0","1","0","1","5","3","2","4","4","","2","4","5","2","4","769979838697312258","吴","587","","","","","","","","","","","","","","","","","","","","","","","","","","","","","","feedback_test","","","","","","","","","","","",""
