"rt","stimulus","response","trial_type","trial_index","time_elapsed","internal_node_id","ses_1","ses_2","ses_3","ses_4","ses_5","ses_6","ses_7","ses_8","ses_9","ses_10","coreself_1","coreself_2","coreself_3","coreself_4","coreself_5","coreself_6","coreself_7","coreself_8","coreself_9","coreself_10","SGPS_1","SGPS_2","SGPS_3","SGPS_4","SGPS_5","SGPS_6","SGPS_7","SGPS_8","SGPS_9","NPI1","NPI2","NPI3","NPI4","NPI5","NPI6","NPI7","NPI8","NPI9","NPI10","NPI11","NPI12","NPI13","NPI14","NPI15","hsns_1","hsns_2","hsns_3","hsns_4","hsns_5","trap1","hsns_6","hsns_7","hsns_8","hsns_9","hsns_10","subj_idx","friend_name","ParticipantID","value","success","user_agent","responses","item_order","radio_event_ids","radio_event_times","key_event_times","mouse_event_times","straightlining","zigzagging","honeypot","timeout","failed_images","failed_audio","failed_video","view_history","response_type","key_press","avg_frame_time","center_x","center_y","correct_response","correct","identity","Image","word","condition","task_id","screen_id","time_stamp","version_attrib","version_target","IAT","RT","varname","summary","version_attrib2","version_target2","question_order","correct_answer","trap1_item"
"1946","
   <p><div style = ""color: white;font-size:25px;"">您好，欢迎参加本次实验。</div> </p>
   <p><div style = ""color: white;font-size:25px;"">为充分保障您的权利，请确保您已经知晓并同意《参与实验同意书》以及《数据公开知情同意书》。</div></p>
   <p><div style = ""color: white;font-size:25px;"">如果您未见过上述内容，请咨询实验员。</div></p>
   <p><div style = ""color: white;font-size:25px;"">如果您选择继续实验，则表示您已经清楚两份知情同意书的内容并同意。</div></p>
   <p><div style = ""color: pink;font-size:30px;"">请确保您记得day0的实验编号，您将在本次实验输入该编号，若您忘记，请咨询实验员后作答。</div></p>
   <p><div style = ""color: lightblue;font-size:25px;"">请您尽可能认真地作答，我们将依据您在各问卷和按键任务中的作答质量发放报酬。</div></p>
   <p> <div style = ""color: green;font-size:25px;""><按空格键至下页></div> </p>
   "," ","html-keyboard-response","0","1952","0.0-0.0","3","4","4","3","3","4","3","2","4","3","4","5","5","4","4","5","4","5","4","4","1","2","2","1","2","1","2","1","2","1","1","1","1","0","0","0","0","0","1","1","0","1","0","1","4","2","1","2","1","3","1","2","2","4","1","688779620236918784","黄","601","","","","","","","","","","","","","","","","","","","","","","","","","","","","","","","","","","","","","","","","","",""
"","","","call-function","1","1953","0.0-1.0-0.0","3","4","4","3","3","4","3","2","4","3","4","5","5","4","4","5","4","5","4","4","1","2","2","1","2","1","2","1","2","1","1","1","1","0","0","0","0","0","1","1","0","1","0","1","4","2","1","2","1","3","1","2","2","4","1","688779620236918784","黄","601","","","","","","","","","","","","","","","","","","","","","","","","","","","","","","","","","","","","","","","","","",""
"75577","","{""friend_name"":""黄"",""ParticipantID"":""601""}","survey-html-form","2","77532","0.0-1.0-1.0","3","4","4","3","3","4","3","2","4","3","4","5","5","4","4","5","4","5","4","4","1","2","2","1","2","1","2","1","2","1","1","1","1","0","0","0","0","0","1","1","0","1","0","1","4","2","1","2","1","3","1","2","2","4","1","688779620236918784","黄","601","","","","","","","","","","","","","","","","","","","","","","","","","","","","","","","","","","","","","","","","","",""
"","","","fullscreen","3","91031","0.0-2.0","3","4","4","3","3","4","3","2","4","3","4","5","5","4","4","5","4","5","4","4","1","2","2","1","2","1","2","1","2","1","1","1","1","0","0","0","0","0","1","1","0","1","0","1","4","2","1","2","1","3","1","2","2","4","1","688779620236918784","黄","601","","true","{""brands"":[{""brand"":""Edge"",""version"":""107""},{""brand"":""Chromium"",""version"":""107""},{""brand"":""Not=A?Brand"",""version"":""24""}],""mobile"":false,""platform"":""macOS""}","","","","","","","","","","","","","","","","","","","","","","","","","","","","","","","","","","","","","","",""
"43094.40000003576","","{""Q01"":""3"",""Q02"":""4"",""Q03"":""4"",""Q04"":""3"",""Q05"":""3"",""Q06"":""4"",""Q07"":""3"",""Q08"":""2"",""Q09"":""4"",""Q10"":""3""}","survey-template","4","134133","0.0-3.0","3","4","4","3","3","4","3","2","4","3","4","5","5","4","4","5","4","5","4","4","1","2","2","1","2","1","2","1","2","1","1","1","1","0","0","0","0","0","1","1","0","1","0","1","4","2","1","2","1","3","1","2","2","4","1","688779620236918784","黄","601","","","","{""Q01"":""3"",""Q02"":""4"",""Q03"":""4"",""Q04"":""3"",""Q05"":""3"",""Q06"":""4"",""Q07"":""3"",""Q08"":""2"",""Q09"":""4"",""Q10"":""3""}","[0,1,2,3,4,5,6,7,8,9]","[""Q01"",""Q02"",""Q03"",""Q03"",""Q04"",""Q05"",""Q06"",""Q07"",""Q08"",""Q09"",""Q10""]","[6745.400000035763,8324.600000023842,9780.800000011921,10642.699999988079,13749.5,14886.699999988079,16575.100000023842,18298.900000035763,20734,22295.900000035763,23733.100000023842]","[]","[6745.400000035763,8324.600000023842,9780.800000011921,10642.699999988079,11978.400000035763,13749.5,14509.199999988079,14886.699999988079,16575.100000023842,18298.900000035763,20734,22295.900000035763,23261,23733.100000023842,43093.10000002384]","0.4","0.5555555555555556","0","","","","","","","","","","","","","","","","","","","","","","","","","","","","","",""
"58658.30000001192","","{""Q01"":""4"",""Q02"":""5"",""Q03"":""5"",""Q04"":""4"",""Q05"":""4"",""Q06"":""5"",""Q07"":""4"",""Q08"":""5"",""Q09"":""4"",""Q10"":""4""}","survey-template","5","192802","0.0-4.0","3","4","4","3","3","4","3","2","4","3","4","5","5","4","4","5","4","5","4","4","1","2","2","1","2","1","2","1","2","1","1","1","1","0","0","0","0","0","1","1","0","1","0","1","4","2","1","2","1","3","1","2","2","4","1","688779620236918784","黄","601","","","","{""Q01"":""4"",""Q02"":""5"",""Q03"":""5"",""Q04"":""4"",""Q05"":""4"",""Q06"":""5"",""Q07"":""4"",""Q08"":""5"",""Q09"":""4"",""Q10"":""4""}","[0,1,2,3,4,5,6,7,8,9]","[""Q01"",""Q02"",""Q03"",""Q04"",""Q05"",""Q06"",""Q07"",""Q08"",""Q09"",""Q10""]","[2788.699999988079,4910.699999988079,6353.599999964237,8005.099999964237,8950.699999988079,10564.5,18798.80000001192,26610.69999998808,33212.89999997616,35452.30000001192]","[]","[2788.699999988079,4910.699999988079,6353.599999964237,7584.599999964237,8005.099999964237,8950.699999988079,10564.5,18798.80000001192,26610.69999998808,33212.89999997616,35452.30000001192,58656.80000001192]","0.3","0.1111111111111111","0","","","","","","","","","","","","","","","","","","","","","","","","","","","","","",""
"","","","preload","6","193101","0.0-5.0","3","4","4","3","3","4","3","2","4","3","4","5","5","4","4","5","4","5","4","4","1","2","2","1","2","1","2","1","2","1","1","1","1","0","0","0","0","0","1","1","0","1","0","1","4","2","1","2","1","3","1","2","2","4","1","688779620236918784","黄","601","","true","","","","","","","","","","","false","[]","[]","[]","","","","","","","","","","","","","","","","","","","","","","","","","",""
"25616","","","instructions","7","218718","0.0-6.0","3","4","4","3","3","4","3","2","4","3","4","5","5","4","4","5","4","5","4","4","1","2","2","1","2","1","2","1","2","1","1","1","1","0","0","0","0","0","1","1","0","1","0","1","4","2","1","2","1","3","1","2","2","4","1","688779620236918784","黄","601","","","","","","","","","","","","","","","","","[{""page_index"":0,""viewing_time"":25615}]","","","","","","","","","","","","","","","","","","","","","","","","",""
"12955","","","instructions","8","231675","0.0-7.0-0.0-0.0","3","4","4","3","3","4","3","2","4","3","4","5","5","4","4","5","4","5","4","4","1","2","2","1","2","1","2","1","2","1","1","1","1","0","0","0","0","0","1","1","0","1","0","1","4","2","1","2","1","3","1","2","2","4","1","688779620236918784","黄","601","","","","","","","","","","","","","","","","","[{""page_index"":0,""viewing_time"":3804},{""page_index"":1,""viewing_time"":2052},{""page_index"":0,""viewing_time"":5173},{""page_index"":1,""viewing_time"":1012},{""page_index"":2,""viewing_time"":912}]","","","","","","","","","","","","","","","","","","","","","","","","",""
"755","","j","psychophysics","9","233437","0.0-7.0-0.0-1.0-0.0-0.0","3","4","4","3","3","4","3","2","4","3","4","5","5","4","4","5","4","5","4","4","1","2","2","1","2","1","2","1","2","1","1","1","1","0","0","0","0","0","1","1","0","1","0","1","4","2","1","2","1","3","1","2","2","4","1","688779620236918784","黄","601","","","","match","","","","","","","","","","","","","","key","j","16.81522330097081","640","356","f","false","nonmatch","img/trapezoid.png","椭圆","梯形","ALT1_1","prac_ALT1_1","","","","","","","","","","","",""
"null","<span style='color:red; font-size: 70px;'>错误! </span>","null","html-keyboard-response","10","233940","0.0-7.0-0.0-1.0-0.0-1.0","3","4","4","3","3","4","3","2","4","3","4","5","5","4","4","5","4","5","4","4","1","2","2","1","2","1","2","1","2","1","1","1","1","0","0","0","0","0","1","1","0","1","0","1","4","2","1","2","1","3","1","2","2","4","1","688779620236918784","黄","601","","","","","","","","","","","","","","","","","","","","","","","","","","","","","","feedback_test","","","","","","","","","","","",""
"1031","","j","psychophysics","11","235976","0.0-7.0-0.0-1.0-0.0-0.1","3","4","4","3","3","4","3","2","4","3","4","5","5","4","4","5","4","5","4","4","1","2","2","1","2","1","2","1","2","1","1","1","1","0","0","0","0","0","1","1","0","1","0","1","4","2","1","2","1","3","1","2","2","4","1","688779620236918784","黄","601","","","","match","","","","","","","","","","","","","","key","j","16.65371074380155","640","356","j","true","match","img/triangle.png","三角","三角","ALT1_1","prac_ALT1_1","","","","","","","","","","","",""
"null","<span style='color:GreenYellow; font-size: 70px;'>正确! </span>","null","html-keyboard-response","12","236480","0.0-7.0-0.0-1.0-0.0-1.1","3","4","4","3","3","4","3","2","4","3","4","5","5","4","4","5","4","5","4","4","1","2","2","1","2","1","2","1","2","1","1","1","1","0","0","0","0","0","1","1","0","1","0","1","4","2","1","2","1","3","1","2","2","4","1","688779620236918784","黄","601","","","","","","","","","","","","","","","","","","","","","","","","","","","","","","feedback_test","","","","","","","","","","","",""
"818","","j","psychophysics","13","238300","0.0-7.0-0.0-1.0-0.0-0.2","3","4","4","3","3","4","3","2","4","3","4","5","5","4","4","5","4","5","4","4","1","2","2","1","2","1","2","1","2","1","1","1","1","0","0","0","0","0","1","1","0","1","0","1","4","2","1","2","1","3","1","2","2","4","1","688779620236918784","黄","601","","","","match","","","","","","","","","","","","","","key","j","16.654203703703523","640","356","j","true","match","img/hexagon.png","六边","六边","ALT1_1","prac_ALT1_1","","","","","","","","","","","",""
"null","<span style='color:GreenYellow; font-size: 70px;'>正确! </span>","null","html-keyboard-response","14","238802","0.0-7.0-0.0-1.0-0.0-1.2","3","4","4","3","3","4","3","2","4","3","4","5","5","4","4","5","4","5","4","4","1","2","2","1","2","1","2","1","2","1","1","1","1","0","0","0","0","0","1","1","0","1","0","1","4","2","1","2","1","3","1","2","2","4","1","688779620236918784","黄","601","","","","","","","","","","","","","","","","","","","","","","","","","","","","","","feedback_test","","","","","","","","","","","",""
"776","","j","psychophysics","15","240580","0.0-7.0-0.0-1.0-0.0-0.3","3","4","4","3","3","4","3","2","4","3","4","5","5","4","4","5","4","5","4","4","1","2","2","1","2","1","2","1","2","1","1","1","1","0","0","0","0","0","1","1","0","1","0","1","4","2","1","2","1","3","1","2","2","4","1","688779620236918784","黄","601","","","","match","","","","","","","","","","","","","","key","j","16.648180952381033","640","356","j","true","match","img/ellipse.png","椭圆","椭圆","ALT1_1","prac_ALT1_1","","","","","","","","","","","",""
"null","<span style='color:GreenYellow; font-size: 70px;'>正确! </span>","null","html-keyboard-response","16","241082","0.0-7.0-0.0-1.0-0.0-1.3","3","4","4","3","3","4","3","2","4","3","4","5","5","4","4","5","4","5","4","4","1","2","2","1","2","1","2","1","2","1","1","1","1","0","0","0","0","0","1","1","0","1","0","1","4","2","1","2","1","3","1","2","2","4","1","688779620236918784","黄","601","","","","","","","","","","","","","","","","","","","","","","","","","","","","","","feedback_test","","","","","","","","","","","",""
"730","","j","psychophysics","17","242814","0.0-7.0-0.0-1.0-0.0-0.4","3","4","4","3","3","4","3","2","4","3","4","5","5","4","4","5","4","5","4","4","1","2","2","1","2","1","2","1","2","1","1","1","1","0","0","0","0","0","1","1","0","1","0","1","4","2","1","2","1","3","1","2","2","4","1","688779620236918784","黄","601","","","","match","","","","","","","","","","","","","","key","j","16.653300970873865","640","356","f","false","nonmatch","img/triangle.png","梯形","三角","ALT1_1","prac_ALT1_1","","","","","","","","","","","",""
"null","<span style='color:red; font-size: 70px;'>错误! </span>","null","html-keyboard-response","18","243315","0.0-7.0-0.0-1.0-0.0-1.4","3","4","4","3","3","4","3","2","4","3","4","5","5","4","4","5","4","5","4","4","1","2","2","1","2","1","2","1","2","1","1","1","1","0","0","0","0","0","1","1","0","1","0","1","4","2","1","2","1","3","1","2","2","4","1","688779620236918784","黄","601","","","","","","","","","","","","","","","","","","","","","","","","","","","","","","feedback_test","","","","","","","","","","","",""
"787","","f","psychophysics","19","245104","0.0-7.0-0.0-1.0-0.0-0.5","3","4","4","3","3","4","3","2","4","3","4","5","5","4","4","5","4","5","4","4","1","2","2","1","2","1","2","1","2","1","1","1","1","0","0","0","0","0","1","1","0","1","0","1","4","2","1","2","1","3","1","2","2","4","1","688779620236918784","黄","601","","","","nonmatch","","","","","","","","","","","","","","key","f","16.649330188679226","640","356","f","true","nonmatch","img/hexagon.png","三角","六边","ALT1_1","prac_ALT1_1","","","","","","","","","","","",""
"null","<span style='color:GreenYellow; font-size: 70px;'>正确! </span>","null","html-keyboard-response","20","245606","0.0-7.0-0.0-1.0-0.0-1.5","3","4","4","3","3","4","3","2","4","3","4","5","5","4","4","5","4","5","4","4","1","2","2","1","2","1","2","1","2","1","1","1","1","0","0","0","0","0","1","1","0","1","0","1","4","2","1","2","1","3","1","2","2","4","1","688779620236918784","黄","601","","","","","","","","","","","","","","","","","","","","","","","","","","","","","","feedback_test","","","","","","","","","","","",""
"923","","f","psychophysics","21","247531","0.0-7.0-0.0-1.0-0.0-0.6","3","4","4","3","3","4","3","2","4","3","4","5","5","4","4","5","4","5","4","4","1","2","2","1","2","1","2","1","2","1","1","1","1","0","0","0","0","0","1","1","0","1","0","1","4","2","1","2","1","3","1","2","2","4","1","688779620236918784","黄","601","","","","nonmatch","","","","","","","","","","","","","","key","f","16.653464912280917","640","356","f","true","nonmatch","img/ellipse.png","梯形","椭圆","ALT1_1","prac_ALT1_1","","","","","","","","","","","",""
"null","<span style='color:GreenYellow; font-size: 70px;'>正确! </span>","null","html-keyboard-response","22","248034","0.0-7.0-0.0-1.0-0.0-1.6","3","4","4","3","3","4","3","2","4","3","4","5","5","4","4","5","4","5","4","4","1","2","2","1","2","1","2","1","2","1","1","1","1","0","0","0","0","0","1","1","0","1","0","1","4","2","1","2","1","3","1","2","2","4","1","688779620236918784","黄","601","","","","","","","","","","","","","","","","","","","","","","","","","","","","","","feedback_test","","","","","","","","","","","",""
"697","","j","psychophysics","23","249733","0.0-7.0-0.0-1.0-0.0-0.7","3","4","4","3","3","4","3","2","4","3","4","5","5","4","4","5","4","5","4","4","1","2","2","1","2","1","2","1","2","1","1","1","1","0","0","0","0","0","1","1","0","1","0","1","4","2","1","2","1","3","1","2","2","4","1","688779620236918784","黄","601","","","","match","","","","","","","","","","","","","","key","j","16.65162376237608","640","356","j","true","match","img/ellipse.png","椭圆","椭圆","ALT1_1","prac_ALT1_1","","","","","","","","","","","",""
"null","<span style='color:GreenYellow; font-size: 70px;'>正确! </span>","null","html-keyboard-response","24","250236","0.0-7.0-0.0-1.0-0.0-1.7","3","4","4","3","3","4","3","2","4","3","4","5","5","4","4","5","4","5","4","4","1","2","2","1","2","1","2","1","2","1","1","1","1","0","0","0","0","0","1","1","0","1","0","1","4","2","1","2","1","3","1","2","2","4","1","688779620236918784","黄","601","","","","","","","","","","","","","","","","","","","","","","","","","","","","","","feedback_test","","","","","","","","","","","",""
"769","","f","psychophysics","25","252007","0.0-7.0-0.0-1.0-0.0-0.8","3","4","4","3","3","4","3","2","4","3","4","5","5","4","4","5","4","5","4","4","1","2","2","1","2","1","2","1","2","1","1","1","1","0","0","0","0","0","1","1","0","1","0","1","4","2","1","2","1","3","1","2","2","4","1","688779620236918784","黄","601","","","","nonmatch","","","","","","","","","","","","","","key","f","16.648914285714273","640","356","f","true","nonmatch","img/hexagon.png","椭圆","六边","ALT1_1","prac_ALT1_1","","","","","","","","","","","",""
"null","<span style='color:GreenYellow; font-size: 70px;'>正确! </span>","null","html-keyboard-response","26","252517","0.0-7.0-0.0-1.0-0.0-1.8","3","4","4","3","3","4","3","2","4","3","4","5","5","4","4","5","4","5","4","4","1","2","2","1","2","1","2","1","2","1","1","1","1","0","0","0","0","0","1","1","0","1","0","1","4","2","1","2","1","3","1","2","2","4","1","688779620236918784","黄","601","","","","","","","","","","","","","","","","","","","","","","","","","","","","","","feedback_test","","","","","","","","","","","",""
"756","","j","psychophysics","27","254275","0.0-7.0-0.0-1.0-0.0-0.9","3","4","4","3","3","4","3","2","4","3","4","5","5","4","4","5","4","5","4","4","1","2","2","1","2","1","2","1","2","1","1","1","1","0","0","0","0","0","1","1","0","1","0","1","4","2","1","2","1","3","1","2","2","4","1","688779620236918784","黄","601","","","","match","","","","","","","","","","","","","","key","j","16.649874999999994","640","356","j","true","match","img/trapezoid.png","梯形","梯形","ALT1_1","prac_ALT1_1","","","","","","","","","","","",""
"null","<span style='color:GreenYellow; font-size: 70px;'>正确! </span>","null","html-keyboard-response","28","254777","0.0-7.0-0.0-1.0-0.0-1.9","3","4","4","3","3","4","3","2","4","3","4","5","5","4","4","5","4","5","4","4","1","2","2","1","2","1","2","1","2","1","1","1","1","0","0","0","0","0","1","1","0","1","0","1","4","2","1","2","1","3","1","2","2","4","1","688779620236918784","黄","601","","","","","","","","","","","","","","","","","","","","","","","","","","","","","","feedback_test","","","","","","","","","","","",""
"637","","j","psychophysics","29","256416","0.0-7.0-0.0-1.0-0.0-0.10","3","4","4","3","3","4","3","2","4","3","4","5","5","4","4","5","4","5","4","4","1","2","2","1","2","1","2","1","2","1","1","1","1","0","0","0","0","0","1","1","0","1","0","1","4","2","1","2","1","3","1","2","2","4","1","688779620236918784","黄","601","","","","match","","","","","","","","","","","","","","key","j","16.653312500000236","640","356","j","true","match","img/trapezoid.png","梯形","梯形","ALT1_1","prac_ALT1_1","","","","","","","","","","","",""
"null","<span style='color:GreenYellow; font-size: 70px;'>正确! </span>","null","html-keyboard-response","30","256918","0.0-7.0-0.0-1.0-0.0-1.10","3","4","4","3","3","4","3","2","4","3","4","5","5","4","4","5","4","5","4","4","1","2","2","1","2","1","2","1","2","1","1","1","1","0","0","0","0","0","1","1","0","1","0","1","4","2","1","2","1","3","1","2","2","4","1","688779620236918784","黄","601","","","","","","","","","","","","","","","","","","","","","","","","","","","","","","feedback_test","","","","","","","","","","","",""
"789","","j","psychophysics","31","258709","0.0-7.0-0.0-1.0-0.0-0.11","3","4","4","3","3","4","3","2","4","3","4","5","5","4","4","5","4","5","4","4","1","2","2","1","2","1","2","1","2","1","1","1","1","0","0","0","0","0","1","1","0","1","0","1","4","2","1","2","1","3","1","2","2","4","1","688779620236918784","黄","601","","","","match","","","","","","","","","","","","","","key","j","16.65342056074791","640","356","j","true","match","img/triangle.png","三角","三角","ALT1_1","prac_ALT1_1","","","","","","","","","","","",""
"null","<span style='color:GreenYellow; font-size: 70px;'>正确! </span>","null","html-keyboard-response","32","259210","0.0-7.0-0.0-1.0-0.0-1.11","3","4","4","3","3","4","3","2","4","3","4","5","5","4","4","5","4","5","4","4","1","2","2","1","2","1","2","1","2","1","1","1","1","0","0","0","0","0","1","1","0","1","0","1","4","2","1","2","1","3","1","2","2","4","1","688779620236918784","黄","601","","","","","","","","","","","","","","","","","","","","","","","","","","","","","","feedback_test","","","","","","","","","","","",""
"548","","j","psychophysics","33","260759","0.0-7.0-0.0-1.0-0.0-0.12","3","4","4","3","3","4","3","2","4","3","4","5","5","4","4","5","4","5","4","4","1","2","2","1","2","1","2","1","2","1","1","1","1","0","0","0","0","0","1","1","0","1","0","1","4","2","1","2","1","3","1","2","2","4","1","688779620236918784","黄","601","","","","match","","","","","","","","","","","","","","key","j","16.653195652173725","640","356","j","true","match","img/triangle.png","三角","三角","ALT1_1","prac_ALT1_1","","","","","","","","","","","",""
"null","<span style='color:GreenYellow; font-size: 70px;'>正确! </span>","null","html-keyboard-response","34","261260","0.0-7.0-0.0-1.0-0.0-1.12","3","4","4","3","3","4","3","2","4","3","4","5","5","4","4","5","4","5","4","4","1","2","2","1","2","1","2","1","2","1","1","1","1","0","0","0","0","0","1","1","0","1","0","1","4","2","1","2","1","3","1","2","2","4","1","688779620236918784","黄","601","","","","","","","","","","","","","","","","","","","","","","","","","","","","","","feedback_test","","","","","","","","","","","",""
"734","","j","psychophysics","35","263000","0.0-7.0-0.0-1.0-0.0-0.13","3","4","4","3","3","4","3","2","4","3","4","5","5","4","4","5","4","5","4","4","1","2","2","1","2","1","2","1","2","1","1","1","1","0","0","0","0","0","1","1","0","1","0","1","4","2","1","2","1","3","1","2","2","4","1","688779620236918784","黄","601","","","","match","","","","","","","","","","","","","","key","j","16.653431372548678","640","356","j","true","match","img/ellipse.png","椭圆","椭圆","ALT1_1","prac_ALT1_1","","","","","","","","","","","",""
"null","<span style='color:GreenYellow; font-size: 70px;'>正确! </span>","null","html-keyboard-response","36","263504","0.0-7.0-0.0-1.0-0.0-1.13","3","4","4","3","3","4","3","2","4","3","4","5","5","4","4","5","4","5","4","4","1","2","2","1","2","1","2","1","2","1","1","1","1","0","0","0","0","0","1","1","0","1","0","1","4","2","1","2","1","3","1","2","2","4","1","688779620236918784","黄","601","","","","","","","","","","","","","","","","","","","","","","","","","","","","","","feedback_test","","","","","","","","","","","",""
"690","","f","psychophysics","37","265196","0.0-7.0-0.0-1.0-0.0-0.14","3","4","4","3","3","4","3","2","4","3","4","5","5","4","4","5","4","5","4","4","1","2","2","1","2","1","2","1","2","1","1","1","1","0","0","0","0","0","1","1","0","1","0","1","4","2","1","2","1","3","1","2","2","4","1","688779620236918784","黄","601","","","","nonmatch","","","","","","","","","","","","","","key","f","16.65442424242425","640","356","f","true","nonmatch","img/triangle.png","椭圆","三角","ALT1_1","prac_ALT1_1","","","","","","","","","","","",""
"null","<span style='color:GreenYellow; font-size: 70px;'>正确! </span>","null","html-keyboard-response","38","265697","0.0-7.0-0.0-1.0-0.0-1.14","3","4","4","3","3","4","3","2","4","3","4","5","5","4","4","5","4","5","4","4","1","2","2","1","2","1","2","1","2","1","1","1","1","0","0","0","0","0","1","1","0","1","0","1","4","2","1","2","1","3","1","2","2","4","1","688779620236918784","黄","601","","","","","","","","","","","","","","","","","","","","","","","","","","","","","","feedback_test","","","","","","","","","","","",""
"634","","f","psychophysics","39","267332","0.0-7.0-0.0-1.0-0.0-0.15","3","4","4","3","3","4","3","2","4","3","4","5","5","4","4","5","4","5","4","4","1","2","2","1","2","1","2","1","2","1","1","1","1","0","0","0","0","0","1","1","0","1","0","1","4","2","1","2","1","3","1","2","2","4","1","688779620236918784","黄","601","","","","nonmatch","","","","","","","","","","","","","","key","f","16.652886597938313","640","356","f","true","nonmatch","img/ellipse.png","三角","椭圆","ALT1_1","prac_ALT1_1","","","","","","","","","","","",""
"null","<span style='color:GreenYellow; font-size: 70px;'>正确! </span>","null","html-keyboard-response","40","267834","0.0-7.0-0.0-1.0-0.0-1.15","3","4","4","3","3","4","3","2","4","3","4","5","5","4","4","5","4","5","4","4","1","2","2","1","2","1","2","1","2","1","1","1","1","0","0","0","0","0","1","1","0","1","0","1","4","2","1","2","1","3","1","2","2","4","1","688779620236918784","黄","601","","","","","","","","","","","","","","","","","","","","","","","","","","","","","","feedback_test","","","","","","","","","","","",""
"562","","f","psychophysics","41","269398","0.0-7.0-0.0-1.0-0.0-0.16","3","4","4","3","3","4","3","2","4","3","4","5","5","4","4","5","4","5","4","4","1","2","2","1","2","1","2","1","2","1","1","1","1","0","0","0","0","0","1","1","0","1","0","1","4","2","1","2","1","3","1","2","2","4","1","688779620236918784","黄","601","","","","nonmatch","","","","","","","","","","","","","","key","f","16.653086021505622","640","356","f","true","nonmatch","img/trapezoid.png","六边","梯形","ALT1_1","prac_ALT1_1","","","","","","","","","","","",""
"null","<span style='color:GreenYellow; font-size: 70px;'>正确! </span>","null","html-keyboard-response","42","269901","0.0-7.0-0.0-1.0-0.0-1.16","3","4","4","3","3","4","3","2","4","3","4","5","5","4","4","5","4","5","4","4","1","2","2","1","2","1","2","1","2","1","1","1","1","0","0","0","0","0","1","1","0","1","0","1","4","2","1","2","1","3","1","2","2","4","1","688779620236918784","黄","601","","","","","","","","","","","","","","","","","","","","","","","","","","","","","","feedback_test","","","","","","","","","","","",""
"710","","j","psychophysics","43","271613","0.0-7.0-0.0-1.0-0.0-0.17","3","4","4","3","3","4","3","2","4","3","4","5","5","4","4","5","4","5","4","4","1","2","2","1","2","1","2","1","2","1","1","1","1","0","0","0","0","0","1","1","0","1","0","1","4","2","1","2","1","3","1","2","2","4","1","688779620236918784","黄","601","","","","match","","","","","","","","","","","","","","key","j","16.65184313725502","640","356","j","true","match","img/hexagon.png","六边","六边","ALT1_1","prac_ALT1_1","","","","","","","","","","","",""
"null","<span style='color:GreenYellow; font-size: 70px;'>正确! </span>","null","html-keyboard-response","44","272116","0.0-7.0-0.0-1.0-0.0-1.17","3","4","4","3","3","4","3","2","4","3","4","5","5","4","4","5","4","5","4","4","1","2","2","1","2","1","2","1","2","1","1","1","1","0","0","0","0","0","1","1","0","1","0","1","4","2","1","2","1","3","1","2","2","4","1","688779620236918784","黄","601","","","","","","","","","","","","","","","","","","","","","","","","","","","","","","feedback_test","","","","","","","","","","","",""
"667","","j","psychophysics","45","273785","0.0-7.0-0.0-1.0-0.0-0.18","3","4","4","3","3","4","3","2","4","3","4","5","5","4","4","5","4","5","4","4","1","2","2","1","2","1","2","1","2","1","1","1","1","0","0","0","0","0","1","1","0","1","0","1","4","2","1","2","1","3","1","2","2","4","1","688779620236918784","黄","601","","","","match","","","","","","","","","","","","","","key","j","16.650050505050316","640","356","j","true","match","img/trapezoid.png","梯形","梯形","ALT1_1","prac_ALT1_1","","","","","","","","","","","",""
"null","<span style='color:GreenYellow; font-size: 70px;'>正确! </span>","null","html-keyboard-response","46","274286","0.0-7.0-0.0-1.0-0.0-1.18","3","4","4","3","3","4","3","2","4","3","4","5","5","4","4","5","4","5","4","4","1","2","2","1","2","1","2","1","2","1","1","1","1","0","0","0","0","0","1","1","0","1","0","1","4","2","1","2","1","3","1","2","2","4","1","688779620236918784","黄","601","","","","","","","","","","","","","","","","","","","","","","","","","","","","","","feedback_test","","","","","","","","","","","",""
"646","","f","psychophysics","47","275935","0.0-7.0-0.0-1.0-0.0-0.19","3","4","4","3","3","4","3","2","4","3","4","5","5","4","4","5","4","5","4","4","1","2","2","1","2","1","2","1","2","1","1","1","1","0","0","0","0","0","1","1","0","1","0","1","4","2","1","2","1","3","1","2","2","4","1","688779620236918784","黄","601","","","","nonmatch","","","","","","","","","","","","","","key","f","16.653316326530256","640","356","f","true","nonmatch","img/hexagon.png","梯形","六边","ALT1_1","prac_ALT1_1","","","","","","","","","","","",""
"null","<span style='color:GreenYellow; font-size: 70px;'>正确! </span>","null","html-keyboard-response","48","276438","0.0-7.0-0.0-1.0-0.0-1.19","3","4","4","3","3","4","3","2","4","3","4","5","5","4","4","5","4","5","4","4","1","2","2","1","2","1","2","1","2","1","1","1","1","0","0","0","0","0","1","1","0","1","0","1","4","2","1","2","1","3","1","2","2","4","1","688779620236918784","黄","601","","","","","","","","","","","","","","","","","","","","","","","","","","","","","","feedback_test","","","","","","","","","","","",""
"653","","f","psychophysics","49","278094","0.0-7.0-0.0-1.0-0.0-0.20","3","4","4","3","3","4","3","2","4","3","4","5","5","4","4","5","4","5","4","4","1","2","2","1","2","1","2","1","2","1","1","1","1","0","0","0","0","0","1","1","0","1","0","1","4","2","1","2","1","3","1","2","2","4","1","688779620236918784","黄","601","","","","nonmatch","","","","","","","","","","","","","","key","f","16.653561224489785","640","356","f","true","nonmatch","img/triangle.png","六边","三角","ALT1_1","prac_ALT1_1","","","","","","","","","","","",""
"null","<span style='color:GreenYellow; font-size: 70px;'>正确! </span>","null","html-keyboard-response","50","278595","0.0-7.0-0.0-1.0-0.0-1.20","3","4","4","3","3","4","3","2","4","3","4","5","5","4","4","5","4","5","4","4","1","2","2","1","2","1","2","1","2","1","1","1","1","0","0","0","0","0","1","1","0","1","0","1","4","2","1","2","1","3","1","2","2","4","1","688779620236918784","黄","601","","","","","","","","","","","","","","","","","","","","","","","","","","","","","","feedback_test","","","","","","","","","","","",""
"596","","f","psychophysics","51","280193","0.0-7.0-0.0-1.0-0.0-0.21","3","4","4","3","3","4","3","2","4","3","4","5","5","4","4","5","4","5","4","4","1","2","2","1","2","1","2","1","2","1","1","1","1","0","0","0","0","0","1","1","0","1","0","1","4","2","1","2","1","3","1","2","2","4","1","688779620236918784","黄","601","","","","nonmatch","","","","","","","","","","","","","","key","f","16.65337894736838","640","356","f","true","nonmatch","img/ellipse.png","六边","椭圆","ALT1_1","prac_ALT1_1","","","","","","","","","","","",""
"null","<span style='color:GreenYellow; font-size: 70px;'>正确! </span>","null","html-keyboard-response","52","280696","0.0-7.0-0.0-1.0-0.0-1.21","3","4","4","3","3","4","3","2","4","3","4","5","5","4","4","5","4","5","4","4","1","2","2","1","2","1","2","1","2","1","1","1","1","0","0","0","0","0","1","1","0","1","0","1","4","2","1","2","1","3","1","2","2","4","1","688779620236918784","黄","601","","","","","","","","","","","","","","","","","","","","","","","","","","","","","","feedback_test","","","","","","","","","","","",""
"703","","j","psychophysics","53","282400","0.0-7.0-0.0-1.0-0.0-0.22","3","4","4","3","3","4","3","2","4","3","4","5","5","4","4","5","4","5","4","4","1","2","2","1","2","1","2","1","2","1","1","1","1","0","0","0","0","0","1","1","0","1","0","1","4","2","1","2","1","3","1","2","2","4","1","688779620236918784","黄","601","","","","match","","","","","","","","","","","","","","key","j","16.646772277227946","640","356","j","true","match","img/hexagon.png","六边","六边","ALT1_1","prac_ALT1_1","","","","","","","","","","","",""
"null","<span style='color:GreenYellow; font-size: 70px;'>正确! </span>","null","html-keyboard-response","54","282904","0.0-7.0-0.0-1.0-0.0-1.22","3","4","4","3","3","4","3","2","4","3","4","5","5","4","4","5","4","5","4","4","1","2","2","1","2","1","2","1","2","1","1","1","1","0","0","0","0","0","1","1","0","1","0","1","4","2","1","2","1","3","1","2","2","4","1","688779620236918784","黄","601","","","","","","","","","","","","","","","","","","","","","","","","","","","","","","feedback_test","","","","","","","","","","","",""
"578","","f","psychophysics","55","284484","0.0-7.0-0.0-1.0-0.0-0.23","3","4","4","3","3","4","3","2","4","3","4","5","5","4","4","5","4","5","4","4","1","2","2","1","2","1","2","1","2","1","1","1","1","0","0","0","0","0","1","1","0","1","0","1","4","2","1","2","1","3","1","2","2","4","1","688779620236918784","黄","601","","","","nonmatch","","","","","","","","","","","","","","key","f","16.653085106383127","640","356","f","true","nonmatch","img/trapezoid.png","三角","梯形","ALT1_1","prac_ALT1_1","","","","","","","","","","","",""
"null","<span style='color:GreenYellow; font-size: 70px;'>正确! </span>","null","html-keyboard-response","56","284987","0.0-7.0-0.0-1.0-0.0-1.23","3","4","4","3","3","4","3","2","4","3","4","5","5","4","4","5","4","5","4","4","1","2","2","1","2","1","2","1","2","1","1","1","1","0","0","0","0","0","1","1","0","1","0","1","4","2","1","2","1","3","1","2","2","4","1","688779620236918784","黄","601","","","","","","","","","","","","","","","","","","","","","","","","","","","","","","feedback_test","","","","","","","","","","","",""
"569","","f","psychophysics","57","286558","0.0-7.0-0.0-1.0-0.0-0.24","3","4","4","3","3","4","3","2","4","3","4","5","5","4","4","5","4","5","4","4","1","2","2","1","2","1","2","1","2","1","1","1","1","0","0","0","0","0","1","1","0","1","0","1","4","2","1","2","1","3","1","2","2","4","1","688779620236918784","黄","601","","","","nonmatch","","","","","","","","","","","","","","key","f","16.648806451612668","640","356","f","true","nonmatch","img/hexagon.png","梯形","六边","ALT1_1","prac_ALT1_1","","","","","","","","","","","",""
"null","<span style='color:GreenYellow; font-size: 70px;'>正确! </span>","null","html-keyboard-response","58","287060","0.0-7.0-0.0-1.0-0.0-1.24","3","4","4","3","3","4","3","2","4","3","4","5","5","4","4","5","4","5","4","4","1","2","2","1","2","1","2","1","2","1","1","1","1","0","0","0","0","0","1","1","0","1","0","1","4","2","1","2","1","3","1","2","2","4","1","688779620236918784","黄","601","","","","","","","","","","","","","","","","","","","","","","","","","","","","","","feedback_test","","","","","","","","","","","",""
"707","","j","psychophysics","59","288768","0.0-7.0-0.0-1.0-0.0-0.25","3","4","4","3","3","4","3","2","4","3","4","5","5","4","4","5","4","5","4","4","1","2","2","1","2","1","2","1","2","1","1","1","1","0","0","0","0","0","1","1","0","1","0","1","4","2","1","2","1","3","1","2","2","4","1","688779620236918784","黄","601","","","","match","","","","","","","","","","","","","","key","j","16.647386138613847","640","356","j","true","match","img/ellipse.png","椭圆","椭圆","ALT1_1","prac_ALT1_1","","","","","","","","","","","",""
"null","<span style='color:GreenYellow; font-size: 70px;'>正确! </span>","null","html-keyboard-response","60","289269","0.0-7.0-0.0-1.0-0.0-1.25","3","4","4","3","3","4","3","2","4","3","4","5","5","4","4","5","4","5","4","4","1","2","2","1","2","1","2","1","2","1","1","1","1","0","0","0","0","0","1","1","0","1","0","1","4","2","1","2","1","3","1","2","2","4","1","688779620236918784","黄","601","","","","","","","","","","","","","","","","","","","","","","","","","","","","","","feedback_test","","","","","","","","","","","",""
"620","","f","psychophysics","61","290892","0.0-7.0-0.0-1.0-0.0-0.26","3","4","4","3","3","4","3","2","4","3","4","5","5","4","4","5","4","5","4","4","1","2","2","1","2","1","2","1","2","1","1","1","1","0","0","0","0","0","1","1","0","1","0","1","4","2","1","2","1","3","1","2","2","4","1","688779620236918784","黄","601","","","","nonmatch","","","","","","","","","","","","","","key","f","16.650833333333747","640","356","f","true","nonmatch","img/ellipse.png","三角","椭圆","ALT1_1","prac_ALT1_1","","","","","","","","","","","",""
"null","<span style='color:GreenYellow; font-size: 70px;'>正确! </span>","null","html-keyboard-response","62","291395","0.0-7.0-0.0-1.0-0.0-1.26","3","4","4","3","3","4","3","2","4","3","4","5","5","4","4","5","4","5","4","4","1","2","2","1","2","1","2","1","2","1","1","1","1","0","0","0","0","0","1","1","0","1","0","1","4","2","1","2","1","3","1","2","2","4","1","688779620236918784","黄","601","","","","","","","","","","","","","","","","","","","","","","","","","","","","","","feedback_test","","","","","","","","","","","",""
"590","","j","psychophysics","63","293023","0.0-7.0-0.0-1.0-0.0-0.27","3","4","4","3","3","4","3","2","4","3","4","5","5","4","4","5","4","5","4","4","1","2","2","1","2","1","2","1","2","1","1","1","1","0","0","0","0","0","1","1","0","1","0","1","4","2","1","2","1","3","1","2","2","4","1","688779620236918784","黄","601","","","","match","","","","","","","","","","","","","","key","j","16.65391578947341","640","356","j","true","match","img/triangle.png","三角","三角","ALT1_1","prac_ALT1_1","","","","","","","","","","","",""
"null","<span style='color:GreenYellow; font-size: 70px;'>正确! </span>","null","html-keyboard-response","64","293525","0.0-7.0-0.0-1.0-0.0-1.27","3","4","4","3","3","4","3","2","4","3","4","5","5","4","4","5","4","5","4","4","1","2","2","1","2","1","2","1","2","1","1","1","1","0","0","0","0","0","1","1","0","1","0","1","4","2","1","2","1","3","1","2","2","4","1","688779620236918784","黄","601","","","","","","","","","","","","","","","","","","","","","","","","","","","","","","feedback_test","","","","","","","","","","","",""
"740","","j","psychophysics","65","295267","0.0-7.0-0.0-1.0-0.0-0.28","3","4","4","3","3","4","3","2","4","3","4","5","5","4","4","5","4","5","4","4","1","2","2","1","2","1","2","1","2","1","1","1","1","0","0","0","0","0","1","1","0","1","0","1","4","2","1","2","1","3","1","2","2","4","1","688779620236918784","黄","601","","","","match","","","","","","","","","","","","","","key","j","16.65371844660179","640","356","j","true","match","img/trapezoid.png","梯形","梯形","ALT1_1","prac_ALT1_1","","","","","","","","","","","",""
"null","<span style='color:GreenYellow; font-size: 70px;'>正确! </span>","null","html-keyboard-response","66","295768","0.0-7.0-0.0-1.0-0.0-1.28","3","4","4","3","3","4","3","2","4","3","4","5","5","4","4","5","4","5","4","4","1","2","2","1","2","1","2","1","2","1","1","1","1","0","0","0","0","0","1","1","0","1","0","1","4","2","1","2","1","3","1","2","2","4","1","688779620236918784","黄","601","","","","","","","","","","","","","","","","","","","","","","","","","","","","","","feedback_test","","","","","","","","","","","",""
"676","","f","psychophysics","67","297445","0.0-7.0-0.0-1.0-0.0-0.29","3","4","4","3","3","4","3","2","4","3","4","5","5","4","4","5","4","5","4","4","1","2","2","1","2","1","2","1","2","1","1","1","1","0","0","0","0","0","1","1","0","1","0","1","4","2","1","2","1","3","1","2","2","4","1","688779620236918784","黄","601","","","","nonmatch","","","","","","","","","","","","","","key","f","16.65332999999984","640","356","f","true","nonmatch","img/triangle.png","椭圆","三角","ALT1_1","prac_ALT1_1","","","","","","","","","","","",""
"null","<span style='color:GreenYellow; font-size: 70px;'>正确! </span>","null","html-keyboard-response","68","297947","0.0-7.0-0.0-1.0-0.0-1.29","3","4","4","3","3","4","3","2","4","3","4","5","5","4","4","5","4","5","4","4","1","2","2","1","2","1","2","1","2","1","1","1","1","0","0","0","0","0","1","1","0","1","0","1","4","2","1","2","1","3","1","2","2","4","1","688779620236918784","黄","601","","","","","","","","","","","","","","","","","","","","","","","","","","","","","","feedback_test","","","","","","","","","","","",""
"625","","f","psychophysics","69","299574","0.0-7.0-0.0-1.0-0.0-0.30","3","4","4","3","3","4","3","2","4","3","4","5","5","4","4","5","4","5","4","4","1","2","2","1","2","1","2","1","2","1","1","1","1","0","0","0","0","0","1","1","0","1","0","1","4","2","1","2","1","3","1","2","2","4","1","688779620236918784","黄","601","","","","nonmatch","","","","","","","","","","","","","","key","f","16.64724742268097","640","356","f","true","nonmatch","img/hexagon.png","椭圆","六边","ALT1_1","prac_ALT1_1","","","","","","","","","","","",""
"null","<span style='color:GreenYellow; font-size: 70px;'>正确! </span>","null","html-keyboard-response","70","300076","0.0-7.0-0.0-1.0-0.0-1.30","3","4","4","3","3","4","3","2","4","3","4","5","5","4","4","5","4","5","4","4","1","2","2","1","2","1","2","1","2","1","1","1","1","0","0","0","0","0","1","1","0","1","0","1","4","2","1","2","1","3","1","2","2","4","1","688779620236918784","黄","601","","","","","","","","","","","","","","","","","","","","","","","","","","","","","","feedback_test","","","","","","","","","","","",""
"619","","j","psychophysics","71","301697","0.0-7.0-0.0-1.0-0.0-0.31","3","4","4","3","3","4","3","2","4","3","4","5","5","4","4","5","4","5","4","4","1","2","2","1","2","1","2","1","2","1","1","1","1","0","0","0","0","0","1","1","0","1","0","1","4","2","1","2","1","3","1","2","2","4","1","688779620236918784","黄","601","","","","match","","","","","","","","","","","","","","key","j","16.649958333333416","640","356","j","true","match","img/triangle.png","三角","三角","ALT1_1","prac_ALT1_1","","","","","","","","","","","",""
"null","<span style='color:GreenYellow; font-size: 70px;'>正确! </span>","null","html-keyboard-response","72","302198","0.0-7.0-0.0-1.0-0.0-1.31","3","4","4","3","3","4","3","2","4","3","4","5","5","4","4","5","4","5","4","4","1","2","2","1","2","1","2","1","2","1","1","1","1","0","0","0","0","0","1","1","0","1","0","1","4","2","1","2","1","3","1","2","2","4","1","688779620236918784","黄","601","","","","","","","","","","","","","","","","","","","","","","","","","","","","","","feedback_test","","","","","","","","","","","",""
"737","","j","psychophysics","73","303936","0.0-7.0-0.0-1.0-0.0-0.32","3","4","4","3","3","4","3","2","4","3","4","5","5","4","4","5","4","5","4","4","1","2","2","1","2","1","2","1","2","1","1","1","1","0","0","0","0","0","1","1","0","1","0","1","4","2","1","2","1","3","1","2","2","4","1","688779620236918784","黄","601","","","","match","","","","","","","","","","","","","","key","j","16.65350000000035","640","356","j","true","match","img/ellipse.png","椭圆","椭圆","ALT1_1","prac_ALT1_1","","","","","","","","","","","",""
"null","<span style='color:GreenYellow; font-size: 70px;'>正确! </span>","null","html-keyboard-response","74","304441","0.0-7.0-0.0-1.0-0.0-1.32","3","4","4","3","3","4","3","2","4","3","4","5","5","4","4","5","4","5","4","4","1","2","2","1","2","1","2","1","2","1","1","1","1","0","0","0","0","0","1","1","0","1","0","1","4","2","1","2","1","3","1","2","2","4","1","688779620236918784","黄","601","","","","","","","","","","","","","","","","","","","","","","","","","","","","","","feedback_test","","","","","","","","","","","",""
"695","","f","psychophysics","75","306145","0.0-7.0-0.0-1.0-0.0-0.33","3","4","4","3","3","4","3","2","4","3","4","5","5","4","4","5","4","5","4","4","1","2","2","1","2","1","2","1","2","1","1","1","1","0","0","0","0","0","1","1","0","1","0","1","4","2","1","2","1","3","1","2","2","4","1","688779620236918784","黄","601","","","","nonmatch","","","","","","","","","","","","","","key","f","16.652940594059263","640","356","f","true","nonmatch","img/triangle.png","梯形","三角","ALT1_1","prac_ALT1_1","","","","","","","","","","","",""
"null","<span style='color:GreenYellow; font-size: 70px;'>正确! </span>","null","html-keyboard-response","76","306646","0.0-7.0-0.0-1.0-0.0-1.33","3","4","4","3","3","4","3","2","4","3","4","5","5","4","4","5","4","5","4","4","1","2","2","1","2","1","2","1","2","1","1","1","1","0","0","0","0","0","1","1","0","1","0","1","4","2","1","2","1","3","1","2","2","4","1","688779620236918784","黄","601","","","","","","","","","","","","","","","","","","","","","","","","","","","","","","feedback_test","","","","","","","","","","","",""
"659","","j","psychophysics","77","308308","0.0-7.0-0.0-1.0-0.0-0.34","3","4","4","3","3","4","3","2","4","3","4","5","5","4","4","5","4","5","4","4","1","2","2","1","2","1","2","1","2","1","1","1","1","0","0","0","0","0","1","1","0","1","0","1","4","2","1","2","1","3","1","2","2","4","1","688779620236918784","黄","601","","","","match","","","","","","","","","","","","","","key","j","16.640428571428448","640","356","j","true","match","img/triangle.png","三角","三角","ALT1_1","prac_ALT1_1","","","","","","","","","","","",""
"null","<span style='color:GreenYellow; font-size: 70px;'>正确! </span>","null","html-keyboard-response","78","308809","0.0-7.0-0.0-1.0-0.0-1.34","3","4","4","3","3","4","3","2","4","3","4","5","5","4","4","5","4","5","4","4","1","2","2","1","2","1","2","1","2","1","1","1","1","0","0","0","0","0","1","1","0","1","0","1","4","2","1","2","1","3","1","2","2","4","1","688779620236918784","黄","601","","","","","","","","","","","","","","","","","","","","","","","","","","","","","","feedback_test","","","","","","","","","","","",""
"707","","j","psychophysics","79","310518","0.0-7.0-0.0-1.0-0.0-0.35","3","4","4","3","3","4","3","2","4","3","4","5","5","4","4","5","4","5","4","4","1","2","2","1","2","1","2","1","2","1","1","1","1","0","0","0","0","0","1","1","0","1","0","1","4","2","1","2","1","3","1","2","2","4","1","688779620236918784","黄","601","","","","match","","","","","","","","","","","","","","key","j","16.654297029702708","640","356","j","true","match","img/hexagon.png","六边","六边","ALT1_1","prac_ALT1_1","","","","","","","","","","","",""
"null","<span style='color:GreenYellow; font-size: 70px;'>正确! </span>","null","html-keyboard-response","80","311020","0.0-7.0-0.0-1.0-0.0-1.35","3","4","4","3","3","4","3","2","4","3","4","5","5","4","4","5","4","5","4","4","1","2","2","1","2","1","2","1","2","1","1","1","1","0","0","0","0","0","1","1","0","1","0","1","4","2","1","2","1","3","1","2","2","4","1","688779620236918784","黄","601","","","","","","","","","","","","","","","","","","","","","","","","","","","","","","feedback_test","","","","","","","","","","","",""
"649","","j","psychophysics","81","312671","0.0-7.0-0.0-1.0-0.0-0.36","3","4","4","3","3","4","3","2","4","3","4","5","5","4","4","5","4","5","4","4","1","2","2","1","2","1","2","1","2","1","1","1","1","0","0","0","0","0","1","1","0","1","0","1","4","2","1","2","1","3","1","2","2","4","1","688779620236918784","黄","601","","","","match","","","","","","","","","","","","","","key","j","16.654193877550767","640","356","j","true","match","img/trapezoid.png","梯形","梯形","ALT1_1","prac_ALT1_1","","","","","","","","","","","",""
"null","<span style='color:GreenYellow; font-size: 70px;'>正确! </span>","null","html-keyboard-response","82","313173","0.0-7.0-0.0-1.0-0.0-1.36","3","4","4","3","3","4","3","2","4","3","4","5","5","4","4","5","4","5","4","4","1","2","2","1","2","1","2","1","2","1","1","1","1","0","0","0","0","0","1","1","0","1","0","1","4","2","1","2","1","3","1","2","2","4","1","688779620236918784","黄","601","","","","","","","","","","","","","","","","","","","","","","","","","","","","","","feedback_test","","","","","","","","","","","",""
"642","","f","psychophysics","83","314816","0.0-7.0-0.0-1.0-0.0-0.37","3","4","4","3","3","4","3","2","4","3","4","5","5","4","4","5","4","5","4","4","1","2","2","1","2","1","2","1","2","1","1","1","1","0","0","0","0","0","1","1","0","1","0","1","4","2","1","2","1","3","1","2","2","4","1","688779620236918784","黄","601","","","","nonmatch","","","","","","","","","","","","","","key","f","16.654275510204144","640","356","f","true","nonmatch","img/hexagon.png","三角","六边","ALT1_1","prac_ALT1_1","","","","","","","","","","","",""
"null","<span style='color:GreenYellow; font-size: 70px;'>正确! </span>","null","html-keyboard-response","84","315317","0.0-7.0-0.0-1.0-0.0-1.37","3","4","4","3","3","4","3","2","4","3","4","5","5","4","4","5","4","5","4","4","1","2","2","1","2","1","2","1","2","1","1","1","1","0","0","0","0","0","1","1","0","1","0","1","4","2","1","2","1","3","1","2","2","4","1","688779620236918784","黄","601","","","","","","","","","","","","","","","","","","","","","","","","","","","","","","feedback_test","","","","","","","","","","","",""
"610","","f","psychophysics","85","316928","0.0-7.0-0.0-1.0-0.0-0.38","3","4","4","3","3","4","3","2","4","3","4","5","5","4","4","5","4","5","4","4","1","2","2","1","2","1","2","1","2","1","1","1","1","0","0","0","0","0","1","1","0","1","0","1","4","2","1","2","1","3","1","2","2","4","1","688779620236918784","黄","601","","","","nonmatch","","","","","","","","","","","","","","key","f","16.65327083333371","640","356","f","true","nonmatch","img/triangle.png","六边","三角","ALT1_1","prac_ALT1_1","","","","","","","","","","","",""
"null","<span style='color:GreenYellow; font-size: 70px;'>正确! </span>","null","html-keyboard-response","86","317429","0.0-7.0-0.0-1.0-0.0-1.38","3","4","4","3","3","4","3","2","4","3","4","5","5","4","4","5","4","5","4","4","1","2","2","1","2","1","2","1","2","1","1","1","1","0","0","0","0","0","1","1","0","1","0","1","4","2","1","2","1","3","1","2","2","4","1","688779620236918784","黄","601","","","","","","","","","","","","","","","","","","","","","","","","","","","","","","feedback_test","","","","","","","","","","","",""
"653","","j","psychophysics","87","319084","0.0-7.0-0.0-1.0-0.0-0.39","3","4","4","3","3","4","3","2","4","3","4","5","5","4","4","5","4","5","4","4","1","2","2","1","2","1","2","1","2","1","1","1","1","0","0","0","0","0","1","1","0","1","0","1","4","2","1","2","1","3","1","2","2","4","1","688779620236918784","黄","601","","","","match","","","","","","","","","","","","","","key","j","16.65384693877541","640","356","j","true","match","img/trapezoid.png","梯形","梯形","ALT1_1","prac_ALT1_1","","","","","","","","","","","",""
"null","<span style='color:GreenYellow; font-size: 70px;'>正确! </span>","null","html-keyboard-response","88","319585","0.0-7.0-0.0-1.0-0.0-1.39","3","4","4","3","3","4","3","2","4","3","4","5","5","4","4","5","4","5","4","4","1","2","2","1","2","1","2","1","2","1","1","1","1","0","0","0","0","0","1","1","0","1","0","1","4","2","1","2","1","3","1","2","2","4","1","688779620236918784","黄","601","","","","","","","","","","","","","","","","","","","","","","","","","","","","","","feedback_test","","","","","","","","","","","",""
"689","","f","psychophysics","89","321276","0.0-7.0-0.0-1.0-0.0-0.40","3","4","4","3","3","4","3","2","4","3","4","5","5","4","4","5","4","5","4","4","1","2","2","1","2","1","2","1","2","1","1","1","1","0","0","0","0","0","1","1","0","1","0","1","4","2","1","2","1","3","1","2","2","4","1","688779620236918784","黄","601","","","","nonmatch","","","","","","","","","","","","","","key","f","16.653349999999627","640","356","f","true","nonmatch","img/trapezoid.png","六边","梯形","ALT1_1","prac_ALT1_1","","","","","","","","","","","",""
"null","<span style='color:GreenYellow; font-size: 70px;'>正确! </span>","null","html-keyboard-response","90","321780","0.0-7.0-0.0-1.0-0.0-1.40","3","4","4","3","3","4","3","2","4","3","4","5","5","4","4","5","4","5","4","4","1","2","2","1","2","1","2","1","2","1","1","1","1","0","0","0","0","0","1","1","0","1","0","1","4","2","1","2","1","3","1","2","2","4","1","688779620236918784","黄","601","","","","","","","","","","","","","","","","","","","","","","","","","","","","","","feedback_test","","","","","","","","","","","",""
"578","","f","psychophysics","91","323360","0.0-7.0-0.0-1.0-0.0-0.41","3","4","4","3","3","4","3","2","4","3","4","5","5","4","4","5","4","5","4","4","1","2","2","1","2","1","2","1","2","1","1","1","1","0","0","0","0","0","1","1","0","1","0","1","4","2","1","2","1","3","1","2","2","4","1","688779620236918784","黄","601","","","","nonmatch","","","","","","","","","","","","","","key","f","16.65344680851063","640","356","f","true","nonmatch","img/trapezoid.png","三角","梯形","ALT1_1","prac_ALT1_1","","","","","","","","","","","",""
"null","<span style='color:GreenYellow; font-size: 70px;'>正确! </span>","null","html-keyboard-response","92","323861","0.0-7.0-0.0-1.0-0.0-1.41","3","4","4","3","3","4","3","2","4","3","4","5","5","4","4","5","4","5","4","4","1","2","2","1","2","1","2","1","2","1","1","1","1","0","0","0","0","0","1","1","0","1","0","1","4","2","1","2","1","3","1","2","2","4","1","688779620236918784","黄","601","","","","","","","","","","","","","","","","","","","","","","","","","","","","","","feedback_test","","","","","","","","","","","",""
"609","","f","psychophysics","93","325472","0.0-7.0-0.0-1.0-0.0-0.42","3","4","4","3","3","4","3","2","4","3","4","5","5","4","4","5","4","5","4","4","1","2","2","1","2","1","2","1","2","1","1","1","1","0","0","0","0","0","1","1","0","1","0","1","4","2","1","2","1","3","1","2","2","4","1","688779620236918784","黄","601","","","","nonmatch","","","","","","","","","","","","","","key","f","16.654218749999927","640","356","j","false","match","img/hexagon.png","六边","六边","ALT1_1","prac_ALT1_1","","","","","","","","","","","",""
"null","<span style='color:red; font-size: 70px;'>错误! </span>","null","html-keyboard-response","94","325972","0.0-7.0-0.0-1.0-0.0-1.42","3","4","4","3","3","4","3","2","4","3","4","5","5","4","4","5","4","5","4","4","1","2","2","1","2","1","2","1","2","1","1","1","1","0","0","0","0","0","1","1","0","1","0","1","4","2","1","2","1","3","1","2","2","4","1","688779620236918784","黄","601","","","","","","","","","","","","","","","","","","","","","","","","","","","","","","feedback_test","","","","","","","","","","","",""
"682","","j","psychophysics","95","327656","0.0-7.0-0.0-1.0-0.0-0.43","3","4","4","3","3","4","3","2","4","3","4","5","5","4","4","5","4","5","4","4","1","2","2","1","2","1","2","1","2","1","1","1","1","0","0","0","0","0","1","1","0","1","0","1","4","2","1","2","1","3","1","2","2","4","1","688779620236918784","黄","601","","","","match","","","","","","","","","","","","","","key","j","16.653059999999822","640","356","f","false","nonmatch","img/trapezoid.png","椭圆","梯形","ALT1_1","prac_ALT1_1","","","","","","","","","","","",""
"null","<span style='color:red; font-size: 70px;'>错误! </span>","null","html-keyboard-response","96","328159","0.0-7.0-0.0-1.0-0.0-1.43","3","4","4","3","3","4","3","2","4","3","4","5","5","4","4","5","4","5","4","4","1","2","2","1","2","1","2","1","2","1","1","1","1","0","0","0","0","0","1","1","0","1","0","1","4","2","1","2","1","3","1","2","2","4","1","688779620236918784","黄","601","","","","","","","","","","","","","","","","","","","","","","","","","","","","","","feedback_test","","","","","","","","","","","",""
"687","","f","psychophysics","97","329849","0.0-7.0-0.0-1.0-0.0-0.44","3","4","4","3","3","4","3","2","4","3","4","5","5","4","4","5","4","5","4","4","1","2","2","1","2","1","2","1","2","1","1","1","1","0","0","0","0","0","1","1","0","1","0","1","4","2","1","2","1","3","1","2","2","4","1","688779620236918784","黄","601","","","","nonmatch","","","","","","","","","","","","","","key","f","16.653549999999814","640","356","f","true","nonmatch","img/ellipse.png","六边","椭圆","ALT1_1","prac_ALT1_1","","","","","","","","","","","",""
"null","<span style='color:GreenYellow; font-size: 70px;'>正确! </span>","null","html-keyboard-response","98","330350","0.0-7.0-0.0-1.0-0.0-1.44","3","4","4","3","3","4","3","2","4","3","4","5","5","4","4","5","4","5","4","4","1","2","2","1","2","1","2","1","2","1","1","1","1","0","0","0","0","0","1","1","0","1","0","1","4","2","1","2","1","3","1","2","2","4","1","688779620236918784","黄","601","","","","","","","","","","","","","","","","","","","","","","","","","","","","","","feedback_test","","","","","","","","","","","",""
"779","","f","psychophysics","99","332133","0.0-7.0-0.0-1.0-0.0-0.45","3","4","4","3","3","4","3","2","4","3","4","5","5","4","4","5","4","5","4","4","1","2","2","1","2","1","2","1","2","1","1","1","1","0","0","0","0","0","1","1","0","1","0","1","4","2","1","2","1","3","1","2","2","4","1","688779620236918784","黄","601","","","","nonmatch","","","","","","","","","","","","","","key","f","16.6527547169815","640","356","f","true","nonmatch","img/ellipse.png","梯形","椭圆","ALT1_1","prac_ALT1_1","","","","","","","","","","","",""
"null","<span style='color:GreenYellow; font-size: 70px;'>正确! </span>","null","html-keyboard-response","100","332634","0.0-7.0-0.0-1.0-0.0-1.45","3","4","4","3","3","4","3","2","4","3","4","5","5","4","4","5","4","5","4","4","1","2","2","1","2","1","2","1","2","1","1","1","1","0","0","0","0","0","1","1","0","1","0","1","4","2","1","2","1","3","1","2","2","4","1","688779620236918784","黄","601","","","","","","","","","","","","","","","","","","","","","","","","","","","","","","feedback_test","","","","","","","","","","","",""
"694","","j","psychophysics","101","334330","0.0-7.0-0.0-1.0-0.0-0.46","3","4","4","3","3","4","3","2","4","3","4","5","5","4","4","5","4","5","4","4","1","2","2","1","2","1","2","1","2","1","1","1","1","0","0","0","0","0","1","1","0","1","0","1","4","2","1","2","1","3","1","2","2","4","1","688779620236918784","黄","601","","","","match","","","","","","","","","","","","","","key","j","16.649079207921087","640","356","j","true","match","img/ellipse.png","椭圆","椭圆","ALT1_1","prac_ALT1_1","","","","","","","","","","","",""
"null","<span style='color:GreenYellow; font-size: 70px;'>正确! </span>","null","html-keyboard-response","102","334833","0.0-7.0-0.0-1.0-0.0-1.46","3","4","4","3","3","4","3","2","4","3","4","5","5","4","4","5","4","5","4","4","1","2","2","1","2","1","2","1","2","1","1","1","1","0","0","0","0","0","1","1","0","1","0","1","4","2","1","2","1","3","1","2","2","4","1","688779620236918784","黄","601","","","","","","","","","","","","","","","","","","","","","","","","","","","","","","feedback_test","","","","","","","","","","","",""
"660","","j","psychophysics","103","336494","0.0-7.0-0.0-1.0-0.0-0.47","3","4","4","3","3","4","3","2","4","3","4","5","5","4","4","5","4","5","4","4","1","2","2","1","2","1","2","1","2","1","1","1","1","0","0","0","0","0","1","1","0","1","0","1","4","2","1","2","1","3","1","2","2","4","1","688779620236918784","黄","601","","","","match","","","","","","","","","","","","","","key","j","16.646474747474638","640","356","j","true","match","img/hexagon.png","六边","六边","ALT1_1","prac_ALT1_1","","","","","","","","","","","",""
"null","<span style='color:GreenYellow; font-size: 70px;'>正确! </span>","null","html-keyboard-response","104","336996","0.0-7.0-0.0-1.0-0.0-1.47","3","4","4","3","3","4","3","2","4","3","4","5","5","4","4","5","4","5","4","4","1","2","2","1","2","1","2","1","2","1","1","1","1","0","0","0","0","0","1","1","0","1","0","1","4","2","1","2","1","3","1","2","2","4","1","688779620236918784","黄","601","","","","","","","","","","","","","","","","","","","","","","","","","","","","","","feedback_test","","","","","","","","","","","",""
"781","<style>.context{color:white; font-size: 35px; line-height:40px}</style>                            <div><p class='context'>您正确回答了92% 的试次。</p><p class='context'>您的平均反应时为688毫秒。</p><p class='context'>恭喜您完成练习。按空格键进入正式实验。</p><p class='footer' style='font-size: 35px; line-height:40px;'>请在进入正式实验之前将您的<span style='color: lightgreen;'>食指</span>放在电脑键盘的相应键位上进行按键。</p>"," ","html-keyboard-response","105","337780","0.0-7.0-0.0-2.0","3","4","4","3","3","4","3","2","4","3","4","5","5","4","4","5","4","5","4","4","1","2","2","1","2","1","2","1","2","1","1","1","1","0","0","0","0","0","1","1","0","1","0","1","4","2","1","2","1","3","1","2","2","4","1","688779620236918784","黄","601","","","","","","","","","","","","","","","","","","","","","","","","","","","","","","","","","","","","","","","","","",""
"629","
    <p style='color: white; font-size: 22px'>请您将手指放在按键上，准备进入正式的匹配任务。</p>
    <p> <div style = ""color: green""><按空格键进入下一阶段的匹配任务></div></p>
    "," ","html-keyboard-response","106","338412","0.0-7.0-0.0-3.0","3","4","4","3","3","4","3","2","4","3","4","5","5","4","4","5","4","5","4","4","1","2","2","1","2","1","2","1","2","1","1","1","1","0","0","0","0","0","1","1","0","1","0","1","4","2","1","2","1","3","1","2","2","4","1","688779620236918784","黄","601","","","","","","","","","","","","","","","","","","","","","","","","","","","","","","","","","","","","","","","","","",""
"761","","f","psychophysics","107","340175","0.0-7.0-0.0-4.0-0.0-0.0","3","4","4","3","3","4","3","2","4","3","4","5","5","4","4","5","4","5","4","4","1","2","2","1","2","1","2","1","2","1","1","1","1","0","0","0","0","0","1","1","0","1","0","1","4","2","1","2","1","3","1","2","2","4","1","688779620236918784","黄","601","","","","nonmatch","","","","","","","","","","","","","","key","f","16.648780952380704","640","356","f","true","nonmatch","img/ellipse.png","六边","椭圆","ALT1","formal_ALT1_1","","","","","","","","","","","",""
"null","<span style='color:GreenYellow; font-size: 70px;'>正确! </span>","null","html-keyboard-response","108","340678","0.0-7.0-0.0-4.0-0.0-1.0","3","4","4","3","3","4","3","2","4","3","4","5","5","4","4","5","4","5","4","4","1","2","2","1","2","1","2","1","2","1","1","1","1","0","0","0","0","0","1","1","0","1","0","1","4","2","1","2","1","3","1","2","2","4","1","688779620236918784","黄","601","","","","","","","","","","","","","","","","","","","","","","","","","","","","","","feedback_test","","","","","","","","","","","",""
"644","","j","psychophysics","109","342324","0.0-7.0-0.0-4.0-0.0-0.1","3","4","4","3","3","4","3","2","4","3","4","5","5","4","4","5","4","5","4","4","1","2","2","1","2","1","2","1","2","1","1","1","1","0","0","0","0","0","1","1","0","1","0","1","4","2","1","2","1","3","1","2","2","4","1","688779620236918784","黄","601","","","","match","","","","","","","","","","","","","","key","j","16.64640816326529","640","356","j","true","match","img/hexagon.png","六边","六边","ALT1","formal_ALT1_1","","","","","","","","","","","",""
"null","<span style='color:GreenYellow; font-size: 70px;'>正确! </span>","null","html-keyboard-response","110","342825","0.0-7.0-0.0-4.0-0.0-1.1","3","4","4","3","3","4","3","2","4","3","4","5","5","4","4","5","4","5","4","4","1","2","2","1","2","1","2","1","2","1","1","1","1","0","0","0","0","0","1","1","0","1","0","1","4","2","1","2","1","3","1","2","2","4","1","688779620236918784","黄","601","","","","","","","","","","","","","","","","","","","","","","","","","","","","","","feedback_test","","","","","","","","","","","",""
"596","","f","psychophysics","111","344423","0.0-7.0-0.0-4.0-0.0-0.2","3","4","4","3","3","4","3","2","4","3","4","5","5","4","4","5","4","5","4","4","1","2","2","1","2","1","2","1","2","1","1","1","1","0","0","0","0","0","1","1","0","1","0","1","4","2","1","2","1","3","1","2","2","4","1","688779620236918784","黄","601","","","","nonmatch","","","","","","","","","","","","","","key","f","16.650284210526337","640","356","f","true","nonmatch","img/hexagon.png","椭圆","六边","ALT1","formal_ALT1_1","","","","","","","","","","","",""
"null","<span style='color:GreenYellow; font-size: 70px;'>正确! </span>","null","html-keyboard-response","112","344924","0.0-7.0-0.0-4.0-0.0-1.2","3","4","4","3","3","4","3","2","4","3","4","5","5","4","4","5","4","5","4","4","1","2","2","1","2","1","2","1","2","1","1","1","1","0","0","0","0","0","1","1","0","1","0","1","4","2","1","2","1","3","1","2","2","4","1","688779620236918784","黄","601","","","","","","","","","","","","","","","","","","","","","","","","","","","","","","feedback_test","","","","","","","","","","","",""
"665","","j","psychophysics","113","346591","0.0-7.0-0.0-4.0-0.0-0.3","3","4","4","3","3","4","3","2","4","3","4","5","5","4","4","5","4","5","4","4","1","2","2","1","2","1","2","1","2","1","1","1","1","0","0","0","0","0","1","1","0","1","0","1","4","2","1","2","1","3","1","2","2","4","1","688779620236918784","黄","601","","","","match","","","","","","","","","","","","","","key","j","16.650171717171407","640","356","j","true","match","img/ellipse.png","椭圆","椭圆","ALT1","formal_ALT1_1","","","","","","","","","","","",""
"null","<span style='color:GreenYellow; font-size: 70px;'>正确! </span>","null","html-keyboard-response","114","347092","0.0-7.0-0.0-4.0-0.0-1.3","3","4","4","3","3","4","3","2","4","3","4","5","5","4","4","5","4","5","4","4","1","2","2","1","2","1","2","1","2","1","1","1","1","0","0","0","0","0","1","1","0","1","0","1","4","2","1","2","1","3","1","2","2","4","1","688779620236918784","黄","601","","","","","","","","","","","","","","","","","","","","","","","","","","","","","","feedback_test","","","","","","","","","","","",""
"693","","j","psychophysics","115","348786","0.0-7.0-0.0-4.0-0.0-0.4","3","4","4","3","3","4","3","2","4","3","4","5","5","4","4","5","4","5","4","4","1","2","2","1","2","1","2","1","2","1","1","1","1","0","0","0","0","0","1","1","0","1","0","1","4","2","1","2","1","3","1","2","2","4","1","688779620236918784","黄","601","","","","match","","","","","","","","","","","","","","key","j","16.65426732673273","640","356","j","true","match","img/trapezoid.png","梯形","梯形","ALT1","formal_ALT1_1","","","","","","","","","","","",""
"null","<span style='color:GreenYellow; font-size: 70px;'>正确! </span>","null","html-keyboard-response","116","349287","0.0-7.0-0.0-4.0-0.0-1.4","3","4","4","3","3","4","3","2","4","3","4","5","5","4","4","5","4","5","4","4","1","2","2","1","2","1","2","1","2","1","1","1","1","0","0","0","0","0","1","1","0","1","0","1","4","2","1","2","1","3","1","2","2","4","1","688779620236918784","黄","601","","","","","","","","","","","","","","","","","","","","","","","","","","","","","","feedback_test","","","","","","","","","","","",""
"693","","f","psychophysics","117","350982","0.0-7.0-0.0-4.0-0.0-0.5","3","4","4","3","3","4","3","2","4","3","4","5","5","4","4","5","4","5","4","4","1","2","2","1","2","1","2","1","2","1","1","1","1","0","0","0","0","0","1","1","0","1","0","1","4","2","1","2","1","3","1","2","2","4","1","688779620236918784","黄","601","","","","nonmatch","","","","","","","","","","","","","","key","f","16.654250000000467","640","356","f","true","nonmatch","img/trapezoid.png","三角","梯形","ALT1","formal_ALT1_1","","","","","","","","","","","",""
"null","<span style='color:GreenYellow; font-size: 70px;'>正确! </span>","null","html-keyboard-response","118","351484","0.0-7.0-0.0-4.0-0.0-1.5","3","4","4","3","3","4","3","2","4","3","4","5","5","4","4","5","4","5","4","4","1","2","2","1","2","1","2","1","2","1","1","1","1","0","0","0","0","0","1","1","0","1","0","1","4","2","1","2","1","3","1","2","2","4","1","688779620236918784","黄","601","","","","","","","","","","","","","","","","","","","","","","","","","","","","","","feedback_test","","","","","","","","","","","",""
"694","","j","psychophysics","119","353181","0.0-7.0-0.0-4.0-0.0-0.6","3","4","4","3","3","4","3","2","4","3","4","5","5","4","4","5","4","5","4","4","1","2","2","1","2","1","2","1","2","1","1","1","1","0","0","0","0","0","1","1","0","1","0","1","4","2","1","2","1","3","1","2","2","4","1","688779620236918784","黄","601","","","","match","","","","","","","","","","","","","","key","j","16.65350000000035","640","356","j","true","match","img/hexagon.png","六边","六边","ALT1","formal_ALT1_1","","","","","","","","","","","",""
"null","<span style='color:GreenYellow; font-size: 70px;'>正确! </span>","null","html-keyboard-response","120","353682","0.0-7.0-0.0-4.0-0.0-1.6","3","4","4","3","3","4","3","2","4","3","4","5","5","4","4","5","4","5","4","4","1","2","2","1","2","1","2","1","2","1","1","1","1","0","0","0","0","0","1","1","0","1","0","1","4","2","1","2","1","3","1","2","2","4","1","688779620236918784","黄","601","","","","","","","","","","","","","","","","","","","","","","","","","","","","","","feedback_test","","","","","","","","","","","",""
"668","","j","psychophysics","121","355352","0.0-7.0-0.0-4.0-0.0-0.7","3","4","4","3","3","4","3","2","4","3","4","5","5","4","4","5","4","5","4","4","1","2","2","1","2","1","2","1","2","1","1","1","1","0","0","0","0","0","1","1","0","1","0","1","4","2","1","2","1","3","1","2","2","4","1","688779620236918784","黄","601","","","","match","","","","","","","","","","","","","","key","j","16.65374747474767","640","356","j","true","match","img/triangle.png","三角","三角","ALT1","formal_ALT1_1","","","","","","","","","","","",""
"null","<span style='color:GreenYellow; font-size: 70px;'>正确! </span>","null","html-keyboard-response","122","355853","0.0-7.0-0.0-4.0-0.0-1.7","3","4","4","3","3","4","3","2","4","3","4","5","5","4","4","5","4","5","4","4","1","2","2","1","2","1","2","1","2","1","1","1","1","0","0","0","0","0","1","1","0","1","0","1","4","2","1","2","1","3","1","2","2","4","1","688779620236918784","黄","601","","","","","","","","","","","","","","","","","","","","","","","","","","","","","","feedback_test","","","","","","","","","","","",""
"741","","f","psychophysics","123","357599","0.0-7.0-0.0-4.0-0.0-0.8","3","4","4","3","3","4","3","2","4","3","4","5","5","4","4","5","4","5","4","4","1","2","2","1","2","1","2","1","2","1","1","1","1","0","0","0","0","0","1","1","0","1","0","1","4","2","1","2","1","3","1","2","2","4","1","688779620236918784","黄","601","","","","nonmatch","","","","","","","","","","","","","","key","f","16.653769230768937","640","356","f","true","nonmatch","img/trapezoid.png","椭圆","梯形","ALT1","formal_ALT1_1","","","","","","","","","","","",""
"null","<span style='color:GreenYellow; font-size: 70px;'>正确! </span>","null","html-keyboard-response","124","358101","0.0-7.0-0.0-4.0-0.0-1.8","3","4","4","3","3","4","3","2","4","3","4","5","5","4","4","5","4","5","4","4","1","2","2","1","2","1","2","1","2","1","1","1","1","0","0","0","0","0","1","1","0","1","0","1","4","2","1","2","1","3","1","2","2","4","1","688779620236918784","黄","601","","","","","","","","","","","","","","","","","","","","","","","","","","","","","","feedback_test","","","","","","","","","","","",""
"759","","f","psychophysics","125","359862","0.0-7.0-0.0-4.0-0.0-0.9","3","4","4","3","3","4","3","2","4","3","4","5","5","4","4","5","4","5","4","4","1","2","2","1","2","1","2","1","2","1","1","1","1","0","0","0","0","0","1","1","0","1","0","1","4","2","1","2","1","3","1","2","2","4","1","688779620236918784","黄","601","","","","nonmatch","","","","","","","","","","","","","","key","f","16.654028846154127","640","356","f","true","nonmatch","img/hexagon.png","梯形","六边","ALT1","formal_ALT1_1","","","","","","","","","","","",""
"null","<span style='color:GreenYellow; font-size: 70px;'>正确! </span>","null","html-keyboard-response","126","360363","0.0-7.0-0.0-4.0-0.0-1.9","3","4","4","3","3","4","3","2","4","3","4","5","5","4","4","5","4","5","4","4","1","2","2","1","2","1","2","1","2","1","1","1","1","0","0","0","0","0","1","1","0","1","0","1","4","2","1","2","1","3","1","2","2","4","1","688779620236918784","黄","601","","","","","","","","","","","","","","","","","","","","","","","","","","","","","","feedback_test","","","","","","","","","","","",""
"701","","j","psychophysics","127","362065","0.0-7.0-0.0-4.0-0.0-0.10","3","4","4","3","3","4","3","2","4","3","4","5","5","4","4","5","4","5","4","4","1","2","2","1","2","1","2","1","2","1","1","1","1","0","0","0","0","0","1","1","0","1","0","1","4","2","1","2","1","3","1","2","2","4","1","688779620236918784","黄","601","","","","match","","","","","","","","","","","","","","key","j","16.646207920792005","640","356","j","true","match","img/trapezoid.png","梯形","梯形","ALT1","formal_ALT1_1","","","","","","","","","","","",""
"null","<span style='color:GreenYellow; font-size: 70px;'>正确! </span>","null","html-keyboard-response","128","362566","0.0-7.0-0.0-4.0-0.0-1.10","3","4","4","3","3","4","3","2","4","3","4","5","5","4","4","5","4","5","4","4","1","2","2","1","2","1","2","1","2","1","1","1","1","0","0","0","0","0","1","1","0","1","0","1","4","2","1","2","1","3","1","2","2","4","1","688779620236918784","黄","601","","","","","","","","","","","","","","","","","","","","","","","","","","","","","","feedback_test","","","","","","","","","","","",""
"641","","j","psychophysics","129","364208","0.0-7.0-0.0-4.0-0.0-0.11","3","4","4","3","3","4","3","2","4","3","4","5","5","4","4","5","4","5","4","4","1","2","2","1","2","1","2","1","2","1","1","1","1","0","0","0","0","0","1","1","0","1","0","1","4","2","1","2","1","3","1","2","2","4","1","688779620236918784","黄","601","","","","match","","","","","","","","","","","","","","key","j","16.64372164948445","640","356","j","true","match","img/triangle.png","三角","三角","ALT1","formal_ALT1_1","","","","","","","","","","","",""
"null","<span style='color:GreenYellow; font-size: 70px;'>正确! </span>","null","html-keyboard-response","130","364709","0.0-7.0-0.0-4.0-0.0-1.11","3","4","4","3","3","4","3","2","4","3","4","5","5","4","4","5","4","5","4","4","1","2","2","1","2","1","2","1","2","1","1","1","1","0","0","0","0","0","1","1","0","1","0","1","4","2","1","2","1","3","1","2","2","4","1","688779620236918784","黄","601","","","","","","","","","","","","","","","","","","","","","","","","","","","","","","feedback_test","","","","","","","","","","","",""
"596","","j","psychophysics","131","366307","0.0-7.0-0.0-4.0-0.0-0.12","3","4","4","3","3","4","3","2","4","3","4","5","5","4","4","5","4","5","4","4","1","2","2","1","2","1","2","1","2","1","1","1","1","0","0","0","0","0","1","1","0","1","0","1","4","2","1","2","1","3","1","2","2","4","1","688779620236918784","黄","601","","","","match","","","","","","","","","","","","","","key","j","16.65320000000004","640","356","j","true","match","img/triangle.png","三角","三角","ALT1","formal_ALT1_1","","","","","","","","","","","",""
"null","<span style='color:GreenYellow; font-size: 70px;'>正确! </span>","null","html-keyboard-response","132","366808","0.0-7.0-0.0-4.0-0.0-1.12","3","4","4","3","3","4","3","2","4","3","4","5","5","4","4","5","4","5","4","4","1","2","2","1","2","1","2","1","2","1","1","1","1","0","0","0","0","0","1","1","0","1","0","1","4","2","1","2","1","3","1","2","2","4","1","688779620236918784","黄","601","","","","","","","","","","","","","","","","","","","","","","","","","","","","","","feedback_test","","","","","","","","","","","",""
"649","","f","psychophysics","133","368460","0.0-7.0-0.0-4.0-0.0-0.13","3","4","4","3","3","4","3","2","4","3","4","5","5","4","4","5","4","5","4","4","1","2","2","1","2","1","2","1","2","1","1","1","1","0","0","0","0","0","1","1","0","1","0","1","4","2","1","2","1","3","1","2","2","4","1","688779620236918784","黄","601","","","","nonmatch","","","","","","","","","","","","","","key","f","16.654285714285667","640","356","f","true","nonmatch","img/ellipse.png","三角","椭圆","ALT1","formal_ALT1_1","","","","","","","","","","","",""
"null","<span style='color:GreenYellow; font-size: 70px;'>正确! </span>","null","html-keyboard-response","134","368961","0.0-7.0-0.0-4.0-0.0-1.13","3","4","4","3","3","4","3","2","4","3","4","5","5","4","4","5","4","5","4","4","1","2","2","1","2","1","2","1","2","1","1","1","1","0","0","0","0","0","1","1","0","1","0","1","4","2","1","2","1","3","1","2","2","4","1","688779620236918784","黄","601","","","","","","","","","","","","","","","","","","","","","","","","","","","","","","feedback_test","","","","","","","","","","","",""
"653","","f","psychophysics","135","370615","0.0-7.0-0.0-4.0-0.0-0.14","3","4","4","3","3","4","3","2","4","3","4","5","5","4","4","5","4","5","4","4","1","2","2","1","2","1","2","1","2","1","1","1","1","0","0","0","0","0","1","1","0","1","0","1","4","2","1","2","1","3","1","2","2","4","1","688779620236918784","黄","601","","","","nonmatch","","","","","","","","","","","","","","key","f","16.647020408163222","640","356","f","true","nonmatch","img/trapezoid.png","六边","梯形","ALT1","formal_ALT1_1","","","","","","","","","","","",""
"null","<span style='color:GreenYellow; font-size: 70px;'>正确! </span>","null","html-keyboard-response","136","371116","0.0-7.0-0.0-4.0-0.0-1.14","3","4","4","3","3","4","3","2","4","3","4","5","5","4","4","5","4","5","4","4","1","2","2","1","2","1","2","1","2","1","1","1","1","0","0","0","0","0","1","1","0","1","0","1","4","2","1","2","1","3","1","2","2","4","1","688779620236918784","黄","601","","","","","","","","","","","","","","","","","","","","","","","","","","","","","","feedback_test","","","","","","","","","","","",""
"640","","j","psychophysics","137","372757","0.0-7.0-0.0-4.0-0.0-0.15","3","4","4","3","3","4","3","2","4","3","4","5","5","4","4","5","4","5","4","4","1","2","2","1","2","1","2","1","2","1","1","1","1","0","0","0","0","0","1","1","0","1","0","1","4","2","1","2","1","3","1","2","2","4","1","688779620236918784","黄","601","","","","match","","","","","","","","","","","","","","key","j","16.654628865979493","640","356","j","true","match","img/hexagon.png","六边","六边","ALT1","formal_ALT1_1","","","","","","","","","","","",""
"null","<span style='color:GreenYellow; font-size: 70px;'>正确! </span>","null","html-keyboard-response","138","373259","0.0-7.0-0.0-4.0-0.0-1.15","3","4","4","3","3","4","3","2","4","3","4","5","5","4","4","5","4","5","4","4","1","2","2","1","2","1","2","1","2","1","1","1","1","0","0","0","0","0","1","1","0","1","0","1","4","2","1","2","1","3","1","2","2","4","1","688779620236918784","黄","601","","","","","","","","","","","","","","","","","","","","","","","","","","","","","","feedback_test","","","","","","","","","","","",""
"642","","f","psychophysics","139","374903","0.0-7.0-0.0-4.0-0.0-0.16","3","4","4","3","3","4","3","2","4","3","4","5","5","4","4","5","4","5","4","4","1","2","2","1","2","1","2","1","2","1","1","1","1","0","0","0","0","0","1","1","0","1","0","1","4","2","1","2","1","3","1","2","2","4","1","688779620236918784","黄","601","","","","nonmatch","","","","","","","","","","","","","","key","f","16.653061855670195","640","356","f","true","nonmatch","img/triangle.png","椭圆","三角","ALT1","formal_ALT1_1","","","","","","","","","","","",""
"null","<span style='color:GreenYellow; font-size: 70px;'>正确! </span>","null","html-keyboard-response","140","375405","0.0-7.0-0.0-4.0-0.0-1.16","3","4","4","3","3","4","3","2","4","3","4","5","5","4","4","5","4","5","4","4","1","2","2","1","2","1","2","1","2","1","1","1","1","0","0","0","0","0","1","1","0","1","0","1","4","2","1","2","1","3","1","2","2","4","1","688779620236918784","黄","601","","","","","","","","","","","","","","","","","","","","","","","","","","","","","","feedback_test","","","","","","","","","","","",""
"734","","f","psychophysics","141","377140","0.0-7.0-0.0-4.0-0.0-0.17","3","4","4","3","3","4","3","2","4","3","4","5","5","4","4","5","4","5","4","4","1","2","2","1","2","1","2","1","2","1","1","1","1","0","0","0","0","0","1","1","0","1","0","1","4","2","1","2","1","3","1","2","2","4","1","688779620236918784","黄","601","","","","nonmatch","","","","","","","","","","","","","","key","f","16.644281553398383","640","356","f","true","nonmatch","img/triangle.png","梯形","三角","ALT1","formal_ALT1_1","","","","","","","","","","","",""
"null","<span style='color:GreenYellow; font-size: 70px;'>正确! </span>","null","html-keyboard-response","142","377643","0.0-7.0-0.0-4.0-0.0-1.17","3","4","4","3","3","4","3","2","4","3","4","5","5","4","4","5","4","5","4","4","1","2","2","1","2","1","2","1","2","1","1","1","1","0","0","0","0","0","1","1","0","1","0","1","4","2","1","2","1","3","1","2","2","4","1","688779620236918784","黄","601","","","","","","","","","","","","","","","","","","","","","","","","","","","","","","feedback_test","","","","","","","","","","","",""
"704","","j","psychophysics","143","379348","0.0-7.0-0.0-4.0-0.0-0.18","3","4","4","3","3","4","3","2","4","3","4","5","5","4","4","5","4","5","4","4","1","2","2","1","2","1","2","1","2","1","1","1","1","0","0","0","0","0","1","1","0","1","0","1","4","2","1","2","1","3","1","2","2","4","1","688779620236918784","黄","601","","","","match","","","","","","","","","","","","","","key","j","16.653465346534652","640","356","j","true","match","img/ellipse.png","椭圆","椭圆","ALT1","formal_ALT1_1","","","","","","","","","","","",""
"null","<span style='color:GreenYellow; font-size: 70px;'>正确! </span>","null","html-keyboard-response","144","379850","0.0-7.0-0.0-4.0-0.0-1.18","3","4","4","3","3","4","3","2","4","3","4","5","5","4","4","5","4","5","4","4","1","2","2","1","2","1","2","1","2","1","1","1","1","0","0","0","0","0","1","1","0","1","0","1","4","2","1","2","1","3","1","2","2","4","1","688779620236918784","黄","601","","","","","","","","","","","","","","","","","","","","","","","","","","","","","","feedback_test","","","","","","","","","","","",""
"619","","f","psychophysics","145","381473","0.0-7.0-0.0-4.0-0.0-0.19","3","4","4","3","3","4","3","2","4","3","4","5","5","4","4","5","4","5","4","4","1","2","2","1","2","1","2","1","2","1","1","1","1","0","0","0","0","0","1","1","0","1","0","1","4","2","1","2","1","3","1","2","2","4","1","688779620236918784","黄","601","","","","nonmatch","","","","","","","","","","","","","","key","f","16.653489583333187","640","356","f","true","nonmatch","img/triangle.png","六边","三角","ALT1","formal_ALT1_1","","","","","","","","","","","",""
"null","<span style='color:GreenYellow; font-size: 70px;'>正确! </span>","null","html-keyboard-response","146","381974","0.0-7.0-0.0-4.0-0.0-1.19","3","4","4","3","3","4","3","2","4","3","4","5","5","4","4","5","4","5","4","4","1","2","2","1","2","1","2","1","2","1","1","1","1","0","0","0","0","0","1","1","0","1","0","1","4","2","1","2","1","3","1","2","2","4","1","688779620236918784","黄","601","","","","","","","","","","","","","","","","","","","","","","","","","","","","","","feedback_test","","","","","","","","","","","",""
"648","","j","psychophysics","147","383625","0.0-7.0-0.0-4.0-0.0-0.20","3","4","4","3","3","4","3","2","4","3","4","5","5","4","4","5","4","5","4","4","1","2","2","1","2","1","2","1","2","1","1","1","1","0","0","0","0","0","1","1","0","1","0","1","4","2","1","2","1","3","1","2","2","4","1","688779620236918784","黄","601","","","","match","","","","","","","","","","","","","","key","j","16.649897959183697","640","356","j","true","match","img/trapezoid.png","梯形","梯形","ALT1","formal_ALT1_1","","","","","","","","","","","",""
"null","<span style='color:GreenYellow; font-size: 70px;'>正确! </span>","null","html-keyboard-response","148","384126","0.0-7.0-0.0-4.0-0.0-1.20","3","4","4","3","3","4","3","2","4","3","4","5","5","4","4","5","4","5","4","4","1","2","2","1","2","1","2","1","2","1","1","1","1","0","0","0","0","0","1","1","0","1","0","1","4","2","1","2","1","3","1","2","2","4","1","688779620236918784","黄","601","","","","","","","","","","","","","","","","","","","","","","","","","","","","","","feedback_test","","","","","","","","","","","",""
"709","","f","psychophysics","149","385837","0.0-7.0-0.0-4.0-0.0-0.21","3","4","4","3","3","4","3","2","4","3","4","5","5","4","4","5","4","5","4","4","1","2","2","1","2","1","2","1","2","1","1","1","1","0","0","0","0","0","1","1","0","1","0","1","4","2","1","2","1","3","1","2","2","4","1","688779620236918784","黄","601","","","","nonmatch","","","","","","","","","","","","","","key","f","16.648421568627693","640","356","f","true","nonmatch","img/ellipse.png","梯形","椭圆","ALT1","formal_ALT1_1","","","","","","","","","","","",""
"null","<span style='color:GreenYellow; font-size: 70px;'>正确! </span>","null","html-keyboard-response","150","386338","0.0-7.0-0.0-4.0-0.0-1.21","3","4","4","3","3","4","3","2","4","3","4","5","5","4","4","5","4","5","4","4","1","2","2","1","2","1","2","1","2","1","1","1","1","0","0","0","0","0","1","1","0","1","0","1","4","2","1","2","1","3","1","2","2","4","1","688779620236918784","黄","601","","","","","","","","","","","","","","","","","","","","","","","","","","","","","","feedback_test","","","","","","","","","","","",""
"669","","j","psychophysics","151","388009","0.0-7.0-0.0-4.0-0.0-0.22","3","4","4","3","3","4","3","2","4","3","4","5","5","4","4","5","4","5","4","4","1","2","2","1","2","1","2","1","2","1","1","1","1","0","0","0","0","0","1","1","0","1","0","1","4","2","1","2","1","3","1","2","2","4","1","688779620236918784","黄","601","","","","match","","","","","","","","","","","","","","key","j","16.653306122448733","640","356","j","true","match","img/ellipse.png","椭圆","椭圆","ALT1","formal_ALT1_1","","","","","","","","","","","",""
"null","<span style='color:GreenYellow; font-size: 70px;'>正确! </span>","null","html-keyboard-response","152","388511","0.0-7.0-0.0-4.0-0.0-1.22","3","4","4","3","3","4","3","2","4","3","4","5","5","4","4","5","4","5","4","4","1","2","2","1","2","1","2","1","2","1","1","1","1","0","0","0","0","0","1","1","0","1","0","1","4","2","1","2","1","3","1","2","2","4","1","688779620236918784","黄","601","","","","","","","","","","","","","","","","","","","","","","","","","","","","","","feedback_test","","","","","","","","","","","",""
"658","","f","psychophysics","153","390170","0.0-7.0-0.0-4.0-0.0-0.23","3","4","4","3","3","4","3","2","4","3","4","5","5","4","4","5","4","5","4","4","1","2","2","1","2","1","2","1","2","1","1","1","1","0","0","0","0","0","1","1","0","1","0","1","4","2","1","2","1","3","1","2","2","4","1","688779620236918784","黄","601","","","","nonmatch","","","","","","","","","","","","","","key","f","16.65386734693905","640","356","f","true","nonmatch","img/hexagon.png","三角","六边","ALT1","formal_ALT1_1","","","","","","","","","","","",""
"null","<span style='color:GreenYellow; font-size: 70px;'>正确! </span>","null","html-keyboard-response","154","390672","0.0-7.0-0.0-4.0-0.0-1.23","3","4","4","3","3","4","3","2","4","3","4","5","5","4","4","5","4","5","4","4","1","2","2","1","2","1","2","1","2","1","1","1","1","0","0","0","0","0","1","1","0","1","0","1","4","2","1","2","1","3","1","2","2","4","1","688779620236918784","黄","601","","","","","","","","","","","","","","","","","","","","","","","","","","","","","","feedback_test","","","","","","","","","","","",""
"633","","f","psychophysics","155","392308","0.0-7.0-0.0-4.0-0.0-0.24","3","4","4","3","3","4","3","2","4","3","4","5","5","4","4","5","4","5","4","4","1","2","2","1","2","1","2","1","2","1","1","1","1","0","0","0","0","0","1","1","0","1","0","1","4","2","1","2","1","3","1","2","2","4","1","688779620236918784","黄","601","","","","nonmatch","","","","","","","","","","","","","","key","f","16.653938144329604","640","356","f","true","nonmatch","img/triangle.png","梯形","三角","ALT1","formal_ALT1_1","","","","","","","","","","","",""
"null","<span style='color:GreenYellow; font-size: 70px;'>正确! </span>","null","html-keyboard-response","156","392810","0.0-7.0-0.0-4.0-0.0-1.24","3","4","4","3","3","4","3","2","4","3","4","5","5","4","4","5","4","5","4","4","1","2","2","1","2","1","2","1","2","1","1","1","1","0","0","0","0","0","1","1","0","1","0","1","4","2","1","2","1","3","1","2","2","4","1","688779620236918784","黄","601","","","","","","","","","","","","","","","","","","","","","","","","","","","","","","feedback_test","","","","","","","","","","","",""
"771","","j","psychophysics","157","394584","0.0-7.0-0.0-4.0-0.0-0.25","3","4","4","3","3","4","3","2","4","3","4","5","5","4","4","5","4","5","4","4","1","2","2","1","2","1","2","1","2","1","1","1","1","0","0","0","0","0","1","1","0","1","0","1","4","2","1","2","1","3","1","2","2","4","1","688779620236918784","黄","601","","","","match","","","","","","","","","","","","","","key","j","16.652876190475876","640","356","j","true","match","img/trapezoid.png","梯形","梯形","ALT1","formal_ALT1_1","","","","","","","","","","","",""
"null","<span style='color:GreenYellow; font-size: 70px;'>正确! </span>","null","html-keyboard-response","158","395085","0.0-7.0-0.0-4.0-0.0-1.25","3","4","4","3","3","4","3","2","4","3","4","5","5","4","4","5","4","5","4","4","1","2","2","1","2","1","2","1","2","1","1","1","1","0","0","0","0","0","1","1","0","1","0","1","4","2","1","2","1","3","1","2","2","4","1","688779620236918784","黄","601","","","","","","","","","","","","","","","","","","","","","","","","","","","","","","feedback_test","","","","","","","","","","","",""
"705","","f","psychophysics","159","396793","0.0-7.0-0.0-4.0-0.0-0.26","3","4","4","3","3","4","3","2","4","3","4","5","5","4","4","5","4","5","4","4","1","2","2","1","2","1","2","1","2","1","1","1","1","0","0","0","0","0","1","1","0","1","0","1","4","2","1","2","1","3","1","2","2","4","1","688779620236918784","黄","601","","","","nonmatch","","","","","","","","","","","","","","key","f","16.654490196078733","640","356","f","true","nonmatch","img/triangle.png","椭圆","三角","ALT1","formal_ALT1_1","","","","","","","","","","","",""
"null","<span style='color:GreenYellow; font-size: 70px;'>正确! </span>","null","html-keyboard-response","160","397295","0.0-7.0-0.0-4.0-0.0-1.26","3","4","4","3","3","4","3","2","4","3","4","5","5","4","4","5","4","5","4","4","1","2","2","1","2","1","2","1","2","1","1","1","1","0","0","0","0","0","1","1","0","1","0","1","4","2","1","2","1","3","1","2","2","4","1","688779620236918784","黄","601","","","","","","","","","","","","","","","","","","","","","","","","","","","","","","feedback_test","","","","","","","","","","","",""
"632","","f","psychophysics","161","398930","0.0-7.0-0.0-4.0-0.0-0.27","3","4","4","3","3","4","3","2","4","3","4","5","5","4","4","5","4","5","4","4","1","2","2","1","2","1","2","1","2","1","1","1","1","0","0","0","0","0","1","1","0","1","0","1","4","2","1","2","1","3","1","2","2","4","1","688779620236918784","黄","601","","","","nonmatch","","","","","","","","","","","","","","key","f","16.65340206185572","640","356","f","true","nonmatch","img/hexagon.png","三角","六边","ALT1","formal_ALT1_1","","","","","","","","","","","",""
"null","<span style='color:GreenYellow; font-size: 70px;'>正确! </span>","null","html-keyboard-response","162","399431","0.0-7.0-0.0-4.0-0.0-1.27","3","4","4","3","3","4","3","2","4","3","4","5","5","4","4","5","4","5","4","4","1","2","2","1","2","1","2","1","2","1","1","1","1","0","0","0","0","0","1","1","0","1","0","1","4","2","1","2","1","3","1","2","2","4","1","688779620236918784","黄","601","","","","","","","","","","","","","","","","","","","","","","","","","","","","","","feedback_test","","","","","","","","","","","",""
"644","","f","psychophysics","163","401077","0.0-7.0-0.0-4.0-0.0-0.28","3","4","4","3","3","4","3","2","4","3","4","5","5","4","4","5","4","5","4","4","1","2","2","1","2","1","2","1","2","1","1","1","1","0","0","0","0","0","1","1","0","1","0","1","4","2","1","2","1","3","1","2","2","4","1","688779620236918784","黄","601","","","","nonmatch","","","","","","","","","","","","","","key","f","16.653969387755474","640","356","f","true","nonmatch","img/hexagon.png","椭圆","六边","ALT1","formal_ALT1_1","","","","","","","","","","","",""
"null","<span style='color:GreenYellow; font-size: 70px;'>正确! </span>","null","html-keyboard-response","164","401578","0.0-7.0-0.0-4.0-0.0-1.28","3","4","4","3","3","4","3","2","4","3","4","5","5","4","4","5","4","5","4","4","1","2","2","1","2","1","2","1","2","1","1","1","1","0","0","0","0","0","1","1","0","1","0","1","4","2","1","2","1","3","1","2","2","4","1","688779620236918784","黄","601","","","","","","","","","","","","","","","","","","","","","","","","","","","","","","feedback_test","","","","","","","","","","","",""
"863","","j","psychophysics","165","403442","0.0-7.0-0.0-4.0-0.0-0.29","3","4","4","3","3","4","3","2","4","3","4","5","5","4","4","5","4","5","4","4","1","2","2","1","2","1","2","1","2","1","1","1","1","0","0","0","0","0","1","1","0","1","0","1","4","2","1","2","1","3","1","2","2","4","1","688779620236918784","黄","601","","","","match","","","","","","","","","","","","","","key","j","16.647945945945605","640","356","j","true","match","img/ellipse.png","椭圆","椭圆","ALT1","formal_ALT1_1","","","","","","","","","","","",""
"null","<span style='color:GreenYellow; font-size: 70px;'>正确! </span>","null","html-keyboard-response","166","403943","0.0-7.0-0.0-4.0-0.0-1.29","3","4","4","3","3","4","3","2","4","3","4","5","5","4","4","5","4","5","4","4","1","2","2","1","2","1","2","1","2","1","1","1","1","0","0","0","0","0","1","1","0","1","0","1","4","2","1","2","1","3","1","2","2","4","1","688779620236918784","黄","601","","","","","","","","","","","","","","","","","","","","","","","","","","","","","","feedback_test","","","","","","","","","","","",""
"586","","j","psychophysics","167","405530","0.0-7.0-0.0-4.0-0.0-0.30","3","4","4","3","3","4","3","2","4","3","4","5","5","4","4","5","4","5","4","4","1","2","2","1","2","1","2","1","2","1","1","1","1","0","0","0","0","0","1","1","0","1","0","1","4","2","1","2","1","3","1","2","2","4","1","688779620236918784","黄","601","","","","match","","","","","","","","","","","","","","key","j","16.65185106382953","640","356","j","true","match","img/hexagon.png","六边","六边","ALT1","formal_ALT1_1","","","","","","","","","","","",""
"null","<span style='color:GreenYellow; font-size: 70px;'>正确! </span>","null","html-keyboard-response","168","406031","0.0-7.0-0.0-4.0-0.0-1.30","3","4","4","3","3","4","3","2","4","3","4","5","5","4","4","5","4","5","4","4","1","2","2","1","2","1","2","1","2","1","1","1","1","0","0","0","0","0","1","1","0","1","0","1","4","2","1","2","1","3","1","2","2","4","1","688779620236918784","黄","601","","","","","","","","","","","","","","","","","","","","","","","","","","","","","","feedback_test","","","","","","","","","","","",""
"570","","j","psychophysics","169","407603","0.0-7.0-0.0-4.0-0.0-0.31","3","4","4","3","3","4","3","2","4","3","4","5","5","4","4","5","4","5","4","4","1","2","2","1","2","1","2","1","2","1","1","1","1","0","0","0","0","0","1","1","0","1","0","1","4","2","1","2","1","3","1","2","2","4","1","688779620236918784","黄","601","","","","match","","","","","","","","","","","","","","key","j","16.653129032258477","640","356","j","true","match","img/hexagon.png","六边","六边","ALT1","formal_ALT1_1","","","","","","","","","","","",""
"null","<span style='color:GreenYellow; font-size: 70px;'>正确! </span>","null","html-keyboard-response","170","408104","0.0-7.0-0.0-4.0-0.0-1.31","3","4","4","3","3","4","3","2","4","3","4","5","5","4","4","5","4","5","4","4","1","2","2","1","2","1","2","1","2","1","1","1","1","0","0","0","0","0","1","1","0","1","0","1","4","2","1","2","1","3","1","2","2","4","1","688779620236918784","黄","601","","","","","","","","","","","","","","","","","","","","","","","","","","","","","","feedback_test","","","","","","","","","","","",""
"671","","f","psychophysics","171","409777","0.0-7.0-0.0-4.0-0.0-0.32","3","4","4","3","3","4","3","2","4","3","4","5","5","4","4","5","4","5","4","4","1","2","2","1","2","1","2","1","2","1","1","1","1","0","0","0","0","0","1","1","0","1","0","1","4","2","1","2","1","3","1","2","2","4","1","688779620236918784","黄","601","","","","nonmatch","","","","","","","","","","","","","","key","f","16.653734693877464","640","356","f","true","nonmatch","img/hexagon.png","梯形","六边","ALT1","formal_ALT1_1","","","","","","","","","","","",""
"null","<span style='color:GreenYellow; font-size: 70px;'>正确! </span>","null","html-keyboard-response","172","410279","0.0-7.0-0.0-4.0-0.0-1.32","3","4","4","3","3","4","3","2","4","3","4","5","5","4","4","5","4","5","4","4","1","2","2","1","2","1","2","1","2","1","1","1","1","0","0","0","0","0","1","1","0","1","0","1","4","2","1","2","1","3","1","2","2","4","1","688779620236918784","黄","601","","","","","","","","","","","","","","","","","","","","","","","","","","","","","","feedback_test","","","","","","","","","","","",""
"634","","j","psychophysics","173","411915","0.0-7.0-0.0-4.0-0.0-0.33","3","4","4","3","3","4","3","2","4","3","4","5","5","4","4","5","4","5","4","4","1","2","2","1","2","1","2","1","2","1","1","1","1","0","0","0","0","0","1","1","0","1","0","1","4","2","1","2","1","3","1","2","2","4","1","688779620236918784","黄","601","","","","match","","","","","","","","","","","","","","key","j","16.653103092783756","640","356","j","true","match","img/ellipse.png","椭圆","椭圆","ALT1","formal_ALT1_1","","","","","","","","","","","",""
"null","<span style='color:GreenYellow; font-size: 70px;'>正确! </span>","null","html-keyboard-response","174","412418","0.0-7.0-0.0-4.0-0.0-1.33","3","4","4","3","3","4","3","2","4","3","4","5","5","4","4","5","4","5","4","4","1","2","2","1","2","1","2","1","2","1","1","1","1","0","0","0","0","0","1","1","0","1","0","1","4","2","1","2","1","3","1","2","2","4","1","688779620236918784","黄","601","","","","","","","","","","","","","","","","","","","","","","","","","","","","","","feedback_test","","","","","","","","","","","",""
"600","","f","psychophysics","175","414020","0.0-7.0-0.0-4.0-0.0-0.34","3","4","4","3","3","4","3","2","4","3","4","5","5","4","4","5","4","5","4","4","1","2","2","1","2","1","2","1","2","1","1","1","1","0","0","0","0","0","1","1","0","1","0","1","4","2","1","2","1","3","1","2","2","4","1","688779620236918784","黄","601","","","","nonmatch","","","","","","","","","","","","","","key","f","16.649473684210648","640","356","f","true","nonmatch","img/ellipse.png","六边","椭圆","ALT1","formal_ALT1_1","","","","","","","","","","","",""
"null","<span style='color:GreenYellow; font-size: 70px;'>正确! </span>","null","html-keyboard-response","176","414521","0.0-7.0-0.0-4.0-0.0-1.34","3","4","4","3","3","4","3","2","4","3","4","5","5","4","4","5","4","5","4","4","1","2","2","1","2","1","2","1","2","1","1","1","1","0","0","0","0","0","1","1","0","1","0","1","4","2","1","2","1","3","1","2","2","4","1","688779620236918784","黄","601","","","","","","","","","","","","","","","","","","","","","","","","","","","","","","feedback_test","","","","","","","","","","","",""
"551","","f","psychophysics","177","416072","0.0-7.0-0.0-4.0-0.0-0.35","3","4","4","3","3","4","3","2","4","3","4","5","5","4","4","5","4","5","4","4","1","2","2","1","2","1","2","1","2","1","1","1","1","0","0","0","0","0","1","1","0","1","0","1","4","2","1","2","1","3","1","2","2","4","1","688779620236918784","黄","601","","","","nonmatch","","","","","","","","","","","","","","key","f","16.654739130435146","640","356","j","false","match","img/triangle.png","三角","三角","ALT1","formal_ALT1_1","","","","","","","","","","","",""
"null","<span style='color:red; font-size: 70px;'>错误! </span>","null","html-keyboard-response","178","416573","0.0-7.0-0.0-4.0-0.0-1.35","3","4","4","3","3","4","3","2","4","3","4","5","5","4","4","5","4","5","4","4","1","2","2","1","2","1","2","1","2","1","1","1","1","0","0","0","0","0","1","1","0","1","0","1","4","2","1","2","1","3","1","2","2","4","1","688779620236918784","黄","601","","","","","","","","","","","","","","","","","","","","","","","","","","","","","","feedback_test","","","","","","","","","","","",""
"844","","f","psychophysics","179","418420","0.0-7.0-0.0-4.0-0.0-0.36","3","4","4","3","3","4","3","2","4","3","4","5","5","4","4","5","4","5","4","4","1","2","2","1","2","1","2","1","2","1","1","1","1","0","0","0","0","0","1","1","0","1","0","1","4","2","1","2","1","3","1","2","2","4","1","688779620236918784","黄","601","","","","nonmatch","","","","","","","","","","","","","","key","f","16.65321100917442","640","356","f","true","nonmatch","img/triangle.png","六边","三角","ALT1","formal_ALT1_1","","","","","","","","","","","",""
"null","<span style='color:GreenYellow; font-size: 70px;'>正确! </span>","null","html-keyboard-response","180","418920","0.0-7.0-0.0-4.0-0.0-1.36","3","4","4","3","3","4","3","2","4","3","4","5","5","4","4","5","4","5","4","4","1","2","2","1","2","1","2","1","2","1","1","1","1","0","0","0","0","0","1","1","0","1","0","1","4","2","1","2","1","3","1","2","2","4","1","688779620236918784","黄","601","","","","","","","","","","","","","","","","","","","","","","","","","","","","","","feedback_test","","","","","","","","","","","",""
