"rt","stimulus","response","trial_type","trial_index","time_elapsed","internal_node_id","ses_1","ses_2","ses_3","ses_4","ses_5","ses_6","ses_7","ses_8","ses_9","ses_10","coreself_1","coreself_2","coreself_3","coreself_4","coreself_5","coreself_6","coreself_7","coreself_8","coreself_9","coreself_10","SGPS_1","SGPS_2","SGPS_3","SGPS_4","SGPS_5","SGPS_6","SGPS_7","SGPS_8","SGPS_9","NPI1","NPI2","NPI3","NPI4","NPI5","NPI6","NPI7","NPI8","NPI9","NPI10","NPI11","NPI12","NPI13","NPI14","NPI15","hsns_1","hsns_2","hsns_3","hsns_4","hsns_5","trap1","hsns_6","hsns_7","hsns_8","hsns_9","hsns_10","subj_idx","friend_name","ParticipantID","value","success","user_agent","responses","item_order","radio_event_ids","radio_event_times","key_event_times","mouse_event_times","straightlining","zigzagging","honeypot","timeout","failed_images","failed_audio","failed_video","view_history","response_type","key_press","avg_frame_time","center_x","center_y","correct_response","correct","identity","Image","word","condition","task_id","screen_id","time_stamp","version_attrib2","version_target2","IAT","RT","varname","summary","version_attrib","version_target","question_order","correct_answer","trap1_item"
"55422","
   <p><div style = ""color: white;font-size:25px;"">您好，欢迎参加本次实验。</div> </p>
   <p><div style = ""color: white;font-size:25px;"">为充分保障您的权利，请确保您已经知晓并同意《参与实验同意书》以及《数据公开知情同意书》。</div></p>
   <p><div style = ""color: white;font-size:25px;"">如果您未见过上述内容，请咨询实验员。</div></p>
   <p><div style = ""color: white;font-size:25px;"">如果您选择继续实验，则表示您已经清楚两份知情同意书的内容并同意。</div></p>
   <p><div style = ""color: pink;font-size:30px;"">请确保您记得day0的实验编号，您将在本次实验输入该编号，若您忘记，请咨询实验员后作答。</div></p>
   <p><div style = ""color: lightblue;font-size:25px;"">请您尽可能认真地作答，我们将依据您在各问卷和按键任务中的作答质量发放报酬。</div></p>
   <p> <div style = ""color: green;font-size:25px;""><按空格键至下页></div> </p>
   "," ","html-keyboard-response","0","55424","0.0-0.0","4","4","3","3","3","4","3","3","3","3","4","3","2","4","3","4","3","3","4","4","5","5","4","5","5","4","3","4","5","0","1","0","0","0","1","1","1","1","0","1","0","1","0","1","4","2","3","2","3","3","3","4","5","4","4","777098957192171521","张","73","","","","","","","","","","","","","","","","","","","","","","","","","","","","","","","","","","","","","","","","","",""
"","","","call-function","1","55425","0.0-1.0-0.0","4","4","3","3","3","4","3","3","3","3","4","3","2","4","3","4","3","3","4","4","5","5","4","5","5","4","3","4","5","0","1","0","0","0","1","1","1","1","0","1","0","1","0","1","4","2","3","2","3","3","3","4","5","4","4","777098957192171521","张","73","","","","","","","","","","","","","","","","","","","","","","","","","","","","","","","","","","","","","","","","","",""
"12966","","{""friend_name"":""张"",""ParticipantID"":""73""}","survey-html-form","2","68392","0.0-1.0-1.0","4","4","3","3","3","4","3","3","3","3","4","3","2","4","3","4","3","3","4","4","5","5","4","5","5","4","3","4","5","0","1","0","0","0","1","1","1","1","0","1","0","1","0","1","4","2","3","2","3","3","3","4","5","4","4","777098957192171521","张","73","","","","","","","","","","","","","","","","","","","","","","","","","","","","","","","","","","","","","","","","","",""
"","","","fullscreen","3","91363","0.0-2.0","4","4","3","3","3","4","3","3","3","3","4","3","2","4","3","4","3","3","4","4","5","5","4","5","5","4","3","4","5","0","1","0","0","0","1","1","1","1","0","1","0","1","0","1","4","2","3","2","3","3","3","4","5","4","4","777098957192171521","张","73","","true","{}","","","","","","","","","","","","","","","","","","","","","","","","","","","","","","","","","","","","","","",""
"24779.799999952316","","{""Q01"":""4"",""Q02"":""4"",""Q03"":""3"",""Q04"":""3"",""Q05"":""3"",""Q06"":""4"",""Q07"":""3"",""Q08"":""3"",""Q09"":""3"",""Q10"":""3""}","survey-template","4","116148","0.0-3.0","4","4","3","3","3","4","3","3","3","3","4","3","2","4","3","4","3","3","4","4","5","5","4","5","5","4","3","4","5","0","1","0","0","0","1","1","1","1","0","1","0","1","0","1","4","2","3","2","3","3","3","4","5","4","4","777098957192171521","张","73","","","","{""Q01"":""4"",""Q02"":""4"",""Q03"":""3"",""Q04"":""3"",""Q05"":""3"",""Q06"":""4"",""Q07"":""3"",""Q08"":""3"",""Q09"":""3"",""Q10"":""3""}","[0,1,2,3,4,5,6,7,8,9]","[""Q01"",""Q02"",""Q03"",""Q04"",""Q06"",""Q05"",""Q07"",""Q08"",""Q09"",""Q10""]","[4094.0999999046326,5467.799999952316,7073.599999904633,8517.400000095367,13133.599999904633,14297,16247,18992.900000095367,22418.200000047684,23491.299999952316]","[]","[4094.0999999046326,5467.799999952316,7073.599999904633,8517.400000095367,11285.5,13133.599999904633,14297,16247,18992.900000095367,22418.200000047684,23491.299999952316,24778.200000047684]","0.5","0.4444444444444444","0","","","","","","","","","","","","","","","","","","","","","","","","","","","","","",""
"31792.200000047684","","{""Q01"":""4"",""Q02"":""3"",""Q03"":""2"",""Q04"":""4"",""Q05"":""3"",""Q06"":""4"",""Q07"":""3"",""Q08"":""3"",""Q09"":""4"",""Q10"":""4""}","survey-template","5","147946","0.0-4.0","4","4","3","3","3","4","3","3","3","3","4","3","2","4","3","4","3","3","4","4","5","5","4","5","5","4","3","4","5","0","1","0","0","0","1","1","1","1","0","1","0","1","0","1","4","2","3","2","3","3","3","4","5","4","4","777098957192171521","张","73","","","","{""Q01"":""4"",""Q02"":""3"",""Q03"":""2"",""Q04"":""4"",""Q05"":""3"",""Q06"":""4"",""Q07"":""3"",""Q08"":""3"",""Q09"":""4"",""Q10"":""4""}","[0,1,2,3,4,5,6,7,8,9]","[""Q01"",""Q02"",""Q03"",""Q04"",""Q05"",""Q06"",""Q07"",""Q08"",""Q09"",""Q10""]","[2018.7000000476837,3827.600000143051,5548.600000143051,7447.400000095367,10058.900000095367,11812.200000047684,15726.100000143051,18223.5,19738.200000047684,23318.60000014305]","[]","[2018.7000000476837,3827.600000143051,5548.600000143051,7447.400000095367,10058.900000095367,11812.200000047684,15726.100000143051,18223.5,19738.200000047684,23318.60000014305,31790.299999952316]","0.5","0.6666666666666666","0","","","","","","","","","","","","","","","","","","","","","","","","","","","","","",""
"","","","preload","6","148436","0.0-5.0","4","4","3","3","3","4","3","3","3","3","4","3","2","4","3","4","3","3","4","4","5","5","4","5","5","4","3","4","5","0","1","0","0","0","1","1","1","1","0","1","0","1","0","1","4","2","3","2","3","3","3","4","5","4","4","777098957192171521","张","73","","true","","","","","","","","","","","false","[]","[]","[]","","","","","","","","","","","","","","","","","","","","","","","","","",""
"66990","","","instructions","7","215427","0.0-6.0","4","4","3","3","3","4","3","3","3","3","4","3","2","4","3","4","3","3","4","4","5","5","4","5","5","4","3","4","5","0","1","0","0","0","1","1","1","1","0","1","0","1","0","1","4","2","3","2","3","3","3","4","5","4","4","777098957192171521","张","73","","","","","","","","","","","","","","","","","[{""page_index"":0,""viewing_time"":66989}]","","","","","","","","","","","","","","","","","","","","","","","","",""
"47547","","","instructions","8","262976","0.0-7.0-1.0-0.0","4","4","3","3","3","4","3","3","3","3","4","3","2","4","3","4","3","3","4","4","5","5","4","5","5","4","3","4","5","0","1","0","0","0","1","1","1","1","0","1","0","1","0","1","4","2","3","2","3","3","3","4","5","4","4","777098957192171521","张","73","","","","","","","","","","","","","","","","","[{""page_index"":0,""viewing_time"":39174},{""page_index"":1,""viewing_time"":6771},{""page_index"":2,""viewing_time"":1603}]","","","","","","","","","","","","","","","","","","","","","","","","",""
"null","","null","psychophysics","9","265191","0.0-7.0-1.0-1.0-0.0-0.0","4","4","3","3","3","4","3","3","3","3","4","3","2","4","3","4","3","3","4","4","5","5","4","5","5","4","3","4","5","0","1","0","0","0","1","1","1","1","0","1","0","1","0","1","4","2","3","2","3","3","3","4","5","4","4","777098957192171521","张","73","","","","null","","","","","","","","","","","","","","key","null","11.11240816326534","720.2857142857143","476.2857142857143","j","false","match","img/square.png","方形","方形","ALT1_2","prac_ALT1_2","","","","","","","","","","","",""
"null","<span class='add_' style='color:yellow; font-size: 70px;'> 太慢! </span>","null","html-keyboard-response","10","265699","0.0-7.0-1.0-1.0-0.0-1.0","4","4","3","3","3","4","3","3","3","3","4","3","2","4","3","4","3","3","4","4","5","5","4","5","5","4","3","4","5","0","1","0","0","0","1","1","1","1","0","1","0","1","0","1","4","2","3","2","3","3","3","4","5","4","4","777098957192171521","张","73","","","","","","","","","","","","","","","","","","","","","","","","","","","","","","feedback_test","","","","","","","","","","","",""
"532","","f","psychophysics","11","267249","0.0-7.0-1.0-1.0-0.0-0.1","4","4","3","3","3","4","3","3","3","3","4","3","2","4","3","4","3","3","4","4","5","5","4","5","5","4","3","4","5","0","1","0","0","0","1","1","1","1","0","1","0","1","0","1","4","2","3","2","3","3","3","4","5","4","4","777098957192171521","张","73","","","","nonmatch","","","","","","","","","","","","","","key","f","11.113321167882956","720.2857142857143","476.2857142857143","j","false","match","img/diamond.png","菱形","菱形","ALT1_2","prac_ALT1_2","","","","","","","","","","","",""
"null","<span style='color:red; font-size: 70px;'>错误! </span>","null","html-keyboard-response","12","267754","0.0-7.0-1.0-1.0-0.0-1.1","4","4","3","3","3","4","3","3","3","3","4","3","2","4","3","4","3","3","4","4","5","5","4","5","5","4","3","4","5","0","1","0","0","0","1","1","1","1","0","1","0","1","0","1","4","2","3","2","3","3","3","4","5","4","4","777098957192171521","张","73","","","","","","","","","","","","","","","","","","","","","","","","","","","","","","feedback_test","","","","","","","","","","","",""
"508","","f","psychophysics","13","269269","0.0-7.0-1.0-1.0-0.0-0.2","4","4","3","3","3","4","3","3","3","3","4","3","2","4","3","4","3","3","4","4","5","5","4","5","5","4","3","4","5","0","1","0","0","0","1","1","1","1","0","1","0","1","0","1","4","2","3","2","3","3","3","4","5","4","4","777098957192171521","张","73","","","","nonmatch","","","","","","","","","","","","","","key","f","11.526748091602727","720.2857142857143","476.2857142857143","j","false","match","img/diamond.png","菱形","菱形","ALT1_2","prac_ALT1_2","","","","","","","","","","","",""
"null","<span style='color:red; font-size: 70px;'>错误! </span>","null","html-keyboard-response","14","269795","0.0-7.0-1.0-1.0-0.0-1.2","4","4","3","3","3","4","3","3","3","3","4","3","2","4","3","4","3","3","4","4","5","5","4","5","5","4","3","4","5","0","1","0","0","0","1","1","1","1","0","1","0","1","0","1","4","2","3","2","3","3","3","4","5","4","4","777098957192171521","张","73","","","","","","","","","","","","","","","","","","","","","","","","","","","","","","feedback_test","","","","","","","","","","","",""
"465","","j","psychophysics","15","271263","0.0-7.0-1.0-1.0-0.0-0.3","4","4","3","3","3","4","3","3","3","3","4","3","2","4","3","4","3","3","4","4","5","5","4","5","5","4","3","4","5","0","1","0","0","0","1","1","1","1","0","1","0","1","0","1","4","2","3","2","3","3","3","4","5","4","4","777098957192171521","张","73","","","","match","","","","","","","","","","","","","","key","j","11.047792307692221","720.2857142857143","476.2857142857143","j","true","match","img/square.png","方形","方形","ALT1_2","prac_ALT1_2","","","","","","","","","","","",""
"null","<span style='color:GreenYellow; font-size: 70px;'>正确! </span>","null","html-keyboard-response","16","271768","0.0-7.0-1.0-1.0-0.0-1.3","4","4","3","3","3","4","3","3","3","3","4","3","2","4","3","4","3","3","4","4","5","5","4","5","5","4","3","4","5","0","1","0","0","0","1","1","1","1","0","1","0","1","0","1","4","2","3","2","3","3","3","4","5","4","4","777098957192171521","张","73","","","","","","","","","","","","","","","","","","","","","","","","","","","","","","feedback_test","","","","","","","","","","","",""
"433","","f","psychophysics","17","273207","0.0-7.0-1.0-1.0-0.0-0.4","4","4","3","3","3","4","3","3","3","3","4","3","2","4","3","4","3","3","4","4","5","5","4","5","5","4","3","4","5","0","1","0","0","0","1","1","1","1","0","1","0","1","0","1","4","2","3","2","3","3","3","4","5","4","4","777098957192171521","张","73","","","","nonmatch","","","","","","","","","","","","","","key","f","11.112866141732534","720.2857142857143","476.2857142857143","j","false","match","img/ellipse.png","椭圆","椭圆","ALT1_2","prac_ALT1_2","","","","","","","","","","","",""
"null","<span style='color:red; font-size: 70px;'>错误! </span>","null","html-keyboard-response","18","273714","0.0-7.0-1.0-1.0-0.0-1.4","4","4","3","3","3","4","3","3","3","3","4","3","2","4","3","4","3","3","4","4","5","5","4","5","5","4","3","4","5","0","1","0","0","0","1","1","1","1","0","1","0","1","0","1","4","2","3","2","3","3","3","4","5","4","4","777098957192171521","张","73","","","","","","","","","","","","","","","","","","","","","","","","","","","","","","feedback_test","","","","","","","","","","","",""
"415","","j","psychophysics","19","275133","0.0-7.0-1.0-1.0-0.0-0.5","4","4","3","3","3","4","3","3","3","3","4","3","2","4","3","4","3","3","4","4","5","5","4","5","5","4","3","4","5","0","1","0","0","0","1","1","1","1","0","1","0","1","0","1","4","2","3","2","3","3","3","4","5","4","4","777098957192171521","张","73","","","","match","","","","","","","","","","","","","","key","j","11.092967741935412","720.2857142857143","476.2857142857143","f","false","nonmatch","img/ellipse.png","菱形","椭圆","ALT1_2","prac_ALT1_2","","","","","","","","","","","",""
"null","<span style='color:red; font-size: 70px;'>错误! </span>","null","html-keyboard-response","20","275635","0.0-7.0-1.0-1.0-0.0-1.5","4","4","3","3","3","4","3","3","3","3","4","3","2","4","3","4","3","3","4","4","5","5","4","5","5","4","3","4","5","0","1","0","0","0","1","1","1","1","0","1","0","1","0","1","4","2","3","2","3","3","3","4","5","4","4","777098957192171521","张","73","","","","","","","","","","","","","","","","","","","","","","","","","","","","","","feedback_test","","","","","","","","","","","",""
"null","","null","psychophysics","21","277878","0.0-7.0-1.0-1.0-0.0-0.6","4","4","3","3","3","4","3","3","3","3","4","3","2","4","3","4","3","3","4","4","5","5","4","5","5","4","3","4","5","0","1","0","0","0","1","1","1","1","0","1","0","1","0","1","4","2","3","2","3","3","3","4","5","4","4","777098957192171521","张","73","","","","null","","","","","","","","","","","","","","key","null","11.145090909090923","720.2857142857143","476.2857142857143","f","false","nonmatch","img/pentagon.png","菱形","五边","ALT1_2","prac_ALT1_2","","","","","","","","","","","",""
"null","<span class='add_' style='color:yellow; font-size: 70px;'> 太慢! </span>","null","html-keyboard-response","22","278388","0.0-7.0-1.0-1.0-0.0-1.6","4","4","3","3","3","4","3","3","3","3","4","3","2","4","3","4","3","3","4","4","5","5","4","5","5","4","3","4","5","0","1","0","0","0","1","1","1","1","0","1","0","1","0","1","4","2","3","2","3","3","3","4","5","4","4","777098957192171521","张","73","","","","","","","","","","","","","","","","","","","","","","","","","","","","","","feedback_test","","","","","","","","","","","",""
"805","","f","psychophysics","23","280210","0.0-7.0-1.0-1.0-0.0-0.7","4","4","3","3","3","4","3","3","3","3","4","3","2","4","3","4","3","3","4","4","5","5","4","5","5","4","3","4","5","0","1","0","0","0","1","1","1","1","0","1","0","1","0","1","4","2","3","2","3","3","3","4","5","4","4","777098957192171521","张","73","","","","nonmatch","","","","","","","","","","","","","","key","f","11.099566037735885","720.2857142857143","476.2857142857143","f","true","nonmatch","img/pentagon.png","方形","五边","ALT1_2","prac_ALT1_2","","","","","","","","","","","",""
"null","<span style='color:GreenYellow; font-size: 70px;'>正确! </span>","null","html-keyboard-response","24","280714","0.0-7.0-1.0-1.0-0.0-1.7","4","4","3","3","3","4","3","3","3","3","4","3","2","4","3","4","3","3","4","4","5","5","4","5","5","4","3","4","5","0","1","0","0","0","1","1","1","1","0","1","0","1","0","1","4","2","3","2","3","3","3","4","5","4","4","777098957192171521","张","73","","","","","","","","","","","","","","","","","","","","","","","","","","","","","","feedback_test","","","","","","","","","","","",""
"693","","j","psychophysics","25","282409","0.0-7.0-1.0-1.0-0.0-0.8","4","4","3","3","3","4","3","3","3","3","4","3","2","4","3","4","3","3","4","4","5","5","4","5","5","4","3","4","5","0","1","0","0","0","1","1","1","1","0","1","0","1","0","1","4","2","3","2","3","3","3","4","5","4","4","777098957192171521","张","73","","","","match","","","","","","","","","","","","","","key","j","11.095130136986471","720.2857142857143","476.2857142857143","f","false","nonmatch","img/diamond.png","方形","菱形","ALT1_2","prac_ALT1_2","","","","","","","","","","","",""
"null","<span style='color:red; font-size: 70px;'>错误! </span>","null","html-keyboard-response","26","282915","0.0-7.0-1.0-1.0-0.0-1.8","4","4","3","3","3","4","3","3","3","3","4","3","2","4","3","4","3","3","4","4","5","5","4","5","5","4","3","4","5","0","1","0","0","0","1","1","1","1","0","1","0","1","0","1","4","2","3","2","3","3","3","4","5","4","4","777098957192171521","张","73","","","","","","","","","","","","","","","","","","","","","","","","","","","","","","feedback_test","","","","","","","","","","","",""
"509","","j","psychophysics","27","284426","0.0-7.0-1.0-1.0-0.0-0.9","4","4","3","3","3","4","3","3","3","3","4","3","2","4","3","4","3","3","4","4","5","5","4","5","5","4","3","4","5","0","1","0","0","0","1","1","1","1","0","1","0","1","0","1","4","2","3","2","3","3","3","4","5","4","4","777098957192171521","张","73","","","","match","","","","","","","","","","","","","","key","j","11.176810606060881","720.2857142857143","476.2857142857143","f","false","nonmatch","img/square.png","菱形","方形","ALT1_2","prac_ALT1_2","","","","","","","","","","","",""
"null","<span style='color:red; font-size: 70px;'>错误! </span>","null","html-keyboard-response","28","284930","0.0-7.0-1.0-1.0-0.0-1.9","4","4","3","3","3","4","3","3","3","3","4","3","2","4","3","4","3","3","4","4","5","5","4","5","5","4","3","4","5","0","1","0","0","0","1","1","1","1","0","1","0","1","0","1","4","2","3","2","3","3","3","4","5","4","4","777098957192171521","张","73","","","","","","","","","","","","","","","","","","","","","","","","","","","","","","feedback_test","","","","","","","","","","","",""
"730","","f","psychophysics","29","286677","0.0-7.0-1.0-1.0-0.0-0.10","4","4","3","3","3","4","3","3","3","3","4","3","2","4","3","4","3","3","4","4","5","5","4","5","5","4","3","4","5","0","1","0","0","0","1","1","1","1","0","1","0","1","0","1","4","2","3","2","3","3","3","4","5","4","4","777098957192171521","张","73","","","","nonmatch","","","","","","","","","","","","","","key","f","11.45833552631551","720.2857142857143","476.2857142857143","f","true","nonmatch","img/diamond.png","椭圆","菱形","ALT1_2","prac_ALT1_2","","","","","","","","","","","",""
"null","<span style='color:GreenYellow; font-size: 70px;'>正确! </span>","null","html-keyboard-response","30","287186","0.0-7.0-1.0-1.0-0.0-1.10","4","4","3","3","3","4","3","3","3","3","4","3","2","4","3","4","3","3","4","4","5","5","4","5","5","4","3","4","5","0","1","0","0","0","1","1","1","1","0","1","0","1","0","1","4","2","3","2","3","3","3","4","5","4","4","777098957192171521","张","73","","","","","","","","","","","","","","","","","","","","","","","","","","","","","","feedback_test","","","","","","","","","","","",""
"869","","j","psychophysics","31","289060","0.0-7.0-1.0-1.0-0.0-0.11","4","4","3","3","3","4","3","3","3","3","4","3","2","4","3","4","3","3","4","4","5","5","4","5","5","4","3","4","5","0","1","0","0","0","1","1","1","1","0","1","0","1","0","1","4","2","3","2","3","3","3","4","5","4","4","777098957192171521","张","73","","","","match","","","","","","","","","","","","","","key","j","11.478736196318927","720.2857142857143","476.2857142857143","j","true","match","img/pentagon.png","五边","五边","ALT1_2","prac_ALT1_2","","","","","","","","","","","",""
"null","<span style='color:GreenYellow; font-size: 70px;'>正确! </span>","null","html-keyboard-response","32","289566","0.0-7.0-1.0-1.0-0.0-1.11","4","4","3","3","3","4","3","3","3","3","4","3","2","4","3","4","3","3","4","4","5","5","4","5","5","4","3","4","5","0","1","0","0","0","1","1","1","1","0","1","0","1","0","1","4","2","3","2","3","3","3","4","5","4","4","777098957192171521","张","73","","","","","","","","","","","","","","","","","","","","","","","","","","","","","","feedback_test","","","","","","","","","","","",""
"518","","j","psychophysics","33","291087","0.0-7.0-1.0-1.0-0.0-0.12","4","4","3","3","3","4","3","3","3","3","4","3","2","4","3","4","3","3","4","4","5","5","4","5","5","4","3","4","5","0","1","0","0","0","1","1","1","1","0","1","0","1","0","1","4","2","3","2","3","3","3","4","5","4","4","777098957192171521","张","73","","","","match","","","","","","","","","","","","","","key","j","11.156999999999854","720.2857142857143","476.2857142857143","f","false","nonmatch","img/square.png","五边","方形","ALT1_2","prac_ALT1_2","","","","","","","","","","","",""
"null","<span style='color:red; font-size: 70px;'>错误! </span>","null","html-keyboard-response","34","291590","0.0-7.0-1.0-1.0-0.0-1.12","4","4","3","3","3","4","3","3","3","3","4","3","2","4","3","4","3","3","4","4","5","5","4","5","5","4","3","4","5","0","1","0","0","0","1","1","1","1","0","1","0","1","0","1","4","2","3","2","3","3","3","4","5","4","4","777098957192171521","张","73","","","","","","","","","","","","","","","","","","","","","","","","","","","","","","feedback_test","","","","","","","","","","","",""
"750","","f","psychophysics","35","293379","0.0-7.0-1.0-1.0-0.0-0.13","4","4","3","3","3","4","3","3","3","3","4","3","2","4","3","4","3","3","4","4","5","5","4","5","5","4","3","4","5","0","1","0","0","0","1","1","1","1","0","1","0","1","0","1","4","2","3","2","3","3","3","4","5","4","4","777098957192171521","张","73","","","","nonmatch","","","","","","","","","","","","","","key","f","11.430608974359274","720.2857142857143","476.2857142857143","j","false","match","img/pentagon.png","五边","五边","ALT1_2","prac_ALT1_2","","","","","","","","","","","",""
"null","<span style='color:red; font-size: 70px;'>错误! </span>","null","html-keyboard-response","36","293888","0.0-7.0-1.0-1.0-0.0-1.13","4","4","3","3","3","4","3","3","3","3","4","3","2","4","3","4","3","3","4","4","5","5","4","5","5","4","3","4","5","0","1","0","0","0","1","1","1","1","0","1","0","1","0","1","4","2","3","2","3","3","3","4","5","4","4","777098957192171521","张","73","","","","","","","","","","","","","","","","","","","","","","","","","","","","","","feedback_test","","","","","","","","","","","",""
"802","","f","psychophysics","37","295692","0.0-7.0-1.0-1.0-0.0-0.14","4","4","3","3","3","4","3","3","3","3","4","3","2","4","3","4","3","3","4","4","5","5","4","5","5","4","3","4","5","0","1","0","0","0","1","1","1","1","0","1","0","1","0","1","4","2","3","2","3","3","3","4","5","4","4","777098957192171521","张","73","","","","nonmatch","","","","","","","","","","","","","","key","f","11.178924050633029","720.2857142857143","476.2857142857143","f","true","nonmatch","img/pentagon.png","椭圆","五边","ALT1_2","prac_ALT1_2","","","","","","","","","","","",""
"null","<span style='color:GreenYellow; font-size: 70px;'>正确! </span>","null","html-keyboard-response","38","296199","0.0-7.0-1.0-1.0-0.0-1.14","4","4","3","3","3","4","3","3","3","3","4","3","2","4","3","4","3","3","4","4","5","5","4","5","5","4","3","4","5","0","1","0","0","0","1","1","1","1","0","1","0","1","0","1","4","2","3","2","3","3","3","4","5","4","4","777098957192171521","张","73","","","","","","","","","","","","","","","","","","","","","","","","","","","","","","feedback_test","","","","","","","","","","","",""
"740","","f","psychophysics","39","297942","0.0-7.0-1.0-1.0-0.0-0.15","4","4","3","3","3","4","3","3","3","3","4","3","2","4","3","4","3","3","4","4","5","5","4","5","5","4","3","4","5","0","1","0","0","0","1","1","1","1","0","1","0","1","0","1","4","2","3","2","3","3","3","4","5","4","4","777098957192171521","张","73","","","","nonmatch","","","","","","","","","","","","","","key","f","11.346476510067115","720.2857142857143","476.2857142857143","f","true","nonmatch","img/diamond.png","五边","菱形","ALT1_2","prac_ALT1_2","","","","","","","","","","","",""
"null","<span style='color:GreenYellow; font-size: 70px;'>正确! </span>","null","html-keyboard-response","40","298460","0.0-7.0-1.0-1.0-0.0-1.15","4","4","3","3","3","4","3","3","3","3","4","3","2","4","3","4","3","3","4","4","5","5","4","5","5","4","3","4","5","0","1","0","0","0","1","1","1","1","0","1","0","1","0","1","4","2","3","2","3","3","3","4","5","4","4","777098957192171521","张","73","","","","","","","","","","","","","","","","","","","","","","","","","","","","","","feedback_test","","","","","","","","","","","",""
"536","","j","psychophysics","41","300014","0.0-7.0-1.0-1.0-0.0-0.16","4","4","3","3","3","4","3","3","3","3","4","3","2","4","3","4","3","3","4","4","5","5","4","5","5","4","3","4","5","0","1","0","0","0","1","1","1","1","0","1","0","1","0","1","4","2","3","2","3","3","3","4","5","4","4","777098957192171521","张","73","","","","match","","","","","","","","","","","","","","key","j","11.46419259259279","720.2857142857143","476.2857142857143","j","true","match","img/ellipse.png","椭圆","椭圆","ALT1_2","prac_ALT1_2","","","","","","","","","","","",""
"null","<span style='color:GreenYellow; font-size: 70px;'>正确! </span>","null","html-keyboard-response","42","300525","0.0-7.0-1.0-1.0-0.0-1.16","4","4","3","3","3","4","3","3","3","3","4","3","2","4","3","4","3","3","4","4","5","5","4","5","5","4","3","4","5","0","1","0","0","0","1","1","1","1","0","1","0","1","0","1","4","2","3","2","3","3","3","4","5","4","4","777098957192171521","张","73","","","","","","","","","","","","","","","","","","","","","","","","","","","","","","feedback_test","","","","","","","","","","","",""
"516","","j","psychophysics","43","302045","0.0-7.0-1.0-1.0-0.0-0.17","4","4","3","3","3","4","3","3","3","3","4","3","2","4","3","4","3","3","4","4","5","5","4","5","5","4","3","4","5","0","1","0","0","0","1","1","1","1","0","1","0","1","0","1","4","2","3","2","3","3","3","4","5","4","4","777098957192171521","张","73","","","","match","","","","","","","","","","","","","","key","j","11.292076923076708","720.2857142857143","476.2857142857143","j","true","match","img/square.png","方形","方形","ALT1_2","prac_ALT1_2","","","","","","","","","","","",""
"null","<span style='color:GreenYellow; font-size: 70px;'>正确! </span>","null","html-keyboard-response","44","302550","0.0-7.0-1.0-1.0-0.0-1.17","4","4","3","3","3","4","3","3","3","3","4","3","2","4","3","4","3","3","4","4","5","5","4","5","5","4","3","4","5","0","1","0","0","0","1","1","1","1","0","1","0","1","0","1","4","2","3","2","3","3","3","4","5","4","4","777098957192171521","张","73","","","","","","","","","","","","","","","","","","","","","","","","","","","","","","feedback_test","","","","","","","","","","","",""
"636","","j","psychophysics","45","304188","0.0-7.0-1.0-1.0-0.0-0.18","4","4","3","3","3","4","3","3","3","3","4","3","2","4","3","4","3","3","4","4","5","5","4","5","5","4","3","4","5","0","1","0","0","0","1","1","1","1","0","1","0","1","0","1","4","2","3","2","3","3","3","4","5","4","4","777098957192171521","张","73","","","","match","","","","","","","","","","","","","","key","j","11.17086524822698","720.2857142857143","476.2857142857143","j","true","match","img/pentagon.png","五边","五边","ALT1_2","prac_ALT1_2","","","","","","","","","","","",""
"null","<span style='color:GreenYellow; font-size: 70px;'>正确! </span>","null","html-keyboard-response","46","304696","0.0-7.0-1.0-1.0-0.0-1.18","4","4","3","3","3","4","3","3","3","3","4","3","2","4","3","4","3","3","4","4","5","5","4","5","5","4","3","4","5","0","1","0","0","0","1","1","1","1","0","1","0","1","0","1","4","2","3","2","3","3","3","4","5","4","4","777098957192171521","张","73","","","","","","","","","","","","","","","","","","","","","","","","","","","","","","feedback_test","","","","","","","","","","","",""
"824","","f","psychophysics","47","306540","0.0-7.0-1.0-1.0-0.0-0.19","4","4","3","3","3","4","3","3","3","3","4","3","2","4","3","4","3","3","4","4","5","5","4","5","5","4","3","4","5","0","1","0","0","0","1","1","1","1","0","1","0","1","0","1","4","2","3","2","3","3","3","4","5","4","4","777098957192171521","张","73","","","","nonmatch","","","","","","","","","","","","","","key","f","11.430981366459486","720.2857142857143","476.2857142857143","j","false","match","img/diamond.png","菱形","菱形","ALT1_2","prac_ALT1_2","","","","","","","","","","","",""
"null","<span style='color:red; font-size: 70px;'>错误! </span>","null","html-keyboard-response","48","307042","0.0-7.0-1.0-1.0-0.0-1.19","4","4","3","3","3","4","3","3","3","3","4","3","2","4","3","4","3","3","4","4","5","5","4","5","5","4","3","4","5","0","1","0","0","0","1","1","1","1","0","1","0","1","0","1","4","2","3","2","3","3","3","4","5","4","4","777098957192171521","张","73","","","","","","","","","","","","","","","","","","","","","","","","","","","","","","feedback_test","","","","","","","","","","","",""
"688","","j","psychophysics","49","308732","0.0-7.0-1.0-1.0-0.0-0.20","4","4","3","3","3","4","3","3","3","3","4","3","2","4","3","4","3","3","4","4","5","5","4","5","5","4","3","4","5","0","1","0","0","0","1","1","1","1","0","1","0","1","0","1","4","2","3","2","3","3","3","4","5","4","4","777098957192171521","张","73","","","","match","","","","","","","","","","","","","","key","j","11.081775510204135","720.2857142857143","476.2857142857143","j","true","match","img/ellipse.png","椭圆","椭圆","ALT1_2","prac_ALT1_2","","","","","","","","","","","",""
"null","<span style='color:GreenYellow; font-size: 70px;'>正确! </span>","null","html-keyboard-response","50","309240","0.0-7.0-1.0-1.0-0.0-1.20","4","4","3","3","3","4","3","3","3","3","4","3","2","4","3","4","3","3","4","4","5","5","4","5","5","4","3","4","5","0","1","0","0","0","1","1","1","1","0","1","0","1","0","1","4","2","3","2","3","3","3","4","5","4","4","777098957192171521","张","73","","","","","","","","","","","","","","","","","","","","","","","","","","","","","","feedback_test","","","","","","","","","","","",""
"636","","f","psychophysics","51","310883","0.0-7.0-1.0-1.0-0.0-0.21","4","4","3","3","3","4","3","3","3","3","4","3","2","4","3","4","3","3","4","4","5","5","4","5","5","4","3","4","5","0","1","0","0","0","1","1","1","1","0","1","0","1","0","1","4","2","3","2","3","3","3","4","5","4","4","777098957192171521","张","73","","","","nonmatch","","","","","","","","","","","","","","key","f","11.056409722222371","720.2857142857143","476.2857142857143","f","true","nonmatch","img/ellipse.png","五边","椭圆","ALT1_2","prac_ALT1_2","","","","","","","","","","","",""
"null","<span style='color:GreenYellow; font-size: 70px;'>正确! </span>","null","html-keyboard-response","52","311397","0.0-7.0-1.0-1.0-0.0-1.21","4","4","3","3","3","4","3","3","3","3","4","3","2","4","3","4","3","3","4","4","5","5","4","5","5","4","3","4","5","0","1","0","0","0","1","1","1","1","0","1","0","1","0","1","4","2","3","2","3","3","3","4","5","4","4","777098957192171521","张","73","","","","","","","","","","","","","","","","","","","","","","","","","","","","","","feedback_test","","","","","","","","","","","",""
"894","","f","psychophysics","53","313306","0.0-7.0-1.0-1.0-0.0-0.22","4","4","3","3","3","4","3","3","3","3","4","3","2","4","3","4","3","3","4","4","5","5","4","5","5","4","3","4","5","0","1","0","0","0","1","1","1","1","0","1","0","1","0","1","4","2","3","2","3","3","3","4","5","4","4","777098957192171521","张","73","","","","nonmatch","","","","","","","","","","","","","","key","f","11.43417365269486","720.2857142857143","476.2857142857143","f","true","nonmatch","img/square.png","椭圆","方形","ALT1_2","prac_ALT1_2","","","","","","","","","","","",""
"null","<span style='color:GreenYellow; font-size: 70px;'>正确! </span>","null","html-keyboard-response","54","313809","0.0-7.0-1.0-1.0-0.0-1.22","4","4","3","3","3","4","3","3","3","3","4","3","2","4","3","4","3","3","4","4","5","5","4","5","5","4","3","4","5","0","1","0","0","0","1","1","1","1","0","1","0","1","0","1","4","2","3","2","3","3","3","4","5","4","4","777098957192171521","张","73","","","","","","","","","","","","","","","","","","","","","","","","","","","","","","feedback_test","","","","","","","","","","","",""
"742","","f","psychophysics","55","315562","0.0-7.0-1.0-1.0-0.0-0.23","4","4","3","3","3","4","3","3","3","3","4","3","2","4","3","4","3","3","4","4","5","5","4","5","5","4","3","4","5","0","1","0","0","0","1","1","1","1","0","1","0","1","0","1","4","2","3","2","3","3","3","4","5","4","4","777098957192171521","张","73","","","","nonmatch","","","","","","","","","","","","","","key","f","11.105611842105358","720.2857142857143","476.2857142857143","f","true","nonmatch","img/ellipse.png","方形","椭圆","ALT1_2","prac_ALT1_2","","","","","","","","","","","",""
"null","<span style='color:GreenYellow; font-size: 70px;'>正确! </span>","null","html-keyboard-response","56","316065","0.0-7.0-1.0-1.0-0.0-1.23","4","4","3","3","3","4","3","3","3","3","4","3","2","4","3","4","3","3","4","4","5","5","4","5","5","4","3","4","5","0","1","0","0","0","1","1","1","1","0","1","0","1","0","1","4","2","3","2","3","3","3","4","5","4","4","777098957192171521","张","73","","","","","","","","","","","","","","","","","","","","","","","","","","","","","","feedback_test","","","","","","","","","","","",""
"892","","f","psychophysics","57","317962","0.0-7.0-1.0-1.0-0.0-0.24","4","4","3","3","3","4","3","3","3","3","4","3","2","4","3","4","3","3","4","4","5","5","4","5","5","4","3","4","5","0","1","0","0","0","1","1","1","1","0","1","0","1","0","1","4","2","3","2","3","3","3","4","5","4","4","777098957192171521","张","73","","","","nonmatch","","","","","","","","","","","","","","key","f","11.113878787879013","720.2857142857143","476.2857142857143","f","true","nonmatch","img/square.png","菱形","方形","ALT1_2","prac_ALT1_2","","","","","","","","","","","",""
"null","<span style='color:GreenYellow; font-size: 70px;'>正确! </span>","null","html-keyboard-response","58","318467","0.0-7.0-1.0-1.0-0.0-1.24","4","4","3","3","3","4","3","3","3","3","4","3","2","4","3","4","3","3","4","4","5","5","4","5","5","4","3","4","5","0","1","0","0","0","1","1","1","1","0","1","0","1","0","1","4","2","3","2","3","3","3","4","5","4","4","777098957192171521","张","73","","","","","","","","","","","","","","","","","","","","","","","","","","","","","","feedback_test","","","","","","","","","","","",""
"628","","f","psychophysics","59","320119","0.0-7.0-1.0-1.0-0.0-0.25","4","4","3","3","3","4","3","3","3","3","4","3","2","4","3","4","3","3","4","4","5","5","4","5","5","4","3","4","5","0","1","0","0","0","1","1","1","1","0","1","0","1","0","1","4","2","3","2","3","3","3","4","5","4","4","777098957192171521","张","73","","","","nonmatch","","","","","","","","","","","","","","key","f","11.112895833333218","720.2857142857143","476.2857142857143","f","true","nonmatch","img/ellipse.png","菱形","椭圆","ALT1_2","prac_ALT1_2","","","","","","","","","","","",""
"null","<span style='color:GreenYellow; font-size: 70px;'>正确! </span>","null","html-keyboard-response","60","320624","0.0-7.0-1.0-1.0-0.0-1.25","4","4","3","3","3","4","3","3","3","3","4","3","2","4","3","4","3","3","4","4","5","5","4","5","5","4","3","4","5","0","1","0","0","0","1","1","1","1","0","1","0","1","0","1","4","2","3","2","3","3","3","4","5","4","4","777098957192171521","张","73","","","","","","","","","","","","","","","","","","","","","","","","","","","","","","feedback_test","","","","","","","","","","","",""
"912","","j","psychophysics","61","322541","0.0-7.0-1.0-1.0-0.0-0.26","4","4","3","3","3","4","3","3","3","3","4","3","2","4","3","4","3","3","4","4","5","5","4","5","5","4","3","4","5","0","1","0","0","0","1","1","1","1","0","1","0","1","0","1","4","2","3","2","3","3","3","4","5","4","4","777098957192171521","张","73","","","","match","","","","","","","","","","","","","","key","j","11.148580838323147","720.2857142857143","476.2857142857143","j","true","match","img/diamond.png","菱形","菱形","ALT1_2","prac_ALT1_2","","","","","","","","","","","",""
"null","<span style='color:GreenYellow; font-size: 70px;'>正确! </span>","null","html-keyboard-response","62","323046","0.0-7.0-1.0-1.0-0.0-1.26","4","4","3","3","3","4","3","3","3","3","4","3","2","4","3","4","3","3","4","4","5","5","4","5","5","4","3","4","5","0","1","0","0","0","1","1","1","1","0","1","0","1","0","1","4","2","3","2","3","3","3","4","5","4","4","777098957192171521","张","73","","","","","","","","","","","","","","","","","","","","","","","","","","","","","","feedback_test","","","","","","","","","","","",""
"709","","f","psychophysics","63","324761","0.0-7.0-1.0-1.0-0.0-0.27","4","4","3","3","3","4","3","3","3","3","4","3","2","4","3","4","3","3","4","4","5","5","4","5","5","4","3","4","5","0","1","0","0","0","1","1","1","1","0","1","0","1","0","1","4","2","3","2","3","3","3","4","5","4","4","777098957192171521","张","73","","","","nonmatch","","","","","","","","","","","","","","key","f","11.112716216216024","720.2857142857143","476.2857142857143","f","true","nonmatch","img/square.png","五边","方形","ALT1_2","prac_ALT1_2","","","","","","","","","","","",""
"null","<span style='color:GreenYellow; font-size: 70px;'>正确! </span>","null","html-keyboard-response","64","325278","0.0-7.0-1.0-1.0-0.0-1.27","4","4","3","3","3","4","3","3","3","3","4","3","2","4","3","4","3","3","4","4","5","5","4","5","5","4","3","4","5","0","1","0","0","0","1","1","1","1","0","1","0","1","0","1","4","2","3","2","3","3","3","4","5","4","4","777098957192171521","张","73","","","","","","","","","","","","","","","","","","","","","","","","","","","","","","feedback_test","","","","","","","","","","","",""
"577","","j","psychophysics","65","326872","0.0-7.0-1.0-1.0-0.0-0.28","4","4","3","3","3","4","3","3","3","3","4","3","2","4","3","4","3","3","4","4","5","5","4","5","5","4","3","4","5","0","1","0","0","0","1","1","1","1","0","1","0","1","0","1","4","2","3","2","3","3","3","4","5","4","4","777098957192171521","张","73","","","","match","","","","","","","","","","","","","","key","j","11.38383453237412","720.2857142857143","476.2857142857143","j","true","match","img/square.png","方形","方形","ALT1_2","prac_ALT1_2","","","","","","","","","","","",""
"null","<span style='color:GreenYellow; font-size: 70px;'>正确! </span>","null","html-keyboard-response","66","327380","0.0-7.0-1.0-1.0-0.0-1.28","4","4","3","3","3","4","3","3","3","3","4","3","2","4","3","4","3","3","4","4","5","5","4","5","5","4","3","4","5","0","1","0","0","0","1","1","1","1","0","1","0","1","0","1","4","2","3","2","3","3","3","4","5","4","4","777098957192171521","张","73","","","","","","","","","","","","","","","","","","","","","","","","","","","","","","feedback_test","","","","","","","","","","","",""
"733","","f","psychophysics","67","329122","0.0-7.0-1.0-1.0-0.0-0.29","4","4","3","3","3","4","3","3","3","3","4","3","2","4","3","4","3","3","4","4","5","5","4","5","5","4","3","4","5","0","1","0","0","0","1","1","1","1","0","1","0","1","0","1","4","2","3","2","3","3","3","4","5","4","4","777098957192171521","张","73","","","","nonmatch","","","","","","","","","","","","","","key","f","11.058611842105165","720.2857142857143","476.2857142857143","f","true","nonmatch","img/ellipse.png","方形","椭圆","ALT1_2","prac_ALT1_2","","","","","","","","","","","",""
"null","<span style='color:GreenYellow; font-size: 70px;'>正确! </span>","null","html-keyboard-response","68","329628","0.0-7.0-1.0-1.0-0.0-1.29","4","4","3","3","3","4","3","3","3","3","4","3","2","4","3","4","3","3","4","4","5","5","4","5","5","4","3","4","5","0","1","0","0","0","1","1","1","1","0","1","0","1","0","1","4","2","3","2","3","3","3","4","5","4","4","777098957192171521","张","73","","","","","","","","","","","","","","","","","","","","","","","","","","","","","","feedback_test","","","","","","","","","","","",""
"633","","j","psychophysics","69","331265","0.0-7.0-1.0-1.0-0.0-0.30","4","4","3","3","3","4","3","3","3","3","4","3","2","4","3","4","3","3","4","4","5","5","4","5","5","4","3","4","5","0","1","0","0","0","1","1","1","1","0","1","0","1","0","1","4","2","3","2","3","3","3","4","5","4","4","777098957192171521","张","73","","","","match","","","","","","","","","","","","","","key","j","11.071027777777797","720.2857142857143","476.2857142857143","j","true","match","img/ellipse.png","椭圆","椭圆","ALT1_2","prac_ALT1_2","","","","","","","","","","","",""
"null","<span style='color:GreenYellow; font-size: 70px;'>正确! </span>","null","html-keyboard-response","70","331770","0.0-7.0-1.0-1.0-0.0-1.30","4","4","3","3","3","4","3","3","3","3","4","3","2","4","3","4","3","3","4","4","5","5","4","5","5","4","3","4","5","0","1","0","0","0","1","1","1","1","0","1","0","1","0","1","4","2","3","2","3","3","3","4","5","4","4","777098957192171521","张","73","","","","","","","","","","","","","","","","","","","","","","","","","","","","","","feedback_test","","","","","","","","","","","",""
"757","","j","psychophysics","71","333562","0.0-7.0-1.0-1.0-0.0-0.31","4","4","3","3","3","4","3","3","3","3","4","3","2","4","3","4","3","3","4","4","5","5","4","5","5","4","3","4","5","0","1","0","0","0","1","1","1","1","0","1","0","1","0","1","4","2","3","2","3","3","3","4","5","4","4","777098957192171521","张","73","","","","match","","","","","","","","","","","","","","key","j","11.111911392404883","720.2857142857143","476.2857142857143","j","true","match","img/diamond.png","菱形","菱形","ALT1_2","prac_ALT1_2","","","","","","","","","","","",""
"null","<span style='color:GreenYellow; font-size: 70px;'>正确! </span>","null","html-keyboard-response","72","334071","0.0-7.0-1.0-1.0-0.0-1.31","4","4","3","3","3","4","3","3","3","3","4","3","2","4","3","4","3","3","4","4","5","5","4","5","5","4","3","4","5","0","1","0","0","0","1","1","1","1","0","1","0","1","0","1","4","2","3","2","3","3","3","4","5","4","4","777098957192171521","张","73","","","","","","","","","","","","","","","","","","","","","","","","","","","","","","feedback_test","","","","","","","","","","","",""
"588","","j","psychophysics","73","335665","0.0-7.0-1.0-1.0-0.0-0.32","4","4","3","3","3","4","3","3","3","3","4","3","2","4","3","4","3","3","4","4","5","5","4","5","5","4","3","4","5","0","1","0","0","0","1","1","1","1","0","1","0","1","0","1","4","2","3","2","3","3","3","4","5","4","4","777098957192171521","张","73","","","","match","","","","","","","","","","","","","","key","j","11.102079710144924","720.2857142857143","476.2857142857143","j","true","match","img/square.png","方形","方形","ALT1_2","prac_ALT1_2","","","","","","","","","","","",""
"null","<span style='color:GreenYellow; font-size: 70px;'>正确! </span>","null","html-keyboard-response","74","336175","0.0-7.0-1.0-1.0-0.0-1.32","4","4","3","3","3","4","3","3","3","3","4","3","2","4","3","4","3","3","4","4","5","5","4","5","5","4","3","4","5","0","1","0","0","0","1","1","1","1","0","1","0","1","0","1","4","2","3","2","3","3","3","4","5","4","4","777098957192171521","张","73","","","","","","","","","","","","","","","","","","","","","","","","","","","","","","feedback_test","","","","","","","","","","","",""
"574","","j","psychophysics","75","337757","0.0-7.0-1.0-1.0-0.0-0.33","4","4","3","3","3","4","3","3","3","3","4","3","2","4","3","4","3","3","4","4","5","5","4","5","5","4","3","4","5","0","1","0","0","0","1","1","1","1","0","1","0","1","0","1","4","2","3","2","3","3","3","4","5","4","4","777098957192171521","张","73","","","","match","","","","","","","","","","","","","","key","j","11.194744525547394","720.2857142857143","476.2857142857143","j","true","match","img/pentagon.png","五边","五边","ALT1_2","prac_ALT1_2","","","","","","","","","","","",""
"null","<span style='color:GreenYellow; font-size: 70px;'>正确! </span>","null","html-keyboard-response","76","338262","0.0-7.0-1.0-1.0-0.0-1.33","4","4","3","3","3","4","3","3","3","3","4","3","2","4","3","4","3","3","4","4","5","5","4","5","5","4","3","4","5","0","1","0","0","0","1","1","1","1","0","1","0","1","0","1","4","2","3","2","3","3","3","4","5","4","4","777098957192171521","张","73","","","","","","","","","","","","","","","","","","","","","","","","","","","","","","feedback_test","","","","","","","","","","","",""
"698","","f","psychophysics","77","339984","0.0-7.0-1.0-1.0-0.0-0.34","4","4","3","3","3","4","3","3","3","3","4","3","2","4","3","4","3","3","4","4","5","5","4","5","5","4","3","4","5","0","1","0","0","0","1","1","1","1","0","1","0","1","0","1","4","2","3","2","3","3","3","4","5","4","4","777098957192171521","张","73","","","","nonmatch","","","","","","","","","","","","","","key","f","11.200805369127407","720.2857142857143","476.2857142857143","f","true","nonmatch","img/ellipse.png","五边","椭圆","ALT1_2","prac_ALT1_2","","","","","","","","","","","",""
"null","<span style='color:GreenYellow; font-size: 70px;'>正确! </span>","null","html-keyboard-response","78","340490","0.0-7.0-1.0-1.0-0.0-1.34","4","4","3","3","3","4","3","3","3","3","4","3","2","4","3","4","3","3","4","4","5","5","4","5","5","4","3","4","5","0","1","0","0","0","1","1","1","1","0","1","0","1","0","1","4","2","3","2","3","3","3","4","5","4","4","777098957192171521","张","73","","","","","","","","","","","","","","","","","","","","","","","","","","","","","","feedback_test","","","","","","","","","","","",""
"664","","j","psychophysics","79","342157","0.0-7.0-1.0-1.0-0.0-0.35","4","4","3","3","3","4","3","3","3","3","4","3","2","4","3","4","3","3","4","4","5","5","4","5","5","4","3","4","5","0","1","0","0","0","1","1","1","1","0","1","0","1","0","1","4","2","3","2","3","3","3","4","5","4","4","777098957192171521","张","73","","","","match","","","","","","","","","","","","","","key","j","11.1994383561641","720.2857142857143","476.2857142857143","j","true","match","img/ellipse.png","椭圆","椭圆","ALT1_2","prac_ALT1_2","","","","","","","","","","","",""
"null","<span style='color:GreenYellow; font-size: 70px;'>正确! </span>","null","html-keyboard-response","80","342666","0.0-7.0-1.0-1.0-0.0-1.35","4","4","3","3","3","4","3","3","3","3","4","3","2","4","3","4","3","3","4","4","5","5","4","5","5","4","3","4","5","0","1","0","0","0","1","1","1","1","0","1","0","1","0","1","4","2","3","2","3","3","3","4","5","4","4","777098957192171521","张","73","","","","","","","","","","","","","","","","","","","","","","","","","","","","","","feedback_test","","","","","","","","","","","",""
"673","","j","psychophysics","81","344341","0.0-7.0-1.0-1.0-0.0-0.36","4","4","3","3","3","4","3","3","3","3","4","3","2","4","3","4","3","3","4","4","5","5","4","5","5","4","3","4","5","0","1","0","0","0","1","1","1","1","0","1","0","1","0","1","4","2","3","2","3","3","3","4","5","4","4","777098957192171521","张","73","","","","match","","","","","","","","","","","","","","key","j","11.066116438356104","720.2857142857143","476.2857142857143","f","false","nonmatch","img/diamond.png","方形","菱形","ALT1_2","prac_ALT1_2","","","","","","","","","","","",""
"null","<span style='color:red; font-size: 70px;'>错误! </span>","null","html-keyboard-response","82","344849","0.0-7.0-1.0-1.0-0.0-1.36","4","4","3","3","3","4","3","3","3","3","4","3","2","4","3","4","3","3","4","4","5","5","4","5","5","4","3","4","5","0","1","0","0","0","1","1","1","1","0","1","0","1","0","1","4","2","3","2","3","3","3","4","5","4","4","777098957192171521","张","73","","","","","","","","","","","","","","","","","","","","","","","","","","","","","","feedback_test","","","","","","","","","","","",""
"628","","j","psychophysics","83","346484","0.0-7.0-1.0-1.0-0.0-0.37","4","4","3","3","3","4","3","3","3","3","4","3","2","4","3","4","3","3","4","4","5","5","4","5","5","4","3","4","5","0","1","0","0","0","1","1","1","1","0","1","0","1","0","1","4","2","3","2","3","3","3","4","5","4","4","777098957192171521","张","73","","","","match","","","","","","","","","","","","","","key","j","11.215865248227194","720.2857142857143","476.2857142857143","j","true","match","img/pentagon.png","五边","五边","ALT1_2","prac_ALT1_2","","","","","","","","","","","",""
"null","<span style='color:GreenYellow; font-size: 70px;'>正确! </span>","null","html-keyboard-response","84","346987","0.0-7.0-1.0-1.0-0.0-1.37","4","4","3","3","3","4","3","3","3","3","4","3","2","4","3","4","3","3","4","4","5","5","4","5","5","4","3","4","5","0","1","0","0","0","1","1","1","1","0","1","0","1","0","1","4","2","3","2","3","3","3","4","5","4","4","777098957192171521","张","73","","","","","","","","","","","","","","","","","","","","","","","","","","","","","","feedback_test","","","","","","","","","","","",""
"586","","j","psychophysics","85","348577","0.0-7.0-1.0-1.0-0.0-0.38","4","4","3","3","3","4","3","3","3","3","4","3","2","4","3","4","3","3","4","4","5","5","4","5","5","4","3","4","5","0","1","0","0","0","1","1","1","1","0","1","0","1","0","1","4","2","3","2","3","3","3","4","5","4","4","777098957192171521","张","73","","","","match","","","","","","","","","","","","","","key","j","11.141463768115921","720.2857142857143","476.2857142857143","j","true","match","img/pentagon.png","五边","五边","ALT1_2","prac_ALT1_2","","","","","","","","","","","",""
"null","<span style='color:GreenYellow; font-size: 70px;'>正确! </span>","null","html-keyboard-response","86","349079","0.0-7.0-1.0-1.0-0.0-1.38","4","4","3","3","3","4","3","3","3","3","4","3","2","4","3","4","3","3","4","4","5","5","4","5","5","4","3","4","5","0","1","0","0","0","1","1","1","1","0","1","0","1","0","1","4","2","3","2","3","3","3","4","5","4","4","777098957192171521","张","73","","","","","","","","","","","","","","","","","","","","","","","","","","","","","","feedback_test","","","","","","","","","","","",""
"605","","f","psychophysics","87","350690","0.0-7.0-1.0-1.0-0.0-0.39","4","4","3","3","3","4","3","3","3","3","4","3","2","4","3","4","3","3","4","4","5","5","4","5","5","4","3","4","5","0","1","0","0","0","1","1","1","1","0","1","0","1","0","1","4","2","3","2","3","3","3","4","5","4","4","777098957192171521","张","73","","","","nonmatch","","","","","","","","","","","","","","key","f","11.407985815602926","720.2857142857143","476.2857142857143","f","true","nonmatch","img/square.png","椭圆","方形","ALT1_2","prac_ALT1_2","","","","","","","","","","","",""
"null","<span style='color:GreenYellow; font-size: 70px;'>正确! </span>","null","html-keyboard-response","88","351193","0.0-7.0-1.0-1.0-0.0-1.39","4","4","3","3","3","4","3","3","3","3","4","3","2","4","3","4","3","3","4","4","5","5","4","5","5","4","3","4","5","0","1","0","0","0","1","1","1","1","0","1","0","1","0","1","4","2","3","2","3","3","3","4","5","4","4","777098957192171521","张","73","","","","","","","","","","","","","","","","","","","","","","","","","","","","","","feedback_test","","","","","","","","","","","",""
"593","","j","psychophysics","89","352812","0.0-7.0-1.0-1.0-0.0-0.40","4","4","3","3","3","4","3","3","3","3","4","3","2","4","3","4","3","3","4","4","5","5","4","5","5","4","3","4","5","0","1","0","0","0","1","1","1","1","0","1","0","1","0","1","4","2","3","2","3","3","3","4","5","4","4","777098957192171521","张","73","","","","match","","","","","","","","","","","","","","key","j","11.130774647886962","720.2857142857143","476.2857142857143","f","false","nonmatch","img/pentagon.png","方形","五边","ALT1_2","prac_ALT1_2","","","","","","","","","","","",""
"null","<span style='color:red; font-size: 70px;'>错误! </span>","null","html-keyboard-response","90","353315","0.0-7.0-1.0-1.0-0.0-1.40","4","4","3","3","3","4","3","3","3","3","4","3","2","4","3","4","3","3","4","4","5","5","4","5","5","4","3","4","5","0","1","0","0","0","1","1","1","1","0","1","0","1","0","1","4","2","3","2","3","3","3","4","5","4","4","777098957192171521","张","73","","","","","","","","","","","","","","","","","","","","","","","","","","","","","","feedback_test","","","","","","","","","","","",""
"632","","j","psychophysics","91","354954","0.0-7.0-1.0-1.0-0.0-0.41","4","4","3","3","3","4","3","3","3","3","4","3","2","4","3","4","3","3","4","4","5","5","4","5","5","4","3","4","5","0","1","0","0","0","1","1","1","1","0","1","0","1","0","1","4","2","3","2","3","3","3","4","5","4","4","777098957192171521","张","73","","","","match","","","","","","","","","","","","","","key","j","11.072013986013648","720.2857142857143","476.2857142857143","f","false","nonmatch","img/pentagon.png","菱形","五边","ALT1_2","prac_ALT1_2","","","","","","","","","","","",""
"null","<span style='color:red; font-size: 70px;'>错误! </span>","null","html-keyboard-response","92","355460","0.0-7.0-1.0-1.0-0.0-1.41","4","4","3","3","3","4","3","3","3","3","4","3","2","4","3","4","3","3","4","4","5","5","4","5","5","4","3","4","5","0","1","0","0","0","1","1","1","1","0","1","0","1","0","1","4","2","3","2","3","3","3","4","5","4","4","777098957192171521","张","73","","","","","","","","","","","","","","","","","","","","","","","","","","","","","","feedback_test","","","","","","","","","","","",""
"824","","f","psychophysics","93","357287","0.0-7.0-1.0-1.0-0.0-0.42","4","4","3","3","3","4","3","3","3","3","4","3","2","4","3","4","3","3","4","4","5","5","4","5","5","4","3","4","5","0","1","0","0","0","1","1","1","1","0","1","0","1","0","1","4","2","3","2","3","3","3","4","5","4","4","777098957192171521","张","73","","","","nonmatch","","","","","","","","","","","","","","key","f","11.16118867924538","720.2857142857143","476.2857142857143","f","true","nonmatch","img/diamond.png","椭圆","菱形","ALT1_2","prac_ALT1_2","","","","","","","","","","","",""
"null","<span style='color:GreenYellow; font-size: 70px;'>正确! </span>","null","html-keyboard-response","94","357791","0.0-7.0-1.0-1.0-0.0-1.42","4","4","3","3","3","4","3","3","3","3","4","3","2","4","3","4","3","3","4","4","5","5","4","5","5","4","3","4","5","0","1","0","0","0","1","1","1","1","0","1","0","1","0","1","4","2","3","2","3","3","3","4","5","4","4","777098957192171521","张","73","","","","","","","","","","","","","","","","","","","","","","","","","","","","","","feedback_test","","","","","","","","","","","",""
"690","","f","psychophysics","95","359505","0.0-7.0-1.0-1.0-0.0-0.43","4","4","3","3","3","4","3","3","3","3","4","3","2","4","3","4","3","3","4","4","5","5","4","5","5","4","3","4","5","0","1","0","0","0","1","1","1","1","0","1","0","1","0","1","4","2","3","2","3","3","3","4","5","4","4","777098957192171521","张","73","","","","nonmatch","","","","","","","","","","","","","","key","f","11.097006666666518","720.2857142857143","476.2857142857143","f","true","nonmatch","img/pentagon.png","椭圆","五边","ALT1_2","prac_ALT1_2","","","","","","","","","","","",""
"null","<span style='color:GreenYellow; font-size: 70px;'>正确! </span>","null","html-keyboard-response","96","360008","0.0-7.0-1.0-1.0-0.0-1.43","4","4","3","3","3","4","3","3","3","3","4","3","2","4","3","4","3","3","4","4","5","5","4","5","5","4","3","4","5","0","1","0","0","0","1","1","1","1","0","1","0","1","0","1","4","2","3","2","3","3","3","4","5","4","4","777098957192171521","张","73","","","","","","","","","","","","","","","","","","","","","","","","","","","","","","feedback_test","","","","","","","","","","","",""
"668","","f","psychophysics","97","361679","0.0-7.0-1.0-1.0-0.0-0.44","4","4","3","3","3","4","3","3","3","3","4","3","2","4","3","4","3","3","4","4","5","5","4","5","5","4","3","4","5","0","1","0","0","0","1","1","1","1","0","1","0","1","0","1","4","2","3","2","3","3","3","4","5","4","4","777098957192171521","张","73","","","","nonmatch","","","","","","","","","","","","","","key","f","11.104763513513545","720.2857142857143","476.2857142857143","f","true","nonmatch","img/diamond.png","五边","菱形","ALT1_2","prac_ALT1_2","","","","","","","","","","","",""
"null","<span style='color:GreenYellow; font-size: 70px;'>正确! </span>","null","html-keyboard-response","98","362188","0.0-7.0-1.0-1.0-0.0-1.44","4","4","3","3","3","4","3","3","3","3","4","3","2","4","3","4","3","3","4","4","5","5","4","5","5","4","3","4","5","0","1","0","0","0","1","1","1","1","0","1","0","1","0","1","4","2","3","2","3","3","3","4","5","4","4","777098957192171521","张","73","","","","","","","","","","","","","","","","","","","","","","","","","","","","","","feedback_test","","","","","","","","","","","",""
"679","","j","psychophysics","99","363872","0.0-7.0-1.0-1.0-0.0-0.45","4","4","3","3","3","4","3","3","3","3","4","3","2","4","3","4","3","3","4","4","5","5","4","5","5","4","3","4","5","0","1","0","0","0","1","1","1","1","0","1","0","1","0","1","4","2","3","2","3","3","3","4","5","4","4","777098957192171521","张","73","","","","match","","","","","","","","","","","","","","key","j","11.146176870748382","720.2857142857143","476.2857142857143","j","true","match","img/square.png","方形","方形","ALT1_2","prac_ALT1_2","","","","","","","","","","","",""
"null","<span style='color:GreenYellow; font-size: 70px;'>正确! </span>","null","html-keyboard-response","100","364378","0.0-7.0-1.0-1.0-0.0-1.45","4","4","3","3","3","4","3","3","3","3","4","3","2","4","3","4","3","3","4","4","5","5","4","5","5","4","3","4","5","0","1","0","0","0","1","1","1","1","0","1","0","1","0","1","4","2","3","2","3","3","3","4","5","4","4","777098957192171521","张","73","","","","","","","","","","","","","","","","","","","","","","","","","","","","","","feedback_test","","","","","","","","","","","",""
"765","","j","psychophysics","101","366151","0.0-7.0-1.0-1.0-0.0-0.46","4","4","3","3","3","4","3","3","3","3","4","3","2","4","3","4","3","3","4","4","5","5","4","5","5","4","3","4","5","0","1","0","0","0","1","1","1","1","0","1","0","1","0","1","4","2","3","2","3","3","3","4","5","4","4","777098957192171521","张","73","","","","match","","","","","","","","","","","","","","key","j","11.249679487179188","720.2857142857143","476.2857142857143","j","true","match","img/diamond.png","菱形","菱形","ALT1_2","prac_ALT1_2","","","","","","","","","","","",""
"null","<span style='color:GreenYellow; font-size: 70px;'>正确! </span>","null","html-keyboard-response","102","366657","0.0-7.0-1.0-1.0-0.0-1.46","4","4","3","3","3","4","3","3","3","3","4","3","2","4","3","4","3","3","4","4","5","5","4","5","5","4","3","4","5","0","1","0","0","0","1","1","1","1","0","1","0","1","0","1","4","2","3","2","3","3","3","4","5","4","4","777098957192171521","张","73","","","","","","","","","","","","","","","","","","","","","","","","","","","","","","feedback_test","","","","","","","","","","","",""
"576","","j","psychophysics","103","368240","0.0-7.0-1.0-1.0-0.0-0.47","4","4","3","3","3","4","3","3","3","3","4","3","2","4","3","4","3","3","4","4","5","5","4","5","5","4","3","4","5","0","1","0","0","0","1","1","1","1","0","1","0","1","0","1","4","2","3","2","3","3","3","4","5","4","4","777098957192171521","张","73","","","","match","","","","","","","","","","","","","","key","j","11.35370289855063","720.2857142857143","476.2857142857143","j","true","match","img/ellipse.png","椭圆","椭圆","ALT1_2","prac_ALT1_2","","","","","","","","","","","",""
"null","<span style='color:GreenYellow; font-size: 70px;'>正确! </span>","null","html-keyboard-response","104","368747","0.0-7.0-1.0-1.0-0.0-1.47","4","4","3","3","3","4","3","3","3","3","4","3","2","4","3","4","3","3","4","4","5","5","4","5","5","4","3","4","5","0","1","0","0","0","1","1","1","1","0","1","0","1","0","1","4","2","3","2","3","3","3","4","5","4","4","777098957192171521","张","73","","","","","","","","","","","","","","","","","","","","","","","","","","","","","","feedback_test","","","","","","","","","","","",""
"12751","<style>.context{color:white; font-size: 35px; line-height:40px}</style>                          <div><p class='context'>您正确回答了71% 的试次。</p><p class='context'>您的平均反应时为690毫秒。</p><p class='context'>恭喜您完成练习。按空格键进入正式实验。</p><p class='footer' style='font-size: 35px; line-height:40px;'>请在进入正式实验实验之前将您的<span style='color: lightgreen;'>食指</span>放在电脑键盘的相应键位上进行按键。</p>"," ","html-keyboard-response","105","381502","0.0-7.0-1.0-2.0","4","4","3","3","3","4","3","3","3","3","4","3","2","4","3","4","3","3","4","4","5","5","4","5","5","4","3","4","5","0","1","0","0","0","1","1","1","1","0","1","0","1","0","1","4","2","3","2","3","3","3","4","5","4","4","777098957192171521","张","73","","","","","","","","","","","","","","","","","","","","","","","","","","","","","","","","","","","","","","","","","",""
"2395","
  <p style='color: white; font-size: 22px'>请您将手指放在按键上，准备进入正式的匹配任务。</p>
  <p> <div style = ""color: green""><按空格键进入下一阶段的匹配任务></div></p>
  "," ","html-keyboard-response","106","383902","0.0-7.0-1.0-3.0","4","4","3","3","3","4","3","3","3","3","4","3","2","4","3","4","3","3","4","4","5","5","4","5","5","4","3","4","5","0","1","0","0","0","1","1","1","1","0","1","0","1","0","1","4","2","3","2","3","3","3","4","5","4","4","777098957192171521","张","73","","","","","","","","","","","","","","","","","","","","","","","","","","","","","","","","","","","","","","","","","",""
"704","","f","psychophysics","107","385609","0.0-7.0-1.0-4.0-0.0-0.0","4","4","3","3","3","4","3","3","3","3","4","3","2","4","3","4","3","3","4","4","5","5","4","5","5","4","3","4","5","0","1","0","0","0","1","1","1","1","0","1","0","1","0","1","4","2","3","2","3","3","3","4","5","4","4","777098957192171521","张","73","","","","nonmatch","","","","","","","","","","","","","","key","f","11.067550335570486","720.2857142857143","476.2857142857143","f","true","nonmatch","img/diamond.png","椭圆","菱形","ALT1","formal_ALT1_2","","","","","","","","","","","",""
"null","<span style='color:GreenYellow; font-size: 70px;'>正确! </span>","null","html-keyboard-response","108","386116","0.0-7.0-1.0-4.0-0.0-1.0","4","4","3","3","3","4","3","3","3","3","4","3","2","4","3","4","3","3","4","4","5","5","4","5","5","4","3","4","5","0","1","0","0","0","1","1","1","1","0","1","0","1","0","1","4","2","3","2","3","3","3","4","5","4","4","777098957192171521","张","73","","","","","","","","","","","","","","","","","","","","","","","","","","","","","","feedback_test","","","","","","","","","","","",""
"658","","f","psychophysics","109","387796","0.0-7.0-1.0-4.0-0.0-0.1","4","4","3","3","3","4","3","3","3","3","4","3","2","4","3","4","3","3","4","4","5","5","4","5","5","4","3","4","5","0","1","0","0","0","1","1","1","1","0","1","0","1","0","1","4","2","3","2","3","3","3","4","5","4","4","777098957192171521","张","73","","","","nonmatch","","","","","","","","","","","","","","key","f","11.169054794520353","720.2857142857143","476.2857142857143","f","true","nonmatch","img/diamond.png","方形","菱形","ALT1","formal_ALT1_2","","","","","","","","","","","",""
"null","<span style='color:GreenYellow; font-size: 70px;'>正确! </span>","null","html-keyboard-response","110","388303","0.0-7.0-1.0-4.0-0.0-1.1","4","4","3","3","3","4","3","3","3","3","4","3","2","4","3","4","3","3","4","4","5","5","4","5","5","4","3","4","5","0","1","0","0","0","1","1","1","1","0","1","0","1","0","1","4","2","3","2","3","3","3","4","5","4","4","777098957192171521","张","73","","","","","","","","","","","","","","","","","","","","","","","","","","","","","","feedback_test","","","","","","","","","","","",""
"613","","f","psychophysics","111","389922","0.0-7.0-1.0-4.0-0.0-0.2","4","4","3","3","3","4","3","3","3","3","4","3","2","4","3","4","3","3","4","4","5","5","4","5","5","4","3","4","5","0","1","0","0","0","1","1","1","1","0","1","0","1","0","1","4","2","3","2","3","3","3","4","5","4","4","777098957192171521","张","73","","","","nonmatch","","","","","","","","","","","","","","key","f","11.216194244604575","720.2857142857143","476.2857142857143","f","true","nonmatch","img/square.png","椭圆","方形","ALT1","formal_ALT1_2","","","","","","","","","","","",""
"null","<span style='color:GreenYellow; font-size: 70px;'>正确! </span>","null","html-keyboard-response","112","390434","0.0-7.0-1.0-4.0-0.0-1.2","4","4","3","3","3","4","3","3","3","3","4","3","2","4","3","4","3","3","4","4","5","5","4","5","5","4","3","4","5","0","1","0","0","0","1","1","1","1","0","1","0","1","0","1","4","2","3","2","3","3","3","4","5","4","4","777098957192171521","张","73","","","","","","","","","","","","","","","","","","","","","","","","","","","","","","feedback_test","","","","","","","","","","","",""
"786","","f","psychophysics","113","392224","0.0-7.0-1.0-4.0-0.0-0.3","4","4","3","3","3","4","3","3","3","3","4","3","2","4","3","4","3","3","4","4","5","5","4","5","5","4","3","4","5","0","1","0","0","0","1","1","1","1","0","1","0","1","0","1","4","2","3","2","3","3","3","4","5","4","4","777098957192171521","张","73","","","","nonmatch","","","","","","","","","","","","","","key","f","11.084038461538372","720.2857142857143","476.2857142857143","f","true","nonmatch","img/pentagon.png","椭圆","五边","ALT1","formal_ALT1_2","","","","","","","","","","","",""
"null","<span style='color:GreenYellow; font-size: 70px;'>正确! </span>","null","html-keyboard-response","114","392731","0.0-7.0-1.0-4.0-0.0-1.3","4","4","3","3","3","4","3","3","3","3","4","3","2","4","3","4","3","3","4","4","5","5","4","5","5","4","3","4","5","0","1","0","0","0","1","1","1","1","0","1","0","1","0","1","4","2","3","2","3","3","3","4","5","4","4","777098957192171521","张","73","","","","","","","","","","","","","","","","","","","","","","","","","","","","","","feedback_test","","","","","","","","","","","",""
"635","","f","psychophysics","115","394369","0.0-7.0-1.0-4.0-0.0-0.4","4","4","3","3","3","4","3","3","3","3","4","3","2","4","3","4","3","3","4","4","5","5","4","5","5","4","3","4","5","0","1","0","0","0","1","1","1","1","0","1","0","1","0","1","4","2","3","2","3","3","3","4","5","4","4","777098957192171521","张","73","","","","nonmatch","","","","","","","","","","","","","","key","f","11.093048275862259","720.2857142857143","476.2857142857143","j","false","match","img/square.png","方形","方形","ALT1","formal_ALT1_2","","","","","","","","","","","",""
"null","<span style='color:red; font-size: 70px;'>错误! </span>","null","html-keyboard-response","116","394880","0.0-7.0-1.0-4.0-0.0-1.4","4","4","3","3","3","4","3","3","3","3","4","3","2","4","3","4","3","3","4","4","5","5","4","5","5","4","3","4","5","0","1","0","0","0","1","1","1","1","0","1","0","1","0","1","4","2","3","2","3","3","3","4","5","4","4","777098957192171521","张","73","","","","","","","","","","","","","","","","","","","","","","","","","","","","","","feedback_test","","","","","","","","","","","",""
"723","","f","psychophysics","117","396606","0.0-7.0-1.0-4.0-0.0-0.5","4","4","3","3","3","4","3","3","3","3","4","3","2","4","3","4","3","3","4","4","5","5","4","5","5","4","3","4","5","0","1","0","0","0","1","1","1","1","0","1","0","1","0","1","4","2","3","2","3","3","3","4","5","4","4","777098957192171521","张","73","","","","nonmatch","","","","","","","","","","","","","","key","f","11.237192052980078","720.2857142857143","476.2857142857143","f","true","nonmatch","img/pentagon.png","方形","五边","ALT1","formal_ALT1_2","","","","","","","","","","","",""
"null","<span style='color:GreenYellow; font-size: 70px;'>正确! </span>","null","html-keyboard-response","118","397115","0.0-7.0-1.0-4.0-0.0-1.5","4","4","3","3","3","4","3","3","3","3","4","3","2","4","3","4","3","3","4","4","5","5","4","5","5","4","3","4","5","0","1","0","0","0","1","1","1","1","0","1","0","1","0","1","4","2","3","2","3","3","3","4","5","4","4","777098957192171521","张","73","","","","","","","","","","","","","","","","","","","","","","","","","","","","","","feedback_test","","","","","","","","","","","",""
"652","","f","psychophysics","119","398771","0.0-7.0-1.0-4.0-0.0-0.6","4","4","3","3","3","4","3","3","3","3","4","3","2","4","3","4","3","3","4","4","5","5","4","5","5","4","3","4","5","0","1","0","0","0","1","1","1","1","0","1","0","1","0","1","4","2","3","2","3","3","3","4","5","4","4","777098957192171521","张","73","","","","nonmatch","","","","","","","","","","","","","","key","f","11.146103448275847","720.2857142857143","476.2857142857143","f","true","nonmatch","img/square.png","五边","方形","ALT1","formal_ALT1_2","","","","","","","","","","","",""
"null","<span style='color:GreenYellow; font-size: 70px;'>正确! </span>","null","html-keyboard-response","120","399278","0.0-7.0-1.0-4.0-0.0-1.6","4","4","3","3","3","4","3","3","3","3","4","3","2","4","3","4","3","3","4","4","5","5","4","5","5","4","3","4","5","0","1","0","0","0","1","1","1","1","0","1","0","1","0","1","4","2","3","2","3","3","3","4","5","4","4","777098957192171521","张","73","","","","","","","","","","","","","","","","","","","","","","","","","","","","","","feedback_test","","","","","","","","","","","",""
"618","","j","psychophysics","121","400922","0.0-7.0-1.0-4.0-0.0-0.7","4","4","3","3","3","4","3","3","3","3","4","3","2","4","3","4","3","3","4","4","5","5","4","5","5","4","3","4","5","0","1","0","0","0","1","1","1","1","0","1","0","1","0","1","4","2","3","2","3","3","3","4","5","4","4","777098957192171521","张","73","","","","match","","","","","","","","","","","","","","key","j","11.091462068965434","720.2857142857143","476.2857142857143","j","true","match","img/pentagon.png","五边","五边","ALT1","formal_ALT1_2","","","","","","","","","","","",""
"null","<span style='color:GreenYellow; font-size: 70px;'>正确! </span>","null","html-keyboard-response","122","401430","0.0-7.0-1.0-4.0-0.0-1.7","4","4","3","3","3","4","3","3","3","3","4","3","2","4","3","4","3","3","4","4","5","5","4","5","5","4","3","4","5","0","1","0","0","0","1","1","1","1","0","1","0","1","0","1","4","2","3","2","3","3","3","4","5","4","4","777098957192171521","张","73","","","","","","","","","","","","","","","","","","","","","","","","","","","","","","feedback_test","","","","","","","","","","","",""
"611","","j","psychophysics","123","403044","0.0-7.0-1.0-4.0-0.0-0.8","4","4","3","3","3","4","3","3","3","3","4","3","2","4","3","4","3","3","4","4","5","5","4","5","5","4","3","4","5","0","1","0","0","0","1","1","1","1","0","1","0","1","0","1","4","2","3","2","3","3","3","4","5","4","4","777098957192171521","张","73","","","","match","","","","","","","","","","","","","","key","j","11.191137681159686","720.2857142857143","476.2857142857143","j","true","match","img/ellipse.png","椭圆","椭圆","ALT1","formal_ALT1_2","","","","","","","","","","","",""
"null","<span style='color:GreenYellow; font-size: 70px;'>正确! </span>","null","html-keyboard-response","124","403547","0.0-7.0-1.0-4.0-0.0-1.8","4","4","3","3","3","4","3","3","3","3","4","3","2","4","3","4","3","3","4","4","5","5","4","5","5","4","3","4","5","0","1","0","0","0","1","1","1","1","0","1","0","1","0","1","4","2","3","2","3","3","3","4","5","4","4","777098957192171521","张","73","","","","","","","","","","","","","","","","","","","","","","","","","","","","","","feedback_test","","","","","","","","","","","",""
"592","","f","psychophysics","125","405146","0.0-7.0-1.0-4.0-0.0-0.9","4","4","3","3","3","4","3","3","3","3","4","3","2","4","3","4","3","3","4","4","5","5","4","5","5","4","3","4","5","0","1","0","0","0","1","1","1","1","0","1","0","1","0","1","4","2","3","2","3","3","3","4","5","4","4","777098957192171521","张","73","","","","nonmatch","","","","","","","","","","","","","","key","f","11.11595035460984","720.2857142857143","476.2857142857143","j","false","match","img/ellipse.png","椭圆","椭圆","ALT1","formal_ALT1_2","","","","","","","","","","","",""
"null","<span style='color:red; font-size: 70px;'>错误! </span>","null","html-keyboard-response","126","405653","0.0-7.0-1.0-4.0-0.0-1.9","4","4","3","3","3","4","3","3","3","3","4","3","2","4","3","4","3","3","4","4","5","5","4","5","5","4","3","4","5","0","1","0","0","0","1","1","1","1","0","1","0","1","0","1","4","2","3","2","3","3","3","4","5","4","4","777098957192171521","张","73","","","","","","","","","","","","","","","","","","","","","","","","","","","","","","feedback_test","","","","","","","","","","","",""
"680","","f","psychophysics","127","407346","0.0-7.0-1.0-4.0-0.0-0.10","4","4","3","3","3","4","3","3","3","3","4","3","2","4","3","4","3","3","4","4","5","5","4","5","5","4","3","4","5","0","1","0","0","0","1","1","1","1","0","1","0","1","0","1","4","2","3","2","3","3","3","4","5","4","4","777098957192171521","张","73","","","","nonmatch","","","","","","","","","","","","","","key","f","11.220067567567614","720.2857142857143","476.2857142857143","f","true","nonmatch","img/ellipse.png","菱形","椭圆","ALT1","formal_ALT1_2","","","","","","","","","","","",""
"null","<span style='color:GreenYellow; font-size: 70px;'>正确! </span>","null","html-keyboard-response","128","407851","0.0-7.0-1.0-4.0-0.0-1.10","4","4","3","3","3","4","3","3","3","3","4","3","2","4","3","4","3","3","4","4","5","5","4","5","5","4","3","4","5","0","1","0","0","0","1","1","1","1","0","1","0","1","0","1","4","2","3","2","3","3","3","4","5","4","4","777098957192171521","张","73","","","","","","","","","","","","","","","","","","","","","","","","","","","","","","feedback_test","","","","","","","","","","","",""
"628","","j","psychophysics","129","409481","0.0-7.0-1.0-4.0-0.0-0.11","4","4","3","3","3","4","3","3","3","3","4","3","2","4","3","4","3","3","4","4","5","5","4","5","5","4","3","4","5","0","1","0","0","0","1","1","1","1","0","1","0","1","0","1","4","2","3","2","3","3","3","4","5","4","4","777098957192171521","张","73","","","","match","","","","","","","","","","","","","","key","j","11.232978873239736","720.2857142857143","476.2857142857143","j","true","match","img/ellipse.png","椭圆","椭圆","ALT1","formal_ALT1_2","","","","","","","","","","","",""
"null","<span style='color:GreenYellow; font-size: 70px;'>正确! </span>","null","html-keyboard-response","130","409988","0.0-7.0-1.0-4.0-0.0-1.11","4","4","3","3","3","4","3","3","3","3","4","3","2","4","3","4","3","3","4","4","5","5","4","5","5","4","3","4","5","0","1","0","0","0","1","1","1","1","0","1","0","1","0","1","4","2","3","2","3","3","3","4","5","4","4","777098957192171521","张","73","","","","","","","","","","","","","","","","","","","","","","","","","","","","","","feedback_test","","","","","","","","","","","",""
"680","","j","psychophysics","131","411671","0.0-7.0-1.0-4.0-0.0-0.12","4","4","3","3","3","4","3","3","3","3","4","3","2","4","3","4","3","3","4","4","5","5","4","5","5","4","3","4","5","0","1","0","0","0","1","1","1","1","0","1","0","1","0","1","4","2","3","2","3","3","3","4","5","4","4","777098957192171521","张","73","","","","match","","","","","","","","","","","","","","key","j","11.10108724832238","720.2857142857143","476.2857142857143","f","false","nonmatch","img/pentagon.png","菱形","五边","ALT1","formal_ALT1_2","","","","","","","","","","","",""
"null","<span style='color:red; font-size: 70px;'>错误! </span>","null","html-keyboard-response","132","412175","0.0-7.0-1.0-4.0-0.0-1.12","4","4","3","3","3","4","3","3","3","3","4","3","2","4","3","4","3","3","4","4","5","5","4","5","5","4","3","4","5","0","1","0","0","0","1","1","1","1","0","1","0","1","0","1","4","2","3","2","3","3","3","4","5","4","4","777098957192171521","张","73","","","","","","","","","","","","","","","","","","","","","","","","","","","","","","feedback_test","","","","","","","","","","","",""
"588","","j","psychophysics","133","413792","0.0-7.0-1.0-4.0-0.0-0.13","4","4","3","3","3","4","3","3","3","3","4","3","2","4","3","4","3","3","4","4","5","5","4","5","5","4","3","4","5","0","1","0","0","0","1","1","1","1","0","1","0","1","0","1","4","2","3","2","3","3","3","4","5","4","4","777098957192171521","张","73","","","","match","","","","","","","","","","","","","","key","j","11.083542253520802","720.2857142857143","476.2857142857143","j","true","match","img/pentagon.png","五边","五边","ALT1","formal_ALT1_2","","","","","","","","","","","",""
"null","<span style='color:GreenYellow; font-size: 70px;'>正确! </span>","null","html-keyboard-response","134","414293","0.0-7.0-1.0-4.0-0.0-1.13","4","4","3","3","3","4","3","3","3","3","4","3","2","4","3","4","3","3","4","4","5","5","4","5","5","4","3","4","5","0","1","0","0","0","1","1","1","1","0","1","0","1","0","1","4","2","3","2","3","3","3","4","5","4","4","777098957192171521","张","73","","","","","","","","","","","","","","","","","","","","","","","","","","","","","","feedback_test","","","","","","","","","","","",""
"624","","f","psychophysics","135","415920","0.0-7.0-1.0-4.0-0.0-0.14","4","4","3","3","3","4","3","3","3","3","4","3","2","4","3","4","3","3","4","4","5","5","4","5","5","4","3","4","5","0","1","0","0","0","1","1","1","1","0","1","0","1","0","1","4","2","3","2","3","3","3","4","5","4","4","777098957192171521","张","73","","","","nonmatch","","","","","","","","","","","","","","key","f","11.08309790209771","720.2857142857143","476.2857142857143","f","true","nonmatch","img/ellipse.png","方形","椭圆","ALT1","formal_ALT1_2","","","","","","","","","","","",""
"null","<span style='color:GreenYellow; font-size: 70px;'>正确! </span>","null","html-keyboard-response","136","416421","0.0-7.0-1.0-4.0-0.0-1.14","4","4","3","3","3","4","3","3","3","3","4","3","2","4","3","4","3","3","4","4","5","5","4","5","5","4","3","4","5","0","1","0","0","0","1","1","1","1","0","1","0","1","0","1","4","2","3","2","3","3","3","4","5","4","4","777098957192171521","张","73","","","","","","","","","","","","","","","","","","","","","","","","","","","","","","feedback_test","","","","","","","","","","","",""
"708","","j","psychophysics","137","418132","0.0-7.0-1.0-4.0-0.0-0.15","4","4","3","3","3","4","3","3","3","3","4","3","2","4","3","4","3","3","4","4","5","5","4","5","5","4","3","4","5","0","1","0","0","0","1","1","1","1","0","1","0","1","0","1","4","2","3","2","3","3","3","4","5","4","4","777098957192171521","张","73","","","","match","","","","","","","","","","","","","","key","j","11.38564137931038","720.2857142857143","476.2857142857143","j","true","match","img/square.png","方形","方形","ALT1","formal_ALT1_2","","","","","","","","","","","",""
"null","<span style='color:GreenYellow; font-size: 70px;'>正确! </span>","null","html-keyboard-response","138","418634","0.0-7.0-1.0-4.0-0.0-1.15","4","4","3","3","3","4","3","3","3","3","4","3","2","4","3","4","3","3","4","4","5","5","4","5","5","4","3","4","5","0","1","0","0","0","1","1","1","1","0","1","0","1","0","1","4","2","3","2","3","3","3","4","5","4","4","777098957192171521","张","73","","","","","","","","","","","","","","","","","","","","","","","","","","","","","","feedback_test","","","","","","","","","","","",""
"690","","f","psychophysics","139","420348","0.0-7.0-1.0-4.0-0.0-0.16","4","4","3","3","3","4","3","3","3","3","4","3","2","4","3","4","3","3","4","4","5","5","4","5","5","4","3","4","5","0","1","0","0","0","1","1","1","1","0","1","0","1","0","1","4","2","3","2","3","3","3","4","5","4","4","777098957192171521","张","73","","","","nonmatch","","","","","","","","","","","","","","key","f","11.146099337748257","720.2857142857143","476.2857142857143","f","true","nonmatch","img/ellipse.png","五边","椭圆","ALT1","formal_ALT1_2","","","","","","","","","","","",""
"null","<span style='color:GreenYellow; font-size: 70px;'>正确! </span>","null","html-keyboard-response","140","420852","0.0-7.0-1.0-4.0-0.0-1.16","4","4","3","3","3","4","3","3","3","3","4","3","2","4","3","4","3","3","4","4","5","5","4","5","5","4","3","4","5","0","1","0","0","0","1","1","1","1","0","1","0","1","0","1","4","2","3","2","3","3","3","4","5","4","4","777098957192171521","张","73","","","","","","","","","","","","","","","","","","","","","","","","","","","","","","feedback_test","","","","","","","","","","","",""
"604","","j","psychophysics","141","422459","0.0-7.0-1.0-4.0-0.0-0.17","4","4","3","3","3","4","3","3","3","3","4","3","2","4","3","4","3","3","4","4","5","5","4","5","5","4","3","4","5","0","1","0","0","0","1","1","1","1","0","1","0","1","0","1","4","2","3","2","3","3","3","4","5","4","4","777098957192171521","张","73","","","","match","","","","","","","","","","","","","","key","j","11.177165467625823","720.2857142857143","476.2857142857143","j","true","match","img/square.png","方形","方形","ALT1","formal_ALT1_2","","","","","","","","","","","",""
"null","<span style='color:GreenYellow; font-size: 70px;'>正确! </span>","null","html-keyboard-response","142","422971","0.0-7.0-1.0-4.0-0.0-1.17","4","4","3","3","3","4","3","3","3","3","4","3","2","4","3","4","3","3","4","4","5","5","4","5","5","4","3","4","5","0","1","0","0","0","1","1","1","1","0","1","0","1","0","1","4","2","3","2","3","3","3","4","5","4","4","777098957192171521","张","73","","","","","","","","","","","","","","","","","","","","","","","","","","","","","","feedback_test","","","","","","","","","","","",""
"751","","j","psychophysics","143","424732","0.0-7.0-1.0-4.0-0.0-0.18","4","4","3","3","3","4","3","3","3","3","4","3","2","4","3","4","3","3","4","4","5","5","4","5","5","4","3","4","5","0","1","0","0","0","1","1","1","1","0","1","0","1","0","1","4","2","3","2","3","3","3","4","5","4","4","777098957192171521","张","73","","","","match","","","","","","","","","","","","","","key","j","11.112298701298664","720.2857142857143","476.2857142857143","j","true","match","img/pentagon.png","五边","五边","ALT1","formal_ALT1_2","","","","","","","","","","","",""
"null","<span style='color:GreenYellow; font-size: 70px;'>正确! </span>","null","html-keyboard-response","144","425233","0.0-7.0-1.0-4.0-0.0-1.18","4","4","3","3","3","4","3","3","3","3","4","3","2","4","3","4","3","3","4","4","5","5","4","5","5","4","3","4","5","0","1","0","0","0","1","1","1","1","0","1","0","1","0","1","4","2","3","2","3","3","3","4","5","4","4","777098957192171521","张","73","","","","","","","","","","","","","","","","","","","","","","","","","","","","","","feedback_test","","","","","","","","","","","",""
"573","","j","psychophysics","145","426828","0.0-7.0-1.0-4.0-0.0-0.19","4","4","3","3","3","4","3","3","3","3","4","3","2","4","3","4","3","3","4","4","5","5","4","5","5","4","3","4","5","0","1","0","0","0","1","1","1","1","0","1","0","1","0","1","4","2","3","2","3","3","3","4","5","4","4","777098957192171521","张","73","","","","match","","","","","","","","","","","","","","key","j","11.146719424460644","720.2857142857143","476.2857142857143","j","true","match","img/diamond.png","菱形","菱形","ALT1","formal_ALT1_2","","","","","","","","","","","",""
"null","<span style='color:GreenYellow; font-size: 70px;'>正确! </span>","null","html-keyboard-response","146","427337","0.0-7.0-1.0-4.0-0.0-1.19","4","4","3","3","3","4","3","3","3","3","4","3","2","4","3","4","3","3","4","4","5","5","4","5","5","4","3","4","5","0","1","0","0","0","1","1","1","1","0","1","0","1","0","1","4","2","3","2","3","3","3","4","5","4","4","777098957192171521","张","73","","","","","","","","","","","","","","","","","","","","","","","","","","","","","","feedback_test","","","","","","","","","","","",""
"598","","j","psychophysics","147","428942","0.0-7.0-1.0-4.0-0.0-0.20","4","4","3","3","3","4","3","3","3","3","4","3","2","4","3","4","3","3","4","4","5","5","4","5","5","4","3","4","5","0","1","0","0","0","1","1","1","1","0","1","0","1","0","1","4","2","3","2","3","3","3","4","5","4","4","777098957192171521","张","73","","","","match","","","","","","","","","","","","","","key","j","11.08413571428599","720.2857142857143","476.2857142857143","f","false","nonmatch","img/diamond.png","五边","菱形","ALT1","formal_ALT1_2","","","","","","","","","","","",""
"null","<span style='color:red; font-size: 70px;'>错误! </span>","null","html-keyboard-response","148","429444","0.0-7.0-1.0-4.0-0.0-1.20","4","4","3","3","3","4","3","3","3","3","4","3","2","4","3","4","3","3","4","4","5","5","4","5","5","4","3","4","5","0","1","0","0","0","1","1","1","1","0","1","0","1","0","1","4","2","3","2","3","3","3","4","5","4","4","777098957192171521","张","73","","","","","","","","","","","","","","","","","","","","","","","","","","","","","","feedback_test","","","","","","","","","","","",""
"753","","f","psychophysics","149","431200","0.0-7.0-1.0-4.0-0.0-0.21","4","4","3","3","3","4","3","3","3","3","4","3","2","4","3","4","3","3","4","4","5","5","4","5","5","4","3","4","5","0","1","0","0","0","1","1","1","1","0","1","0","1","0","1","4","2","3","2","3","3","3","4","5","4","4","777098957192171521","张","73","","","","nonmatch","","","","","","","","","","","","","","key","f","11.214814569536651","720.2857142857143","476.2857142857143","f","true","nonmatch","img/square.png","菱形","方形","ALT1","formal_ALT1_2","","","","","","","","","","","",""
"null","<span style='color:GreenYellow; font-size: 70px;'>正确! </span>","null","html-keyboard-response","150","431704","0.0-7.0-1.0-4.0-0.0-1.21","4","4","3","3","3","4","3","3","3","3","4","3","2","4","3","4","3","3","4","4","5","5","4","5","5","4","3","4","5","0","1","0","0","0","1","1","1","1","0","1","0","1","0","1","4","2","3","2","3","3","3","4","5","4","4","777098957192171521","张","73","","","","","","","","","","","","","","","","","","","","","","","","","","","","","","feedback_test","","","","","","","","","","","",""
"673","","j","psychophysics","151","433409","0.0-7.0-1.0-4.0-0.0-0.22","4","4","3","3","3","4","3","3","3","3","4","3","2","4","3","4","3","3","4","4","5","5","4","5","5","4","3","4","5","0","1","0","0","0","1","1","1","1","0","1","0","1","0","1","4","2","3","2","3","3","3","4","5","4","4","777098957192171521","张","73","","","","match","","","","","","","","","","","","","","key","j","11.11318243243236","720.2857142857143","476.2857142857143","j","true","match","img/diamond.png","菱形","菱形","ALT1","formal_ALT1_2","","","","","","","","","","","",""
"null","<span style='color:GreenYellow; font-size: 70px;'>正确! </span>","null","html-keyboard-response","152","433910","0.0-7.0-1.0-4.0-0.0-1.22","4","4","3","3","3","4","3","3","3","3","4","3","2","4","3","4","3","3","4","4","5","5","4","5","5","4","3","4","5","0","1","0","0","0","1","1","1","1","0","1","0","1","0","1","4","2","3","2","3","3","3","4","5","4","4","777098957192171521","张","73","","","","","","","","","","","","","","","","","","","","","","","","","","","","","","feedback_test","","","","","","","","","","","",""
"617","","j","psychophysics","153","435531","0.0-7.0-1.0-4.0-0.0-0.23","4","4","3","3","3","4","3","3","3","3","4","3","2","4","3","4","3","3","4","4","5","5","4","5","5","4","3","4","5","0","1","0","0","0","1","1","1","1","0","1","0","1","0","1","4","2","3","2","3","3","3","4","5","4","4","777098957192171521","张","73","","","","match","","","","","","","","","","","","","","key","j","11.274402877697788","720.2857142857143","476.2857142857143","j","true","match","img/diamond.png","菱形","菱形","ALT1","formal_ALT1_2","","","","","","","","","","","",""
"null","<span style='color:GreenYellow; font-size: 70px;'>正确! </span>","null","html-keyboard-response","154","436041","0.0-7.0-1.0-4.0-0.0-1.23","4","4","3","3","3","4","3","3","3","3","4","3","2","4","3","4","3","3","4","4","5","5","4","5","5","4","3","4","5","0","1","0","0","0","1","1","1","1","0","1","0","1","0","1","4","2","3","2","3","3","3","4","5","4","4","777098957192171521","张","73","","","","","","","","","","","","","","","","","","","","","","","","","","","","","","feedback_test","","","","","","","","","","","",""
"631","","j","psychophysics","155","437679","0.0-7.0-1.0-4.0-0.0-0.24","4","4","3","3","3","4","3","3","3","3","4","3","2","4","3","4","3","3","4","4","5","5","4","5","5","4","3","4","5","0","1","0","0","0","1","1","1","1","0","1","0","1","0","1","4","2","3","2","3","3","3","4","5","4","4","777098957192171521","张","73","","","","match","","","","","","","","","","","","","","key","j","11.198333333333515","720.2857142857143","476.2857142857143","j","true","match","img/diamond.png","菱形","菱形","ALT1","formal_ALT1_2","","","","","","","","","","","",""
"null","<span style='color:GreenYellow; font-size: 70px;'>正确! </span>","null","html-keyboard-response","156","438181","0.0-7.0-1.0-4.0-0.0-1.24","4","4","3","3","3","4","3","3","3","3","4","3","2","4","3","4","3","3","4","4","5","5","4","5","5","4","3","4","5","0","1","0","0","0","1","1","1","1","0","1","0","1","0","1","4","2","3","2","3","3","3","4","5","4","4","777098957192171521","张","73","","","","","","","","","","","","","","","","","","","","","","","","","","","","","","feedback_test","","","","","","","","","","","",""
"571","","j","psychophysics","157","439755","0.0-7.0-1.0-4.0-0.0-0.25","4","4","3","3","3","4","3","3","3","3","4","3","2","4","3","4","3","3","4","4","5","5","4","5","5","4","3","4","5","0","1","0","0","0","1","1","1","1","0","1","0","1","0","1","4","2","3","2","3","3","3","4","5","4","4","777098957192171521","张","73","","","","match","","","","","","","","","","","","","","key","j","11.217569343065911","720.2857142857143","476.2857142857143","j","true","match","img/square.png","方形","方形","ALT1","formal_ALT1_2","","","","","","","","","","","",""
"null","<span style='color:GreenYellow; font-size: 70px;'>正确! </span>","null","html-keyboard-response","158","440261","0.0-7.0-1.0-4.0-0.0-1.25","4","4","3","3","3","4","3","3","3","3","4","3","2","4","3","4","3","3","4","4","5","5","4","5","5","4","3","4","5","0","1","0","0","0","1","1","1","1","0","1","0","1","0","1","4","2","3","2","3","3","3","4","5","4","4","777098957192171521","张","73","","","","","","","","","","","","","","","","","","","","","","","","","","","","","","feedback_test","","","","","","","","","","","",""
"626","","j","psychophysics","159","441890","0.0-7.0-1.0-4.0-0.0-0.26","4","4","3","3","3","4","3","3","3","3","4","3","2","4","3","4","3","3","4","4","5","5","4","5","5","4","3","4","5","0","1","0","0","0","1","1","1","1","0","1","0","1","0","1","4","2","3","2","3","3","3","4","5","4","4","777098957192171521","张","73","","","","match","","","","","","","","","","","","","","key","j","11.150843971631414","720.2857142857143","476.2857142857143","j","true","match","img/pentagon.png","五边","五边","ALT1","formal_ALT1_2","","","","","","","","","","","",""
"null","<span style='color:GreenYellow; font-size: 70px;'>正确! </span>","null","html-keyboard-response","160","442395","0.0-7.0-1.0-4.0-0.0-1.26","4","4","3","3","3","4","3","3","3","3","4","3","2","4","3","4","3","3","4","4","5","5","4","5","5","4","3","4","5","0","1","0","0","0","1","1","1","1","0","1","0","1","0","1","4","2","3","2","3","3","3","4","5","4","4","777098957192171521","张","73","","","","","","","","","","","","","","","","","","","","","","","","","","","","","","feedback_test","","","","","","","","","","","",""
"560","","j","psychophysics","161","443965","0.0-7.0-1.0-4.0-0.0-0.27","4","4","3","3","3","4","3","3","3","3","4","3","2","4","3","4","3","3","4","4","5","5","4","5","5","4","3","4","5","0","1","0","0","0","1","1","1","1","0","1","0","1","0","1","4","2","3","2","3","3","3","4","5","4","4","777098957192171521","张","73","","","","match","","","","","","","","","","","","","","key","j","11.140698529411834","720.2857142857143","476.2857142857143","j","true","match","img/ellipse.png","椭圆","椭圆","ALT1","formal_ALT1_2","","","","","","","","","","","",""
"null","<span style='color:GreenYellow; font-size: 70px;'>正确! </span>","null","html-keyboard-response","162","444474","0.0-7.0-1.0-4.0-0.0-1.27","4","4","3","3","3","4","3","3","3","3","4","3","2","4","3","4","3","3","4","4","5","5","4","5","5","4","3","4","5","0","1","0","0","0","1","1","1","1","0","1","0","1","0","1","4","2","3","2","3","3","3","4","5","4","4","777098957192171521","张","73","","","","","","","","","","","","","","","","","","","","","","","","","","","","","","feedback_test","","","","","","","","","","","",""
"681","","j","psychophysics","163","446168","0.0-7.0-1.0-4.0-0.0-0.28","4","4","3","3","3","4","3","3","3","3","4","3","2","4","3","4","3","3","4","4","5","5","4","5","5","4","3","4","5","0","1","0","0","0","1","1","1","1","0","1","0","1","0","1","4","2","3","2","3","3","3","4","5","4","4","777098957192171521","张","73","","","","match","","","","","","","","","","","","","","key","j","11.241006849315305","720.2857142857143","476.2857142857143","j","true","match","img/diamond.png","菱形","菱形","ALT1","formal_ALT1_2","","","","","","","","","","","",""
"null","<span style='color:GreenYellow; font-size: 70px;'>正确! </span>","null","html-keyboard-response","164","446671","0.0-7.0-1.0-4.0-0.0-1.28","4","4","3","3","3","4","3","3","3","3","4","3","2","4","3","4","3","3","4","4","5","5","4","5","5","4","3","4","5","0","1","0","0","0","1","1","1","1","0","1","0","1","0","1","4","2","3","2","3","3","3","4","5","4","4","777098957192171521","张","73","","","","","","","","","","","","","","","","","","","","","","","","","","","","","","feedback_test","","","","","","","","","","","",""
"670","","j","psychophysics","165","448350","0.0-7.0-1.0-4.0-0.0-0.29","4","4","3","3","3","4","3","3","3","3","4","3","2","4","3","4","3","3","4","4","5","5","4","5","5","4","3","4","5","0","1","0","0","0","1","1","1","1","0","1","0","1","0","1","4","2","3","2","3","3","3","4","5","4","4","777098957192171521","张","73","","","","match","","","","","","","","","","","","","","key","j","11.097513698630292","720.2857142857143","476.2857142857143","j","true","match","img/ellipse.png","椭圆","椭圆","ALT1","formal_ALT1_2","","","","","","","","","","","",""
"null","<span style='color:GreenYellow; font-size: 70px;'>正确! </span>","null","html-keyboard-response","166","448859","0.0-7.0-1.0-4.0-0.0-1.29","4","4","3","3","3","4","3","3","3","3","4","3","2","4","3","4","3","3","4","4","5","5","4","5","5","4","3","4","5","0","1","0","0","0","1","1","1","1","0","1","0","1","0","1","4","2","3","2","3","3","3","4","5","4","4","777098957192171521","张","73","","","","","","","","","","","","","","","","","","","","","","","","","","","","","","feedback_test","","","","","","","","","","","",""
"659","","f","psychophysics","167","450523","0.0-7.0-1.0-4.0-0.0-0.30","4","4","3","3","3","4","3","3","3","3","4","3","2","4","3","4","3","3","4","4","5","5","4","5","5","4","3","4","5","0","1","0","0","0","1","1","1","1","0","1","0","1","0","1","4","2","3","2","3","3","3","4","5","4","4","777098957192171521","张","73","","","","nonmatch","","","","","","","","","","","","","","key","f","11.157489655172485","720.2857142857143","476.2857142857143","f","true","nonmatch","img/square.png","菱形","方形","ALT1","formal_ALT1_2","","","","","","","","","","","",""
"null","<span style='color:GreenYellow; font-size: 70px;'>正确! </span>","null","html-keyboard-response","168","451039","0.0-7.0-1.0-4.0-0.0-1.30","4","4","3","3","3","4","3","3","3","3","4","3","2","4","3","4","3","3","4","4","5","5","4","5","5","4","3","4","5","0","1","0","0","0","1","1","1","1","0","1","0","1","0","1","4","2","3","2","3","3","3","4","5","4","4","777098957192171521","张","73","","","","","","","","","","","","","","","","","","","","","","","","","","","","","","feedback_test","","","","","","","","","","","",""
"577","","j","psychophysics","169","452636","0.0-7.0-1.0-4.0-0.0-0.31","4","4","3","3","3","4","3","3","3","3","4","3","2","4","3","4","3","3","4","4","5","5","4","5","5","4","3","4","5","0","1","0","0","0","1","1","1","1","0","1","0","1","0","1","4","2","3","2","3","3","3","4","5","4","4","777098957192171521","张","73","","","","match","","","","","","","","","","","","","","key","j","11.11159285714301","720.2857142857143","476.2857142857143","j","true","match","img/pentagon.png","五边","五边","ALT1","formal_ALT1_2","","","","","","","","","","","",""
"null","<span style='color:GreenYellow; font-size: 70px;'>正确! </span>","null","html-keyboard-response","170","453144","0.0-7.0-1.0-4.0-0.0-1.31","4","4","3","3","3","4","3","3","3","3","4","3","2","4","3","4","3","3","4","4","5","5","4","5","5","4","3","4","5","0","1","0","0","0","1","1","1","1","0","1","0","1","0","1","4","2","3","2","3","3","3","4","5","4","4","777098957192171521","张","73","","","","","","","","","","","","","","","","","","","","","","","","","","","","","","feedback_test","","","","","","","","","","","",""
"742","","f","psychophysics","171","454890","0.0-7.0-1.0-4.0-0.0-0.32","4","4","3","3","3","4","3","3","3","3","4","3","2","4","3","4","3","3","4","4","5","5","4","5","5","4","3","4","5","0","1","0","0","0","1","1","1","1","0","1","0","1","0","1","4","2","3","2","3","3","3","4","5","4","4","777098957192171521","张","73","","","","nonmatch","","","","","","","","","","","","","","key","f","11.373843137254738","720.2857142857143","476.2857142857143","f","true","nonmatch","img/diamond.png","椭圆","菱形","ALT1","formal_ALT1_2","","","","","","","","","","","",""
"null","<span style='color:GreenYellow; font-size: 70px;'>正确! </span>","null","html-keyboard-response","172","455398","0.0-7.0-1.0-4.0-0.0-1.32","4","4","3","3","3","4","3","3","3","3","4","3","2","4","3","4","3","3","4","4","5","5","4","5","5","4","3","4","5","0","1","0","0","0","1","1","1","1","0","1","0","1","0","1","4","2","3","2","3","3","3","4","5","4","4","777098957192171521","张","73","","","","","","","","","","","","","","","","","","","","","","","","","","","","","","feedback_test","","","","","","","","","","","",""
"734","","f","psychophysics","173","457136","0.0-7.0-1.0-4.0-0.0-0.33","4","4","3","3","3","4","3","3","3","3","4","3","2","4","3","4","3","3","4","4","5","5","4","5","5","4","3","4","5","0","1","0","0","0","1","1","1","1","0","1","0","1","0","1","4","2","3","2","3","3","3","4","5","4","4","777098957192171521","张","73","","","","nonmatch","","","","","","","","","","","","","","key","f","11.155614379085023","720.2857142857143","476.2857142857143","f","true","nonmatch","img/pentagon.png","方形","五边","ALT1","formal_ALT1_2","","","","","","","","","","","",""
"null","<span style='color:GreenYellow; font-size: 70px;'>正确! </span>","null","html-keyboard-response","174","457644","0.0-7.0-1.0-4.0-0.0-1.33","4","4","3","3","3","4","3","3","3","3","4","3","2","4","3","4","3","3","4","4","5","5","4","5","5","4","3","4","5","0","1","0","0","0","1","1","1","1","0","1","0","1","0","1","4","2","3","2","3","3","3","4","5","4","4","777098957192171521","张","73","","","","","","","","","","","","","","","","","","","","","","","","","","","","","","feedback_test","","","","","","","","","","","",""
"775","","f","psychophysics","175","459436","0.0-7.0-1.0-4.0-0.0-0.34","4","4","3","3","3","4","3","3","3","3","4","3","2","4","3","4","3","3","4","4","5","5","4","5","5","4","3","4","5","0","1","0","0","0","1","1","1","1","0","1","0","1","0","1","4","2","3","2","3","3","3","4","5","4","4","777098957192171521","张","73","","","","nonmatch","","","","","","","","","","","","","","key","f","11.110896774193257","720.2857142857143","476.2857142857143","f","true","nonmatch","img/diamond.png","五边","菱形","ALT1","formal_ALT1_2","","","","","","","","","","","",""
"null","<span style='color:GreenYellow; font-size: 70px;'>正确! </span>","null","html-keyboard-response","176","459943","0.0-7.0-1.0-4.0-0.0-1.34","4","4","3","3","3","4","3","3","3","3","4","3","2","4","3","4","3","3","4","4","5","5","4","5","5","4","3","4","5","0","1","0","0","0","1","1","1","1","0","1","0","1","0","1","4","2","3","2","3","3","3","4","5","4","4","777098957192171521","张","73","","","","","","","","","","","","","","","","","","","","","","","","","","","","","","feedback_test","","","","","","","","","","","",""
"631","","f","psychophysics","177","461577","0.0-7.0-1.0-4.0-0.0-0.35","4","4","3","3","3","4","3","3","3","3","4","3","2","4","3","4","3","3","4","4","5","5","4","5","5","4","3","4","5","0","1","0","0","0","1","1","1","1","0","1","0","1","0","1","4","2","3","2","3","3","3","4","5","4","4","777098957192171521","张","73","","","","nonmatch","","","","","","","","","","","","","","key","f","11.113699300699441","720.2857142857143","476.2857142857143","f","true","nonmatch","img/diamond.png","方形","菱形","ALT1","formal_ALT1_2","","","","","","","","","","","",""
