"rt","stimulus","response","trial_type","trial_index","time_elapsed","internal_node_id","ses_1","ses_2","ses_3","ses_4","ses_5","ses_6","ses_7","ses_8","ses_9","ses_10","coreself_1","coreself_2","coreself_3","coreself_4","coreself_5","coreself_6","coreself_7","coreself_8","coreself_9","coreself_10","SGPS_1","SGPS_2","SGPS_3","SGPS_4","SGPS_5","SGPS_6","SGPS_7","SGPS_8","SGPS_9","NPI1","NPI2","NPI3","NPI4","NPI5","NPI6","NPI7","NPI8","NPI9","NPI10","NPI11","NPI12","NPI13","NPI14","NPI15","hsns_1","hsns_2","hsns_3","hsns_4","hsns_5","trap1","hsns_6","hsns_7","hsns_8","hsns_9","hsns_10","subj_idx","friend_name","ParticipantID","value","success","user_agent","responses","item_order","radio_event_ids","radio_event_times","key_event_times","mouse_event_times","straightlining","zigzagging","honeypot","timeout","failed_images","failed_audio","failed_video","version_attrib2","version_target2","correct","IAT","screen_id","task_id","RT","condition","word","varname","summary","version_attrib","version_target","time_stamp","view_history","response_type","key_press","avg_frame_time","center_x","center_y","correct_response","identity","Image","question_order","correct_answer","trap1_item"
"2060","
   <p><div style = ""color: white;font-size:25px;"">您好，欢迎参加本次实验。</div> </p>
   <p><div style = ""color: white;font-size:25px;"">为充分保障您的权利，请确保您已经知晓并同意《参与实验同意书》以及《数据公开知情同意书》。</div></p>
   <p><div style = ""color: white;font-size:25px;"">如果您未见过上述内容，请咨询实验员。</div></p>
   <p><div style = ""color: white;font-size:25px;"">如果您选择继续实验，则表示您已经清楚两份知情同意书的内容并同意。</div></p>
   <p><div style = ""color: pink;font-size:30px;"">请确保您记得day0的实验编号，您将在本次实验输入该编号，若您忘记，请咨询实验员后作答。</div></p>
   <p><div style = ""color: lightblue;font-size:25px;"">请您尽可能认真地作答，我们将依据您在各问卷和按键任务中的作答质量发放报酬。</div></p>
   <p> <div style = ""color: green;font-size:25px;""><按空格键至下页></div> </p>
   "," ","html-keyboard-response","0","2061","0.0-0.0","4","4","4","4","4","4","4","4","4","4","5","5","5","5","5","5","5","5","5","5","1","1","2","1","1","1","4","4","1","1","1","0","1","0","0","0","0","0","1","0","0","1","0","0","5","1","1","2","1","5","5","3","2","4","1","598842647070638080","刘","170","","","","","","","","","","","","","","","","","","","","","","","","","","","","","","","","","","","","","","","","","",""
"","","","call-function","1","2061","0.0-1.0-0.0","4","4","4","4","4","4","4","4","4","4","5","5","5","5","5","5","5","5","5","5","1","1","2","1","1","1","4","4","1","1","1","0","1","0","0","0","0","0","1","0","0","1","0","0","5","1","1","2","1","5","5","3","2","4","1","598842647070638080","刘","170","","","","","","","","","","","","","","","","","","","","","","","","","","","","","","","","","","","","","","","","","",""
"35774","","{""friend_name"":""刘"",""ParticipantID"":""170""}","survey-html-form","2","37835","0.0-1.0-1.0","4","4","4","4","4","4","4","4","4","4","5","5","5","5","5","5","5","5","5","5","1","1","2","1","1","1","4","4","1","1","1","0","1","0","0","0","0","0","1","0","0","1","0","0","5","1","1","2","1","5","5","3","2","4","1","598842647070638080","刘","170","","","","","","","","","","","","","","","","","","","","","","","","","","","","","","","","","","","","","","","","","",""
"","","","fullscreen","3","42617","0.0-2.0","4","4","4","4","4","4","4","4","4","4","5","5","5","5","5","5","5","5","5","5","1","1","2","1","1","1","4","4","1","1","1","0","1","0","0","0","0","0","1","0","0","1","0","0","5","1","1","2","1","5","5","3","2","4","1","598842647070638080","刘","170","","true","{}","","","","","","","","","","","","","","","","","","","","","","","","","","","","","","","","","","","","","","",""
"18856.79999923706","","{""Q01"":""4"",""Q02"":""4"",""Q03"":""4"",""Q04"":""4"",""Q05"":""4"",""Q06"":""4"",""Q07"":""4"",""Q08"":""4"",""Q09"":""4"",""Q10"":""4""}","survey-template","4","61476","0.0-3.0","4","4","4","4","4","4","4","4","4","4","5","5","5","5","5","5","5","5","5","5","1","1","2","1","1","1","4","4","1","1","1","0","1","0","0","0","0","0","1","0","0","1","0","0","5","1","1","2","1","5","5","3","2","4","1","598842647070638080","刘","170","","","","{""Q01"":""4"",""Q02"":""4"",""Q03"":""4"",""Q04"":""4"",""Q05"":""4"",""Q06"":""4"",""Q07"":""4"",""Q08"":""4"",""Q09"":""4"",""Q10"":""4""}","[0,1,2,3,4,5,6,7,8,9]","[""Q01"",""Q02"",""Q03"",""Q04"",""Q05"",""Q06"",""Q07"",""Q08"",""Q09"",""Q10""]","[3192.6000003814697,4263.89999961853,5168.10000038147,7408,8816.29999923706,9920.79999923706,10663.89999961853,12536.20000076294,13408,14424.10000038147]","[]","[3192.6000003814697,4263.89999961853,5168.10000038147,6560.10000038147,6976.10000038147,7408,8816.29999923706,9920.79999923706,10663.89999961853,12536.20000076294,13408,13976.10000038147,14424.10000038147,18856]","0.5","0.5555555555555556","0","","","","","","","","","","","","","","","","","","","","","","","","","","","","","",""
"19604.5","","{""Q01"":""5"",""Q02"":""5"",""Q03"":""5"",""Q04"":""5"",""Q05"":""5"",""Q06"":""5"",""Q07"":""5"",""Q08"":""5"",""Q09"":""5"",""Q10"":""5""}","survey-template","5","81084","0.0-4.0","4","4","4","4","4","4","4","4","4","4","5","5","5","5","5","5","5","5","5","5","1","1","2","1","1","1","4","4","1","1","1","0","1","0","0","0","0","0","1","0","0","1","0","0","5","1","1","2","1","5","5","3","2","4","1","598842647070638080","刘","170","","","","{""Q01"":""5"",""Q02"":""5"",""Q03"":""5"",""Q04"":""5"",""Q05"":""5"",""Q06"":""5"",""Q07"":""5"",""Q08"":""5"",""Q09"":""5"",""Q10"":""5""}","[0,1,2,3,4,5,6,7,8,9]","[""Q01"",""Q03"",""Q02"",""Q04"",""Q05"",""Q07"",""Q06"",""Q08"",""Q09"",""Q10""]","[1819.7000007629395,3324.2000007629395,4179.89999961853,5627.5,6763.700000762939,7419.799999237061,8635.70000076294,9643.5,12659.5,14723.5]","[]","[1819.7000007629395,2675.6000003814697,3324.2000007629395,3675.6000003814697,4179.89999961853,5627.5,6763.700000762939,7419.799999237061,8635.70000076294,9643.5,10531.39999961853,12659.5,14723.5,19603.60000038147]","0.6","0.7777777777777778","0","","","","","","","","","","","","","","","","","","","","","","","","","","","","","",""
"","","","preload","6","81587","0.0-5.0","4","4","4","4","4","4","4","4","4","4","5","5","5","5","5","5","5","5","5","5","1","1","2","1","1","1","4","4","1","1","1","0","1","0","0","0","0","0","1","0","0","1","0","0","5","1","1","2","1","5","5","3","2","4","1","598842647070638080","刘","170","","true","","","","","","","","","","","false","[]","[]","[]","","","","","","","","","","","","","","","","","","","","","","","","","",""
"29584","
    <h3>词语分类任务</h3>
    <p>在接下来的任务中，你需要对一系列词语进行分类。<p/>
    请先熟悉这些词语，这有利于你完成接下来的任务。</p>
    <table align=""center"" border=1 cellpadding=3 cellspacing=0>
    <tr> <th>类别</th> <th>词语</th> </tr>
    <tr> <td>&emsp;积极&emsp;</td> <td>&emsp;高尚、诚信、善良、君子、廉正、正直&emsp;</td> </tr>
    <tr> <td>&emsp;消极&emsp;</td> <td>&emsp;缺德、卑鄙、不孝、不仁、小人、黑心&emsp;</td> </tr>
    <tr> <td>&emsp;自我&emsp;</td> <td>&emsp;我、我的、自己、自己的、本人、本人的&emsp;</td> </tr>
    <tr> <td>&emsp;他人&emsp;</td> <td>&emsp;他、他的、别人、别人的、他人、他人的&emsp;</td> </tr>
    </table><br/>","0","html-button-response","7","111171","0.0-6.0-1.0-0.0","4","4","4","4","4","4","4","4","4","4","5","5","5","5","5","5","5","5","5","5","1","1","2","1","1","1","4","4","1","1","1","0","1","0","0","0","0","0","1","0","0","1","0","0","5","1","1","2","1","5","5","3","2","4","1","598842647070638080","刘","170","","","","","","","","","","","","","","","","","2","2","","","","","","","","","","","","","","","","","","","","","","","",""
"3110","
    <div class=""tag-bottom""><p>
    —— 任务1：对“他人”词和“自我”词分类 ——<p/>
    不同词语会出现在屏幕中央，类别标签将始终显示在屏幕上方<p/>   
    <span style=""color:#FFD866""><b>请根据上方标签的提示，尽可能正确并且快速地做出按键反应</b></span><p/>
    当按键错误时屏幕中会出现<span style=""color:red""> X </span>，需要按另一个键纠正才能继续<br/><p/>
    请把双手食指分别放在键盘的“E”键和“I”键上<p/>
    按<空格键>开始
    </p></div>"," ","html-keyboard-response","8","114283","0.0-6.0-1.0-1.0","4","4","4","4","4","4","4","4","4","4","5","5","5","5","5","5","5","5","5","5","1","1","2","1","1","1","4","4","1","1","1","0","1","0","0","0","0","0","1","0","0","1","0","0","5","1","1","2","1","5","5","3","2","4","1","598842647070638080","刘","170","","","","","","","","","","","","","","","","","","","","","","","","","","","","","","","","","","","","","","","","","",""
"null","","null","html-keyboard-response","9","114535","0.0-6.0-1.0-2.0-0.0","4","4","4","4","4","4","4","4","4","4","5","5","5","5","5","5","5","5","5","5","1","1","2","1","1","1","4","4","1","1","1","0","1","0","0","0","0","0","1","0","0","1","0","0","5","1","1","2","1","5","5","3","2","4","1","598842647070638080","刘","170","","","","","","","","","","","","","","","","","","","","","","","","","","","","","","","","","","","","","","","","","",""
"532","<p style=""color:rgb(150, 250, 100); font-size: 35px;"">他人的</p>","e","categorize-html","10","115070","0.0-6.0-1.0-2.0-1.0","4","4","4","4","4","4","4","4","4","4","5","5","5","5","5","5","5","5","5","5","1","1","2","1","1","1","4","4","1","1","1","0","1","0","0","0","0","0","1","0","0","1","0","0","5","1","1","2","1","5","5","3","2","4","1","598842647070638080","刘","170","","","","","","","","","","","","","","","","","","","true","11","1","moral","532","other","他人的","","","","","","","","","","","","","","","","",""
"null","","null","html-keyboard-response","11","115321","0.0-6.0-1.0-2.0-0.1","4","4","4","4","4","4","4","4","4","4","5","5","5","5","5","5","5","5","5","5","1","1","2","1","1","1","4","4","1","1","1","0","1","0","0","0","0","0","1","0","0","1","0","0","5","1","1","2","1","5","5","3","2","4","1","598842647070638080","刘","170","","","","","","","","","","","","","","","","","","","","","","","","","","","","","","","","","","","","","","","","","",""
"561","<p style=""color:rgb(150, 250, 100); font-size: 35px;"">我的</p>","i","categorize-html","12","115883","0.0-6.0-1.0-2.0-1.1","4","4","4","4","4","4","4","4","4","4","5","5","5","5","5","5","5","5","5","5","1","1","2","1","1","1","4","4","1","1","1","0","1","0","0","0","0","0","1","0","0","1","0","0","5","1","1","2","1","5","5","3","2","4","1","598842647070638080","刘","170","","","","","","","","","","","","","","","","","","","true","11","1","moral","561","self","我的","","","","","","","","","","","","","","","","",""
"null","","null","html-keyboard-response","13","116134","0.0-6.0-1.0-2.0-0.2","4","4","4","4","4","4","4","4","4","4","5","5","5","5","5","5","5","5","5","5","1","1","2","1","1","1","4","4","1","1","1","0","1","0","0","0","0","0","1","0","0","1","0","0","5","1","1","2","1","5","5","3","2","4","1","598842647070638080","刘","170","","","","","","","","","","","","","","","","","","","","","","","","","","","","","","","","","","","","","","","","","",""
"597","<p style=""color:rgb(150, 250, 100); font-size: 35px;"">本人的</p>","i","categorize-html","14","116732","0.0-6.0-1.0-2.0-1.2","4","4","4","4","4","4","4","4","4","4","5","5","5","5","5","5","5","5","5","5","1","1","2","1","1","1","4","4","1","1","1","0","1","0","0","0","0","0","1","0","0","1","0","0","5","1","1","2","1","5","5","3","2","4","1","598842647070638080","刘","170","","","","","","","","","","","","","","","","","","","true","11","1","moral","597","self","本人的","","","","","","","","","","","","","","","","",""
"null","","null","html-keyboard-response","15","116982","0.0-6.0-1.0-2.0-0.3","4","4","4","4","4","4","4","4","4","4","5","5","5","5","5","5","5","5","5","5","1","1","2","1","1","1","4","4","1","1","1","0","1","0","0","0","0","0","1","0","0","1","0","0","5","1","1","2","1","5","5","3","2","4","1","598842647070638080","刘","170","","","","","","","","","","","","","","","","","","","","","","","","","","","","","","","","","","","","","","","","","",""
"388","<p style=""color:rgb(150, 250, 100); font-size: 35px;"">自己的</p>","i","categorize-html","16","117371","0.0-6.0-1.0-2.0-1.3","4","4","4","4","4","4","4","4","4","4","5","5","5","5","5","5","5","5","5","5","1","1","2","1","1","1","4","4","1","1","1","0","1","0","0","0","0","0","1","0","0","1","0","0","5","1","1","2","1","5","5","3","2","4","1","598842647070638080","刘","170","","","","","","","","","","","","","","","","","","","true","11","1","moral","388","self","自己的","","","","","","","","","","","","","","","","",""
"null","","null","html-keyboard-response","17","117622","0.0-6.0-1.0-2.0-0.4","4","4","4","4","4","4","4","4","4","4","5","5","5","5","5","5","5","5","5","5","1","1","2","1","1","1","4","4","1","1","1","0","1","0","0","0","0","0","1","0","0","1","0","0","5","1","1","2","1","5","5","3","2","4","1","598842647070638080","刘","170","","","","","","","","","","","","","","","","","","","","","","","","","","","","","","","","","","","","","","","","","",""
"404","<p style=""color:rgb(150, 250, 100); font-size: 35px;"">自己</p>","i","categorize-html","18","118027","0.0-6.0-1.0-2.0-1.4","4","4","4","4","4","4","4","4","4","4","5","5","5","5","5","5","5","5","5","5","1","1","2","1","1","1","4","4","1","1","1","0","1","0","0","0","0","0","1","0","0","1","0","0","5","1","1","2","1","5","5","3","2","4","1","598842647070638080","刘","170","","","","","","","","","","","","","","","","","","","true","11","1","moral","404","self","自己","","","","","","","","","","","","","","","","",""
"null","","null","html-keyboard-response","19","118279","0.0-6.0-1.0-2.0-0.5","4","4","4","4","4","4","4","4","4","4","5","5","5","5","5","5","5","5","5","5","1","1","2","1","1","1","4","4","1","1","1","0","1","0","0","0","0","0","1","0","0","1","0","0","5","1","1","2","1","5","5","3","2","4","1","598842647070638080","刘","170","","","","","","","","","","","","","","","","","","","","","","","","","","","","","","","","","","","","","","","","","",""
"436","<p style=""color:rgb(150, 250, 100); font-size: 35px;"">本人</p>","i","categorize-html","20","118715","0.0-6.0-1.0-2.0-1.5","4","4","4","4","4","4","4","4","4","4","5","5","5","5","5","5","5","5","5","5","1","1","2","1","1","1","4","4","1","1","1","0","1","0","0","0","0","0","1","0","0","1","0","0","5","1","1","2","1","5","5","3","2","4","1","598842647070638080","刘","170","","","","","","","","","","","","","","","","","","","true","11","1","moral","436","self","本人","","","","","","","","","","","","","","","","",""
"null","","null","html-keyboard-response","21","118966","0.0-6.0-1.0-2.0-0.6","4","4","4","4","4","4","4","4","4","4","5","5","5","5","5","5","5","5","5","5","1","1","2","1","1","1","4","4","1","1","1","0","1","0","0","0","0","0","1","0","0","1","0","0","5","1","1","2","1","5","5","3","2","4","1","598842647070638080","刘","170","","","","","","","","","","","","","","","","","","","","","","","","","","","","","","","","","","","","","","","","","",""
"412","<p style=""color:rgb(150, 250, 100); font-size: 35px;"">他的</p>","e","categorize-html","22","119380","0.0-6.0-1.0-2.0-1.6","4","4","4","4","4","4","4","4","4","4","5","5","5","5","5","5","5","5","5","5","1","1","2","1","1","1","4","4","1","1","1","0","1","0","0","0","0","0","1","0","0","1","0","0","5","1","1","2","1","5","5","3","2","4","1","598842647070638080","刘","170","","","","","","","","","","","","","","","","","","","true","11","1","moral","412","other","他的","","","","","","","","","","","","","","","","",""
"null","","null","html-keyboard-response","23","119630","0.0-6.0-1.0-2.0-0.7","4","4","4","4","4","4","4","4","4","4","5","5","5","5","5","5","5","5","5","5","1","1","2","1","1","1","4","4","1","1","1","0","1","0","0","0","0","0","1","0","0","1","0","0","5","1","1","2","1","5","5","3","2","4","1","598842647070638080","刘","170","","","","","","","","","","","","","","","","","","","","","","","","","","","","","","","","","","","","","","","","","",""
"461","<p style=""color:rgb(150, 250, 100); font-size: 35px;"">别人的</p>","e","categorize-html","24","120091","0.0-6.0-1.0-2.0-1.7","4","4","4","4","4","4","4","4","4","4","5","5","5","5","5","5","5","5","5","5","1","1","2","1","1","1","4","4","1","1","1","0","1","0","0","0","0","0","1","0","0","1","0","0","5","1","1","2","1","5","5","3","2","4","1","598842647070638080","刘","170","","","","","","","","","","","","","","","","","","","true","11","1","moral","461","other","别人的","","","","","","","","","","","","","","","","",""
"null","","null","html-keyboard-response","25","120343","0.0-6.0-1.0-2.0-0.8","4","4","4","4","4","4","4","4","4","4","5","5","5","5","5","5","5","5","5","5","1","1","2","1","1","1","4","4","1","1","1","0","1","0","0","0","0","0","1","0","0","1","0","0","5","1","1","2","1","5","5","3","2","4","1","598842647070638080","刘","170","","","","","","","","","","","","","","","","","","","","","","","","","","","","","","","","","","","","","","","","","",""
"612","<p style=""color:rgb(150, 250, 100); font-size: 35px;"">他人</p>","e","categorize-html","26","120956","0.0-6.0-1.0-2.0-1.8","4","4","4","4","4","4","4","4","4","4","5","5","5","5","5","5","5","5","5","5","1","1","2","1","1","1","4","4","1","1","1","0","1","0","0","0","0","0","1","0","0","1","0","0","5","1","1","2","1","5","5","3","2","4","1","598842647070638080","刘","170","","","","","","","","","","","","","","","","","","","true","11","1","moral","612","other","他人","","","","","","","","","","","","","","","","",""
"null","","null","html-keyboard-response","27","121207","0.0-6.0-1.0-2.0-0.9","4","4","4","4","4","4","4","4","4","4","5","5","5","5","5","5","5","5","5","5","1","1","2","1","1","1","4","4","1","1","1","0","1","0","0","0","0","0","1","0","0","1","0","0","5","1","1","2","1","5","5","3","2","4","1","598842647070638080","刘","170","","","","","","","","","","","","","","","","","","","","","","","","","","","","","","","","","","","","","","","","","",""
"532","<p style=""color:rgb(150, 250, 100); font-size: 35px;"">我</p>","i","categorize-html","28","121740","0.0-6.0-1.0-2.0-1.9","4","4","4","4","4","4","4","4","4","4","5","5","5","5","5","5","5","5","5","5","1","1","2","1","1","1","4","4","1","1","1","0","1","0","0","0","0","0","1","0","0","1","0","0","5","1","1","2","1","5","5","3","2","4","1","598842647070638080","刘","170","","","","","","","","","","","","","","","","","","","true","11","1","moral","532","self","我","","","","","","","","","","","","","","","","",""
"null","","null","html-keyboard-response","29","121990","0.0-6.0-1.0-2.0-0.10","4","4","4","4","4","4","4","4","4","4","5","5","5","5","5","5","5","5","5","5","1","1","2","1","1","1","4","4","1","1","1","0","1","0","0","0","0","0","1","0","0","1","0","0","5","1","1","2","1","5","5","3","2","4","1","598842647070638080","刘","170","","","","","","","","","","","","","","","","","","","","","","","","","","","","","","","","","","","","","","","","","",""
"580","<p style=""color:rgb(150, 250, 100); font-size: 35px;"">他</p>","e","categorize-html","30","122571","0.0-6.0-1.0-2.0-1.10","4","4","4","4","4","4","4","4","4","4","5","5","5","5","5","5","5","5","5","5","1","1","2","1","1","1","4","4","1","1","1","0","1","0","0","0","0","0","1","0","0","1","0","0","5","1","1","2","1","5","5","3","2","4","1","598842647070638080","刘","170","","","","","","","","","","","","","","","","","","","true","11","1","moral","580","other","他","","","","","","","","","","","","","","","","",""
"null","","null","html-keyboard-response","31","122822","0.0-6.0-1.0-2.0-0.11","4","4","4","4","4","4","4","4","4","4","5","5","5","5","5","5","5","5","5","5","1","1","2","1","1","1","4","4","1","1","1","0","1","0","0","0","0","0","1","0","0","1","0","0","5","1","1","2","1","5","5","3","2","4","1","598842647070638080","刘","170","","","","","","","","","","","","","","","","","","","","","","","","","","","","","","","","","","","","","","","","","",""
"1037","<p style=""color:rgb(150, 250, 100); font-size: 35px;"">别人</p>","e","categorize-html","32","123860","0.0-6.0-1.0-2.0-1.11","4","4","4","4","4","4","4","4","4","4","5","5","5","5","5","5","5","5","5","5","1","1","2","1","1","1","4","4","1","1","1","0","1","0","0","0","0","0","1","0","0","1","0","0","5","1","1","2","1","5","5","3","2","4","1","598842647070638080","刘","170","","","","","","","","","","","","","","","","","","","true","11","1","moral","1037","other","别人","","","","","","","","","","","","","","","","",""
"1695","
    <div class=""tag-bottom""><p>
    —— 任务2：对“消极”词和“积极”词分类 ——<p/>   
    <span style=""color:#78DCE8""><b>注意上方，类别标签和需要分类的词语都已经改变</b></span><p/>
    <span style=""color:#FFD866""><b>请根据上方标签的提示，尽可能正确并且快速地做出按键反应</b></span><p/>
    当按键错误时屏幕中会出现<span style=""color:red""> X </span>，需要按另一个键纠正才能继续<br/><p/>
    请把双手食指分别放在键盘的“E”键和“I”键上<p/>
    按<空格键>开始
    </p></div>"," ","html-keyboard-response","33","125554","0.0-6.0-1.0-3.0","4","4","4","4","4","4","4","4","4","4","5","5","5","5","5","5","5","5","5","5","1","1","2","1","1","1","4","4","1","1","1","0","1","0","0","0","0","0","1","0","0","1","0","0","5","1","1","2","1","5","5","3","2","4","1","598842647070638080","刘","170","","","","","","","","","","","","","","","","","","","","","","","","","","","","","","","","","","","","","","","","","",""
"null","","null","html-keyboard-response","34","125805","0.0-6.0-1.0-4.0-0.0","4","4","4","4","4","4","4","4","4","4","5","5","5","5","5","5","5","5","5","5","1","1","2","1","1","1","4","4","1","1","1","0","1","0","0","0","0","0","1","0","0","1","0","0","5","1","1","2","1","5","5","3","2","4","1","598842647070638080","刘","170","","","","","","","","","","","","","","","","","","","","","","","","","","","","","","","","","","","","","","","","","",""
"557","<p style=""color:white; font-size: 35px;"">廉正</p>","i","categorize-html","35","126364","0.0-6.0-1.0-4.0-1.0","4","4","4","4","4","4","4","4","4","4","5","5","5","5","5","5","5","5","5","5","1","1","2","1","1","1","4","4","1","1","1","0","1","0","0","0","0","0","1","0","0","1","0","0","5","1","1","2","1","5","5","3","2","4","1","598842647070638080","刘","170","","","","","","","","","","","","","","","","","","","true","12","2","moral","557","positive","廉正","","","","","","","","","","","","","","","","",""
"null","","null","html-keyboard-response","36","126616","0.0-6.0-1.0-4.0-0.1","4","4","4","4","4","4","4","4","4","4","5","5","5","5","5","5","5","5","5","5","1","1","2","1","1","1","4","4","1","1","1","0","1","0","0","0","0","0","1","0","0","1","0","0","5","1","1","2","1","5","5","3","2","4","1","598842647070638080","刘","170","","","","","","","","","","","","","","","","","","","","","","","","","","","","","","","","","","","","","","","","","",""
"451","<p style=""color:white; font-size: 35px;"">善良</p>","i","categorize-html","37","127068","0.0-6.0-1.0-4.0-1.1","4","4","4","4","4","4","4","4","4","4","5","5","5","5","5","5","5","5","5","5","1","1","2","1","1","1","4","4","1","1","1","0","1","0","0","0","0","0","1","0","0","1","0","0","5","1","1","2","1","5","5","3","2","4","1","598842647070638080","刘","170","","","","","","","","","","","","","","","","","","","true","12","2","moral","451","positive","善良","","","","","","","","","","","","","","","","",""
"null","","null","html-keyboard-response","38","127320","0.0-6.0-1.0-4.0-0.2","4","4","4","4","4","4","4","4","4","4","5","5","5","5","5","5","5","5","5","5","1","1","2","1","1","1","4","4","1","1","1","0","1","0","0","0","0","0","1","0","0","1","0","0","5","1","1","2","1","5","5","3","2","4","1","598842647070638080","刘","170","","","","","","","","","","","","","","","","","","","","","","","","","","","","","","","","","","","","","","","","","",""
"395","<p style=""color:white; font-size: 35px;"">正直</p>","i","categorize-html","39","127715","0.0-6.0-1.0-4.0-1.2","4","4","4","4","4","4","4","4","4","4","5","5","5","5","5","5","5","5","5","5","1","1","2","1","1","1","4","4","1","1","1","0","1","0","0","0","0","0","1","0","0","1","0","0","5","1","1","2","1","5","5","3","2","4","1","598842647070638080","刘","170","","","","","","","","","","","","","","","","","","","true","12","2","moral","395","positive","正直","","","","","","","","","","","","","","","","",""
"null","","null","html-keyboard-response","40","127966","0.0-6.0-1.0-4.0-0.3","4","4","4","4","4","4","4","4","4","4","5","5","5","5","5","5","5","5","5","5","1","1","2","1","1","1","4","4","1","1","1","0","1","0","0","0","0","0","1","0","0","1","0","0","5","1","1","2","1","5","5","3","2","4","1","598842647070638080","刘","170","","","","","","","","","","","","","","","","","","","","","","","","","","","","","","","","","","","","","","","","","",""
"516","<p style=""color:white; font-size: 35px;"">君子</p>","i","categorize-html","41","128483","0.0-6.0-1.0-4.0-1.3","4","4","4","4","4","4","4","4","4","4","5","5","5","5","5","5","5","5","5","5","1","1","2","1","1","1","4","4","1","1","1","0","1","0","0","0","0","0","1","0","0","1","0","0","5","1","1","2","1","5","5","3","2","4","1","598842647070638080","刘","170","","","","","","","","","","","","","","","","","","","true","12","2","moral","516","positive","君子","","","","","","","","","","","","","","","","",""
"null","","null","html-keyboard-response","42","128734","0.0-6.0-1.0-4.0-0.4","4","4","4","4","4","4","4","4","4","4","5","5","5","5","5","5","5","5","5","5","1","1","2","1","1","1","4","4","1","1","1","0","1","0","0","0","0","0","1","0","0","1","0","0","5","1","1","2","1","5","5","3","2","4","1","598842647070638080","刘","170","","","","","","","","","","","","","","","","","","","","","","","","","","","","","","","","","","","","","","","","","",""
"516","<p style=""color:white; font-size: 35px;"">不仁</p>","e","categorize-html","43","129251","0.0-6.0-1.0-4.0-1.4","4","4","4","4","4","4","4","4","4","4","5","5","5","5","5","5","5","5","5","5","1","1","2","1","1","1","4","4","1","1","1","0","1","0","0","0","0","0","1","0","0","1","0","0","5","1","1","2","1","5","5","3","2","4","1","598842647070638080","刘","170","","","","","","","","","","","","","","","","","","","true","12","2","moral","516","negative","不仁","","","","","","","","","","","","","","","","",""
"null","","null","html-keyboard-response","44","129501","0.0-6.0-1.0-4.0-0.5","4","4","4","4","4","4","4","4","4","4","5","5","5","5","5","5","5","5","5","5","1","1","2","1","1","1","4","4","1","1","1","0","1","0","0","0","0","0","1","0","0","1","0","0","5","1","1","2","1","5","5","3","2","4","1","598842647070638080","刘","170","","","","","","","","","","","","","","","","","","","","","","","","","","","","","","","","","","","","","","","","","",""
"509","<p style=""color:white; font-size: 35px;"">小人</p>","e","categorize-html","45","130011","0.0-6.0-1.0-4.0-1.5","4","4","4","4","4","4","4","4","4","4","5","5","5","5","5","5","5","5","5","5","1","1","2","1","1","1","4","4","1","1","1","0","1","0","0","0","0","0","1","0","0","1","0","0","5","1","1","2","1","5","5","3","2","4","1","598842647070638080","刘","170","","","","","","","","","","","","","","","","","","","true","12","2","moral","509","negative","小人","","","","","","","","","","","","","","","","",""
"null","","null","html-keyboard-response","46","130262","0.0-6.0-1.0-4.0-0.6","4","4","4","4","4","4","4","4","4","4","5","5","5","5","5","5","5","5","5","5","1","1","2","1","1","1","4","4","1","1","1","0","1","0","0","0","0","0","1","0","0","1","0","0","5","1","1","2","1","5","5","3","2","4","1","598842647070638080","刘","170","","","","","","","","","","","","","","","","","","","","","","","","","","","","","","","","","","","","","","","","","",""
"596","<p style=""color:white; font-size: 35px;"">黑心</p>","e","categorize-html","47","130859","0.0-6.0-1.0-4.0-1.6","4","4","4","4","4","4","4","4","4","4","5","5","5","5","5","5","5","5","5","5","1","1","2","1","1","1","4","4","1","1","1","0","1","0","0","0","0","0","1","0","0","1","0","0","5","1","1","2","1","5","5","3","2","4","1","598842647070638080","刘","170","","","","","","","","","","","","","","","","","","","true","12","2","moral","596","negative","黑心","","","","","","","","","","","","","","","","",""
"null","","null","html-keyboard-response","48","131110","0.0-6.0-1.0-4.0-0.7","4","4","4","4","4","4","4","4","4","4","5","5","5","5","5","5","5","5","5","5","1","1","2","1","1","1","4","4","1","1","1","0","1","0","0","0","0","0","1","0","0","1","0","0","5","1","1","2","1","5","5","3","2","4","1","598842647070638080","刘","170","","","","","","","","","","","","","","","","","","","","","","","","","","","","","","","","","","","","","","","","","",""
"852","<p style=""color:white; font-size: 35px;"">诚信</p>","i","categorize-html","49","131964","0.0-6.0-1.0-4.0-1.7","4","4","4","4","4","4","4","4","4","4","5","5","5","5","5","5","5","5","5","5","1","1","2","1","1","1","4","4","1","1","1","0","1","0","0","0","0","0","1","0","0","1","0","0","5","1","1","2","1","5","5","3","2","4","1","598842647070638080","刘","170","","","","","","","","","","","","","","","","","","","true","12","2","moral","852","positive","诚信","","","","","","","","","","","","","","","","",""
"null","","null","html-keyboard-response","50","132214","0.0-6.0-1.0-4.0-0.8","4","4","4","4","4","4","4","4","4","4","5","5","5","5","5","5","5","5","5","5","1","1","2","1","1","1","4","4","1","1","1","0","1","0","0","0","0","0","1","0","0","1","0","0","5","1","1","2","1","5","5","3","2","4","1","598842647070638080","刘","170","","","","","","","","","","","","","","","","","","","","","","","","","","","","","","","","","","","","","","","","","",""
"589","<p style=""color:white; font-size: 35px;"">卑鄙</p>","e","categorize-html","51","132805","0.0-6.0-1.0-4.0-1.8","4","4","4","4","4","4","4","4","4","4","5","5","5","5","5","5","5","5","5","5","1","1","2","1","1","1","4","4","1","1","1","0","1","0","0","0","0","0","1","0","0","1","0","0","5","1","1","2","1","5","5","3","2","4","1","598842647070638080","刘","170","","","","","","","","","","","","","","","","","","","true","12","2","moral","589","negative","卑鄙","","","","","","","","","","","","","","","","",""
"null","","null","html-keyboard-response","52","133056","0.0-6.0-1.0-4.0-0.9","4","4","4","4","4","4","4","4","4","4","5","5","5","5","5","5","5","5","5","5","1","1","2","1","1","1","4","4","1","1","1","0","1","0","0","0","0","0","1","0","0","1","0","0","5","1","1","2","1","5","5","3","2","4","1","598842647070638080","刘","170","","","","","","","","","","","","","","","","","","","","","","","","","","","","","","","","","","","","","","","","","",""
"651","<p style=""color:white; font-size: 35px;"">高尚</p>","i","categorize-html","53","133707","0.0-6.0-1.0-4.0-1.9","4","4","4","4","4","4","4","4","4","4","5","5","5","5","5","5","5","5","5","5","1","1","2","1","1","1","4","4","1","1","1","0","1","0","0","0","0","0","1","0","0","1","0","0","5","1","1","2","1","5","5","3","2","4","1","598842647070638080","刘","170","","","","","","","","","","","","","","","","","","","true","12","2","moral","651","positive","高尚","","","","","","","","","","","","","","","","",""
"null","","null","html-keyboard-response","54","133958","0.0-6.0-1.0-4.0-0.10","4","4","4","4","4","4","4","4","4","4","5","5","5","5","5","5","5","5","5","5","1","1","2","1","1","1","4","4","1","1","1","0","1","0","0","0","0","0","1","0","0","1","0","0","5","1","1","2","1","5","5","3","2","4","1","598842647070638080","刘","170","","","","","","","","","","","","","","","","","","","","","","","","","","","","","","","","","","","","","","","","","",""
"596","<p style=""color:white; font-size: 35px;"">缺德</p>","e","categorize-html","55","134555","0.0-6.0-1.0-4.0-1.10","4","4","4","4","4","4","4","4","4","4","5","5","5","5","5","5","5","5","5","5","1","1","2","1","1","1","4","4","1","1","1","0","1","0","0","0","0","0","1","0","0","1","0","0","5","1","1","2","1","5","5","3","2","4","1","598842647070638080","刘","170","","","","","","","","","","","","","","","","","","","true","12","2","moral","596","negative","缺德","","","","","","","","","","","","","","","","",""
"null","","null","html-keyboard-response","56","134806","0.0-6.0-1.0-4.0-0.11","4","4","4","4","4","4","4","4","4","4","5","5","5","5","5","5","5","5","5","5","1","1","2","1","1","1","4","4","1","1","1","0","1","0","0","0","0","0","1","0","0","1","0","0","5","1","1","2","1","5","5","3","2","4","1","598842647070638080","刘","170","","","","","","","","","","","","","","","","","","","","","","","","","","","","","","","","","","","","","","","","","",""
"477","<p style=""color:white; font-size: 35px;"">不孝</p>","e","categorize-html","57","135283","0.0-6.0-1.0-4.0-1.11","4","4","4","4","4","4","4","4","4","4","5","5","5","5","5","5","5","5","5","5","1","1","2","1","1","1","4","4","1","1","1","0","1","0","0","0","0","0","1","0","0","1","0","0","5","1","1","2","1","5","5","3","2","4","1","598842647070638080","刘","170","","","","","","","","","","","","","","","","","","","true","12","2","moral","477","negative","不孝","","","","","","","","","","","","","","","","",""
"991","
    <div class=""tag-bottom""><p>
    —— 任务3：对“他人/消极”词和“自我/积极”词分类 ——<p/>
    <span style=""color:#78DCE8""><b>注意上方，之前的四类词语将混合在一起交替呈现</b></span><p/>
    <span style=""color:#FFD866""><b>请根据上方标签的提示，尽可能正确并且快速地做出按键反应</b></span><p/>
    当按键错误时屏幕中会出现<span style=""color:red""> X </span>，需要按另一个键纠正才能继续<br/><p/>
    请把双手食指分别放在键盘的“E”键和“I”键上<p/>
    按<空格键>开始
    </p></div>"," ","html-keyboard-response","58","136275","0.0-6.0-1.0-5.0","4","4","4","4","4","4","4","4","4","4","5","5","5","5","5","5","5","5","5","5","1","1","2","1","1","1","4","4","1","1","1","0","1","0","0","0","0","0","1","0","0","1","0","0","5","1","1","2","1","5","5","3","2","4","1","598842647070638080","刘","170","","","","","","","","","","","","","","","","","","","","","","","","","","","","","","","","","","","","","","","","","",""
"null","","null","html-keyboard-response","59","136526","0.0-6.0-1.0-6.0-0.0","4","4","4","4","4","4","4","4","4","4","5","5","5","5","5","5","5","5","5","5","1","1","2","1","1","1","4","4","1","1","1","0","1","0","0","0","0","0","1","0","0","1","0","0","5","1","1","2","1","5","5","3","2","4","1","598842647070638080","刘","170","","","","","","","","","","","","","","","","","","","","","","","","","","","","","","","","","","","","","","","","","",""
"404","<p style=""color:rgb(150, 250, 100); font-size: 35px;"">我的</p>","i","categorize-html","60","136931","0.0-6.0-1.0-6.0-1.0","4","4","4","4","4","4","4","4","4","4","5","5","5","5","5","5","5","5","5","5","1","1","2","1","1","1","4","4","1","1","1","0","1","0","0","0","0","0","1","0","0","1","0","0","5","1","1","2","1","5","5","3","2","4","1","598842647070638080","刘","170","","","","","","","","","","","","","","","","","","","true","13","3","moral","404","self","我的","","","","","","","","","","","","","","","","",""
"null","","null","html-keyboard-response","61","137183","0.0-6.0-1.0-6.0-0.1","4","4","4","4","4","4","4","4","4","4","5","5","5","5","5","5","5","5","5","5","1","1","2","1","1","1","4","4","1","1","1","0","1","0","0","0","0","0","1","0","0","1","0","0","5","1","1","2","1","5","5","3","2","4","1","598842647070638080","刘","170","","","","","","","","","","","","","","","","","","","","","","","","","","","","","","","","","","","","","","","","","",""
"462","<p style=""color:white; font-size: 35px;"">善良</p>","i","categorize-html","62","137646","0.0-6.0-1.0-6.0-1.1","4","4","4","4","4","4","4","4","4","4","5","5","5","5","5","5","5","5","5","5","1","1","2","1","1","1","4","4","1","1","1","0","1","0","0","0","0","0","1","0","0","1","0","0","5","1","1","2","1","5","5","3","2","4","1","598842647070638080","刘","170","","","","","","","","","","","","","","","","","","","true","13","3","moral","462","positive","善良","","","","","","","","","","","","","","","","",""
"null","","null","html-keyboard-response","63","137896","0.0-6.0-1.0-6.0-0.2","4","4","4","4","4","4","4","4","4","4","5","5","5","5","5","5","5","5","5","5","1","1","2","1","1","1","4","4","1","1","1","0","1","0","0","0","0","0","1","0","0","1","0","0","5","1","1","2","1","5","5","3","2","4","1","598842647070638080","刘","170","","","","","","","","","","","","","","","","","","","","","","","","","","","","","","","","","","","","","","","","","",""
"498","<p style=""color:rgb(150, 250, 100); font-size: 35px;"">他人</p>","e","categorize-html","64","138395","0.0-6.0-1.0-6.0-1.2","4","4","4","4","4","4","4","4","4","4","5","5","5","5","5","5","5","5","5","5","1","1","2","1","1","1","4","4","1","1","1","0","1","0","0","0","0","0","1","0","0","1","0","0","5","1","1","2","1","5","5","3","2","4","1","598842647070638080","刘","170","","","","","","","","","","","","","","","","","","","true","13","3","moral","498","other","他人","","","","","","","","","","","","","","","","",""
"null","","null","html-keyboard-response","65","138646","0.0-6.0-1.0-6.0-0.3","4","4","4","4","4","4","4","4","4","4","5","5","5","5","5","5","5","5","5","5","1","1","2","1","1","1","4","4","1","1","1","0","1","0","0","0","0","0","1","0","0","1","0","0","5","1","1","2","1","5","5","3","2","4","1","598842647070638080","刘","170","","","","","","","","","","","","","","","","","","","","","","","","","","","","","","","","","","","","","","","","","",""
"437","<p style=""color:white; font-size: 35px;"">不仁</p>","e","categorize-html","66","139084","0.0-6.0-1.0-6.0-1.3","4","4","4","4","4","4","4","4","4","4","5","5","5","5","5","5","5","5","5","5","1","1","2","1","1","1","4","4","1","1","1","0","1","0","0","0","0","0","1","0","0","1","0","0","5","1","1","2","1","5","5","3","2","4","1","598842647070638080","刘","170","","","","","","","","","","","","","","","","","","","true","13","3","moral","437","negative","不仁","","","","","","","","","","","","","","","","",""
"null","","null","html-keyboard-response","67","139335","0.0-6.0-1.0-6.0-0.4","4","4","4","4","4","4","4","4","4","4","5","5","5","5","5","5","5","5","5","5","1","1","2","1","1","1","4","4","1","1","1","0","1","0","0","0","0","0","1","0","0","1","0","0","5","1","1","2","1","5","5","3","2","4","1","598842647070638080","刘","170","","","","","","","","","","","","","","","","","","","","","","","","","","","","","","","","","","","","","","","","","",""
"499","<p style=""color:rgb(150, 250, 100); font-size: 35px;"">别人的</p>","e","categorize-html","68","139835","0.0-6.0-1.0-6.0-1.4","4","4","4","4","4","4","4","4","4","4","5","5","5","5","5","5","5","5","5","5","1","1","2","1","1","1","4","4","1","1","1","0","1","0","0","0","0","0","1","0","0","1","0","0","5","1","1","2","1","5","5","3","2","4","1","598842647070638080","刘","170","","","","","","","","","","","","","","","","","","","true","13","3","moral","499","other","别人的","","","","","","","","","","","","","","","","",""
"null","","null","html-keyboard-response","69","140086","0.0-6.0-1.0-6.0-0.5","4","4","4","4","4","4","4","4","4","4","5","5","5","5","5","5","5","5","5","5","1","1","2","1","1","1","4","4","1","1","1","0","1","0","0","0","0","0","1","0","0","1","0","0","5","1","1","2","1","5","5","3","2","4","1","598842647070638080","刘","170","","","","","","","","","","","","","","","","","","","","","","","","","","","","","","","","","","","","","","","","","",""
"549","<p style=""color:white; font-size: 35px;"">诚信</p>","i","categorize-html","70","140635","0.0-6.0-1.0-6.0-1.5","4","4","4","4","4","4","4","4","4","4","5","5","5","5","5","5","5","5","5","5","1","1","2","1","1","1","4","4","1","1","1","0","1","0","0","0","0","0","1","0","0","1","0","0","5","1","1","2","1","5","5","3","2","4","1","598842647070638080","刘","170","","","","","","","","","","","","","","","","","","","true","13","3","moral","549","positive","诚信","","","","","","","","","","","","","","","","",""
"null","","null","html-keyboard-response","71","140887","0.0-6.0-1.0-6.0-0.6","4","4","4","4","4","4","4","4","4","4","5","5","5","5","5","5","5","5","5","5","1","1","2","1","1","1","4","4","1","1","1","0","1","0","0","0","0","0","1","0","0","1","0","0","5","1","1","2","1","5","5","3","2","4","1","598842647070638080","刘","170","","","","","","","","","","","","","","","","","","","","","","","","","","","","","","","","","","","","","","","","","",""
"979","<p style=""color:rgb(150, 250, 100); font-size: 35px;"">本人</p>","i","categorize-html","72","141867","0.0-6.0-1.0-6.0-1.6","4","4","4","4","4","4","4","4","4","4","5","5","5","5","5","5","5","5","5","5","1","1","2","1","1","1","4","4","1","1","1","0","1","0","0","0","0","0","1","0","0","1","0","0","5","1","1","2","1","5","5","3","2","4","1","598842647070638080","刘","170","","","","","","","","","","","","","","","","","","","true","13","3","moral","979","self","本人","","","","","","","","","","","","","","","","",""
"null","","null","html-keyboard-response","73","142119","0.0-6.0-1.0-6.0-0.7","4","4","4","4","4","4","4","4","4","4","5","5","5","5","5","5","5","5","5","5","1","1","2","1","1","1","4","4","1","1","1","0","1","0","0","0","0","0","1","0","0","1","0","0","5","1","1","2","1","5","5","3","2","4","1","598842647070638080","刘","170","","","","","","","","","","","","","","","","","","","","","","","","","","","","","","","","","","","","","","","","","",""
"828","<p style=""color:white; font-size: 35px;"">小人</p>","e","categorize-html","74","142948","0.0-6.0-1.0-6.0-1.7","4","4","4","4","4","4","4","4","4","4","5","5","5","5","5","5","5","5","5","5","1","1","2","1","1","1","4","4","1","1","1","0","1","0","0","0","0","0","1","0","0","1","0","0","5","1","1","2","1","5","5","3","2","4","1","598842647070638080","刘","170","","","","","","","","","","","","","","","","","","","true","13","3","moral","828","negative","小人","","","","","","","","","","","","","","","","",""
"null","","null","html-keyboard-response","75","143199","0.0-6.0-1.0-6.0-0.8","4","4","4","4","4","4","4","4","4","4","5","5","5","5","5","5","5","5","5","5","1","1","2","1","1","1","4","4","1","1","1","0","1","0","0","0","0","0","1","0","0","1","0","0","5","1","1","2","1","5","5","3","2","4","1","598842647070638080","刘","170","","","","","","","","","","","","","","","","","","","","","","","","","","","","","","","","","","","","","","","","","",""
"900","<p style=""color:rgb(150, 250, 100); font-size: 35px;"">自己</p>","i","categorize-html","76","144099","0.0-6.0-1.0-6.0-1.8","4","4","4","4","4","4","4","4","4","4","5","5","5","5","5","5","5","5","5","5","1","1","2","1","1","1","4","4","1","1","1","0","1","0","0","0","0","0","1","0","0","1","0","0","5","1","1","2","1","5","5","3","2","4","1","598842647070638080","刘","170","","","","","","","","","","","","","","","","","","","true","13","3","moral","900","self","自己","","","","","","","","","","","","","","","","",""
"null","","null","html-keyboard-response","77","144352","0.0-6.0-1.0-6.0-0.9","4","4","4","4","4","4","4","4","4","4","5","5","5","5","5","5","5","5","5","5","1","1","2","1","1","1","4","4","1","1","1","0","1","0","0","0","0","0","1","0","0","1","0","0","5","1","1","2","1","5","5","3","2","4","1","598842647070638080","刘","170","","","","","","","","","","","","","","","","","","","","","","","","","","","","","","","","","","","","","","","","","",""
"875","<p style=""color:white; font-size: 35px;"">黑心</p>","e","categorize-html","78","145228","0.0-6.0-1.0-6.0-1.9","4","4","4","4","4","4","4","4","4","4","5","5","5","5","5","5","5","5","5","5","1","1","2","1","1","1","4","4","1","1","1","0","1","0","0","0","0","0","1","0","0","1","0","0","5","1","1","2","1","5","5","3","2","4","1","598842647070638080","刘","170","","","","","","","","","","","","","","","","","","","true","13","3","moral","875","negative","黑心","","","","","","","","","","","","","","","","",""
"null","","null","html-keyboard-response","79","145479","0.0-6.0-1.0-6.0-0.10","4","4","4","4","4","4","4","4","4","4","5","5","5","5","5","5","5","5","5","5","1","1","2","1","1","1","4","4","1","1","1","0","1","0","0","0","0","0","1","0","0","1","0","0","5","1","1","2","1","5","5","3","2","4","1","598842647070638080","刘","170","","","","","","","","","","","","","","","","","","","","","","","","","","","","","","","","","","","","","","","","","",""
"515","<p style=""color:rgb(150, 250, 100); font-size: 35px;"">他人的</p>","e","categorize-html","80","145995","0.0-6.0-1.0-6.0-1.10","4","4","4","4","4","4","4","4","4","4","5","5","5","5","5","5","5","5","5","5","1","1","2","1","1","1","4","4","1","1","1","0","1","0","0","0","0","0","1","0","0","1","0","0","5","1","1","2","1","5","5","3","2","4","1","598842647070638080","刘","170","","","","","","","","","","","","","","","","","","","true","13","3","moral","515","other","他人的","","","","","","","","","","","","","","","","",""
"null","","null","html-keyboard-response","81","146247","0.0-6.0-1.0-6.0-0.11","4","4","4","4","4","4","4","4","4","4","5","5","5","5","5","5","5","5","5","5","1","1","2","1","1","1","4","4","1","1","1","0","1","0","0","0","0","0","1","0","0","1","0","0","5","1","1","2","1","5","5","3","2","4","1","598842647070638080","刘","170","","","","","","","","","","","","","","","","","","","","","","","","","","","","","","","","","","","","","","","","","",""
"644","<p style=""color:white; font-size: 35px;"">廉正</p>","e","categorize-html","82","147251","0.0-6.0-1.0-6.0-1.11","4","4","4","4","4","4","4","4","4","4","5","5","5","5","5","5","5","5","5","5","1","1","2","1","1","1","4","4","1","1","1","0","1","0","0","0","0","0","1","0","0","1","0","0","5","1","1","2","1","5","5","3","2","4","1","598842647070638080","刘","170","","","","","","","","","","","","","","","","","","","false","13","3","moral","1195.4347826086955","positive","廉正","","","","","","","","","","","","","","","","",""
"null","","null","html-keyboard-response","83","147502","0.0-6.0-1.0-6.0-0.12","4","4","4","4","4","4","4","4","4","4","5","5","5","5","5","5","5","5","5","5","1","1","2","1","1","1","4","4","1","1","1","0","1","0","0","0","0","0","1","0","0","1","0","0","5","1","1","2","1","5","5","3","2","4","1","598842647070638080","刘","170","","","","","","","","","","","","","","","","","","","","","","","","","","","","","","","","","","","","","","","","","",""
"652","<p style=""color:rgb(150, 250, 100); font-size: 35px;"">他的</p>","e","categorize-html","84","148155","0.0-6.0-1.0-6.0-1.12","4","4","4","4","4","4","4","4","4","4","5","5","5","5","5","5","5","5","5","5","1","1","2","1","1","1","4","4","1","1","1","0","1","0","0","0","0","0","1","0","0","1","0","0","5","1","1","2","1","5","5","3","2","4","1","598842647070638080","刘","170","","","","","","","","","","","","","","","","","","","true","13","3","moral","652","other","他的","","","","","","","","","","","","","","","","",""
"null","","null","html-keyboard-response","85","148407","0.0-6.0-1.0-6.0-0.13","4","4","4","4","4","4","4","4","4","4","5","5","5","5","5","5","5","5","5","5","1","1","2","1","1","1","4","4","1","1","1","0","1","0","0","0","0","0","1","0","0","1","0","0","5","1","1","2","1","5","5","3","2","4","1","598842647070638080","刘","170","","","","","","","","","","","","","","","","","","","","","","","","","","","","","","","","","","","","","","","","","",""
"597","<p style=""color:white; font-size: 35px;"">君子</p>","i","categorize-html","86","149005","0.0-6.0-1.0-6.0-1.13","4","4","4","4","4","4","4","4","4","4","5","5","5","5","5","5","5","5","5","5","1","1","2","1","1","1","4","4","1","1","1","0","1","0","0","0","0","0","1","0","0","1","0","0","5","1","1","2","1","5","5","3","2","4","1","598842647070638080","刘","170","","","","","","","","","","","","","","","","","","","true","13","3","moral","597","positive","君子","","","","","","","","","","","","","","","","",""
"null","","null","html-keyboard-response","87","149256","0.0-6.0-1.0-6.0-0.14","4","4","4","4","4","4","4","4","4","4","5","5","5","5","5","5","5","5","5","5","1","1","2","1","1","1","4","4","1","1","1","0","1","0","0","0","0","0","1","0","0","1","0","0","5","1","1","2","1","5","5","3","2","4","1","598842647070638080","刘","170","","","","","","","","","","","","","","","","","","","","","","","","","","","","","","","","","","","","","","","","","",""
"538","<p style=""color:rgb(150, 250, 100); font-size: 35px;"">本人的</p>","i","categorize-html","88","149795","0.0-6.0-1.0-6.0-1.14","4","4","4","4","4","4","4","4","4","4","5","5","5","5","5","5","5","5","5","5","1","1","2","1","1","1","4","4","1","1","1","0","1","0","0","0","0","0","1","0","0","1","0","0","5","1","1","2","1","5","5","3","2","4","1","598842647070638080","刘","170","","","","","","","","","","","","","","","","","","","true","13","3","moral","538","self","本人的","","","","","","","","","","","","","","","","",""
"null","","null","html-keyboard-response","89","150046","0.0-6.0-1.0-6.0-0.15","4","4","4","4","4","4","4","4","4","4","5","5","5","5","5","5","5","5","5","5","1","1","2","1","1","1","4","4","1","1","1","0","1","0","0","0","0","0","1","0","0","1","0","0","5","1","1","2","1","5","5","3","2","4","1","598842647070638080","刘","170","","","","","","","","","","","","","","","","","","","","","","","","","","","","","","","","","","","","","","","","","",""
"605","<p style=""color:white; font-size: 35px;"">卑鄙</p>","e","categorize-html","90","150652","0.0-6.0-1.0-6.0-1.15","4","4","4","4","4","4","4","4","4","4","5","5","5","5","5","5","5","5","5","5","1","1","2","1","1","1","4","4","1","1","1","0","1","0","0","0","0","0","1","0","0","1","0","0","5","1","1","2","1","5","5","3","2","4","1","598842647070638080","刘","170","","","","","","","","","","","","","","","","","","","true","13","3","moral","605","negative","卑鄙","","","","","","","","","","","","","","","","",""
"null","","null","html-keyboard-response","91","150903","0.0-6.0-1.0-6.0-0.16","4","4","4","4","4","4","4","4","4","4","5","5","5","5","5","5","5","5","5","5","1","1","2","1","1","1","4","4","1","1","1","0","1","0","0","0","0","0","1","0","0","1","0","0","5","1","1","2","1","5","5","3","2","4","1","598842647070638080","刘","170","","","","","","","","","","","","","","","","","","","","","","","","","","","","","","","","","","","","","","","","","",""
"547","<p style=""color:rgb(150, 250, 100); font-size: 35px;"">自己的</p>","i","categorize-html","92","151451","0.0-6.0-1.0-6.0-1.16","4","4","4","4","4","4","4","4","4","4","5","5","5","5","5","5","5","5","5","5","1","1","2","1","1","1","4","4","1","1","1","0","1","0","0","0","0","0","1","0","0","1","0","0","5","1","1","2","1","5","5","3","2","4","1","598842647070638080","刘","170","","","","","","","","","","","","","","","","","","","true","13","3","moral","547","self","自己的","","","","","","","","","","","","","","","","",""
"null","","null","html-keyboard-response","93","151703","0.0-6.0-1.0-6.0-0.17","4","4","4","4","4","4","4","4","4","4","5","5","5","5","5","5","5","5","5","5","1","1","2","1","1","1","4","4","1","1","1","0","1","0","0","0","0","0","1","0","0","1","0","0","5","1","1","2","1","5","5","3","2","4","1","598842647070638080","刘","170","","","","","","","","","","","","","","","","","","","","","","","","","","","","","","","","","","","","","","","","","",""
"524","<p style=""color:white; font-size: 35px;"">高尚</p>","i","categorize-html","94","152227","0.0-6.0-1.0-6.0-1.17","4","4","4","4","4","4","4","4","4","4","5","5","5","5","5","5","5","5","5","5","1","1","2","1","1","1","4","4","1","1","1","0","1","0","0","0","0","0","1","0","0","1","0","0","5","1","1","2","1","5","5","3","2","4","1","598842647070638080","刘","170","","","","","","","","","","","","","","","","","","","true","13","3","moral","524","positive","高尚","","","","","","","","","","","","","","","","",""
"null","","null","html-keyboard-response","95","152480","0.0-6.0-1.0-6.0-0.18","4","4","4","4","4","4","4","4","4","4","5","5","5","5","5","5","5","5","5","5","1","1","2","1","1","1","4","4","1","1","1","0","1","0","0","0","0","0","1","0","0","1","0","0","5","1","1","2","1","5","5","3","2","4","1","598842647070638080","刘","170","","","","","","","","","","","","","","","","","","","","","","","","","","","","","","","","","","","","","","","","","",""
"571","<p style=""color:rgb(150, 250, 100); font-size: 35px;"">别人</p>","e","categorize-html","96","153051","0.0-6.0-1.0-6.0-1.18","4","4","4","4","4","4","4","4","4","4","5","5","5","5","5","5","5","5","5","5","1","1","2","1","1","1","4","4","1","1","1","0","1","0","0","0","0","0","1","0","0","1","0","0","5","1","1","2","1","5","5","3","2","4","1","598842647070638080","刘","170","","","","","","","","","","","","","","","","","","","true","13","3","moral","571","other","别人","","","","","","","","","","","","","","","","",""
"null","","null","html-keyboard-response","97","153303","0.0-6.0-1.0-6.0-0.19","4","4","4","4","4","4","4","4","4","4","5","5","5","5","5","5","5","5","5","5","1","1","2","1","1","1","4","4","1","1","1","0","1","0","0","0","0","0","1","0","0","1","0","0","5","1","1","2","1","5","5","3","2","4","1","598842647070638080","刘","170","","","","","","","","","","","","","","","","","","","","","","","","","","","","","","","","","","","","","","","","","",""
"524","<p style=""color:white; font-size: 35px;"">缺德</p>","e","categorize-html","98","153828","0.0-6.0-1.0-6.0-1.19","4","4","4","4","4","4","4","4","4","4","5","5","5","5","5","5","5","5","5","5","1","1","2","1","1","1","4","4","1","1","1","0","1","0","0","0","0","0","1","0","0","1","0","0","5","1","1","2","1","5","5","3","2","4","1","598842647070638080","刘","170","","","","","","","","","","","","","","","","","","","true","13","3","moral","524","negative","缺德","","","","","","","","","","","","","","","","",""
"null","","null","html-keyboard-response","99","154079","0.0-6.0-1.0-6.0-0.20","4","4","4","4","4","4","4","4","4","4","5","5","5","5","5","5","5","5","5","5","1","1","2","1","1","1","4","4","1","1","1","0","1","0","0","0","0","0","1","0","0","1","0","0","5","1","1","2","1","5","5","3","2","4","1","598842647070638080","刘","170","","","","","","","","","","","","","","","","","","","","","","","","","","","","","","","","","","","","","","","","","",""
"451","<p style=""color:rgb(150, 250, 100); font-size: 35px;"">我</p>","i","categorize-html","100","154531","0.0-6.0-1.0-6.0-1.20","4","4","4","4","4","4","4","4","4","4","5","5","5","5","5","5","5","5","5","5","1","1","2","1","1","1","4","4","1","1","1","0","1","0","0","0","0","0","1","0","0","1","0","0","5","1","1","2","1","5","5","3","2","4","1","598842647070638080","刘","170","","","","","","","","","","","","","","","","","","","true","13","3","moral","451","self","我","","","","","","","","","","","","","","","","",""
"null","","null","html-keyboard-response","101","154783","0.0-6.0-1.0-6.0-0.21","4","4","4","4","4","4","4","4","4","4","5","5","5","5","5","5","5","5","5","5","1","1","2","1","1","1","4","4","1","1","1","0","1","0","0","0","0","0","1","0","0","1","0","0","5","1","1","2","1","5","5","3","2","4","1","598842647070638080","刘","170","","","","","","","","","","","","","","","","","","","","","","","","","","","","","","","","","","","","","","","","","",""
"540","<p style=""color:white; font-size: 35px;"">不孝</p>","e","categorize-html","102","155324","0.0-6.0-1.0-6.0-1.21","4","4","4","4","4","4","4","4","4","4","5","5","5","5","5","5","5","5","5","5","1","1","2","1","1","1","4","4","1","1","1","0","1","0","0","0","0","0","1","0","0","1","0","0","5","1","1","2","1","5","5","3","2","4","1","598842647070638080","刘","170","","","","","","","","","","","","","","","","","","","true","13","3","moral","540","negative","不孝","","","","","","","","","","","","","","","","",""
"null","","null","html-keyboard-response","103","155575","0.0-6.0-1.0-6.0-0.22","4","4","4","4","4","4","4","4","4","4","5","5","5","5","5","5","5","5","5","5","1","1","2","1","1","1","4","4","1","1","1","0","1","0","0","0","0","0","1","0","0","1","0","0","5","1","1","2","1","5","5","3","2","4","1","598842647070638080","刘","170","","","","","","","","","","","","","","","","","","","","","","","","","","","","","","","","","","","","","","","","","",""
"564","<p style=""color:rgb(150, 250, 100); font-size: 35px;"">他</p>","e","categorize-html","104","156139","0.0-6.0-1.0-6.0-1.22","4","4","4","4","4","4","4","4","4","4","5","5","5","5","5","5","5","5","5","5","1","1","2","1","1","1","4","4","1","1","1","0","1","0","0","0","0","0","1","0","0","1","0","0","5","1","1","2","1","5","5","3","2","4","1","598842647070638080","刘","170","","","","","","","","","","","","","","","","","","","true","13","3","moral","564","other","他","","","","","","","","","","","","","","","","",""
"null","","null","html-keyboard-response","105","156390","0.0-6.0-1.0-6.0-0.23","4","4","4","4","4","4","4","4","4","4","5","5","5","5","5","5","5","5","5","5","1","1","2","1","1","1","4","4","1","1","1","0","1","0","0","0","0","0","1","0","0","1","0","0","5","1","1","2","1","5","5","3","2","4","1","598842647070638080","刘","170","","","","","","","","","","","","","","","","","","","","","","","","","","","","","","","","","","","","","","","","","",""
"636","<p style=""color:white; font-size: 35px;"">正直</p>","i","categorize-html","106","157027","0.0-6.0-1.0-6.0-1.23","4","4","4","4","4","4","4","4","4","4","5","5","5","5","5","5","5","5","5","5","1","1","2","1","1","1","4","4","1","1","1","0","1","0","0","0","0","0","1","0","0","1","0","0","5","1","1","2","1","5","5","3","2","4","1","598842647070638080","刘","170","","","","","","","","","","","","","","","","","","","true","13","3","moral","636","positive","正直","","","","","","","","","","","","","","","","",""
"12799","
    <div class=""tag-bottom""><p>
    —— 任务4：对“他人/消极”词和“自我/积极”词分类 ——<p/>
    <span style=""color:#78DCE8""><b>与刚才的任务完全相同，请再次对这四类词语分类</b></span><p/>
    <span style=""color:#FFD866""><b>请根据上方标签的提示，尽可能正确并且快速地做出按键反应</b></span><p/>
    当按键错误时屏幕中会出现<span style=""color:red""> X </span>，需要按另一个键纠正才能继续<br/><p/>
    请把双手食指分别放在键盘的“E”键和“I”键上<p/>
    按<空格键>开始
    </p></div>"," ","html-keyboard-response","107","169827","0.0-6.0-1.0-7.0","4","4","4","4","4","4","4","4","4","4","5","5","5","5","5","5","5","5","5","5","1","1","2","1","1","1","4","4","1","1","1","0","1","0","0","0","0","0","1","0","0","1","0","0","5","1","1","2","1","5","5","3","2","4","1","598842647070638080","刘","170","","","","","","","","","","","","","","","","","","","","","","","","","","","","","","","","","","","","","","","","","",""
"null","","null","html-keyboard-response","108","170078","0.0-6.0-1.0-8.0-0.0","4","4","4","4","4","4","4","4","4","4","5","5","5","5","5","5","5","5","5","5","1","1","2","1","1","1","4","4","1","1","1","0","1","0","0","0","0","0","1","0","0","1","0","0","5","1","1","2","1","5","5","3","2","4","1","598842647070638080","刘","170","","","","","","","","","","","","","","","","","","","","","","","","","","","","","","","","","","","","","","","","","",""
"708","<p style=""color:rgb(150, 250, 100); font-size: 35px;"">我的</p>","i","categorize-html","109","170787","0.0-6.0-1.0-8.0-1.0","4","4","4","4","4","4","4","4","4","4","5","5","5","5","5","5","5","5","5","5","1","1","2","1","1","1","4","4","1","1","1","0","1","0","0","0","0","0","1","0","0","1","0","0","5","1","1","2","1","5","5","3","2","4","1","598842647070638080","刘","170","","","","","","","","","","","","","","","","","","","true","14","4","moral","708","self","我的","","","","","","","","","","","","","","","","",""
"null","","null","html-keyboard-response","110","171038","0.0-6.0-1.0-8.0-0.1","4","4","4","4","4","4","4","4","4","4","5","5","5","5","5","5","5","5","5","5","1","1","2","1","1","1","4","4","1","1","1","0","1","0","0","0","0","0","1","0","0","1","0","0","5","1","1","2","1","5","5","3","2","4","1","598842647070638080","刘","170","","","","","","","","","","","","","","","","","","","","","","","","","","","","","","","","","","","","","","","","","",""
"492","<p style=""color:white; font-size: 35px;"">君子</p>","i","categorize-html","111","171532","0.0-6.0-1.0-8.0-1.1","4","4","4","4","4","4","4","4","4","4","5","5","5","5","5","5","5","5","5","5","1","1","2","1","1","1","4","4","1","1","1","0","1","0","0","0","0","0","1","0","0","1","0","0","5","1","1","2","1","5","5","3","2","4","1","598842647070638080","刘","170","","","","","","","","","","","","","","","","","","","true","14","4","moral","492","positive","君子","","","","","","","","","","","","","","","","",""
"null","","null","html-keyboard-response","112","171782","0.0-6.0-1.0-8.0-0.2","4","4","4","4","4","4","4","4","4","4","5","5","5","5","5","5","5","5","5","5","1","1","2","1","1","1","4","4","1","1","1","0","1","0","0","0","0","0","1","0","0","1","0","0","5","1","1","2","1","5","5","3","2","4","1","598842647070638080","刘","170","","","","","","","","","","","","","","","","","","","","","","","","","","","","","","","","","","","","","","","","","",""
"500","<p style=""color:rgb(150, 250, 100); font-size: 35px;"">别人的</p>","e","categorize-html","113","172283","0.0-6.0-1.0-8.0-1.2","4","4","4","4","4","4","4","4","4","4","5","5","5","5","5","5","5","5","5","5","1","1","2","1","1","1","4","4","1","1","1","0","1","0","0","0","0","0","1","0","0","1","0","0","5","1","1","2","1","5","5","3","2","4","1","598842647070638080","刘","170","","","","","","","","","","","","","","","","","","","true","14","4","moral","500","other","别人的","","","","","","","","","","","","","","","","",""
"null","","null","html-keyboard-response","114","172533","0.0-6.0-1.0-8.0-0.3","4","4","4","4","4","4","4","4","4","4","5","5","5","5","5","5","5","5","5","5","1","1","2","1","1","1","4","4","1","1","1","0","1","0","0","0","0","0","1","0","0","1","0","0","5","1","1","2","1","5","5","3","2","4","1","598842647070638080","刘","170","","","","","","","","","","","","","","","","","","","","","","","","","","","","","","","","","","","","","","","","","",""
"454","<p style=""color:white; font-size: 35px;"">不仁</p>","e","categorize-html","115","172987","0.0-6.0-1.0-8.0-1.3","4","4","4","4","4","4","4","4","4","4","5","5","5","5","5","5","5","5","5","5","1","1","2","1","1","1","4","4","1","1","1","0","1","0","0","0","0","0","1","0","0","1","0","0","5","1","1","2","1","5","5","3","2","4","1","598842647070638080","刘","170","","","","","","","","","","","","","","","","","","","true","14","4","moral","454","negative","不仁","","","","","","","","","","","","","","","","",""
"null","","null","html-keyboard-response","116","173238","0.0-6.0-1.0-8.0-0.4","4","4","4","4","4","4","4","4","4","4","5","5","5","5","5","5","5","5","5","5","1","1","2","1","1","1","4","4","1","1","1","0","1","0","0","0","0","0","1","0","0","1","0","0","5","1","1","2","1","5","5","3","2","4","1","598842647070638080","刘","170","","","","","","","","","","","","","","","","","","","","","","","","","","","","","","","","","","","","","","","","","",""
"557","<p style=""color:rgb(150, 250, 100); font-size: 35px;"">本人</p>","i","categorize-html","117","173796","0.0-6.0-1.0-8.0-1.4","4","4","4","4","4","4","4","4","4","4","5","5","5","5","5","5","5","5","5","5","1","1","2","1","1","1","4","4","1","1","1","0","1","0","0","0","0","0","1","0","0","1","0","0","5","1","1","2","1","5","5","3","2","4","1","598842647070638080","刘","170","","","","","","","","","","","","","","","","","","","true","14","4","moral","557","self","本人","","","","","","","","","","","","","","","","",""
"null","","null","html-keyboard-response","118","174047","0.0-6.0-1.0-8.0-0.5","4","4","4","4","4","4","4","4","4","4","5","5","5","5","5","5","5","5","5","5","1","1","2","1","1","1","4","4","1","1","1","0","1","0","0","0","0","0","1","0","0","1","0","0","5","1","1","2","1","5","5","3","2","4","1","598842647070638080","刘","170","","","","","","","","","","","","","","","","","","","","","","","","","","","","","","","","","","","","","","","","","",""
"459","<p style=""color:white; font-size: 35px;"">正直</p>","i","categorize-html","119","174508","0.0-6.0-1.0-8.0-1.5","4","4","4","4","4","4","4","4","4","4","5","5","5","5","5","5","5","5","5","5","1","1","2","1","1","1","4","4","1","1","1","0","1","0","0","0","0","0","1","0","0","1","0","0","5","1","1","2","1","5","5","3","2","4","1","598842647070638080","刘","170","","","","","","","","","","","","","","","","","","","true","14","4","moral","459","positive","正直","","","","","","","","","","","","","","","","",""
"null","","null","html-keyboard-response","120","174759","0.0-6.0-1.0-8.0-0.6","4","4","4","4","4","4","4","4","4","4","5","5","5","5","5","5","5","5","5","5","1","1","2","1","1","1","4","4","1","1","1","0","1","0","0","0","0","0","1","0","0","1","0","0","5","1","1","2","1","5","5","3","2","4","1","598842647070638080","刘","170","","","","","","","","","","","","","","","","","","","","","","","","","","","","","","","","","","","","","","","","","",""
"500","<p style=""color:rgb(150, 250, 100); font-size: 35px;"">他人的</p>","i","categorize-html","121","175507","0.0-6.0-1.0-8.0-1.6","4","4","4","4","4","4","4","4","4","4","5","5","5","5","5","5","5","5","5","5","1","1","2","1","1","1","4","4","1","1","1","0","1","0","0","0","0","0","1","0","0","1","0","0","5","1","1","2","1","5","5","3","2","4","1","598842647070638080","刘","170","","","","","","","","","","","","","","","","","","","false","14","4","moral","1137","other","他人的","","","","","","","","","","","","","","","","",""
"null","","null","html-keyboard-response","122","175758","0.0-6.0-1.0-8.0-0.7","4","4","4","4","4","4","4","4","4","4","5","5","5","5","5","5","5","5","5","5","1","1","2","1","1","1","4","4","1","1","1","0","1","0","0","0","0","0","1","0","0","1","0","0","5","1","1","2","1","5","5","3","2","4","1","598842647070638080","刘","170","","","","","","","","","","","","","","","","","","","","","","","","","","","","","","","","","","","","","","","","","",""
"516","<p style=""color:white; font-size: 35px;"">卑鄙</p>","e","categorize-html","123","176275","0.0-6.0-1.0-8.0-1.7","4","4","4","4","4","4","4","4","4","4","5","5","5","5","5","5","5","5","5","5","1","1","2","1","1","1","4","4","1","1","1","0","1","0","0","0","0","0","1","0","0","1","0","0","5","1","1","2","1","5","5","3","2","4","1","598842647070638080","刘","170","","","","","","","","","","","","","","","","","","","true","14","4","moral","516","negative","卑鄙","","","","","","","","","","","","","","","","",""
"null","","null","html-keyboard-response","124","176526","0.0-6.0-1.0-8.0-0.8","4","4","4","4","4","4","4","4","4","4","5","5","5","5","5","5","5","5","5","5","1","1","2","1","1","1","4","4","1","1","1","0","1","0","0","0","0","0","1","0","0","1","0","0","5","1","1","2","1","5","5","3","2","4","1","598842647070638080","刘","170","","","","","","","","","","","","","","","","","","","","","","","","","","","","","","","","","","","","","","","","","",""
"557","<p style=""color:rgb(150, 250, 100); font-size: 35px;"">自己</p>","i","categorize-html","125","177084","0.0-6.0-1.0-8.0-1.8","4","4","4","4","4","4","4","4","4","4","5","5","5","5","5","5","5","5","5","5","1","1","2","1","1","1","4","4","1","1","1","0","1","0","0","0","0","0","1","0","0","1","0","0","5","1","1","2","1","5","5","3","2","4","1","598842647070638080","刘","170","","","","","","","","","","","","","","","","","","","true","14","4","moral","557","self","自己","","","","","","","","","","","","","","","","",""
"null","","null","html-keyboard-response","126","177336","0.0-6.0-1.0-8.0-0.9","4","4","4","4","4","4","4","4","4","4","5","5","5","5","5","5","5","5","5","5","1","1","2","1","1","1","4","4","1","1","1","0","1","0","0","0","0","0","1","0","0","1","0","0","5","1","1","2","1","5","5","3","2","4","1","598842647070638080","刘","170","","","","","","","","","","","","","","","","","","","","","","","","","","","","","","","","","","","","","","","","","",""
"531","<p style=""color:white; font-size: 35px;"">君子</p>","i","categorize-html","127","177868","0.0-6.0-1.0-8.0-1.9","4","4","4","4","4","4","4","4","4","4","5","5","5","5","5","5","5","5","5","5","1","1","2","1","1","1","4","4","1","1","1","0","1","0","0","0","0","0","1","0","0","1","0","0","5","1","1","2","1","5","5","3","2","4","1","598842647070638080","刘","170","","","","","","","","","","","","","","","","","","","true","14","4","moral","531","positive","君子","","","","","","","","","","","","","","","","",""
"null","","null","html-keyboard-response","128","178119","0.0-6.0-1.0-8.0-0.10","4","4","4","4","4","4","4","4","4","4","5","5","5","5","5","5","5","5","5","5","1","1","2","1","1","1","4","4","1","1","1","0","1","0","0","0","0","0","1","0","0","1","0","0","5","1","1","2","1","5","5","3","2","4","1","598842647070638080","刘","170","","","","","","","","","","","","","","","","","","","","","","","","","","","","","","","","","","","","","","","","","",""
"580","<p style=""color:rgb(150, 250, 100); font-size: 35px;"">他人</p>","e","categorize-html","129","178699","0.0-6.0-1.0-8.0-1.10","4","4","4","4","4","4","4","4","4","4","5","5","5","5","5","5","5","5","5","5","1","1","2","1","1","1","4","4","1","1","1","0","1","0","0","0","0","0","1","0","0","1","0","0","5","1","1","2","1","5","5","3","2","4","1","598842647070638080","刘","170","","","","","","","","","","","","","","","","","","","true","14","4","moral","580","other","他人","","","","","","","","","","","","","","","","",""
"null","","null","html-keyboard-response","130","178950","0.0-6.0-1.0-8.0-0.11","4","4","4","4","4","4","4","4","4","4","5","5","5","5","5","5","5","5","5","5","1","1","2","1","1","1","4","4","1","1","1","0","1","0","0","0","0","0","1","0","0","1","0","0","5","1","1","2","1","5","5","3","2","4","1","598842647070638080","刘","170","","","","","","","","","","","","","","","","","","","","","","","","","","","","","","","","","","","","","","","","","",""
"549","<p style=""color:white; font-size: 35px;"">小人</p>","e","categorize-html","131","179501","0.0-6.0-1.0-8.0-1.11","4","4","4","4","4","4","4","4","4","4","5","5","5","5","5","5","5","5","5","5","1","1","2","1","1","1","4","4","1","1","1","0","1","0","0","0","0","0","1","0","0","1","0","0","5","1","1","2","1","5","5","3","2","4","1","598842647070638080","刘","170","","","","","","","","","","","","","","","","","","","true","14","4","moral","549","negative","小人","","","","","","","","","","","","","","","","",""
"null","","null","html-keyboard-response","132","179753","0.0-6.0-1.0-8.0-0.12","4","4","4","4","4","4","4","4","4","4","5","5","5","5","5","5","5","5","5","5","1","1","2","1","1","1","4","4","1","1","1","0","1","0","0","0","0","0","1","0","0","1","0","0","5","1","1","2","1","5","5","3","2","4","1","598842647070638080","刘","170","","","","","","","","","","","","","","","","","","","","","","","","","","","","","","","","","","","","","","","","","",""
"627","<p style=""color:rgb(150, 250, 100); font-size: 35px;"">他</p>","e","categorize-html","133","180380","0.0-6.0-1.0-8.0-1.12","4","4","4","4","4","4","4","4","4","4","5","5","5","5","5","5","5","5","5","5","1","1","2","1","1","1","4","4","1","1","1","0","1","0","0","0","0","0","1","0","0","1","0","0","5","1","1","2","1","5","5","3","2","4","1","598842647070638080","刘","170","","","","","","","","","","","","","","","","","","","true","14","4","moral","627","other","他","","","","","","","","","","","","","","","","",""
"null","","null","html-keyboard-response","134","180631","0.0-6.0-1.0-8.0-0.13","4","4","4","4","4","4","4","4","4","4","5","5","5","5","5","5","5","5","5","5","1","1","2","1","1","1","4","4","1","1","1","0","1","0","0","0","0","0","1","0","0","1","0","0","5","1","1","2","1","5","5","3","2","4","1","598842647070638080","刘","170","","","","","","","","","","","","","","","","","","","","","","","","","","","","","","","","","","","","","","","","","",""
"539","<p style=""color:white; font-size: 35px;"">廉正</p>","i","categorize-html","135","181172","0.0-6.0-1.0-8.0-1.13","4","4","4","4","4","4","4","4","4","4","5","5","5","5","5","5","5","5","5","5","1","1","2","1","1","1","4","4","1","1","1","0","1","0","0","0","0","0","1","0","0","1","0","0","5","1","1","2","1","5","5","3","2","4","1","598842647070638080","刘","170","","","","","","","","","","","","","","","","","","","true","14","4","moral","539","positive","廉正","","","","","","","","","","","","","","","","",""
"null","","null","html-keyboard-response","136","181424","0.0-6.0-1.0-8.0-0.14","4","4","4","4","4","4","4","4","4","4","5","5","5","5","5","5","5","5","5","5","1","1","2","1","1","1","4","4","1","1","1","0","1","0","0","0","0","0","1","0","0","1","0","0","5","1","1","2","1","5","5","3","2","4","1","598842647070638080","刘","170","","","","","","","","","","","","","","","","","","","","","","","","","","","","","","","","","","","","","","","","","",""
"443","<p style=""color:rgb(150, 250, 100); font-size: 35px;"">我</p>","i","categorize-html","137","181867","0.0-6.0-1.0-8.0-1.14","4","4","4","4","4","4","4","4","4","4","5","5","5","5","5","5","5","5","5","5","1","1","2","1","1","1","4","4","1","1","1","0","1","0","0","0","0","0","1","0","0","1","0","0","5","1","1","2","1","5","5","3","2","4","1","598842647070638080","刘","170","","","","","","","","","","","","","","","","","","","true","14","4","moral","443","self","我","","","","","","","","","","","","","","","","",""
"null","","null","html-keyboard-response","138","182119","0.0-6.0-1.0-8.0-0.15","4","4","4","4","4","4","4","4","4","4","5","5","5","5","5","5","5","5","5","5","1","1","2","1","1","1","4","4","1","1","1","0","1","0","0","0","0","0","1","0","0","1","0","0","5","1","1","2","1","5","5","3","2","4","1","598842647070638080","刘","170","","","","","","","","","","","","","","","","","","","","","","","","","","","","","","","","","","","","","","","","","",""
"508","<p style=""color:white; font-size: 35px;"">不孝</p>","e","categorize-html","139","182628","0.0-6.0-1.0-8.0-1.15","4","4","4","4","4","4","4","4","4","4","5","5","5","5","5","5","5","5","5","5","1","1","2","1","1","1","4","4","1","1","1","0","1","0","0","0","0","0","1","0","0","1","0","0","5","1","1","2","1","5","5","3","2","4","1","598842647070638080","刘","170","","","","","","","","","","","","","","","","","","","true","14","4","moral","508","negative","不孝","","","","","","","","","","","","","","","","",""
"null","","null","html-keyboard-response","140","182880","0.0-6.0-1.0-8.0-0.16","4","4","4","4","4","4","4","4","4","4","5","5","5","5","5","5","5","5","5","5","1","1","2","1","1","1","4","4","1","1","1","0","1","0","0","0","0","0","1","0","0","1","0","0","5","1","1","2","1","5","5","3","2","4","1","598842647070638080","刘","170","","","","","","","","","","","","","","","","","","","","","","","","","","","","","","","","","","","","","","","","","",""
"539","<p style=""color:rgb(150, 250, 100); font-size: 35px;"">别人</p>","e","categorize-html","141","183419","0.0-6.0-1.0-8.0-1.16","4","4","4","4","4","4","4","4","4","4","5","5","5","5","5","5","5","5","5","5","1","1","2","1","1","1","4","4","1","1","1","0","1","0","0","0","0","0","1","0","0","1","0","0","5","1","1","2","1","5","5","3","2","4","1","598842647070638080","刘","170","","","","","","","","","","","","","","","","","","","true","14","4","moral","539","other","别人","","","","","","","","","","","","","","","","",""
"null","","null","html-keyboard-response","142","183670","0.0-6.0-1.0-8.0-0.17","4","4","4","4","4","4","4","4","4","4","5","5","5","5","5","5","5","5","5","5","1","1","2","1","1","1","4","4","1","1","1","0","1","0","0","0","0","0","1","0","0","1","0","0","5","1","1","2","1","5","5","3","2","4","1","598842647070638080","刘","170","","","","","","","","","","","","","","","","","","","","","","","","","","","","","","","","","","","","","","","","","",""
"532","<p style=""color:white; font-size: 35px;"">诚信</p>","i","categorize-html","143","184204","0.0-6.0-1.0-8.0-1.17","4","4","4","4","4","4","4","4","4","4","5","5","5","5","5","5","5","5","5","5","1","1","2","1","1","1","4","4","1","1","1","0","1","0","0","0","0","0","1","0","0","1","0","0","5","1","1","2","1","5","5","3","2","4","1","598842647070638080","刘","170","","","","","","","","","","","","","","","","","","","true","14","4","moral","532","positive","诚信","","","","","","","","","","","","","","","","",""
"null","","null","html-keyboard-response","144","184455","0.0-6.0-1.0-8.0-0.18","4","4","4","4","4","4","4","4","4","4","5","5","5","5","5","5","5","5","5","5","1","1","2","1","1","1","4","4","1","1","1","0","1","0","0","0","0","0","1","0","0","1","0","0","5","1","1","2","1","5","5","3","2","4","1","598842647070638080","刘","170","","","","","","","","","","","","","","","","","","","","","","","","","","","","","","","","","","","","","","","","","",""
"525","<p style=""color:rgb(150, 250, 100); font-size: 35px;"">自己的</p>","i","categorize-html","145","184981","0.0-6.0-1.0-8.0-1.18","4","4","4","4","4","4","4","4","4","4","5","5","5","5","5","5","5","5","5","5","1","1","2","1","1","1","4","4","1","1","1","0","1","0","0","0","0","0","1","0","0","1","0","0","5","1","1","2","1","5","5","3","2","4","1","598842647070638080","刘","170","","","","","","","","","","","","","","","","","","","true","14","4","moral","525","self","自己的","","","","","","","","","","","","","","","","",""
"null","","null","html-keyboard-response","146","185232","0.0-6.0-1.0-8.0-0.19","4","4","4","4","4","4","4","4","4","4","5","5","5","5","5","5","5","5","5","5","1","1","2","1","1","1","4","4","1","1","1","0","1","0","0","0","0","0","1","0","0","1","0","0","5","1","1","2","1","5","5","3","2","4","1","598842647070638080","刘","170","","","","","","","","","","","","","","","","","","","","","","","","","","","","","","","","","","","","","","","","","",""
"554","<p style=""color:white; font-size: 35px;"">缺德</p>","e","categorize-html","147","185787","0.0-6.0-1.0-8.0-1.19","4","4","4","4","4","4","4","4","4","4","5","5","5","5","5","5","5","5","5","5","1","1","2","1","1","1","4","4","1","1","1","0","1","0","0","0","0","0","1","0","0","1","0","0","5","1","1","2","1","5","5","3","2","4","1","598842647070638080","刘","170","","","","","","","","","","","","","","","","","","","true","14","4","moral","554","negative","缺德","","","","","","","","","","","","","","","","",""
"null","","null","html-keyboard-response","148","186038","0.0-6.0-1.0-8.0-0.20","4","4","4","4","4","4","4","4","4","4","5","5","5","5","5","5","5","5","5","5","1","1","2","1","1","1","4","4","1","1","1","0","1","0","0","0","0","0","1","0","0","1","0","0","5","1","1","2","1","5","5","3","2","4","1","598842647070638080","刘","170","","","","","","","","","","","","","","","","","","","","","","","","","","","","","","","","","","","","","","","","","",""
"509","<p style=""color:rgb(150, 250, 100); font-size: 35px;"">自己</p>","i","categorize-html","149","186548","0.0-6.0-1.0-8.0-1.20","4","4","4","4","4","4","4","4","4","4","5","5","5","5","5","5","5","5","5","5","1","1","2","1","1","1","4","4","1","1","1","0","1","0","0","0","0","0","1","0","0","1","0","0","5","1","1","2","1","5","5","3","2","4","1","598842647070638080","刘","170","","","","","","","","","","","","","","","","","","","true","14","4","moral","509","self","自己","","","","","","","","","","","","","","","","",""
"null","","null","html-keyboard-response","150","186799","0.0-6.0-1.0-8.0-0.21","4","4","4","4","4","4","4","4","4","4","5","5","5","5","5","5","5","5","5","5","1","1","2","1","1","1","4","4","1","1","1","0","1","0","0","0","0","0","1","0","0","1","0","0","5","1","1","2","1","5","5","3","2","4","1","598842647070638080","刘","170","","","","","","","","","","","","","","","","","","","","","","","","","","","","","","","","","","","","","","","","","",""
"508","<p style=""color:white; font-size: 35px;"">小人</p>","e","categorize-html","151","187308","0.0-6.0-1.0-8.0-1.21","4","4","4","4","4","4","4","4","4","4","5","5","5","5","5","5","5","5","5","5","1","1","2","1","1","1","4","4","1","1","1","0","1","0","0","0","0","0","1","0","0","1","0","0","5","1","1","2","1","5","5","3","2","4","1","598842647070638080","刘","170","","","","","","","","","","","","","","","","","","","true","14","4","moral","508","negative","小人","","","","","","","","","","","","","","","","",""
"null","","null","html-keyboard-response","152","187559","0.0-6.0-1.0-8.0-0.22","4","4","4","4","4","4","4","4","4","4","5","5","5","5","5","5","5","5","5","5","1","1","2","1","1","1","4","4","1","1","1","0","1","0","0","0","0","0","1","0","0","1","0","0","5","1","1","2","1","5","5","3","2","4","1","598842647070638080","刘","170","","","","","","","","","","","","","","","","","","","","","","","","","","","","","","","","","","","","","","","","","",""
"557","<p style=""color:rgb(150, 250, 100); font-size: 35px;"">他的</p>","e","categorize-html","153","188117","0.0-6.0-1.0-8.0-1.22","4","4","4","4","4","4","4","4","4","4","5","5","5","5","5","5","5","5","5","5","1","1","2","1","1","1","4","4","1","1","1","0","1","0","0","0","0","0","1","0","0","1","0","0","5","1","1","2","1","5","5","3","2","4","1","598842647070638080","刘","170","","","","","","","","","","","","","","","","","","","true","14","4","moral","557","other","他的","","","","","","","","","","","","","","","","",""
"null","","null","html-keyboard-response","154","188367","0.0-6.0-1.0-8.0-0.23","4","4","4","4","4","4","4","4","4","4","5","5","5","5","5","5","5","5","5","5","1","1","2","1","1","1","4","4","1","1","1","0","1","0","0","0","0","0","1","0","0","1","0","0","5","1","1","2","1","5","5","3","2","4","1","598842647070638080","刘","170","","","","","","","","","","","","","","","","","","","","","","","","","","","","","","","","","","","","","","","","","",""
"612","<p style=""color:white; font-size: 35px;"">廉正</p>","i","categorize-html","155","188979","0.0-6.0-1.0-8.0-1.23","4","4","4","4","4","4","4","4","4","4","5","5","5","5","5","5","5","5","5","5","1","1","2","1","1","1","4","4","1","1","1","0","1","0","0","0","0","0","1","0","0","1","0","0","5","1","1","2","1","5","5","3","2","4","1","598842647070638080","刘","170","","","","","","","","","","","","","","","","","","","true","14","4","moral","612","positive","廉正","","","","","","","","","","","","","","","","",""
"null","","null","html-keyboard-response","156","189231","0.0-6.0-1.0-8.0-0.24","4","4","4","4","4","4","4","4","4","4","5","5","5","5","5","5","5","5","5","5","1","1","2","1","1","1","4","4","1","1","1","0","1","0","0","0","0","0","1","0","0","1","0","0","5","1","1","2","1","5","5","3","2","4","1","598842647070638080","刘","170","","","","","","","","","","","","","","","","","","","","","","","","","","","","","","","","","","","","","","","","","",""
"548","<p style=""color:rgb(150, 250, 100); font-size: 35px;"">别人的</p>","e","categorize-html","157","189779","0.0-6.0-1.0-8.0-1.24","4","4","4","4","4","4","4","4","4","4","5","5","5","5","5","5","5","5","5","5","1","1","2","1","1","1","4","4","1","1","1","0","1","0","0","0","0","0","1","0","0","1","0","0","5","1","1","2","1","5","5","3","2","4","1","598842647070638080","刘","170","","","","","","","","","","","","","","","","","","","true","14","4","moral","548","other","别人的","","","","","","","","","","","","","","","","",""
"null","","null","html-keyboard-response","158","190032","0.0-6.0-1.0-8.0-0.25","4","4","4","4","4","4","4","4","4","4","5","5","5","5","5","5","5","5","5","5","1","1","2","1","1","1","4","4","1","1","1","0","1","0","0","0","0","0","1","0","0","1","0","0","5","1","1","2","1","5","5","3","2","4","1","598842647070638080","刘","170","","","","","","","","","","","","","","","","","","","","","","","","","","","","","","","","","","","","","","","","","",""
"435","<p style=""color:white; font-size: 35px;"">善良</p>","e","categorize-html","159","190812","0.0-6.0-1.0-8.0-1.25","4","4","4","4","4","4","4","4","4","4","5","5","5","5","5","5","5","5","5","5","1","1","2","1","1","1","4","4","1","1","1","0","1","0","0","0","0","0","1","0","0","1","0","0","5","1","1","2","1","5","5","3","2","4","1","598842647070638080","刘","170","","","","","","","","","","","","","","","","","","","false","14","4","moral","1137","positive","善良","","","","","","","","","","","","","","","","",""
"null","","null","html-keyboard-response","160","191063","0.0-6.0-1.0-8.0-0.26","4","4","4","4","4","4","4","4","4","4","5","5","5","5","5","5","5","5","5","5","1","1","2","1","1","1","4","4","1","1","1","0","1","0","0","0","0","0","1","0","0","1","0","0","5","1","1","2","1","5","5","3","2","4","1","598842647070638080","刘","170","","","","","","","","","","","","","","","","","","","","","","","","","","","","","","","","","","","","","","","","","",""
"516","<p style=""color:rgb(150, 250, 100); font-size: 35px;"">我的</p>","i","categorize-html","161","191580","0.0-6.0-1.0-8.0-1.26","4","4","4","4","4","4","4","4","4","4","5","5","5","5","5","5","5","5","5","5","1","1","2","1","1","1","4","4","1","1","1","0","1","0","0","0","0","0","1","0","0","1","0","0","5","1","1","2","1","5","5","3","2","4","1","598842647070638080","刘","170","","","","","","","","","","","","","","","","","","","true","14","4","moral","516","self","我的","","","","","","","","","","","","","","","","",""
"null","","null","html-keyboard-response","162","191831","0.0-6.0-1.0-8.0-0.27","4","4","4","4","4","4","4","4","4","4","5","5","5","5","5","5","5","5","5","5","1","1","2","1","1","1","4","4","1","1","1","0","1","0","0","0","0","0","1","0","0","1","0","0","5","1","1","2","1","5","5","3","2","4","1","598842647070638080","刘","170","","","","","","","","","","","","","","","","","","","","","","","","","","","","","","","","","","","","","","","","","",""
"444","<p style=""color:white; font-size: 35px;"">黑心</p>","e","categorize-html","163","192276","0.0-6.0-1.0-8.0-1.27","4","4","4","4","4","4","4","4","4","4","5","5","5","5","5","5","5","5","5","5","1","1","2","1","1","1","4","4","1","1","1","0","1","0","0","0","0","0","1","0","0","1","0","0","5","1","1","2","1","5","5","3","2","4","1","598842647070638080","刘","170","","","","","","","","","","","","","","","","","","","true","14","4","moral","444","negative","黑心","","","","","","","","","","","","","","","","",""
"null","","null","html-keyboard-response","164","192527","0.0-6.0-1.0-8.0-0.28","4","4","4","4","4","4","4","4","4","4","5","5","5","5","5","5","5","5","5","5","1","1","2","1","1","1","4","4","1","1","1","0","1","0","0","0","0","0","1","0","0","1","0","0","5","1","1","2","1","5","5","3","2","4","1","598842647070638080","刘","170","","","","","","","","","","","","","","","","","","","","","","","","","","","","","","","","","","","","","","","","","",""
"589","<p style=""color:rgb(150, 250, 100); font-size: 35px;"">他的</p>","e","categorize-html","165","193117","0.0-6.0-1.0-8.0-1.28","4","4","4","4","4","4","4","4","4","4","5","5","5","5","5","5","5","5","5","5","1","1","2","1","1","1","4","4","1","1","1","0","1","0","0","0","0","0","1","0","0","1","0","0","5","1","1","2","1","5","5","3","2","4","1","598842647070638080","刘","170","","","","","","","","","","","","","","","","","","","true","14","4","moral","589","other","他的","","","","","","","","","","","","","","","","",""
"null","","null","html-keyboard-response","166","193368","0.0-6.0-1.0-8.0-0.29","4","4","4","4","4","4","4","4","4","4","5","5","5","5","5","5","5","5","5","5","1","1","2","1","1","1","4","4","1","1","1","0","1","0","0","0","0","0","1","0","0","1","0","0","5","1","1","2","1","5","5","3","2","4","1","598842647070638080","刘","170","","","","","","","","","","","","","","","","","","","","","","","","","","","","","","","","","","","","","","","","","",""
"524","<p style=""color:white; font-size: 35px;"">高尚</p>","i","categorize-html","167","193892","0.0-6.0-1.0-8.0-1.29","4","4","4","4","4","4","4","4","4","4","5","5","5","5","5","5","5","5","5","5","1","1","2","1","1","1","4","4","1","1","1","0","1","0","0","0","0","0","1","0","0","1","0","0","5","1","1","2","1","5","5","3","2","4","1","598842647070638080","刘","170","","","","","","","","","","","","","","","","","","","true","14","4","moral","524","positive","高尚","","","","","","","","","","","","","","","","",""
"null","","null","html-keyboard-response","168","194143","0.0-6.0-1.0-8.0-0.30","4","4","4","4","4","4","4","4","4","4","5","5","5","5","5","5","5","5","5","5","1","1","2","1","1","1","4","4","1","1","1","0","1","0","0","0","0","0","1","0","0","1","0","0","5","1","1","2","1","5","5","3","2","4","1","598842647070638080","刘","170","","","","","","","","","","","","","","","","","","","","","","","","","","","","","","","","","","","","","","","","","",""
"502","<p style=""color:rgb(150, 250, 100); font-size: 35px;"">本人</p>","i","categorize-html","169","194646","0.0-6.0-1.0-8.0-1.30","4","4","4","4","4","4","4","4","4","4","5","5","5","5","5","5","5","5","5","5","1","1","2","1","1","1","4","4","1","1","1","0","1","0","0","0","0","0","1","0","0","1","0","0","5","1","1","2","1","5","5","3","2","4","1","598842647070638080","刘","170","","","","","","","","","","","","","","","","","","","true","14","4","moral","502","self","本人","","","","","","","","","","","","","","","","",""
"null","","null","html-keyboard-response","170","194898","0.0-6.0-1.0-8.0-0.31","4","4","4","4","4","4","4","4","4","4","5","5","5","5","5","5","5","5","5","5","1","1","2","1","1","1","4","4","1","1","1","0","1","0","0","0","0","0","1","0","0","1","0","0","5","1","1","2","1","5","5","3","2","4","1","598842647070638080","刘","170","","","","","","","","","","","","","","","","","","","","","","","","","","","","","","","","","","","","","","","","","",""
"537","<p style=""color:white; font-size: 35px;"">不孝</p>","e","categorize-html","171","195436","0.0-6.0-1.0-8.0-1.31","4","4","4","4","4","4","4","4","4","4","5","5","5","5","5","5","5","5","5","5","1","1","2","1","1","1","4","4","1","1","1","0","1","0","0","0","0","0","1","0","0","1","0","0","5","1","1","2","1","5","5","3","2","4","1","598842647070638080","刘","170","","","","","","","","","","","","","","","","","","","true","14","4","moral","537","negative","不孝","","","","","","","","","","","","","","","","",""
"null","","null","html-keyboard-response","172","195686","0.0-6.0-1.0-8.0-0.32","4","4","4","4","4","4","4","4","4","4","5","5","5","5","5","5","5","5","5","5","1","1","2","1","1","1","4","4","1","1","1","0","1","0","0","0","0","0","1","0","0","1","0","0","5","1","1","2","1","5","5","3","2","4","1","598842647070638080","刘","170","","","","","","","","","","","","","","","","","","","","","","","","","","","","","","","","","","","","","","","","","",""
"645","<p style=""color:rgb(150, 250, 100); font-size: 35px;"">别人</p>","e","categorize-html","173","196332","0.0-6.0-1.0-8.0-1.32","4","4","4","4","4","4","4","4","4","4","5","5","5","5","5","5","5","5","5","5","1","1","2","1","1","1","4","4","1","1","1","0","1","0","0","0","0","0","1","0","0","1","0","0","5","1","1","2","1","5","5","3","2","4","1","598842647070638080","刘","170","","","","","","","","","","","","","","","","","","","true","14","4","moral","645","other","别人","","","","","","","","","","","","","","","","",""
"null","","null","html-keyboard-response","174","196584","0.0-6.0-1.0-8.0-0.33","4","4","4","4","4","4","4","4","4","4","5","5","5","5","5","5","5","5","5","5","1","1","2","1","1","1","4","4","1","1","1","0","1","0","0","0","0","0","1","0","0","1","0","0","5","1","1","2","1","5","5","3","2","4","1","598842647070638080","刘","170","","","","","","","","","","","","","","","","","","","","","","","","","","","","","","","","","","","","","","","","","",""
"571","<p style=""color:white; font-size: 35px;"">诚信</p>","i","categorize-html","175","197156","0.0-6.0-1.0-8.0-1.33","4","4","4","4","4","4","4","4","4","4","5","5","5","5","5","5","5","5","5","5","1","1","2","1","1","1","4","4","1","1","1","0","1","0","0","0","0","0","1","0","0","1","0","0","5","1","1","2","1","5","5","3","2","4","1","598842647070638080","刘","170","","","","","","","","","","","","","","","","","","","true","14","4","moral","571","positive","诚信","","","","","","","","","","","","","","","","",""
"null","","null","html-keyboard-response","176","197408","0.0-6.0-1.0-8.0-0.34","4","4","4","4","4","4","4","4","4","4","5","5","5","5","5","5","5","5","5","5","1","1","2","1","1","1","4","4","1","1","1","0","1","0","0","0","0","0","1","0","0","1","0","0","5","1","1","2","1","5","5","3","2","4","1","598842647070638080","刘","170","","","","","","","","","","","","","","","","","","","","","","","","","","","","","","","","","","","","","","","","","",""
"571","<p style=""color:rgb(150, 250, 100); font-size: 35px;"">自己的</p>","i","categorize-html","177","197980","0.0-6.0-1.0-8.0-1.34","4","4","4","4","4","4","4","4","4","4","5","5","5","5","5","5","5","5","5","5","1","1","2","1","1","1","4","4","1","1","1","0","1","0","0","0","0","0","1","0","0","1","0","0","5","1","1","2","1","5","5","3","2","4","1","598842647070638080","刘","170","","","","","","","","","","","","","","","","","","","true","14","4","moral","571","self","自己的","","","","","","","","","","","","","","","","",""
"null","","null","html-keyboard-response","178","198231","0.0-6.0-1.0-8.0-0.35","4","4","4","4","4","4","4","4","4","4","5","5","5","5","5","5","5","5","5","5","1","1","2","1","1","1","4","4","1","1","1","0","1","0","0","0","0","0","1","0","0","1","0","0","5","1","1","2","1","5","5","3","2","4","1","598842647070638080","刘","170","","","","","","","","","","","","","","","","","","","","","","","","","","","","","","","","","","","","","","","","","",""
"556","<p style=""color:white; font-size: 35px;"">卑鄙</p>","e","categorize-html","179","198788","0.0-6.0-1.0-8.0-1.35","4","4","4","4","4","4","4","4","4","4","5","5","5","5","5","5","5","5","5","5","1","1","2","1","1","1","4","4","1","1","1","0","1","0","0","0","0","0","1","0","0","1","0","0","5","1","1","2","1","5","5","3","2","4","1","598842647070638080","刘","170","","","","","","","","","","","","","","","","","","","true","14","4","moral","556","negative","卑鄙","","","","","","","","","","","","","","","","",""
"null","","null","html-keyboard-response","180","199039","0.0-6.0-1.0-8.0-0.36","4","4","4","4","4","4","4","4","4","4","5","5","5","5","5","5","5","5","5","5","1","1","2","1","1","1","4","4","1","1","1","0","1","0","0","0","0","0","1","0","0","1","0","0","5","1","1","2","1","5","5","3","2","4","1","598842647070638080","刘","170","","","","","","","","","","","","","","","","","","","","","","","","","","","","","","","","","","","","","","","","","",""
"564","<p style=""color:rgb(150, 250, 100); font-size: 35px;"">他人</p>","e","categorize-html","181","199604","0.0-6.0-1.0-8.0-1.36","4","4","4","4","4","4","4","4","4","4","5","5","5","5","5","5","5","5","5","5","1","1","2","1","1","1","4","4","1","1","1","0","1","0","0","0","0","0","1","0","0","1","0","0","5","1","1","2","1","5","5","3","2","4","1","598842647070638080","刘","170","","","","","","","","","","","","","","","","","","","true","14","4","moral","564","other","他人","","","","","","","","","","","","","","","","",""
"null","","null","html-keyboard-response","182","199855","0.0-6.0-1.0-8.0-0.37","4","4","4","4","4","4","4","4","4","4","5","5","5","5","5","5","5","5","5","5","1","1","2","1","1","1","4","4","1","1","1","0","1","0","0","0","0","0","1","0","0","1","0","0","5","1","1","2","1","5","5","3","2","4","1","598842647070638080","刘","170","","","","","","","","","","","","","","","","","","","","","","","","","","","","","","","","","","","","","","","","","",""
"572","<p style=""color:white; font-size: 35px;"">不仁</p>","e","categorize-html","183","200428","0.0-6.0-1.0-8.0-1.37","4","4","4","4","4","4","4","4","4","4","5","5","5","5","5","5","5","5","5","5","1","1","2","1","1","1","4","4","1","1","1","0","1","0","0","0","0","0","1","0","0","1","0","0","5","1","1","2","1","5","5","3","2","4","1","598842647070638080","刘","170","","","","","","","","","","","","","","","","","","","true","14","4","moral","572","negative","不仁","","","","","","","","","","","","","","","","",""
"null","","null","html-keyboard-response","184","200679","0.0-6.0-1.0-8.0-0.38","4","4","4","4","4","4","4","4","4","4","5","5","5","5","5","5","5","5","5","5","1","1","2","1","1","1","4","4","1","1","1","0","1","0","0","0","0","0","1","0","0","1","0","0","5","1","1","2","1","5","5","3","2","4","1","598842647070638080","刘","170","","","","","","","","","","","","","","","","","","","","","","","","","","","","","","","","","","","","","","","","","",""
"477","<p style=""color:rgb(150, 250, 100); font-size: 35px;"">我</p>","i","categorize-html","185","201155","0.0-6.0-1.0-8.0-1.38","4","4","4","4","4","4","4","4","4","4","5","5","5","5","5","5","5","5","5","5","1","1","2","1","1","1","4","4","1","1","1","0","1","0","0","0","0","0","1","0","0","1","0","0","5","1","1","2","1","5","5","3","2","4","1","598842647070638080","刘","170","","","","","","","","","","","","","","","","","","","true","14","4","moral","477","self","我","","","","","","","","","","","","","","","","",""
"null","","null","html-keyboard-response","186","201406","0.0-6.0-1.0-8.0-0.39","4","4","4","4","4","4","4","4","4","4","5","5","5","5","5","5","5","5","5","5","1","1","2","1","1","1","4","4","1","1","1","0","1","0","0","0","0","0","1","0","0","1","0","0","5","1","1","2","1","5","5","3","2","4","1","598842647070638080","刘","170","","","","","","","","","","","","","","","","","","","","","","","","","","","","","","","","","","","","","","","","","",""
"725","<p style=""color:white; font-size: 35px;"">高尚</p>","i","categorize-html","187","202132","0.0-6.0-1.0-8.0-1.39","4","4","4","4","4","4","4","4","4","4","5","5","5","5","5","5","5","5","5","5","1","1","2","1","1","1","4","4","1","1","1","0","1","0","0","0","0","0","1","0","0","1","0","0","5","1","1","2","1","5","5","3","2","4","1","598842647070638080","刘","170","","","","","","","","","","","","","","","","","","","true","14","4","moral","725","positive","高尚","","","","","","","","","","","","","","","","",""
"null","","null","html-keyboard-response","188","202382","0.0-6.0-1.0-8.0-0.40","4","4","4","4","4","4","4","4","4","4","5","5","5","5","5","5","5","5","5","5","1","1","2","1","1","1","4","4","1","1","1","0","1","0","0","0","0","0","1","0","0","1","0","0","5","1","1","2","1","5","5","3","2","4","1","598842647070638080","刘","170","","","","","","","","","","","","","","","","","","","","","","","","","","","","","","","","","","","","","","","","","",""
"525","<p style=""color:rgb(150, 250, 100); font-size: 35px;"">他人的</p>","e","categorize-html","189","202908","0.0-6.0-1.0-8.0-1.40","4","4","4","4","4","4","4","4","4","4","5","5","5","5","5","5","5","5","5","5","1","1","2","1","1","1","4","4","1","1","1","0","1","0","0","0","0","0","1","0","0","1","0","0","5","1","1","2","1","5","5","3","2","4","1","598842647070638080","刘","170","","","","","","","","","","","","","","","","","","","true","14","4","moral","525","other","他人的","","","","","","","","","","","","","","","","",""
"null","","null","html-keyboard-response","190","203160","0.0-6.0-1.0-8.0-0.41","4","4","4","4","4","4","4","4","4","4","5","5","5","5","5","5","5","5","5","5","1","1","2","1","1","1","4","4","1","1","1","0","1","0","0","0","0","0","1","0","0","1","0","0","5","1","1","2","1","5","5","3","2","4","1","598842647070638080","刘","170","","","","","","","","","","","","","","","","","","","","","","","","","","","","","","","","","","","","","","","","","",""
"483","<p style=""color:white; font-size: 35px;"">黑心</p>","e","categorize-html","191","203643","0.0-6.0-1.0-8.0-1.41","4","4","4","4","4","4","4","4","4","4","5","5","5","5","5","5","5","5","5","5","1","1","2","1","1","1","4","4","1","1","1","0","1","0","0","0","0","0","1","0","0","1","0","0","5","1","1","2","1","5","5","3","2","4","1","598842647070638080","刘","170","","","","","","","","","","","","","","","","","","","true","14","4","moral","483","negative","黑心","","","","","","","","","","","","","","","","",""
"null","","null","html-keyboard-response","192","203896","0.0-6.0-1.0-8.0-0.42","4","4","4","4","4","4","4","4","4","4","5","5","5","5","5","5","5","5","5","5","1","1","2","1","1","1","4","4","1","1","1","0","1","0","0","0","0","0","1","0","0","1","0","0","5","1","1","2","1","5","5","3","2","4","1","598842647070638080","刘","170","","","","","","","","","","","","","","","","","","","","","","","","","","","","","","","","","","","","","","","","","",""
"467","<p style=""color:rgb(150, 250, 100); font-size: 35px;"">本人的</p>","i","categorize-html","193","204364","0.0-6.0-1.0-8.0-1.42","4","4","4","4","4","4","4","4","4","4","5","5","5","5","5","5","5","5","5","5","1","1","2","1","1","1","4","4","1","1","1","0","1","0","0","0","0","0","1","0","0","1","0","0","5","1","1","2","1","5","5","3","2","4","1","598842647070638080","刘","170","","","","","","","","","","","","","","","","","","","true","14","4","moral","467","self","本人的","","","","","","","","","","","","","","","","",""
