"rt","stimulus","response","trial_type","trial_index","time_elapsed","internal_node_id","ses_1","ses_2","ses_3","ses_4","ses_5","ses_6","ses_7","ses_8","ses_9","ses_10","coreself_1","coreself_2","coreself_3","coreself_4","coreself_5","coreself_6","coreself_7","coreself_8","coreself_9","coreself_10","SGPS_1","SGPS_2","SGPS_3","SGPS_4","SGPS_5","SGPS_6","SGPS_7","SGPS_8","SGPS_9","NPI1","NPI2","NPI3","NPI4","NPI5","NPI6","NPI7","NPI8","NPI9","NPI10","NPI11","NPI12","NPI13","NPI14","NPI15","hsns_1","hsns_2","hsns_3","hsns_4","hsns_5","trap1","hsns_6","hsns_7","hsns_8","hsns_9","hsns_10","subj_idx","friend_name","ParticipantID","value","success","user_agent","responses","item_order","radio_event_ids","radio_event_times","key_event_times","mouse_event_times","straightlining","zigzagging","honeypot","timeout","failed_images","failed_audio","failed_video","version_attrib","version_target","correct","IAT","screen_id","task_id","RT","condition","word","varname","summary","version_attrib2","version_target2","time_stamp","view_history","response_type","key_press","avg_frame_time","center_x","center_y","correct_response","identity","Image","question_order","correct_answer","trap1_item"
"1113","
   <p><div style = ""color: white;font-size:25px;"">您好，欢迎参加本次实验。</div> </p>
   <p><div style = ""color: white;font-size:25px;"">为充分保障您的权利，请确保您已经知晓并同意《参与实验同意书》以及《数据公开知情同意书》。</div></p>
   <p><div style = ""color: white;font-size:25px;"">如果您未见过上述内容，请咨询实验员。</div></p>
   <p><div style = ""color: white;font-size:25px;"">如果您选择继续实验，则表示您已经清楚两份知情同意书的内容并同意。</div></p>
   <p><div style = ""color: pink;font-size:30px;"">请确保您记得day0的实验编号，您将在本次实验输入该编号，若您忘记，请咨询实验员后作答。</div></p>
   <p><div style = ""color: lightblue;font-size:25px;"">请您尽可能认真地作答，我们将依据您在各问卷和按键任务中的作答质量发放报酬。</div></p>
   <p> <div style = ""color: green;font-size:25px;""><按空格键至下页></div> </p>
   "," ","html-keyboard-response","0","1117","0.0-0.0","3","4","4","3","3","3","4","3","4","3","4","5","5","4","4","5","5","4","4","4","1","2","2","1","1","2","1","2","1","1","0","1","1","1","0","0","0","0","1","1","0","0","0","1","4","2","1","2","1","1","2","2","1","4","1","595169798766198784","林","574","","","","","","","","","","","","","","","","","","","","","","","","","","","","","","","","","","","","","","","","","",""
"","","","call-function","1","1118","0.0-1.0-0.0","3","4","4","3","3","3","4","3","4","3","4","5","5","4","4","5","5","4","4","4","1","2","2","1","1","2","1","2","1","1","0","1","1","1","0","0","0","0","1","1","0","0","0","1","4","2","1","2","1","1","2","2","1","4","1","595169798766198784","林","574","","","","","","","","","","","","","","","","","","","","","","","","","","","","","","","","","","","","","","","","","",""
"16200","","{""friend_name"":""林"",""ParticipantID"":""574""}","survey-html-form","2","17322","0.0-1.0-1.0","3","4","4","3","3","3","4","3","4","3","4","5","5","4","4","5","5","4","4","4","1","2","2","1","1","2","1","2","1","1","0","1","1","1","0","0","0","0","1","1","0","0","0","1","4","2","1","2","1","1","2","2","1","4","1","595169798766198784","林","574","","","","","","","","","","","","","","","","","","","","","","","","","","","","","","","","","","","","","","","","","",""
"","","","fullscreen","3","18415","0.0-2.0","3","4","4","3","3","3","4","3","4","3","4","5","5","4","4","5","5","4","4","4","1","2","2","1","1","2","1","2","1","1","0","1","1","1","0","0","0","0","1","1","0","0","0","1","4","2","1","2","1","1","2","2","1","4","1","595169798766198784","林","574","","true","{}","","","","","","","","","","","","","","","","","","","","","","","","","","","","","","","","","","","","","","",""
"248548.80000001192","","{""Q01"":""3"",""Q02"":""4"",""Q03"":""4"",""Q04"":""3"",""Q05"":""3"",""Q06"":""3"",""Q07"":""4"",""Q08"":""3"",""Q09"":""4"",""Q10"":""3""}","survey-template","4","266973","0.0-3.0","3","4","4","3","3","3","4","3","4","3","4","5","5","4","4","5","5","4","4","4","1","2","2","1","1","2","1","2","1","1","0","1","1","1","0","0","0","0","1","1","0","0","0","1","4","2","1","2","1","1","2","2","1","4","1","595169798766198784","林","574","","","","{""Q01"":""3"",""Q02"":""4"",""Q03"":""4"",""Q04"":""3"",""Q05"":""3"",""Q06"":""3"",""Q07"":""4"",""Q08"":""3"",""Q09"":""4"",""Q10"":""3""}","[0,1,2,3,4,5,6,7,8,9]","[""Q01"",""Q02"",""Q03"",""Q04"",""Q05"",""Q06"",""Q07"",""Q08"",""Q09"",""Q10""]","[2770.300000011921,4895.200000047684,6329.5,7425.100000023842,8759.300000011921,10154.400000035763,11375.400000035763,13005.300000011921,14228.900000035763,15234.900000035763]","[]","[2419.100000023842,2770.300000011921,4409.100000023842,4895.200000047684,6329.5,7425.100000023842,8759.300000011921,10154.400000035763,11375.400000035763,13005.300000011921,14228.900000035763,15234.900000035763,248547.60000002384]","0.3","0.7777777777777778","0","","","","","","","","","","","","","","","","","","","","","","","","","","","","","",""
"28935.80000001192","","{""Q01"":""4"",""Q02"":""5"",""Q03"":""5"",""Q04"":""4"",""Q05"":""4"",""Q06"":""5"",""Q07"":""5"",""Q08"":""4"",""Q09"":""4"",""Q10"":""4""}","survey-template","5","295916","0.0-4.0","3","4","4","3","3","3","4","3","4","3","4","5","5","4","4","5","5","4","4","4","1","2","2","1","1","2","1","2","1","1","0","1","1","1","0","0","0","0","1","1","0","0","0","1","4","2","1","2","1","1","2","2","1","4","1","595169798766198784","林","574","","","","{""Q01"":""4"",""Q02"":""5"",""Q03"":""5"",""Q04"":""4"",""Q05"":""4"",""Q06"":""5"",""Q07"":""5"",""Q08"":""4"",""Q09"":""4"",""Q10"":""4""}","[0,1,2,3,4,5,6,7,8,9]","[""Q01"",""Q02"",""Q03"",""Q04"",""Q05"",""Q06"",""Q07"",""Q08"",""Q09"",""Q10""]","[9108.100000023842,10068.400000035763,10996.300000011921,12768.5,13930.400000035763,14990.400000035763,16238.900000035763,17484.400000035763,18674.19999998808,20360.80000001192]","[]","[8392.800000011921,9108.100000023842,10068.400000035763,10996.300000011921,12226.800000011921,12768.5,13528.800000011921,13930.400000035763,14990.400000035763,16238.900000035763,17484.400000035763,18674.19999998808,20360.80000001192,28934.5]","0.3","0.2222222222222222","0","","","","","","","","","","","","","","","","","","","","","","","","","","","","","",""
"","","","preload","6","296267","0.0-5.0","3","4","4","3","3","3","4","3","4","3","4","5","5","4","4","5","5","4","4","4","1","2","2","1","1","2","1","2","1","1","0","1","1","1","0","0","0","0","1","1","0","0","0","1","4","2","1","2","1","1","2","2","1","4","1","595169798766198784","林","574","","true","","","","","","","","","","","false","[]","[]","[]","","","","","","","","","","","","","","","","","","","","","","","","","",""
"17755","
    <h3>词语分类任务</h3>
    <p>在接下来的任务中，你需要对一系列词语进行分类。</p>
    <p>请先熟悉这些词语，这有利于你完成接下来的任务。</p>
    <table align=""center"" border=1 cellpadding=3 cellspacing=0>
    <tr> <th>类别</th> <th>词语</th> </tr>
    <tr> <td>&emsp;积极&emsp;</td> <td>&emsp;能干、全能、全才、高效、精干、天才&emsp;</td> </tr>
    <tr> <td>&emsp;消极&emsp;</td> <td>&emsp;无能、低能、废物、拙笨、愚钝、蠢笨&emsp;</td> </tr>
    <tr> <td>&emsp;自我&emsp;</td> <td>&emsp;我、我的、自己、自己的、本人、本人的&emsp;</td> </tr>
    <tr> <td>&emsp;他人&emsp;</td> <td>&emsp;他、他的、别人、别人的、他人、他人的&emsp;</td> </tr>
    </table><br/>","0","html-button-response","7","314029","0.0-6.0-0.0-0.0","3","4","4","3","3","3","4","3","4","3","4","5","5","4","4","5","5","4","4","4","1","2","2","1","1","2","1","2","1","1","0","1","1","1","0","0","0","0","1","1","0","0","0","1","4","2","1","2","1","1","2","2","1","4","1","595169798766198784","林","574","","","","","","","","","","","","","","","","","2","1","","","","","","","","","","","","","","","","","","","","","","","",""
"2281","
    <div class=""tag-bottom"">
    <p> —— 任务1：对“自我”词和“他人”词分类 ——<p/>
    不同词语会出现在屏幕中央，类别标签将始终显示在屏幕上方<p/>   
    <span style=""color:#FFD866""><b>请根据上方标签的提示，尽可能正确并且快速地做出按键反应</b></span><p/>
    当按键错误时屏幕中会出现<span style=""color:red""> X </span>，需要按另一个键纠正才能继续<br/><p/>
    请把双手食指分别放在键盘的“E”键和“I”键上<p/>
    按<空格键>开始
    </p></div>"," ","html-keyboard-response","8","316315","0.0-6.0-0.0-1.0","3","4","4","3","3","3","4","3","4","3","4","5","5","4","4","5","5","4","4","4","1","2","2","1","1","2","1","2","1","1","0","1","1","1","0","0","0","0","1","1","0","0","0","1","4","2","1","2","1","1","2","2","1","4","1","595169798766198784","林","574","","","","","","","","","","","","","","","","","","","","","","","","","","","","","","","","","","","","","","","","","",""
"null","","null","html-keyboard-response","9","316567","0.0-6.0-0.0-2.0-0.0","3","4","4","3","3","3","4","3","4","3","4","5","5","4","4","5","5","4","4","4","1","2","2","1","1","2","1","2","1","1","0","1","1","1","0","0","0","0","1","1","0","0","0","1","4","2","1","2","1","1","2","2","1","4","1","595169798766198784","林","574","","","","","","","","","","","","","","","","","","","","","","","","","","","","","","","","","","","","","","","","","",""
"1013","<p style=""color:rgb(150, 250, 100); font-size: 35px;"">他人的</p>","i","categorize-html","10","317584","0.0-6.0-0.0-2.0-1.0","3","4","4","3","3","3","4","3","4","3","4","5","5","4","4","5","5","4","4","4","1","2","2","1","1","2","1","2","1","1","0","1","1","1","0","0","0","0","1","1","0","0","0","1","4","2","1","2","1","1","2","2","1","4","1","595169798766198784","林","574","","","","","","","","","","","","","","","","","","","true","1","1","ability","1013","other","他人的","","","","","","","","","","","","","","","","",""
"null","","null","html-keyboard-response","11","317836","0.0-6.0-0.0-2.0-0.1","3","4","4","3","3","3","4","3","4","3","4","5","5","4","4","5","5","4","4","4","1","2","2","1","1","2","1","2","1","1","0","1","1","1","0","0","0","0","1","1","0","0","0","1","4","2","1","2","1","1","2","2","1","4","1","595169798766198784","林","574","","","","","","","","","","","","","","","","","","","","","","","","","","","","","","","","","","","","","","","","","",""
"850","<p style=""color:rgb(150, 250, 100); font-size: 35px;"">本人的</p>","e","categorize-html","12","318688","0.0-6.0-0.0-2.0-1.1","3","4","4","3","3","3","4","3","4","3","4","5","5","4","4","5","5","4","4","4","1","2","2","1","1","2","1","2","1","1","0","1","1","1","0","0","0","0","1","1","0","0","0","1","4","2","1","2","1","1","2","2","1","4","1","595169798766198784","林","574","","","","","","","","","","","","","","","","","","","true","1","1","ability","850","self","本人的","","","","","","","","","","","","","","","","",""
"null","","null","html-keyboard-response","13","318939","0.0-6.0-0.0-2.0-0.2","3","4","4","3","3","3","4","3","4","3","4","5","5","4","4","5","5","4","4","4","1","2","2","1","1","2","1","2","1","1","0","1","1","1","0","0","0","0","1","1","0","0","0","1","4","2","1","2","1","1","2","2","1","4","1","595169798766198784","林","574","","","","","","","","","","","","","","","","","","","","","","","","","","","","","","","","","","","","","","","","","",""
"1388","<p style=""color:rgb(150, 250, 100); font-size: 35px;"">别人的</p>","i","categorize-html","14","320330","0.0-6.0-0.0-2.0-1.2","3","4","4","3","3","3","4","3","4","3","4","5","5","4","4","5","5","4","4","4","1","2","2","1","1","2","1","2","1","1","0","1","1","1","0","0","0","0","1","1","0","0","0","1","4","2","1","2","1","1","2","2","1","4","1","595169798766198784","林","574","","","","","","","","","","","","","","","","","","","true","1","1","ability","1388","other","别人的","","","","","","","","","","","","","","","","",""
"null","","null","html-keyboard-response","15","320581","0.0-6.0-0.0-2.0-0.3","3","4","4","3","3","3","4","3","4","3","4","5","5","4","4","5","5","4","4","4","1","2","2","1","1","2","1","2","1","1","0","1","1","1","0","0","0","0","1","1","0","0","0","1","4","2","1","2","1","1","2","2","1","4","1","595169798766198784","林","574","","","","","","","","","","","","","","","","","","","","","","","","","","","","","","","","","","","","","","","","","",""
"1278","<p style=""color:rgb(150, 250, 100); font-size: 35px;"">他人</p>","i","categorize-html","16","321861","0.0-6.0-0.0-2.0-1.3","3","4","4","3","3","3","4","3","4","3","4","5","5","4","4","5","5","4","4","4","1","2","2","1","1","2","1","2","1","1","0","1","1","1","0","0","0","0","1","1","0","0","0","1","4","2","1","2","1","1","2","2","1","4","1","595169798766198784","林","574","","","","","","","","","","","","","","","","","","","true","1","1","ability","1278","other","他人","","","","","","","","","","","","","","","","",""
"null","","null","html-keyboard-response","17","322113","0.0-6.0-0.0-2.0-0.4","3","4","4","3","3","3","4","3","4","3","4","5","5","4","4","5","5","4","4","4","1","2","2","1","1","2","1","2","1","1","0","1","1","1","0","0","0","0","1","1","0","0","0","1","4","2","1","2","1","1","2","2","1","4","1","595169798766198784","林","574","","","","","","","","","","","","","","","","","","","","","","","","","","","","","","","","","","","","","","","","","",""
"938","<p style=""color:rgb(150, 250, 100); font-size: 35px;"">别人</p>","i","categorize-html","18","323052","0.0-6.0-0.0-2.0-1.4","3","4","4","3","3","3","4","3","4","3","4","5","5","4","4","5","5","4","4","4","1","2","2","1","1","2","1","2","1","1","0","1","1","1","0","0","0","0","1","1","0","0","0","1","4","2","1","2","1","1","2","2","1","4","1","595169798766198784","林","574","","","","","","","","","","","","","","","","","","","true","1","1","ability","938","other","别人","","","","","","","","","","","","","","","","",""
"null","","null","html-keyboard-response","19","323304","0.0-6.0-0.0-2.0-0.5","3","4","4","3","3","3","4","3","4","3","4","5","5","4","4","5","5","4","4","4","1","2","2","1","1","2","1","2","1","1","0","1","1","1","0","0","0","0","1","1","0","0","0","1","4","2","1","2","1","1","2","2","1","4","1","595169798766198784","林","574","","","","","","","","","","","","","","","","","","","","","","","","","","","","","","","","","","","","","","","","","",""
"638","<p style=""color:rgb(150, 250, 100); font-size: 35px;"">自己</p>","e","categorize-html","20","323944","0.0-6.0-0.0-2.0-1.5","3","4","4","3","3","3","4","3","4","3","4","5","5","4","4","5","5","4","4","4","1","2","2","1","1","2","1","2","1","1","0","1","1","1","0","0","0","0","1","1","0","0","0","1","4","2","1","2","1","1","2","2","1","4","1","595169798766198784","林","574","","","","","","","","","","","","","","","","","","","true","1","1","ability","638","self","自己","","","","","","","","","","","","","","","","",""
"null","","null","html-keyboard-response","21","324196","0.0-6.0-0.0-2.0-0.6","3","4","4","3","3","3","4","3","4","3","4","5","5","4","4","5","5","4","4","4","1","2","2","1","1","2","1","2","1","1","0","1","1","1","0","0","0","0","1","1","0","0","0","1","4","2","1","2","1","1","2","2","1","4","1","595169798766198784","林","574","","","","","","","","","","","","","","","","","","","","","","","","","","","","","","","","","","","","","","","","","",""
"654","<p style=""color:rgb(150, 250, 100); font-size: 35px;"">自己的</p>","e","categorize-html","22","324852","0.0-6.0-0.0-2.0-1.6","3","4","4","3","3","3","4","3","4","3","4","5","5","4","4","5","5","4","4","4","1","2","2","1","1","2","1","2","1","1","0","1","1","1","0","0","0","0","1","1","0","0","0","1","4","2","1","2","1","1","2","2","1","4","1","595169798766198784","林","574","","","","","","","","","","","","","","","","","","","true","1","1","ability","654","self","自己的","","","","","","","","","","","","","","","","",""
"null","","null","html-keyboard-response","23","325103","0.0-6.0-0.0-2.0-0.7","3","4","4","3","3","3","4","3","4","3","4","5","5","4","4","5","5","4","4","4","1","2","2","1","1","2","1","2","1","1","0","1","1","1","0","0","0","0","1","1","0","0","0","1","4","2","1","2","1","1","2","2","1","4","1","595169798766198784","林","574","","","","","","","","","","","","","","","","","","","","","","","","","","","","","","","","","","","","","","","","","",""
"1825","<p style=""color:rgb(150, 250, 100); font-size: 35px;"">本人</p>","e","categorize-html","24","326930","0.0-6.0-0.0-2.0-1.7","3","4","4","3","3","3","4","3","4","3","4","5","5","4","4","5","5","4","4","4","1","2","2","1","1","2","1","2","1","1","0","1","1","1","0","0","0","0","1","1","0","0","0","1","4","2","1","2","1","1","2","2","1","4","1","595169798766198784","林","574","","","","","","","","","","","","","","","","","","","true","1","1","ability","1825","self","本人","","","","","","","","","","","","","","","","",""
"null","","null","html-keyboard-response","25","327182","0.0-6.0-0.0-2.0-0.8","3","4","4","3","3","3","4","3","4","3","4","5","5","4","4","5","5","4","4","4","1","2","2","1","1","2","1","2","1","1","0","1","1","1","0","0","0","0","1","1","0","0","0","1","4","2","1","2","1","1","2","2","1","4","1","595169798766198784","林","574","","","","","","","","","","","","","","","","","","","","","","","","","","","","","","","","","","","","","","","","","",""
"831","<p style=""color:rgb(150, 250, 100); font-size: 35px;"">我的</p>","e","categorize-html","26","328015","0.0-6.0-0.0-2.0-1.8","3","4","4","3","3","3","4","3","4","3","4","5","5","4","4","5","5","4","4","4","1","2","2","1","1","2","1","2","1","1","0","1","1","1","0","0","0","0","1","1","0","0","0","1","4","2","1","2","1","1","2","2","1","4","1","595169798766198784","林","574","","","","","","","","","","","","","","","","","","","true","1","1","ability","831","self","我的","","","","","","","","","","","","","","","","",""
"null","","null","html-keyboard-response","27","328266","0.0-6.0-0.0-2.0-0.9","3","4","4","3","3","3","4","3","4","3","4","5","5","4","4","5","5","4","4","4","1","2","2","1","1","2","1","2","1","1","0","1","1","1","0","0","0","0","1","1","0","0","0","1","4","2","1","2","1","1","2","2","1","4","1","595169798766198784","林","574","","","","","","","","","","","","","","","","","","","","","","","","","","","","","","","","","","","","","","","","","",""
"689","<p style=""color:rgb(150, 250, 100); font-size: 35px;"">他的</p>","i","categorize-html","28","328957","0.0-6.0-0.0-2.0-1.9","3","4","4","3","3","3","4","3","4","3","4","5","5","4","4","5","5","4","4","4","1","2","2","1","1","2","1","2","1","1","0","1","1","1","0","0","0","0","1","1","0","0","0","1","4","2","1","2","1","1","2","2","1","4","1","595169798766198784","林","574","","","","","","","","","","","","","","","","","","","true","1","1","ability","689","other","他的","","","","","","","","","","","","","","","","",""
"null","","null","html-keyboard-response","29","329208","0.0-6.0-0.0-2.0-0.10","3","4","4","3","3","3","4","3","4","3","4","5","5","4","4","5","5","4","4","4","1","2","2","1","1","2","1","2","1","1","0","1","1","1","0","0","0","0","1","1","0","0","0","1","4","2","1","2","1","1","2","2","1","4","1","595169798766198784","林","574","","","","","","","","","","","","","","","","","","","","","","","","","","","","","","","","","","","","","","","","","",""
"637","<p style=""color:rgb(150, 250, 100); font-size: 35px;"">我</p>","e","categorize-html","30","329848","0.0-6.0-0.0-2.0-1.10","3","4","4","3","3","3","4","3","4","3","4","5","5","4","4","5","5","4","4","4","1","2","2","1","1","2","1","2","1","1","0","1","1","1","0","0","0","0","1","1","0","0","0","1","4","2","1","2","1","1","2","2","1","4","1","595169798766198784","林","574","","","","","","","","","","","","","","","","","","","true","1","1","ability","637","self","我","","","","","","","","","","","","","","","","",""
"null","","null","html-keyboard-response","31","330100","0.0-6.0-0.0-2.0-0.11","3","4","4","3","3","3","4","3","4","3","4","5","5","4","4","5","5","4","4","4","1","2","2","1","1","2","1","2","1","1","0","1","1","1","0","0","0","0","1","1","0","0","0","1","4","2","1","2","1","1","2","2","1","4","1","595169798766198784","林","574","","","","","","","","","","","","","","","","","","","","","","","","","","","","","","","","","","","","","","","","","",""
"630","<p style=""color:rgb(150, 250, 100); font-size: 35px;"">他</p>","i","categorize-html","32","330732","0.0-6.0-0.0-2.0-1.11","3","4","4","3","3","3","4","3","4","3","4","5","5","4","4","5","5","4","4","4","1","2","2","1","1","2","1","2","1","1","0","1","1","1","0","0","0","0","1","1","0","0","0","1","4","2","1","2","1","1","2","2","1","4","1","595169798766198784","林","574","","","","","","","","","","","","","","","","","","","true","1","1","ability","630","other","他","","","","","","","","","","","","","","","","",""
"2077","
    <div class=""tag-bottom""><p>
    —— 任务2：对“消极”词和“积极”词分类 ——<p/>   
    <span style=""color:#78DCE8""><b>注意上方，类别标签和需要分类的词语都已经改变</b></span><p/>
    <span style=""color:#FFD866""><b>请根据上方标签的提示，尽可能正确并且快速地做出按键反应</b></span><p/>
    当按键错误时屏幕中会出现<span style=""color:red""> X </span>，需要按另一个键纠正才能继续<br/><p/>
    请把双手食指分别放在键盘的“E”键和“I”键上<p/>
    按<空格键>开始
    </p></div>"," ","html-keyboard-response","33","332809","0.0-6.0-0.0-3.0","3","4","4","3","3","3","4","3","4","3","4","5","5","4","4","5","5","4","4","4","1","2","2","1","1","2","1","2","1","1","0","1","1","1","0","0","0","0","1","1","0","0","0","1","4","2","1","2","1","1","2","2","1","4","1","595169798766198784","林","574","","","","","","","","","","","","","","","","","","","","","","","","","","","","","","","","","","","","","","","","","",""
"null","","null","html-keyboard-response","34","333060","0.0-6.0-0.0-4.0-0.0","3","4","4","3","3","3","4","3","4","3","4","5","5","4","4","5","5","4","4","4","1","2","2","1","1","2","1","2","1","1","0","1","1","1","0","0","0","0","1","1","0","0","0","1","4","2","1","2","1","1","2","2","1","4","1","595169798766198784","林","574","","","","","","","","","","","","","","","","","","","","","","","","","","","","","","","","","","","","","","","","","",""
"993","<p style=""color:white; font-size: 35px;"">蠢笨</p>","e","categorize-html","35","334056","0.0-6.0-0.0-4.0-1.0","3","4","4","3","3","3","4","3","4","3","4","5","5","4","4","5","5","4","4","4","1","2","2","1","1","2","1","2","1","1","0","1","1","1","0","0","0","0","1","1","0","0","0","1","4","2","1","2","1","1","2","2","1","4","1","595169798766198784","林","574","","","","","","","","","","","","","","","","","","","true","2","2","ability","993","negative","蠢笨","","","","","","","","","","","","","","","","",""
"null","","null","html-keyboard-response","36","334306","0.0-6.0-0.0-4.0-0.1","3","4","4","3","3","3","4","3","4","3","4","5","5","4","4","5","5","4","4","4","1","2","2","1","1","2","1","2","1","1","0","1","1","1","0","0","0","0","1","1","0","0","0","1","4","2","1","2","1","1","2","2","1","4","1","595169798766198784","林","574","","","","","","","","","","","","","","","","","","","","","","","","","","","","","","","","","","","","","","","","","",""
"788","<p style=""color:white; font-size: 35px;"">低能</p>","e","categorize-html","37","335097","0.0-6.0-0.0-4.0-1.1","3","4","4","3","3","3","4","3","4","3","4","5","5","4","4","5","5","4","4","4","1","2","2","1","1","2","1","2","1","1","0","1","1","1","0","0","0","0","1","1","0","0","0","1","4","2","1","2","1","1","2","2","1","4","1","595169798766198784","林","574","","","","","","","","","","","","","","","","","","","true","2","2","ability","788","negative","低能","","","","","","","","","","","","","","","","",""
"null","","null","html-keyboard-response","38","335348","0.0-6.0-0.0-4.0-0.2","3","4","4","3","3","3","4","3","4","3","4","5","5","4","4","5","5","4","4","4","1","2","2","1","1","2","1","2","1","1","0","1","1","1","0","0","0","0","1","1","0","0","0","1","4","2","1","2","1","1","2","2","1","4","1","595169798766198784","林","574","","","","","","","","","","","","","","","","","","","","","","","","","","","","","","","","","","","","","","","","","",""
"865","<p style=""color:white; font-size: 35px;"">精干</p>","i","categorize-html","39","336215","0.0-6.0-0.0-4.0-1.2","3","4","4","3","3","3","4","3","4","3","4","5","5","4","4","5","5","4","4","4","1","2","2","1","1","2","1","2","1","1","0","1","1","1","0","0","0","0","1","1","0","0","0","1","4","2","1","2","1","1","2","2","1","4","1","595169798766198784","林","574","","","","","","","","","","","","","","","","","","","true","2","2","ability","865","positive","精干","","","","","","","","","","","","","","","","",""
"null","","null","html-keyboard-response","40","336466","0.0-6.0-0.0-4.0-0.3","3","4","4","3","3","3","4","3","4","3","4","5","5","4","4","5","5","4","4","4","1","2","2","1","1","2","1","2","1","1","0","1","1","1","0","0","0","0","1","1","0","0","0","1","4","2","1","2","1","1","2","2","1","4","1","595169798766198784","林","574","","","","","","","","","","","","","","","","","","","","","","","","","","","","","","","","","","","","","","","","","",""
"1058","<p style=""color:white; font-size: 35px;"">拙笨</p>","e","categorize-html","41","337527","0.0-6.0-0.0-4.0-1.3","3","4","4","3","3","3","4","3","4","3","4","5","5","4","4","5","5","4","4","4","1","2","2","1","1","2","1","2","1","1","0","1","1","1","0","0","0","0","1","1","0","0","0","1","4","2","1","2","1","1","2","2","1","4","1","595169798766198784","林","574","","","","","","","","","","","","","","","","","","","true","2","2","ability","1058","negative","拙笨","","","","","","","","","","","","","","","","",""
"null","","null","html-keyboard-response","42","337778","0.0-6.0-0.0-4.0-0.4","3","4","4","3","3","3","4","3","4","3","4","5","5","4","4","5","5","4","4","4","1","2","2","1","1","2","1","2","1","1","0","1","1","1","0","0","0","0","1","1","0","0","0","1","4","2","1","2","1","1","2","2","1","4","1","595169798766198784","林","574","","","","","","","","","","","","","","","","","","","","","","","","","","","","","","","","","","","","","","","","","",""
"1175","<p style=""color:white; font-size: 35px;"">能干</p>","i","categorize-html","43","338955","0.0-6.0-0.0-4.0-1.4","3","4","4","3","3","3","4","3","4","3","4","5","5","4","4","5","5","4","4","4","1","2","2","1","1","2","1","2","1","1","0","1","1","1","0","0","0","0","1","1","0","0","0","1","4","2","1","2","1","1","2","2","1","4","1","595169798766198784","林","574","","","","","","","","","","","","","","","","","","","true","2","2","ability","1175","positive","能干","","","","","","","","","","","","","","","","",""
"null","","null","html-keyboard-response","44","339206","0.0-6.0-0.0-4.0-0.5","3","4","4","3","3","3","4","3","4","3","4","5","5","4","4","5","5","4","4","4","1","2","2","1","1","2","1","2","1","1","0","1","1","1","0","0","0","0","1","1","0","0","0","1","4","2","1","2","1","1","2","2","1","4","1","595169798766198784","林","574","","","","","","","","","","","","","","","","","","","","","","","","","","","","","","","","","","","","","","","","","",""
"903","<p style=""color:white; font-size: 35px;"">废物</p>","i","categorize-html","45","340717","0.0-6.0-0.0-4.0-1.5","3","4","4","3","3","3","4","3","4","3","4","5","5","4","4","5","5","4","4","4","1","2","2","1","1","2","1","2","1","1","0","1","1","1","0","0","0","0","1","1","0","0","0","1","4","2","1","2","1","1","2","2","1","4","1","595169798766198784","林","574","","","","","","","","","","","","","","","","","","","false","2","2","ability","903","negative","废物","","","","","","","","","","","","","","","","",""
"null","","null","html-keyboard-response","46","340970","0.0-6.0-0.0-4.0-0.6","3","4","4","3","3","3","4","3","4","3","4","5","5","4","4","5","5","4","4","4","1","2","2","1","1","2","1","2","1","1","0","1","1","1","0","0","0","0","1","1","0","0","0","1","4","2","1","2","1","1","2","2","1","4","1","595169798766198784","林","574","","","","","","","","","","","","","","","","","","","","","","","","","","","","","","","","","","","","","","","","","",""
"918","<p style=""color:white; font-size: 35px;"">愚钝</p>","e","categorize-html","47","341890","0.0-6.0-0.0-4.0-1.6","3","4","4","3","3","3","4","3","4","3","4","5","5","4","4","5","5","4","4","4","1","2","2","1","1","2","1","2","1","1","0","1","1","1","0","0","0","0","1","1","0","0","0","1","4","2","1","2","1","1","2","2","1","4","1","595169798766198784","林","574","","","","","","","","","","","","","","","","","","","true","2","2","ability","918","negative","愚钝","","","","","","","","","","","","","","","","",""
"null","","null","html-keyboard-response","48","342141","0.0-6.0-0.0-4.0-0.7","3","4","4","3","3","3","4","3","4","3","4","5","5","4","4","5","5","4","4","4","1","2","2","1","1","2","1","2","1","1","0","1","1","1","0","0","0","0","1","1","0","0","0","1","4","2","1","2","1","1","2","2","1","4","1","595169798766198784","林","574","","","","","","","","","","","","","","","","","","","","","","","","","","","","","","","","","","","","","","","","","",""
"686","<p style=""color:white; font-size: 35px;"">全能</p>","i","categorize-html","49","342829","0.0-6.0-0.0-4.0-1.7","3","4","4","3","3","3","4","3","4","3","4","5","5","4","4","5","5","4","4","4","1","2","2","1","1","2","1","2","1","1","0","1","1","1","0","0","0","0","1","1","0","0","0","1","4","2","1","2","1","1","2","2","1","4","1","595169798766198784","林","574","","","","","","","","","","","","","","","","","","","true","2","2","ability","686","positive","全能","","","","","","","","","","","","","","","","",""
"null","","null","html-keyboard-response","50","343080","0.0-6.0-0.0-4.0-0.8","3","4","4","3","3","3","4","3","4","3","4","5","5","4","4","5","5","4","4","4","1","2","2","1","1","2","1","2","1","1","0","1","1","1","0","0","0","0","1","1","0","0","0","1","4","2","1","2","1","1","2","2","1","4","1","595169798766198784","林","574","","","","","","","","","","","","","","","","","","","","","","","","","","","","","","","","","","","","","","","","","",""
"619","<p style=""color:white; font-size: 35px;"">高效</p>","i","categorize-html","51","343701","0.0-6.0-0.0-4.0-1.8","3","4","4","3","3","3","4","3","4","3","4","5","5","4","4","5","5","4","4","4","1","2","2","1","1","2","1","2","1","1","0","1","1","1","0","0","0","0","1","1","0","0","0","1","4","2","1","2","1","1","2","2","1","4","1","595169798766198784","林","574","","","","","","","","","","","","","","","","","","","true","2","2","ability","619","positive","高效","","","","","","","","","","","","","","","","",""
"null","","null","html-keyboard-response","52","343953","0.0-6.0-0.0-4.0-0.9","3","4","4","3","3","3","4","3","4","3","4","5","5","4","4","5","5","4","4","4","1","2","2","1","1","2","1","2","1","1","0","1","1","1","0","0","0","0","1","1","0","0","0","1","4","2","1","2","1","1","2","2","1","4","1","595169798766198784","林","574","","","","","","","","","","","","","","","","","","","","","","","","","","","","","","","","","","","","","","","","","",""
"651","<p style=""color:white; font-size: 35px;"">无能</p>","e","categorize-html","53","344606","0.0-6.0-0.0-4.0-1.9","3","4","4","3","3","3","4","3","4","3","4","5","5","4","4","5","5","4","4","4","1","2","2","1","1","2","1","2","1","1","0","1","1","1","0","0","0","0","1","1","0","0","0","1","4","2","1","2","1","1","2","2","1","4","1","595169798766198784","林","574","","","","","","","","","","","","","","","","","","","true","2","2","ability","651","negative","无能","","","","","","","","","","","","","","","","",""
"null","","null","html-keyboard-response","54","344857","0.0-6.0-0.0-4.0-0.10","3","4","4","3","3","3","4","3","4","3","4","5","5","4","4","5","5","4","4","4","1","2","2","1","1","2","1","2","1","1","0","1","1","1","0","0","0","0","1","1","0","0","0","1","4","2","1","2","1","1","2","2","1","4","1","595169798766198784","林","574","","","","","","","","","","","","","","","","","","","","","","","","","","","","","","","","","","","","","","","","","",""
"790","<p style=""color:white; font-size: 35px;"">全才</p>","i","categorize-html","55","345650","0.0-6.0-0.0-4.0-1.10","3","4","4","3","3","3","4","3","4","3","4","5","5","4","4","5","5","4","4","4","1","2","2","1","1","2","1","2","1","1","0","1","1","1","0","0","0","0","1","1","0","0","0","1","4","2","1","2","1","1","2","2","1","4","1","595169798766198784","林","574","","","","","","","","","","","","","","","","","","","true","2","2","ability","790","positive","全才","","","","","","","","","","","","","","","","",""
"null","","null","html-keyboard-response","56","345901","0.0-6.0-0.0-4.0-0.11","3","4","4","3","3","3","4","3","4","3","4","5","5","4","4","5","5","4","4","4","1","2","2","1","1","2","1","2","1","1","0","1","1","1","0","0","0","0","1","1","0","0","0","1","4","2","1","2","1","1","2","2","1","4","1","595169798766198784","林","574","","","","","","","","","","","","","","","","","","","","","","","","","","","","","","","","","","","","","","","","","",""
"670","<p style=""color:white; font-size: 35px;"">天才</p>","i","categorize-html","57","346573","0.0-6.0-0.0-4.0-1.11","3","4","4","3","3","3","4","3","4","3","4","5","5","4","4","5","5","4","4","4","1","2","2","1","1","2","1","2","1","1","0","1","1","1","0","0","0","0","1","1","0","0","0","1","4","2","1","2","1","1","2","2","1","4","1","595169798766198784","林","574","","","","","","","","","","","","","","","","","","","true","2","2","ability","670","positive","天才","","","","","","","","","","","","","","","","",""
"1672","
    <div class=""tag-bottom""><p>
    —— 任务3：对“自我/消极”词和“他人/积极”词分类 ——<p/>
    <span style=""color:#78DCE8""><b>注意上方，之前的四类词语将混合在一起交替呈现</b></span><p/>
    <span style=""color:#FFD866""><b>请根据上方标签的提示，尽可能正确并且快速地做出按键反应</b></span><p/>
    当按键错误时屏幕中会出现<span style=""color:red""> X </span>，需要按另一个键纠正才能继续<br/><p/>
    请把双手食指分别放在键盘的“E”键和“I”键上<p/>
    按<空格键>开始
    </p></div>"," ","html-keyboard-response","58","348246","0.0-6.0-0.0-5.0","3","4","4","3","3","3","4","3","4","3","4","5","5","4","4","5","5","4","4","4","1","2","2","1","1","2","1","2","1","1","0","1","1","1","0","0","0","0","1","1","0","0","0","1","4","2","1","2","1","1","2","2","1","4","1","595169798766198784","林","574","","","","","","","","","","","","","","","","","","","","","","","","","","","","","","","","","","","","","","","","","",""
"null","","null","html-keyboard-response","59","348497","0.0-6.0-0.0-6.0-0.0","3","4","4","3","3","3","4","3","4","3","4","5","5","4","4","5","5","4","4","4","1","2","2","1","1","2","1","2","1","1","0","1","1","1","0","0","0","0","1","1","0","0","0","1","4","2","1","2","1","1","2","2","1","4","1","595169798766198784","林","574","","","","","","","","","","","","","","","","","","","","","","","","","","","","","","","","","","","","","","","","","",""
"1491","<p style=""color:rgb(150, 250, 100); font-size: 35px;"">他</p>","i","categorize-html","60","349991","0.0-6.0-0.0-6.0-1.0","3","4","4","3","3","3","4","3","4","3","4","5","5","4","4","5","5","4","4","4","1","2","2","1","1","2","1","2","1","1","0","1","1","1","0","0","0","0","1","1","0","0","0","1","4","2","1","2","1","1","2","2","1","4","1","595169798766198784","林","574","","","","","","","","","","","","","","","","","","","true","3","3","ability","1491","other","他","","","","","","","","","","","","","","","","",""
"null","","null","html-keyboard-response","61","350242","0.0-6.0-0.0-6.0-0.1","3","4","4","3","3","3","4","3","4","3","4","5","5","4","4","5","5","4","4","4","1","2","2","1","1","2","1","2","1","1","0","1","1","1","0","0","0","0","1","1","0","0","0","1","4","2","1","2","1","1","2","2","1","4","1","595169798766198784","林","574","","","","","","","","","","","","","","","","","","","","","","","","","","","","","","","","","","","","","","","","","",""
"740","<p style=""color:white; font-size: 35px;"">拙笨</p>","e","categorize-html","62","350982","0.0-6.0-0.0-6.0-1.1","3","4","4","3","3","3","4","3","4","3","4","5","5","4","4","5","5","4","4","4","1","2","2","1","1","2","1","2","1","1","0","1","1","1","0","0","0","0","1","1","0","0","0","1","4","2","1","2","1","1","2","2","1","4","1","595169798766198784","林","574","","","","","","","","","","","","","","","","","","","true","3","3","ability","740","negative","拙笨","","","","","","","","","","","","","","","","",""
"null","","null","html-keyboard-response","63","351234","0.0-6.0-0.0-6.0-0.2","3","4","4","3","3","3","4","3","4","3","4","5","5","4","4","5","5","4","4","4","1","2","2","1","1","2","1","2","1","1","0","1","1","1","0","0","0","0","1","1","0","0","0","1","4","2","1","2","1","1","2","2","1","4","1","595169798766198784","林","574","","","","","","","","","","","","","","","","","","","","","","","","","","","","","","","","","","","","","","","","","",""
"1146","<p style=""color:rgb(150, 250, 100); font-size: 35px;"">本人的</p>","e","categorize-html","64","352382","0.0-6.0-0.0-6.0-1.2","3","4","4","3","3","3","4","3","4","3","4","5","5","4","4","5","5","4","4","4","1","2","2","1","1","2","1","2","1","1","0","1","1","1","0","0","0","0","1","1","0","0","0","1","4","2","1","2","1","1","2","2","1","4","1","595169798766198784","林","574","","","","","","","","","","","","","","","","","","","true","3","3","ability","1146","self","本人的","","","","","","","","","","","","","","","","",""
"null","","null","html-keyboard-response","65","352635","0.0-6.0-0.0-6.0-0.3","3","4","4","3","3","3","4","3","4","3","4","5","5","4","4","5","5","4","4","4","1","2","2","1","1","2","1","2","1","1","0","1","1","1","0","0","0","0","1","1","0","0","0","1","4","2","1","2","1","1","2","2","1","4","1","595169798766198784","林","574","","","","","","","","","","","","","","","","","","","","","","","","","","","","","","","","","","","","","","","","","",""
"944","<p style=""color:white; font-size: 35px;"">高效</p>","i","categorize-html","66","353580","0.0-6.0-0.0-6.0-1.3","3","4","4","3","3","3","4","3","4","3","4","5","5","4","4","5","5","4","4","4","1","2","2","1","1","2","1","2","1","1","0","1","1","1","0","0","0","0","1","1","0","0","0","1","4","2","1","2","1","1","2","2","1","4","1","595169798766198784","林","574","","","","","","","","","","","","","","","","","","","true","3","3","ability","944","positive","高效","","","","","","","","","","","","","","","","",""
"null","","null","html-keyboard-response","67","353832","0.0-6.0-0.0-6.0-0.4","3","4","4","3","3","3","4","3","4","3","4","5","5","4","4","5","5","4","4","4","1","2","2","1","1","2","1","2","1","1","0","1","1","1","0","0","0","0","1","1","0","0","0","1","4","2","1","2","1","1","2","2","1","4","1","595169798766198784","林","574","","","","","","","","","","","","","","","","","","","","","","","","","","","","","","","","","","","","","","","","","",""
"1099","<p style=""color:rgb(150, 250, 100); font-size: 35px;"">自己的</p>","e","categorize-html","68","354933","0.0-6.0-0.0-6.0-1.4","3","4","4","3","3","3","4","3","4","3","4","5","5","4","4","5","5","4","4","4","1","2","2","1","1","2","1","2","1","1","0","1","1","1","0","0","0","0","1","1","0","0","0","1","4","2","1","2","1","1","2","2","1","4","1","595169798766198784","林","574","","","","","","","","","","","","","","","","","","","true","3","3","ability","1099","self","自己的","","","","","","","","","","","","","","","","",""
"null","","null","html-keyboard-response","69","355185","0.0-6.0-0.0-6.0-0.5","3","4","4","3","3","3","4","3","4","3","4","5","5","4","4","5","5","4","4","4","1","2","2","1","1","2","1","2","1","1","0","1","1","1","0","0","0","0","1","1","0","0","0","1","4","2","1","2","1","1","2","2","1","4","1","595169798766198784","林","574","","","","","","","","","","","","","","","","","","","","","","","","","","","","","","","","","","","","","","","","","",""
"877","<p style=""color:white; font-size: 35px;"">天才</p>","i","categorize-html","70","356064","0.0-6.0-0.0-6.0-1.5","3","4","4","3","3","3","4","3","4","3","4","5","5","4","4","5","5","4","4","4","1","2","2","1","1","2","1","2","1","1","0","1","1","1","0","0","0","0","1","1","0","0","0","1","4","2","1","2","1","1","2","2","1","4","1","595169798766198784","林","574","","","","","","","","","","","","","","","","","","","true","3","3","ability","877","positive","天才","","","","","","","","","","","","","","","","",""
"null","","null","html-keyboard-response","71","356316","0.0-6.0-0.0-6.0-0.6","3","4","4","3","3","3","4","3","4","3","4","5","5","4","4","5","5","4","4","4","1","2","2","1","1","2","1","2","1","1","0","1","1","1","0","0","0","0","1","1","0","0","0","1","4","2","1","2","1","1","2","2","1","4","1","595169798766198784","林","574","","","","","","","","","","","","","","","","","","","","","","","","","","","","","","","","","","","","","","","","","",""
"851","<p style=""color:rgb(150, 250, 100); font-size: 35px;"">他人</p>","i","categorize-html","72","357169","0.0-6.0-0.0-6.0-1.6","3","4","4","3","3","3","4","3","4","3","4","5","5","4","4","5","5","4","4","4","1","2","2","1","1","2","1","2","1","1","0","1","1","1","0","0","0","0","1","1","0","0","0","1","4","2","1","2","1","1","2","2","1","4","1","595169798766198784","林","574","","","","","","","","","","","","","","","","","","","true","3","3","ability","851","other","他人","","","","","","","","","","","","","","","","",""
"null","","null","html-keyboard-response","73","357420","0.0-6.0-0.0-6.0-0.7","3","4","4","3","3","3","4","3","4","3","4","5","5","4","4","5","5","4","4","4","1","2","2","1","1","2","1","2","1","1","0","1","1","1","0","0","0","0","1","1","0","0","0","1","4","2","1","2","1","1","2","2","1","4","1","595169798766198784","林","574","","","","","","","","","","","","","","","","","","","","","","","","","","","","","","","","","","","","","","","","","",""
"774","<p style=""color:white; font-size: 35px;"">蠢笨</p>","e","categorize-html","74","358197","0.0-6.0-0.0-6.0-1.7","3","4","4","3","3","3","4","3","4","3","4","5","5","4","4","5","5","4","4","4","1","2","2","1","1","2","1","2","1","1","0","1","1","1","0","0","0","0","1","1","0","0","0","1","4","2","1","2","1","1","2","2","1","4","1","595169798766198784","林","574","","","","","","","","","","","","","","","","","","","true","3","3","ability","774","negative","蠢笨","","","","","","","","","","","","","","","","",""
"null","","null","html-keyboard-response","75","358447","0.0-6.0-0.0-6.0-0.8","3","4","4","3","3","3","4","3","4","3","4","5","5","4","4","5","5","4","4","4","1","2","2","1","1","2","1","2","1","1","0","1","1","1","0","0","0","0","1","1","0","0","0","1","4","2","1","2","1","1","2","2","1","4","1","595169798766198784","林","574","","","","","","","","","","","","","","","","","","","","","","","","","","","","","","","","","","","","","","","","","",""
"760","<p style=""color:rgb(150, 250, 100); font-size: 35px;"">他的</p>","i","categorize-html","76","359210","0.0-6.0-0.0-6.0-1.8","3","4","4","3","3","3","4","3","4","3","4","5","5","4","4","5","5","4","4","4","1","2","2","1","1","2","1","2","1","1","0","1","1","1","0","0","0","0","1","1","0","0","0","1","4","2","1","2","1","1","2","2","1","4","1","595169798766198784","林","574","","","","","","","","","","","","","","","","","","","true","3","3","ability","760","other","他的","","","","","","","","","","","","","","","","",""
"null","","null","html-keyboard-response","77","359470","0.0-6.0-0.0-6.0-0.9","3","4","4","3","3","3","4","3","4","3","4","5","5","4","4","5","5","4","4","4","1","2","2","1","1","2","1","2","1","1","0","1","1","1","0","0","0","0","1","1","0","0","0","1","4","2","1","2","1","1","2","2","1","4","1","595169798766198784","林","574","","","","","","","","","","","","","","","","","","","","","","","","","","","","","","","","","","","","","","","","","",""
"1009","<p style=""color:white; font-size: 35px;"">低能</p>","e","categorize-html","78","360481","0.0-6.0-0.0-6.0-1.9","3","4","4","3","3","3","4","3","4","3","4","5","5","4","4","5","5","4","4","4","1","2","2","1","1","2","1","2","1","1","0","1","1","1","0","0","0","0","1","1","0","0","0","1","4","2","1","2","1","1","2","2","1","4","1","595169798766198784","林","574","","","","","","","","","","","","","","","","","","","true","3","3","ability","1009","negative","低能","","","","","","","","","","","","","","","","",""
"null","","null","html-keyboard-response","79","360733","0.0-6.0-0.0-6.0-0.10","3","4","4","3","3","3","4","3","4","3","4","5","5","4","4","5","5","4","4","4","1","2","2","1","1","2","1","2","1","1","0","1","1","1","0","0","0","0","1","1","0","0","0","1","4","2","1","2","1","1","2","2","1","4","1","595169798766198784","林","574","","","","","","","","","","","","","","","","","","","","","","","","","","","","","","","","","","","","","","","","","",""
"648","<p style=""color:rgb(150, 250, 100); font-size: 35px;"">本人</p>","i","categorize-html","80","362187","0.0-6.0-0.0-6.0-1.10","3","4","4","3","3","3","4","3","4","3","4","5","5","4","4","5","5","4","4","4","1","2","2","1","1","2","1","2","1","1","0","1","1","1","0","0","0","0","1","1","0","0","0","1","4","2","1","2","1","1","2","2","1","4","1","595169798766198784","林","574","","","","","","","","","","","","","","","","","","","false","3","3","ability","1509.818181818182","self","本人","","","","","","","","","","","","","","","","",""
"null","","null","html-keyboard-response","81","362439","0.0-6.0-0.0-6.0-0.11","3","4","4","3","3","3","4","3","4","3","4","5","5","4","4","5","5","4","4","4","1","2","2","1","1","2","1","2","1","1","0","1","1","1","0","0","0","0","1","1","0","0","0","1","4","2","1","2","1","1","2","2","1","4","1","595169798766198784","林","574","","","","","","","","","","","","","","","","","","","","","","","","","","","","","","","","","","","","","","","","","",""
"765","<p style=""color:white; font-size: 35px;"">全才</p>","e","categorize-html","82","363603","0.0-6.0-0.0-6.0-1.11","3","4","4","3","3","3","4","3","4","3","4","5","5","4","4","5","5","4","4","4","1","2","2","1","1","2","1","2","1","1","0","1","1","1","0","0","0","0","1","1","0","0","0","1","4","2","1","2","1","1","2","2","1","4","1","595169798766198784","林","574","","","","","","","","","","","","","","","","","","","false","3","3","ability","1509.818181818182","positive","全才","","","","","","","","","","","","","","","","",""
"null","","null","html-keyboard-response","83","363855","0.0-6.0-0.0-6.0-0.12","3","4","4","3","3","3","4","3","4","3","4","5","5","4","4","5","5","4","4","4","1","2","2","1","1","2","1","2","1","1","0","1","1","1","0","0","0","0","1","1","0","0","0","1","4","2","1","2","1","1","2","2","1","4","1","595169798766198784","林","574","","","","","","","","","","","","","","","","","","","","","","","","","","","","","","","","","","","","","","","","","",""
"752","<p style=""color:rgb(150, 250, 100); font-size: 35px;"">我的</p>","e","categorize-html","84","364609","0.0-6.0-0.0-6.0-1.12","3","4","4","3","3","3","4","3","4","3","4","5","5","4","4","5","5","4","4","4","1","2","2","1","1","2","1","2","1","1","0","1","1","1","0","0","0","0","1","1","0","0","0","1","4","2","1","2","1","1","2","2","1","4","1","595169798766198784","林","574","","","","","","","","","","","","","","","","","","","true","3","3","ability","752","self","我的","","","","","","","","","","","","","","","","",""
"null","","null","html-keyboard-response","85","364861","0.0-6.0-0.0-6.0-0.13","3","4","4","3","3","3","4","3","4","3","4","5","5","4","4","5","5","4","4","4","1","2","2","1","1","2","1","2","1","1","0","1","1","1","0","0","0","0","1","1","0","0","0","1","4","2","1","2","1","1","2","2","1","4","1","595169798766198784","林","574","","","","","","","","","","","","","","","","","","","","","","","","","","","","","","","","","","","","","","","","","",""
"835","<p style=""color:white; font-size: 35px;"">愚钝</p>","e","categorize-html","86","365698","0.0-6.0-0.0-6.0-1.13","3","4","4","3","3","3","4","3","4","3","4","5","5","4","4","5","5","4","4","4","1","2","2","1","1","2","1","2","1","1","0","1","1","1","0","0","0","0","1","1","0","0","0","1","4","2","1","2","1","1","2","2","1","4","1","595169798766198784","林","574","","","","","","","","","","","","","","","","","","","true","3","3","ability","835","negative","愚钝","","","","","","","","","","","","","","","","",""
"null","","null","html-keyboard-response","87","365950","0.0-6.0-0.0-6.0-0.14","3","4","4","3","3","3","4","3","4","3","4","5","5","4","4","5","5","4","4","4","1","2","2","1","1","2","1","2","1","1","0","1","1","1","0","0","0","0","1","1","0","0","0","1","4","2","1","2","1","1","2","2","1","4","1","595169798766198784","林","574","","","","","","","","","","","","","","","","","","","","","","","","","","","","","","","","","","","","","","","","","",""
"717","<p style=""color:rgb(150, 250, 100); font-size: 35px;"">别人</p>","i","categorize-html","88","366669","0.0-6.0-0.0-6.0-1.14","3","4","4","3","3","3","4","3","4","3","4","5","5","4","4","5","5","4","4","4","1","2","2","1","1","2","1","2","1","1","0","1","1","1","0","0","0","0","1","1","0","0","0","1","4","2","1","2","1","1","2","2","1","4","1","595169798766198784","林","574","","","","","","","","","","","","","","","","","","","true","3","3","ability","717","other","别人","","","","","","","","","","","","","","","","",""
"null","","null","html-keyboard-response","89","366921","0.0-6.0-0.0-6.0-0.15","3","4","4","3","3","3","4","3","4","3","4","5","5","4","4","5","5","4","4","4","1","2","2","1","1","2","1","2","1","1","0","1","1","1","0","0","0","0","1","1","0","0","0","1","4","2","1","2","1","1","2","2","1","4","1","595169798766198784","林","574","","","","","","","","","","","","","","","","","","","","","","","","","","","","","","","","","","","","","","","","","",""
"1092","<p style=""color:white; font-size: 35px;"">精干</p>","i","categorize-html","90","368015","0.0-6.0-0.0-6.0-1.15","3","4","4","3","3","3","4","3","4","3","4","5","5","4","4","5","5","4","4","4","1","2","2","1","1","2","1","2","1","1","0","1","1","1","0","0","0","0","1","1","0","0","0","1","4","2","1","2","1","1","2","2","1","4","1","595169798766198784","林","574","","","","","","","","","","","","","","","","","","","true","3","3","ability","1092","positive","精干","","","","","","","","","","","","","","","","",""
"null","","null","html-keyboard-response","91","368266","0.0-6.0-0.0-6.0-0.16","3","4","4","3","3","3","4","3","4","3","4","5","5","4","4","5","5","4","4","4","1","2","2","1","1","2","1","2","1","1","0","1","1","1","0","0","0","0","1","1","0","0","0","1","4","2","1","2","1","1","2","2","1","4","1","595169798766198784","林","574","","","","","","","","","","","","","","","","","","","","","","","","","","","","","","","","","","","","","","","","","",""
"999","<p style=""color:rgb(150, 250, 100); font-size: 35px;"">我</p>","e","categorize-html","92","369267","0.0-6.0-0.0-6.0-1.16","3","4","4","3","3","3","4","3","4","3","4","5","5","4","4","5","5","4","4","4","1","2","2","1","1","2","1","2","1","1","0","1","1","1","0","0","0","0","1","1","0","0","0","1","4","2","1","2","1","1","2","2","1","4","1","595169798766198784","林","574","","","","","","","","","","","","","","","","","","","true","3","3","ability","999","self","我","","","","","","","","","","","","","","","","",""
"null","","null","html-keyboard-response","93","369518","0.0-6.0-0.0-6.0-0.17","3","4","4","3","3","3","4","3","4","3","4","5","5","4","4","5","5","4","4","4","1","2","2","1","1","2","1","2","1","1","0","1","1","1","0","0","0","0","1","1","0","0","0","1","4","2","1","2","1","1","2","2","1","4","1","595169798766198784","林","574","","","","","","","","","","","","","","","","","","","","","","","","","","","","","","","","","","","","","","","","","",""
"966","<p style=""color:white; font-size: 35px;"">全能</p>","i","categorize-html","94","370486","0.0-6.0-0.0-6.0-1.17","3","4","4","3","3","3","4","3","4","3","4","5","5","4","4","5","5","4","4","4","1","2","2","1","1","2","1","2","1","1","0","1","1","1","0","0","0","0","1","1","0","0","0","1","4","2","1","2","1","1","2","2","1","4","1","595169798766198784","林","574","","","","","","","","","","","","","","","","","","","true","3","3","ability","966","positive","全能","","","","","","","","","","","","","","","","",""
"null","","null","html-keyboard-response","95","370737","0.0-6.0-0.0-6.0-0.18","3","4","4","3","3","3","4","3","4","3","4","5","5","4","4","5","5","4","4","4","1","2","2","1","1","2","1","2","1","1","0","1","1","1","0","0","0","0","1","1","0","0","0","1","4","2","1","2","1","1","2","2","1","4","1","595169798766198784","林","574","","","","","","","","","","","","","","","","","","","","","","","","","","","","","","","","","","","","","","","","","",""
"787","<p style=""color:rgb(150, 250, 100); font-size: 35px;"">别人的</p>","i","categorize-html","96","371526","0.0-6.0-0.0-6.0-1.18","3","4","4","3","3","3","4","3","4","3","4","5","5","4","4","5","5","4","4","4","1","2","2","1","1","2","1","2","1","1","0","1","1","1","0","0","0","0","1","1","0","0","0","1","4","2","1","2","1","1","2","2","1","4","1","595169798766198784","林","574","","","","","","","","","","","","","","","","","","","true","3","3","ability","787","other","别人的","","","","","","","","","","","","","","","","",""
"null","","null","html-keyboard-response","97","371778","0.0-6.0-0.0-6.0-0.19","3","4","4","3","3","3","4","3","4","3","4","5","5","4","4","5","5","4","4","4","1","2","2","1","1","2","1","2","1","1","0","1","1","1","0","0","0","0","1","1","0","0","0","1","4","2","1","2","1","1","2","2","1","4","1","595169798766198784","林","574","","","","","","","","","","","","","","","","","","","","","","","","","","","","","","","","","","","","","","","","","",""
"818","<p style=""color:white; font-size: 35px;"">无能</p>","e","categorize-html","98","372599","0.0-6.0-0.0-6.0-1.19","3","4","4","3","3","3","4","3","4","3","4","5","5","4","4","5","5","4","4","4","1","2","2","1","1","2","1","2","1","1","0","1","1","1","0","0","0","0","1","1","0","0","0","1","4","2","1","2","1","1","2","2","1","4","1","595169798766198784","林","574","","","","","","","","","","","","","","","","","","","true","3","3","ability","818","negative","无能","","","","","","","","","","","","","","","","",""
"null","","null","html-keyboard-response","99","372851","0.0-6.0-0.0-6.0-0.20","3","4","4","3","3","3","4","3","4","3","4","5","5","4","4","5","5","4","4","4","1","2","2","1","1","2","1","2","1","1","0","1","1","1","0","0","0","0","1","1","0","0","0","1","4","2","1","2","1","1","2","2","1","4","1","595169798766198784","林","574","","","","","","","","","","","","","","","","","","","","","","","","","","","","","","","","","","","","","","","","","",""
"924","<p style=""color:rgb(150, 250, 100); font-size: 35px;"">自己</p>","e","categorize-html","100","373777","0.0-6.0-0.0-6.0-1.20","3","4","4","3","3","3","4","3","4","3","4","5","5","4","4","5","5","4","4","4","1","2","2","1","1","2","1","2","1","1","0","1","1","1","0","0","0","0","1","1","0","0","0","1","4","2","1","2","1","1","2","2","1","4","1","595169798766198784","林","574","","","","","","","","","","","","","","","","","","","true","3","3","ability","924","self","自己","","","","","","","","","","","","","","","","",""
"null","","null","html-keyboard-response","101","374029","0.0-6.0-0.0-6.0-0.21","3","4","4","3","3","3","4","3","4","3","4","5","5","4","4","5","5","4","4","4","1","2","2","1","1","2","1","2","1","1","0","1","1","1","0","0","0","0","1","1","0","0","0","1","4","2","1","2","1","1","2","2","1","4","1","595169798766198784","林","574","","","","","","","","","","","","","","","","","","","","","","","","","","","","","","","","","","","","","","","","","",""
"914","<p style=""color:white; font-size: 35px;"">废物</p>","e","categorize-html","102","374945","0.0-6.0-0.0-6.0-1.21","3","4","4","3","3","3","4","3","4","3","4","5","5","4","4","5","5","4","4","4","1","2","2","1","1","2","1","2","1","1","0","1","1","1","0","0","0","0","1","1","0","0","0","1","4","2","1","2","1","1","2","2","1","4","1","595169798766198784","林","574","","","","","","","","","","","","","","","","","","","true","3","3","ability","914","negative","废物","","","","","","","","","","","","","","","","",""
"null","","null","html-keyboard-response","103","375196","0.0-6.0-0.0-6.0-0.22","3","4","4","3","3","3","4","3","4","3","4","5","5","4","4","5","5","4","4","4","1","2","2","1","1","2","1","2","1","1","0","1","1","1","0","0","0","0","1","1","0","0","0","1","4","2","1","2","1","1","2","2","1","4","1","595169798766198784","林","574","","","","","","","","","","","","","","","","","","","","","","","","","","","","","","","","","","","","","","","","","",""
"700","<p style=""color:rgb(150, 250, 100); font-size: 35px;"">他人的</p>","i","categorize-html","104","375898","0.0-6.0-0.0-6.0-1.22","3","4","4","3","3","3","4","3","4","3","4","5","5","4","4","5","5","4","4","4","1","2","2","1","1","2","1","2","1","1","0","1","1","1","0","0","0","0","1","1","0","0","0","1","4","2","1","2","1","1","2","2","1","4","1","595169798766198784","林","574","","","","","","","","","","","","","","","","","","","true","3","3","ability","700","other","他人的","","","","","","","","","","","","","","","","",""
"null","","null","html-keyboard-response","105","376150","0.0-6.0-0.0-6.0-0.23","3","4","4","3","3","3","4","3","4","3","4","5","5","4","4","5","5","4","4","4","1","2","2","1","1","2","1","2","1","1","0","1","1","1","0","0","0","0","1","1","0","0","0","1","4","2","1","2","1","1","2","2","1","4","1","595169798766198784","林","574","","","","","","","","","","","","","","","","","","","","","","","","","","","","","","","","","","","","","","","","","",""
"821","<p style=""color:white; font-size: 35px;"">能干</p>","i","categorize-html","106","376973","0.0-6.0-0.0-6.0-1.23","3","4","4","3","3","3","4","3","4","3","4","5","5","4","4","5","5","4","4","4","1","2","2","1","1","2","1","2","1","1","0","1","1","1","0","0","0","0","1","1","0","0","0","1","4","2","1","2","1","1","2","2","1","4","1","595169798766198784","林","574","","","","","","","","","","","","","","","","","","","true","3","3","ability","821","positive","能干","","","","","","","","","","","","","","","","",""
"2995","
    <div class=""tag-bottom""><p>
    —— 任务4：对“自我/消极”词和“他人/积极”词分类 ——<p/>
    <span style=""color:#78DCE8""><b>与刚才的任务完全相同，请再次对这四类词语分类</b></span><p/>
    <span style=""color:#FFD866""><b>请根据上方标签的提示，尽可能正确并且快速地做出按键反应</b></span><p/>
    当按键错误时屏幕中会出现<span style=""color:red""> X </span>，需要按另一个键纠正才能继续<br/><p/>
    请把双手食指分别放在键盘的“E”键和“I”键上<p/>
    按<空格键>开始
    </p></div>"," ","html-keyboard-response","107","379968","0.0-6.0-0.0-7.0","3","4","4","3","3","3","4","3","4","3","4","5","5","4","4","5","5","4","4","4","1","2","2","1","1","2","1","2","1","1","0","1","1","1","0","0","0","0","1","1","0","0","0","1","4","2","1","2","1","1","2","2","1","4","1","595169798766198784","林","574","","","","","","","","","","","","","","","","","","","","","","","","","","","","","","","","","","","","","","","","","",""
"null","","null","html-keyboard-response","108","380219","0.0-6.0-0.0-8.0-0.0","3","4","4","3","3","3","4","3","4","3","4","5","5","4","4","5","5","4","4","4","1","2","2","1","1","2","1","2","1","1","0","1","1","1","0","0","0","0","1","1","0","0","0","1","4","2","1","2","1","1","2","2","1","4","1","595169798766198784","林","574","","","","","","","","","","","","","","","","","","","","","","","","","","","","","","","","","","","","","","","","","",""
"693","<p style=""color:rgb(150, 250, 100); font-size: 35px;"">本人</p>","i","categorize-html","109","381534","0.0-6.0-0.0-8.0-1.0","3","4","4","3","3","3","4","3","4","3","4","5","5","4","4","5","5","4","4","4","1","2","2","1","1","2","1","2","1","1","0","1","1","1","0","0","0","0","1","1","0","0","0","1","4","2","1","2","1","1","2","2","1","4","1","595169798766198784","林","574","","","","","","","","","","","","","","","","","","","false","4","4","ability","1531.4222222222222","self","本人","","","","","","","","","","","","","","","","",""
"null","","null","html-keyboard-response","110","381786","0.0-6.0-0.0-8.0-0.1","3","4","4","3","3","3","4","3","4","3","4","5","5","4","4","5","5","4","4","4","1","2","2","1","1","2","1","2","1","1","0","1","1","1","0","0","0","0","1","1","0","0","0","1","4","2","1","2","1","1","2","2","1","4","1","595169798766198784","林","574","","","","","","","","","","","","","","","","","","","","","","","","","","","","","","","","","","","","","","","","","",""
"1186","<p style=""color:white; font-size: 35px;"">全才</p>","i","categorize-html","111","382974","0.0-6.0-0.0-8.0-1.1","3","4","4","3","3","3","4","3","4","3","4","5","5","4","4","5","5","4","4","4","1","2","2","1","1","2","1","2","1","1","0","1","1","1","0","0","0","0","1","1","0","0","0","1","4","2","1","2","1","1","2","2","1","4","1","595169798766198784","林","574","","","","","","","","","","","","","","","","","","","true","4","4","ability","1186","positive","全才","","","","","","","","","","","","","","","","",""
"null","","null","html-keyboard-response","112","383226","0.0-6.0-0.0-8.0-0.2","3","4","4","3","3","3","4","3","4","3","4","5","5","4","4","5","5","4","4","4","1","2","2","1","1","2","1","2","1","1","0","1","1","1","0","0","0","0","1","1","0","0","0","1","4","2","1","2","1","1","2","2","1","4","1","595169798766198784","林","574","","","","","","","","","","","","","","","","","","","","","","","","","","","","","","","","","","","","","","","","","",""
"706","<p style=""color:rgb(150, 250, 100); font-size: 35px;"">他的</p>","i","categorize-html","113","383934","0.0-6.0-0.0-8.0-1.2","3","4","4","3","3","3","4","3","4","3","4","5","5","4","4","5","5","4","4","4","1","2","2","1","1","2","1","2","1","1","0","1","1","1","0","0","0","0","1","1","0","0","0","1","4","2","1","2","1","1","2","2","1","4","1","595169798766198784","林","574","","","","","","","","","","","","","","","","","","","true","4","4","ability","706","other","他的","","","","","","","","","","","","","","","","",""
"null","","null","html-keyboard-response","114","384185","0.0-6.0-0.0-8.0-0.3","3","4","4","3","3","3","4","3","4","3","4","5","5","4","4","5","5","4","4","4","1","2","2","1","1","2","1","2","1","1","0","1","1","1","0","0","0","0","1","1","0","0","0","1","4","2","1","2","1","1","2","2","1","4","1","595169798766198784","林","574","","","","","","","","","","","","","","","","","","","","","","","","","","","","","","","","","","","","","","","","","",""
"709","<p style=""color:white; font-size: 35px;"">愚钝</p>","e","categorize-html","115","384897","0.0-6.0-0.0-8.0-1.3","3","4","4","3","3","3","4","3","4","3","4","5","5","4","4","5","5","4","4","4","1","2","2","1","1","2","1","2","1","1","0","1","1","1","0","0","0","0","1","1","0","0","0","1","4","2","1","2","1","1","2","2","1","4","1","595169798766198784","林","574","","","","","","","","","","","","","","","","","","","true","4","4","ability","709","negative","愚钝","","","","","","","","","","","","","","","","",""
"null","","null","html-keyboard-response","116","385148","0.0-6.0-0.0-8.0-0.4","3","4","4","3","3","3","4","3","4","3","4","5","5","4","4","5","5","4","4","4","1","2","2","1","1","2","1","2","1","1","0","1","1","1","0","0","0","0","1","1","0","0","0","1","4","2","1","2","1","1","2","2","1","4","1","595169798766198784","林","574","","","","","","","","","","","","","","","","","","","","","","","","","","","","","","","","","","","","","","","","","",""
"706","<p style=""color:rgb(150, 250, 100); font-size: 35px;"">本人的</p>","i","categorize-html","117","386434","0.0-6.0-0.0-8.0-1.4","3","4","4","3","3","3","4","3","4","3","4","5","5","4","4","5","5","4","4","4","1","2","2","1","1","2","1","2","1","1","0","1","1","1","0","0","0","0","1","1","0","0","0","1","4","2","1","2","1","1","2","2","1","4","1","595169798766198784","林","574","","","","","","","","","","","","","","","","","","","false","4","4","ability","1531.4222222222222","self","本人的","","","","","","","","","","","","","","","","",""
"null","","null","html-keyboard-response","118","386685","0.0-6.0-0.0-8.0-0.5","3","4","4","3","3","3","4","3","4","3","4","5","5","4","4","5","5","4","4","4","1","2","2","1","1","2","1","2","1","1","0","1","1","1","0","0","0","0","1","1","0","0","0","1","4","2","1","2","1","1","2","2","1","4","1","595169798766198784","林","574","","","","","","","","","","","","","","","","","","","","","","","","","","","","","","","","","","","","","","","","","",""
"810","<p style=""color:white; font-size: 35px;"">高效</p>","i","categorize-html","119","387497","0.0-6.0-0.0-8.0-1.5","3","4","4","3","3","3","4","3","4","3","4","5","5","4","4","5","5","4","4","4","1","2","2","1","1","2","1","2","1","1","0","1","1","1","0","0","0","0","1","1","0","0","0","1","4","2","1","2","1","1","2","2","1","4","1","595169798766198784","林","574","","","","","","","","","","","","","","","","","","","true","4","4","ability","810","positive","高效","","","","","","","","","","","","","","","","",""
"null","","null","html-keyboard-response","120","387749","0.0-6.0-0.0-8.0-0.6","3","4","4","3","3","3","4","3","4","3","4","5","5","4","4","5","5","4","4","4","1","2","2","1","1","2","1","2","1","1","0","1","1","1","0","0","0","0","1","1","0","0","0","1","4","2","1","2","1","1","2","2","1","4","1","595169798766198784","林","574","","","","","","","","","","","","","","","","","","","","","","","","","","","","","","","","","","","","","","","","","",""
"869","<p style=""color:rgb(150, 250, 100); font-size: 35px;"">他的</p>","i","categorize-html","121","388620","0.0-6.0-0.0-8.0-1.6","3","4","4","3","3","3","4","3","4","3","4","5","5","4","4","5","5","4","4","4","1","2","2","1","1","2","1","2","1","1","0","1","1","1","0","0","0","0","1","1","0","0","0","1","4","2","1","2","1","1","2","2","1","4","1","595169798766198784","林","574","","","","","","","","","","","","","","","","","","","true","4","4","ability","869","other","他的","","","","","","","","","","","","","","","","",""
"null","","null","html-keyboard-response","122","388871","0.0-6.0-0.0-8.0-0.7","3","4","4","3","3","3","4","3","4","3","4","5","5","4","4","5","5","4","4","4","1","2","2","1","1","2","1","2","1","1","0","1","1","1","0","0","0","0","1","1","0","0","0","1","4","2","1","2","1","1","2","2","1","4","1","595169798766198784","林","574","","","","","","","","","","","","","","","","","","","","","","","","","","","","","","","","","","","","","","","","","",""
"945","<p style=""color:white; font-size: 35px;"">蠢笨</p>","e","categorize-html","123","389819","0.0-6.0-0.0-8.0-1.7","3","4","4","3","3","3","4","3","4","3","4","5","5","4","4","5","5","4","4","4","1","2","2","1","1","2","1","2","1","1","0","1","1","1","0","0","0","0","1","1","0","0","0","1","4","2","1","2","1","1","2","2","1","4","1","595169798766198784","林","574","","","","","","","","","","","","","","","","","","","true","4","4","ability","945","negative","蠢笨","","","","","","","","","","","","","","","","",""
"null","","null","html-keyboard-response","124","390069","0.0-6.0-0.0-8.0-0.8","3","4","4","3","3","3","4","3","4","3","4","5","5","4","4","5","5","4","4","4","1","2","2","1","1","2","1","2","1","1","0","1","1","1","0","0","0","0","1","1","0","0","0","1","4","2","1","2","1","1","2","2","1","4","1","595169798766198784","林","574","","","","","","","","","","","","","","","","","","","","","","","","","","","","","","","","","","","","","","","","","",""
"724","<p style=""color:rgb(150, 250, 100); font-size: 35px;"">自己</p>","e","categorize-html","125","390796","0.0-6.0-0.0-8.0-1.8","3","4","4","3","3","3","4","3","4","3","4","5","5","4","4","5","5","4","4","4","1","2","2","1","1","2","1","2","1","1","0","1","1","1","0","0","0","0","1","1","0","0","0","1","4","2","1","2","1","1","2","2","1","4","1","595169798766198784","林","574","","","","","","","","","","","","","","","","","","","true","4","4","ability","724","self","自己","","","","","","","","","","","","","","","","",""
"null","","null","html-keyboard-response","126","391048","0.0-6.0-0.0-8.0-0.9","3","4","4","3","3","3","4","3","4","3","4","5","5","4","4","5","5","4","4","4","1","2","2","1","1","2","1","2","1","1","0","1","1","1","0","0","0","0","1","1","0","0","0","1","4","2","1","2","1","1","2","2","1","4","1","595169798766198784","林","574","","","","","","","","","","","","","","","","","","","","","","","","","","","","","","","","","","","","","","","","","",""
"835","<p style=""color:white; font-size: 35px;"">精干</p>","i","categorize-html","127","391886","0.0-6.0-0.0-8.0-1.9","3","4","4","3","3","3","4","3","4","3","4","5","5","4","4","5","5","4","4","4","1","2","2","1","1","2","1","2","1","1","0","1","1","1","0","0","0","0","1","1","0","0","0","1","4","2","1","2","1","1","2","2","1","4","1","595169798766198784","林","574","","","","","","","","","","","","","","","","","","","true","4","4","ability","835","positive","精干","","","","","","","","","","","","","","","","",""
"null","","null","html-keyboard-response","128","392137","0.0-6.0-0.0-8.0-0.10","3","4","4","3","3","3","4","3","4","3","4","5","5","4","4","5","5","4","4","4","1","2","2","1","1","2","1","2","1","1","0","1","1","1","0","0","0","0","1","1","0","0","0","1","4","2","1","2","1","1","2","2","1","4","1","595169798766198784","林","574","","","","","","","","","","","","","","","","","","","","","","","","","","","","","","","","","","","","","","","","","",""
"610","<p style=""color:rgb(150, 250, 100); font-size: 35px;"">他</p>","i","categorize-html","129","392750","0.0-6.0-0.0-8.0-1.10","3","4","4","3","3","3","4","3","4","3","4","5","5","4","4","5","5","4","4","4","1","2","2","1","1","2","1","2","1","1","0","1","1","1","0","0","0","0","1","1","0","0","0","1","4","2","1","2","1","1","2","2","1","4","1","595169798766198784","林","574","","","","","","","","","","","","","","","","","","","true","4","4","ability","610","other","他","","","","","","","","","","","","","","","","",""
"null","","null","html-keyboard-response","130","393010","0.0-6.0-0.0-8.0-0.11","3","4","4","3","3","3","4","3","4","3","4","5","5","4","4","5","5","4","4","4","1","2","2","1","1","2","1","2","1","1","0","1","1","1","0","0","0","0","1","1","0","0","0","1","4","2","1","2","1","1","2","2","1","4","1","595169798766198784","林","574","","","","","","","","","","","","","","","","","","","","","","","","","","","","","","","","","","","","","","","","","",""
"757","<p style=""color:white; font-size: 35px;"">低能</p>","e","categorize-html","131","393768","0.0-6.0-0.0-8.0-1.11","3","4","4","3","3","3","4","3","4","3","4","5","5","4","4","5","5","4","4","4","1","2","2","1","1","2","1","2","1","1","0","1","1","1","0","0","0","0","1","1","0","0","0","1","4","2","1","2","1","1","2","2","1","4","1","595169798766198784","林","574","","","","","","","","","","","","","","","","","","","true","4","4","ability","757","negative","低能","","","","","","","","","","","","","","","","",""
"null","","null","html-keyboard-response","132","394020","0.0-6.0-0.0-8.0-0.12","3","4","4","3","3","3","4","3","4","3","4","5","5","4","4","5","5","4","4","4","1","2","2","1","1","2","1","2","1","1","0","1","1","1","0","0","0","0","1","1","0","0","0","1","4","2","1","2","1","1","2","2","1","4","1","595169798766198784","林","574","","","","","","","","","","","","","","","","","","","","","","","","","","","","","","","","","","","","","","","","","",""
"1087","<p style=""color:rgb(150, 250, 100); font-size: 35px;"">别人</p>","i","categorize-html","133","395109","0.0-6.0-0.0-8.0-1.12","3","4","4","3","3","3","4","3","4","3","4","5","5","4","4","5","5","4","4","4","1","2","2","1","1","2","1","2","1","1","0","1","1","1","0","0","0","0","1","1","0","0","0","1","4","2","1","2","1","1","2","2","1","4","1","595169798766198784","林","574","","","","","","","","","","","","","","","","","","","true","4","4","ability","1087","other","别人","","","","","","","","","","","","","","","","",""
"null","","null","html-keyboard-response","134","395360","0.0-6.0-0.0-8.0-0.13","3","4","4","3","3","3","4","3","4","3","4","5","5","4","4","5","5","4","4","4","1","2","2","1","1","2","1","2","1","1","0","1","1","1","0","0","0","0","1","1","0","0","0","1","4","2","1","2","1","1","2","2","1","4","1","595169798766198784","林","574","","","","","","","","","","","","","","","","","","","","","","","","","","","","","","","","","","","","","","","","","",""
"1148","<p style=""color:white; font-size: 35px;"">能干</p>","i","categorize-html","135","396511","0.0-6.0-0.0-8.0-1.13","3","4","4","3","3","3","4","3","4","3","4","5","5","4","4","5","5","4","4","4","1","2","2","1","1","2","1","2","1","1","0","1","1","1","0","0","0","0","1","1","0","0","0","1","4","2","1","2","1","1","2","2","1","4","1","595169798766198784","林","574","","","","","","","","","","","","","","","","","","","true","4","4","ability","1148","positive","能干","","","","","","","","","","","","","","","","",""
"null","","null","html-keyboard-response","136","396763","0.0-6.0-0.0-8.0-0.14","3","4","4","3","3","3","4","3","4","3","4","5","5","4","4","5","5","4","4","4","1","2","2","1","1","2","1","2","1","1","0","1","1","1","0","0","0","0","1","1","0","0","0","1","4","2","1","2","1","1","2","2","1","4","1","595169798766198784","林","574","","","","","","","","","","","","","","","","","","","","","","","","","","","","","","","","","","","","","","","","","",""
"1062","<p style=""color:rgb(150, 250, 100); font-size: 35px;"">我</p>","e","categorize-html","137","397827","0.0-6.0-0.0-8.0-1.14","3","4","4","3","3","3","4","3","4","3","4","5","5","4","4","5","5","4","4","4","1","2","2","1","1","2","1","2","1","1","0","1","1","1","0","0","0","0","1","1","0","0","0","1","4","2","1","2","1","1","2","2","1","4","1","595169798766198784","林","574","","","","","","","","","","","","","","","","","","","true","4","4","ability","1062","self","我","","","","","","","","","","","","","","","","",""
"null","","null","html-keyboard-response","138","398078","0.0-6.0-0.0-8.0-0.15","3","4","4","3","3","3","4","3","4","3","4","5","5","4","4","5","5","4","4","4","1","2","2","1","1","2","1","2","1","1","0","1","1","1","0","0","0","0","1","1","0","0","0","1","4","2","1","2","1","1","2","2","1","4","1","595169798766198784","林","574","","","","","","","","","","","","","","","","","","","","","","","","","","","","","","","","","","","","","","","","","",""
"830","<p style=""color:white; font-size: 35px;"">废物</p>","e","categorize-html","139","398910","0.0-6.0-0.0-8.0-1.15","3","4","4","3","3","3","4","3","4","3","4","5","5","4","4","5","5","4","4","4","1","2","2","1","1","2","1","2","1","1","0","1","1","1","0","0","0","0","1","1","0","0","0","1","4","2","1","2","1","1","2","2","1","4","1","595169798766198784","林","574","","","","","","","","","","","","","","","","","","","true","4","4","ability","830","negative","废物","","","","","","","","","","","","","","","","",""
"null","","null","html-keyboard-response","140","399161","0.0-6.0-0.0-8.0-0.16","3","4","4","3","3","3","4","3","4","3","4","5","5","4","4","5","5","4","4","4","1","2","2","1","1","2","1","2","1","1","0","1","1","1","0","0","0","0","1","1","0","0","0","1","4","2","1","2","1","1","2","2","1","4","1","595169798766198784","林","574","","","","","","","","","","","","","","","","","","","","","","","","","","","","","","","","","","","","","","","","","",""
"709","<p style=""color:rgb(150, 250, 100); font-size: 35px;"">他人</p>","i","categorize-html","141","399872","0.0-6.0-0.0-8.0-1.16","3","4","4","3","3","3","4","3","4","3","4","5","5","4","4","5","5","4","4","4","1","2","2","1","1","2","1","2","1","1","0","1","1","1","0","0","0","0","1","1","0","0","0","1","4","2","1","2","1","1","2","2","1","4","1","595169798766198784","林","574","","","","","","","","","","","","","","","","","","","true","4","4","ability","709","other","他人","","","","","","","","","","","","","","","","",""
"null","","null","html-keyboard-response","142","400123","0.0-6.0-0.0-8.0-0.17","3","4","4","3","3","3","4","3","4","3","4","5","5","4","4","5","5","4","4","4","1","2","2","1","1","2","1","2","1","1","0","1","1","1","0","0","0","0","1","1","0","0","0","1","4","2","1","2","1","1","2","2","1","4","1","595169798766198784","林","574","","","","","","","","","","","","","","","","","","","","","","","","","","","","","","","","","","","","","","","","","",""
"1502","<p style=""color:white; font-size: 35px;"">低能</p>","e","categorize-html","143","401627","0.0-6.0-0.0-8.0-1.17","3","4","4","3","3","3","4","3","4","3","4","5","5","4","4","5","5","4","4","4","1","2","2","1","1","2","1","2","1","1","0","1","1","1","0","0","0","0","1","1","0","0","0","1","4","2","1","2","1","1","2","2","1","4","1","595169798766198784","林","574","","","","","","","","","","","","","","","","","","","true","4","4","ability","1502","negative","低能","","","","","","","","","","","","","","","","",""
"null","","null","html-keyboard-response","144","401879","0.0-6.0-0.0-8.0-0.18","3","4","4","3","3","3","4","3","4","3","4","5","5","4","4","5","5","4","4","4","1","2","2","1","1","2","1","2","1","1","0","1","1","1","0","0","0","0","1","1","0","0","0","1","4","2","1","2","1","1","2","2","1","4","1","595169798766198784","林","574","","","","","","","","","","","","","","","","","","","","","","","","","","","","","","","","","","","","","","","","","",""
"988","<p style=""color:rgb(150, 250, 100); font-size: 35px;"">我</p>","e","categorize-html","145","402869","0.0-6.0-0.0-8.0-1.18","3","4","4","3","3","3","4","3","4","3","4","5","5","4","4","5","5","4","4","4","1","2","2","1","1","2","1","2","1","1","0","1","1","1","0","0","0","0","1","1","0","0","0","1","4","2","1","2","1","1","2","2","1","4","1","595169798766198784","林","574","","","","","","","","","","","","","","","","","","","true","4","4","ability","988","self","我","","","","","","","","","","","","","","","","",""
"null","","null","html-keyboard-response","146","403120","0.0-6.0-0.0-8.0-0.19","3","4","4","3","3","3","4","3","4","3","4","5","5","4","4","5","5","4","4","4","1","2","2","1","1","2","1","2","1","1","0","1","1","1","0","0","0","0","1","1","0","0","0","1","4","2","1","2","1","1","2","2","1","4","1","595169798766198784","林","574","","","","","","","","","","","","","","","","","","","","","","","","","","","","","","","","","","","","","","","","","",""
"816","<p style=""color:white; font-size: 35px;"">高效</p>","i","categorize-html","147","403938","0.0-6.0-0.0-8.0-1.19","3","4","4","3","3","3","4","3","4","3","4","5","5","4","4","5","5","4","4","4","1","2","2","1","1","2","1","2","1","1","0","1","1","1","0","0","0","0","1","1","0","0","0","1","4","2","1","2","1","1","2","2","1","4","1","595169798766198784","林","574","","","","","","","","","","","","","","","","","","","true","4","4","ability","816","positive","高效","","","","","","","","","","","","","","","","",""
"null","","null","html-keyboard-response","148","404189","0.0-6.0-0.0-8.0-0.20","3","4","4","3","3","3","4","3","4","3","4","5","5","4","4","5","5","4","4","4","1","2","2","1","1","2","1","2","1","1","0","1","1","1","0","0","0","0","1","1","0","0","0","1","4","2","1","2","1","1","2","2","1","4","1","595169798766198784","林","574","","","","","","","","","","","","","","","","","","","","","","","","","","","","","","","","","","","","","","","","","",""
"1443","<p style=""color:rgb(150, 250, 100); font-size: 35px;"">别人的</p>","i","categorize-html","149","405635","0.0-6.0-0.0-8.0-1.20","3","4","4","3","3","3","4","3","4","3","4","5","5","4","4","5","5","4","4","4","1","2","2","1","1","2","1","2","1","1","0","1","1","1","0","0","0","0","1","1","0","0","0","1","4","2","1","2","1","1","2","2","1","4","1","595169798766198784","林","574","","","","","","","","","","","","","","","","","","","true","4","4","ability","1443","other","别人的","","","","","","","","","","","","","","","","",""
"null","","null","html-keyboard-response","150","405886","0.0-6.0-0.0-8.0-0.21","3","4","4","3","3","3","4","3","4","3","4","5","5","4","4","5","5","4","4","4","1","2","2","1","1","2","1","2","1","1","0","1","1","1","0","0","0","0","1","1","0","0","0","1","4","2","1","2","1","1","2","2","1","4","1","595169798766198784","林","574","","","","","","","","","","","","","","","","","","","","","","","","","","","","","","","","","","","","","","","","","",""
"847","<p style=""color:white; font-size: 35px;"">全才</p>","i","categorize-html","151","406736","0.0-6.0-0.0-8.0-1.21","3","4","4","3","3","3","4","3","4","3","4","5","5","4","4","5","5","4","4","4","1","2","2","1","1","2","1","2","1","1","0","1","1","1","0","0","0","0","1","1","0","0","0","1","4","2","1","2","1","1","2","2","1","4","1","595169798766198784","林","574","","","","","","","","","","","","","","","","","","","true","4","4","ability","847","positive","全才","","","","","","","","","","","","","","","","",""
"null","","null","html-keyboard-response","152","406989","0.0-6.0-0.0-8.0-0.22","3","4","4","3","3","3","4","3","4","3","4","5","5","4","4","5","5","4","4","4","1","2","2","1","1","2","1","2","1","1","0","1","1","1","0","0","0","0","1","1","0","0","0","1","4","2","1","2","1","1","2","2","1","4","1","595169798766198784","林","574","","","","","","","","","","","","","","","","","","","","","","","","","","","","","","","","","","","","","","","","","",""
"835","<p style=""color:rgb(150, 250, 100); font-size: 35px;"">自己的</p>","e","categorize-html","153","407826","0.0-6.0-0.0-8.0-1.22","3","4","4","3","3","3","4","3","4","3","4","5","5","4","4","5","5","4","4","4","1","2","2","1","1","2","1","2","1","1","0","1","1","1","0","0","0","0","1","1","0","0","0","1","4","2","1","2","1","1","2","2","1","4","1","595169798766198784","林","574","","","","","","","","","","","","","","","","","","","true","4","4","ability","835","self","自己的","","","","","","","","","","","","","","","","",""
"null","","null","html-keyboard-response","154","408077","0.0-6.0-0.0-8.0-0.23","3","4","4","3","3","3","4","3","4","3","4","5","5","4","4","5","5","4","4","4","1","2","2","1","1","2","1","2","1","1","0","1","1","1","0","0","0","0","1","1","0","0","0","1","4","2","1","2","1","1","2","2","1","4","1","595169798766198784","林","574","","","","","","","","","","","","","","","","","","","","","","","","","","","","","","","","","","","","","","","","","",""
"1199","<p style=""color:white; font-size: 35px;"">拙笨</p>","e","categorize-html","155","409279","0.0-6.0-0.0-8.0-1.23","3","4","4","3","3","3","4","3","4","3","4","5","5","4","4","5","5","4","4","4","1","2","2","1","1","2","1","2","1","1","0","1","1","1","0","0","0","0","1","1","0","0","0","1","4","2","1","2","1","1","2","2","1","4","1","595169798766198784","林","574","","","","","","","","","","","","","","","","","","","true","4","4","ability","1199","negative","拙笨","","","","","","","","","","","","","","","","",""
"null","","null","html-keyboard-response","156","409530","0.0-6.0-0.0-8.0-0.24","3","4","4","3","3","3","4","3","4","3","4","5","5","4","4","5","5","4","4","4","1","2","2","1","1","2","1","2","1","1","0","1","1","1","0","0","0","0","1","1","0","0","0","1","4","2","1","2","1","1","2","2","1","4","1","595169798766198784","林","574","","","","","","","","","","","","","","","","","","","","","","","","","","","","","","","","","","","","","","","","","",""
"573","<p style=""color:rgb(150, 250, 100); font-size: 35px;"">别人的</p>","i","categorize-html","157","410105","0.0-6.0-0.0-8.0-1.24","3","4","4","3","3","3","4","3","4","3","4","5","5","4","4","5","5","4","4","4","1","2","2","1","1","2","1","2","1","1","0","1","1","1","0","0","0","0","1","1","0","0","0","1","4","2","1","2","1","1","2","2","1","4","1","595169798766198784","林","574","","","","","","","","","","","","","","","","","","","true","4","4","ability","573","other","别人的","","","","","","","","","","","","","","","","",""
"null","","null","html-keyboard-response","158","410356","0.0-6.0-0.0-8.0-0.25","3","4","4","3","3","3","4","3","4","3","4","5","5","4","4","5","5","4","4","4","1","2","2","1","1","2","1","2","1","1","0","1","1","1","0","0","0","0","1","1","0","0","0","1","4","2","1","2","1","1","2","2","1","4","1","595169798766198784","林","574","","","","","","","","","","","","","","","","","","","","","","","","","","","","","","","","","","","","","","","","","",""
"633","<p style=""color:white; font-size: 35px;"">天才</p>","i","categorize-html","159","410991","0.0-6.0-0.0-8.0-1.25","3","4","4","3","3","3","4","3","4","3","4","5","5","4","4","5","5","4","4","4","1","2","2","1","1","2","1","2","1","1","0","1","1","1","0","0","0","0","1","1","0","0","0","1","4","2","1","2","1","1","2","2","1","4","1","595169798766198784","林","574","","","","","","","","","","","","","","","","","","","true","4","4","ability","633","positive","天才","","","","","","","","","","","","","","","","",""
"null","","null","html-keyboard-response","160","411243","0.0-6.0-0.0-8.0-0.26","3","4","4","3","3","3","4","3","4","3","4","5","5","4","4","5","5","4","4","4","1","2","2","1","1","2","1","2","1","1","0","1","1","1","0","0","0","0","1","1","0","0","0","1","4","2","1","2","1","1","2","2","1","4","1","595169798766198784","林","574","","","","","","","","","","","","","","","","","","","","","","","","","","","","","","","","","","","","","","","","","",""
"757","<p style=""color:rgb(150, 250, 100); font-size: 35px;"">我的</p>","e","categorize-html","161","412002","0.0-6.0-0.0-8.0-1.26","3","4","4","3","3","3","4","3","4","3","4","5","5","4","4","5","5","4","4","4","1","2","2","1","1","2","1","2","1","1","0","1","1","1","0","0","0","0","1","1","0","0","0","1","4","2","1","2","1","1","2","2","1","4","1","595169798766198784","林","574","","","","","","","","","","","","","","","","","","","true","4","4","ability","757","self","我的","","","","","","","","","","","","","","","","",""
"null","","null","html-keyboard-response","162","412262","0.0-6.0-0.0-8.0-0.27","3","4","4","3","3","3","4","3","4","3","4","5","5","4","4","5","5","4","4","4","1","2","2","1","1","2","1","2","1","1","0","1","1","1","0","0","0","0","1","1","0","0","0","1","4","2","1","2","1","1","2","2","1","4","1","595169798766198784","林","574","","","","","","","","","","","","","","","","","","","","","","","","","","","","","","","","","","","","","","","","","",""
"1125","<p style=""color:white; font-size: 35px;"">无能</p>","e","categorize-html","163","413389","0.0-6.0-0.0-8.0-1.27","3","4","4","3","3","3","4","3","4","3","4","5","5","4","4","5","5","4","4","4","1","2","2","1","1","2","1","2","1","1","0","1","1","1","0","0","0","0","1","1","0","0","0","1","4","2","1","2","1","1","2","2","1","4","1","595169798766198784","林","574","","","","","","","","","","","","","","","","","","","true","4","4","ability","1125","negative","无能","","","","","","","","","","","","","","","","",""
"null","","null","html-keyboard-response","164","413641","0.0-6.0-0.0-8.0-0.28","3","4","4","3","3","3","4","3","4","3","4","5","5","4","4","5","5","4","4","4","1","2","2","1","1","2","1","2","1","1","0","1","1","1","0","0","0","0","1","1","0","0","0","1","4","2","1","2","1","1","2","2","1","4","1","595169798766198784","林","574","","","","","","","","","","","","","","","","","","","","","","","","","","","","","","","","","","","","","","","","","",""
"1029","<p style=""color:rgb(150, 250, 100); font-size: 35px;"">别人</p>","e","categorize-html","165","415394","0.0-6.0-0.0-8.0-1.28","3","4","4","3","3","3","4","3","4","3","4","5","5","4","4","5","5","4","4","4","1","2","2","1","1","2","1","2","1","1","0","1","1","1","0","0","0","0","1","1","0","0","0","1","4","2","1","2","1","1","2","2","1","4","1","595169798766198784","林","574","","","","","","","","","","","","","","","","","","","false","4","4","ability","1531.4222222222222","other","别人","","","","","","","","","","","","","","","","",""
"null","","null","html-keyboard-response","166","415645","0.0-6.0-0.0-8.0-0.29","3","4","4","3","3","3","4","3","4","3","4","5","5","4","4","5","5","4","4","4","1","2","2","1","1","2","1","2","1","1","0","1","1","1","0","0","0","0","1","1","0","0","0","1","4","2","1","2","1","1","2","2","1","4","1","595169798766198784","林","574","","","","","","","","","","","","","","","","","","","","","","","","","","","","","","","","","","","","","","","","","",""
"880","<p style=""color:white; font-size: 35px;"">全能</p>","i","categorize-html","167","416527","0.0-6.0-0.0-8.0-1.29","3","4","4","3","3","3","4","3","4","3","4","5","5","4","4","5","5","4","4","4","1","2","2","1","1","2","1","2","1","1","0","1","1","1","0","0","0","0","1","1","0","0","0","1","4","2","1","2","1","1","2","2","1","4","1","595169798766198784","林","574","","","","","","","","","","","","","","","","","","","true","4","4","ability","880","positive","全能","","","","","","","","","","","","","","","","",""
"null","","null","html-keyboard-response","168","416779","0.0-6.0-0.0-8.0-0.30","3","4","4","3","3","3","4","3","4","3","4","5","5","4","4","5","5","4","4","4","1","2","2","1","1","2","1","2","1","1","0","1","1","1","0","0","0","0","1","1","0","0","0","1","4","2","1","2","1","1","2","2","1","4","1","595169798766198784","林","574","","","","","","","","","","","","","","","","","","","","","","","","","","","","","","","","","","","","","","","","","",""
"598","<p style=""color:rgb(150, 250, 100); font-size: 35px;"">本人</p>","e","categorize-html","169","417379","0.0-6.0-0.0-8.0-1.30","3","4","4","3","3","3","4","3","4","3","4","5","5","4","4","5","5","4","4","4","1","2","2","1","1","2","1","2","1","1","0","1","1","1","0","0","0","0","1","1","0","0","0","1","4","2","1","2","1","1","2","2","1","4","1","595169798766198784","林","574","","","","","","","","","","","","","","","","","","","true","4","4","ability","598","self","本人","","","","","","","","","","","","","","","","",""
"null","","null","html-keyboard-response","170","417630","0.0-6.0-0.0-8.0-0.31","3","4","4","3","3","3","4","3","4","3","4","5","5","4","4","5","5","4","4","4","1","2","2","1","1","2","1","2","1","1","0","1","1","1","0","0","0","0","1","1","0","0","0","1","4","2","1","2","1","1","2","2","1","4","1","595169798766198784","林","574","","","","","","","","","","","","","","","","","","","","","","","","","","","","","","","","","","","","","","","","","",""
"819","<p style=""color:white; font-size: 35px;"">拙笨</p>","e","categorize-html","171","418451","0.0-6.0-0.0-8.0-1.31","3","4","4","3","3","3","4","3","4","3","4","5","5","4","4","5","5","4","4","4","1","2","2","1","1","2","1","2","1","1","0","1","1","1","0","0","0","0","1","1","0","0","0","1","4","2","1","2","1","1","2","2","1","4","1","595169798766198784","林","574","","","","","","","","","","","","","","","","","","","true","4","4","ability","819","negative","拙笨","","","","","","","","","","","","","","","","",""
"null","","null","html-keyboard-response","172","418703","0.0-6.0-0.0-8.0-0.32","3","4","4","3","3","3","4","3","4","3","4","5","5","4","4","5","5","4","4","4","1","2","2","1","1","2","1","2","1","1","0","1","1","1","0","0","0","0","1","1","0","0","0","1","4","2","1","2","1","1","2","2","1","4","1","595169798766198784","林","574","","","","","","","","","","","","","","","","","","","","","","","","","","","","","","","","","","","","","","","","","",""
"627","<p style=""color:rgb(150, 250, 100); font-size: 35px;"">他人</p>","i","categorize-html","173","419332","0.0-6.0-0.0-8.0-1.32","3","4","4","3","3","3","4","3","4","3","4","5","5","4","4","5","5","4","4","4","1","2","2","1","1","2","1","2","1","1","0","1","1","1","0","0","0","0","1","1","0","0","0","1","4","2","1","2","1","1","2","2","1","4","1","595169798766198784","林","574","","","","","","","","","","","","","","","","","","","true","4","4","ability","627","other","他人","","","","","","","","","","","","","","","","",""
"null","","null","html-keyboard-response","174","419584","0.0-6.0-0.0-8.0-0.33","3","4","4","3","3","3","4","3","4","3","4","5","5","4","4","5","5","4","4","4","1","2","2","1","1","2","1","2","1","1","0","1","1","1","0","0","0","0","1","1","0","0","0","1","4","2","1","2","1","1","2","2","1","4","1","595169798766198784","林","574","","","","","","","","","","","","","","","","","","","","","","","","","","","","","","","","","","","","","","","","","",""
"1588","<p style=""color:white; font-size: 35px;"">精干</p>","i","categorize-html","175","421174","0.0-6.0-0.0-8.0-1.33","3","4","4","3","3","3","4","3","4","3","4","5","5","4","4","5","5","4","4","4","1","2","2","1","1","2","1","2","1","1","0","1","1","1","0","0","0","0","1","1","0","0","0","1","4","2","1","2","1","1","2","2","1","4","1","595169798766198784","林","574","","","","","","","","","","","","","","","","","","","true","4","4","ability","1588","positive","精干","","","","","","","","","","","","","","","","",""
"null","","null","html-keyboard-response","176","421425","0.0-6.0-0.0-8.0-0.34","3","4","4","3","3","3","4","3","4","3","4","5","5","4","4","5","5","4","4","4","1","2","2","1","1","2","1","2","1","1","0","1","1","1","0","0","0","0","1","1","0","0","0","1","4","2","1","2","1","1","2","2","1","4","1","595169798766198784","林","574","","","","","","","","","","","","","","","","","","","","","","","","","","","","","","","","","","","","","","","","","",""
"2108","<p style=""color:rgb(150, 250, 100); font-size: 35px;"">本人的</p>","e","categorize-html","177","423536","0.0-6.0-0.0-8.0-1.34","3","4","4","3","3","3","4","3","4","3","4","5","5","4","4","5","5","4","4","4","1","2","2","1","1","2","1","2","1","1","0","1","1","1","0","0","0","0","1","1","0","0","0","1","4","2","1","2","1","1","2","2","1","4","1","595169798766198784","林","574","","","","","","","","","","","","","","","","","","","true","4","4","ability","2108","self","本人的","","","","","","","","","","","","","","","","",""
"null","","null","html-keyboard-response","178","423788","0.0-6.0-0.0-8.0-0.35","3","4","4","3","3","3","4","3","4","3","4","5","5","4","4","5","5","4","4","4","1","2","2","1","1","2","1","2","1","1","0","1","1","1","0","0","0","0","1","1","0","0","0","1","4","2","1","2","1","1","2","2","1","4","1","595169798766198784","林","574","","","","","","","","","","","","","","","","","","","","","","","","","","","","","","","","","","","","","","","","","",""
"772","<p style=""color:white; font-size: 35px;"">废物</p>","e","categorize-html","179","424562","0.0-6.0-0.0-8.0-1.35","3","4","4","3","3","3","4","3","4","3","4","5","5","4","4","5","5","4","4","4","1","2","2","1","1","2","1","2","1","1","0","1","1","1","0","0","0","0","1","1","0","0","0","1","4","2","1","2","1","1","2","2","1","4","1","595169798766198784","林","574","","","","","","","","","","","","","","","","","","","true","4","4","ability","772","negative","废物","","","","","","","","","","","","","","","","",""
"null","","null","html-keyboard-response","180","424818","0.0-6.0-0.0-8.0-0.36","3","4","4","3","3","3","4","3","4","3","4","5","5","4","4","5","5","4","4","4","1","2","2","1","1","2","1","2","1","1","0","1","1","1","0","0","0","0","1","1","0","0","0","1","4","2","1","2","1","1","2","2","1","4","1","595169798766198784","林","574","","","","","","","","","","","","","","","","","","","","","","","","","","","","","","","","","","","","","","","","","",""
"737","<p style=""color:rgb(150, 250, 100); font-size: 35px;"">我的</p>","e","categorize-html","181","425557","0.0-6.0-0.0-8.0-1.36","3","4","4","3","3","3","4","3","4","3","4","5","5","4","4","5","5","4","4","4","1","2","2","1","1","2","1","2","1","1","0","1","1","1","0","0","0","0","1","1","0","0","0","1","4","2","1","2","1","1","2","2","1","4","1","595169798766198784","林","574","","","","","","","","","","","","","","","","","","","true","4","4","ability","737","self","我的","","","","","","","","","","","","","","","","",""
"null","","null","html-keyboard-response","182","425808","0.0-6.0-0.0-8.0-0.37","3","4","4","3","3","3","4","3","4","3","4","5","5","4","4","5","5","4","4","4","1","2","2","1","1","2","1","2","1","1","0","1","1","1","0","0","0","0","1","1","0","0","0","1","4","2","1","2","1","1","2","2","1","4","1","595169798766198784","林","574","","","","","","","","","","","","","","","","","","","","","","","","","","","","","","","","","","","","","","","","","",""
"741","<p style=""color:white; font-size: 35px;"">全能</p>","i","categorize-html","183","426551","0.0-6.0-0.0-8.0-1.37","3","4","4","3","3","3","4","3","4","3","4","5","5","4","4","5","5","4","4","4","1","2","2","1","1","2","1","2","1","1","0","1","1","1","0","0","0","0","1","1","0","0","0","1","4","2","1","2","1","1","2","2","1","4","1","595169798766198784","林","574","","","","","","","","","","","","","","","","","","","true","4","4","ability","741","positive","全能","","","","","","","","","","","","","","","","",""
"null","","null","html-keyboard-response","184","426803","0.0-6.0-0.0-8.0-0.38","3","4","4","3","3","3","4","3","4","3","4","5","5","4","4","5","5","4","4","4","1","2","2","1","1","2","1","2","1","1","0","1","1","1","0","0","0","0","1","1","0","0","0","1","4","2","1","2","1","1","2","2","1","4","1","595169798766198784","林","574","","","","","","","","","","","","","","","","","","","","","","","","","","","","","","","","","","","","","","","","","",""
"693","<p style=""color:rgb(150, 250, 100); font-size: 35px;"">他人的</p>","i","categorize-html","185","427498","0.0-6.0-0.0-8.0-1.38","3","4","4","3","3","3","4","3","4","3","4","5","5","4","4","5","5","4","4","4","1","2","2","1","1","2","1","2","1","1","0","1","1","1","0","0","0","0","1","1","0","0","0","1","4","2","1","2","1","1","2","2","1","4","1","595169798766198784","林","574","","","","","","","","","","","","","","","","","","","true","4","4","ability","693","other","他人的","","","","","","","","","","","","","","","","",""
"null","","null","html-keyboard-response","186","427749","0.0-6.0-0.0-8.0-0.39","3","4","4","3","3","3","4","3","4","3","4","5","5","4","4","5","5","4","4","4","1","2","2","1","1","2","1","2","1","1","0","1","1","1","0","0","0","0","1","1","0","0","0","1","4","2","1","2","1","1","2","2","1","4","1","595169798766198784","林","574","","","","","","","","","","","","","","","","","","","","","","","","","","","","","","","","","","","","","","","","","",""
"1721","<p style=""color:white; font-size: 35px;"">无能</p>","e","categorize-html","187","429472","0.0-6.0-0.0-8.0-1.39","3","4","4","3","3","3","4","3","4","3","4","5","5","4","4","5","5","4","4","4","1","2","2","1","1","2","1","2","1","1","0","1","1","1","0","0","0","0","1","1","0","0","0","1","4","2","1","2","1","1","2","2","1","4","1","595169798766198784","林","574","","","","","","","","","","","","","","","","","","","true","4","4","ability","1721","negative","无能","","","","","","","","","","","","","","","","",""
"null","","null","html-keyboard-response","188","429723","0.0-6.0-0.0-8.0-0.40","3","4","4","3","3","3","4","3","4","3","4","5","5","4","4","5","5","4","4","4","1","2","2","1","1","2","1","2","1","1","0","1","1","1","0","0","0","0","1","1","0","0","0","1","4","2","1","2","1","1","2","2","1","4","1","595169798766198784","林","574","","","","","","","","","","","","","","","","","","","","","","","","","","","","","","","","","","","","","","","","","",""
"1177","<p style=""color:rgb(150, 250, 100); font-size: 35px;"">自己</p>","e","categorize-html","189","430902","0.0-6.0-0.0-8.0-1.40","3","4","4","3","3","3","4","3","4","3","4","5","5","4","4","5","5","4","4","4","1","2","2","1","1","2","1","2","1","1","0","1","1","1","0","0","0","0","1","1","0","0","0","1","4","2","1","2","1","1","2","2","1","4","1","595169798766198784","林","574","","","","","","","","","","","","","","","","","","","true","4","4","ability","1177","self","自己","","","","","","","","","","","","","","","","",""
"null","","null","html-keyboard-response","190","431154","0.0-6.0-0.0-8.0-0.41","3","4","4","3","3","3","4","3","4","3","4","5","5","4","4","5","5","4","4","4","1","2","2","1","1","2","1","2","1","1","0","1","1","1","0","0","0","0","1","1","0","0","0","1","4","2","1","2","1","1","2","2","1","4","1","595169798766198784","林","574","","","","","","","","","","","","","","","","","","","","","","","","","","","","","","","","","","","","","","","","","",""
"608","<p style=""color:white; font-size: 35px;"">天才</p>","i","categorize-html","191","431764","0.0-6.0-0.0-8.0-1.41","3","4","4","3","3","3","4","3","4","3","4","5","5","4","4","5","5","4","4","4","1","2","2","1","1","2","1","2","1","1","0","1","1","1","0","0","0","0","1","1","0","0","0","1","4","2","1","2","1","1","2","2","1","4","1","595169798766198784","林","574","","","","","","","","","","","","","","","","","","","true","4","4","ability","608","positive","天才","","","","","","","","","","","","","","","","",""
"null","","null","html-keyboard-response","192","432015","0.0-6.0-0.0-8.0-0.42","3","4","4","3","3","3","4","3","4","3","4","5","5","4","4","5","5","4","4","4","1","2","2","1","1","2","1","2","1","1","0","1","1","1","0","0","0","0","1","1","0","0","0","1","4","2","1","2","1","1","2","2","1","4","1","595169798766198784","林","574","","","","","","","","","","","","","","","","","","","","","","","","","","","","","","","","","","","","","","","","","",""
