"rt","stimulus","response","trial_type","trial_index","time_elapsed","internal_node_id","ses_1","ses_2","ses_3","ses_4","ses_5","ses_6","ses_7","ses_8","ses_9","ses_10","coreself_1","coreself_2","coreself_3","coreself_4","coreself_5","coreself_6","coreself_7","coreself_8","coreself_9","coreself_10","SGPS_1","SGPS_2","SGPS_3","SGPS_4","SGPS_5","SGPS_6","SGPS_7","SGPS_8","SGPS_9","NPI1","NPI2","NPI3","NPI4","NPI5","NPI6","NPI7","NPI8","NPI9","NPI10","NPI11","NPI12","NPI13","NPI14","NPI15","hsns_1","hsns_2","hsns_3","hsns_4","hsns_5","trap1","hsns_6","hsns_7","hsns_8","hsns_9","hsns_10","subj_idx","friend_name","ParticipantID","value","success","user_agent","responses","item_order","radio_event_ids","radio_event_times","key_event_times","mouse_event_times","straightlining","zigzagging","honeypot","timeout","failed_images","failed_audio","failed_video","view_history","response_type","key_press","avg_frame_time","center_x","center_y","correct_response","correct","identity","Image","word","condition","task_id","screen_id","time_stamp","version_attrib","version_target","IAT","RT","varname","summary","version_attrib2","version_target2","question_order","correct_answer","trap1_item"
"3530","
   <p><div style = ""color: white;font-size:25px;"">您好，欢迎参加本次实验。</div> </p>
   <p><div style = ""color: white;font-size:25px;"">为充分保障您的权利，请确保您已经知晓并同意《参与实验同意书》以及《数据公开知情同意书》。</div></p>
   <p><div style = ""color: white;font-size:25px;"">如果您未见过上述内容，请咨询实验员。</div></p>
   <p><div style = ""color: white;font-size:25px;"">如果您选择继续实验，则表示您已经清楚两份知情同意书的内容并同意。</div></p>
   <p><div style = ""color: pink;font-size:30px;"">请确保您记得day0的实验编号，您将在本次实验输入该编号，若您忘记，请咨询实验员后作答。</div></p>
   <p><div style = ""color: lightblue;font-size:25px;"">请您尽可能认真地作答，我们将依据您在各问卷和按键任务中的作答质量发放报酬。</div></p>
   <p> <div style = ""color: green;font-size:25px;""><按空格键至下页></div> </p>
   "," ","html-keyboard-response","0","3539","0.0-0.0","3","4","4","3","3","4","4","3","4","3","4","5","4","5","4","4","5","5","4","4","1","2","1","2","2","1","2","1","1","1","0","1","1","0","0","0","1","0","1","1","0","0","0","1","4","1","2","1","1","3","2","1","2","4","2","634031410327322624","刘","221","","","","","","","","","","","","","","","","","","","","","","","","","","","","","","","","","","","","","","","","","",""
"","","","call-function","1","3542","0.0-1.0-0.0","3","4","4","3","3","4","4","3","4","3","4","5","4","5","4","4","5","5","4","4","1","2","1","2","2","1","2","1","1","1","0","1","1","0","0","0","1","0","1","1","0","0","0","1","4","1","2","1","1","3","2","1","2","4","2","634031410327322624","刘","221","","","","","","","","","","","","","","","","","","","","","","","","","","","","","","","","","","","","","","","","","",""
"63336","","{""friend_name"":""刘"",""ParticipantID"":""221""}","survey-html-form","2","66882","0.0-1.0-1.0","3","4","4","3","3","4","4","3","4","3","4","5","4","5","4","4","5","5","4","4","1","2","1","2","2","1","2","1","1","1","0","1","1","0","0","0","1","0","1","1","0","0","0","1","4","1","2","1","1","3","2","1","2","4","2","634031410327322624","刘","221","","","","","","","","","","","","","","","","","","","","","","","","","","","","","","","","","","","","","","","","","",""
"","","","fullscreen","3","97021","0.0-2.0","3","4","4","3","3","4","4","3","4","3","4","5","4","5","4","4","5","5","4","4","1","2","1","2","2","1","2","1","1","1","0","1","1","0","0","0","1","0","1","1","0","0","0","1","4","1","2","1","1","3","2","1","2","4","2","634031410327322624","刘","221","","true","{}","","","","","","","","","","","","","","","","","","","","","","","","","","","","","","","","","","","","","","",""
"89516","","{""Q01"":""3"",""Q02"":""4"",""Q03"":""4"",""Q04"":""3"",""Q05"":""3"",""Q06"":""4"",""Q07"":""4"",""Q08"":""3"",""Q09"":""4"",""Q10"":""3""}","survey-template","4","186544","0.0-3.0","3","4","4","3","3","4","4","3","4","3","4","5","4","5","4","4","5","5","4","4","1","2","1","2","2","1","2","1","1","1","0","1","1","0","0","0","1","0","1","1","0","0","0","1","4","1","2","1","1","3","2","1","2","4","2","634031410327322624","刘","221","","","","{""Q01"":""3"",""Q02"":""4"",""Q03"":""4"",""Q04"":""3"",""Q05"":""3"",""Q06"":""4"",""Q07"":""4"",""Q08"":""3"",""Q09"":""4"",""Q10"":""3""}","[0,1,2,3,4,5,6,7,8,9]","[""Q01"",""Q02"",""Q03"",""Q04"",""Q05"",""Q06"",""Q07"",""Q08"",""Q09"",""Q10""]","[66416.5,67580.19999998808,69426.5,71198.09999996424,72358.19999998808,74637.19999998808,75186.5,76897,78498.5,79848.19999998808]","[]","[66416.5,67580.19999998808,68794.19999998808,69426.5,71198.09999996424,72358.19999998808,73671,74085.30000001192,74637.19999998808,75186.5,76897,77921,78498.5,79112,79386.19999998808,79848.19999998808,88760.5,89514.5]","0.3","0.5555555555555556","0","","","","","","","","","","","","","","","","","","","","","","","","","","","","","",""
"100208.30000001192","","{""Q01"":""4"",""Q02"":""5"",""Q03"":""4"",""Q04"":""5"",""Q05"":""4"",""Q06"":""4"",""Q07"":""5"",""Q08"":""5"",""Q09"":""4"",""Q10"":""4""}","survey-template","5","286760","0.0-4.0","3","4","4","3","3","4","4","3","4","3","4","5","4","5","4","4","5","5","4","4","1","2","1","2","2","1","2","1","1","1","0","1","1","0","0","0","1","0","1","1","0","0","0","1","4","1","2","1","1","3","2","1","2","4","2","634031410327322624","刘","221","","","","{""Q01"":""4"",""Q02"":""5"",""Q03"":""4"",""Q04"":""5"",""Q05"":""4"",""Q06"":""4"",""Q07"":""5"",""Q08"":""5"",""Q09"":""4"",""Q10"":""4""}","[0,1,2,3,4,5,6,7,8,9]","[""Q01"",""Q02"",""Q02"",""Q03"",""Q04"",""Q05"",""Q06"",""Q07"",""Q08"",""Q08"",""Q09"",""Q10""]","[2767.600000023842,6102.800000011921,6402.900000035763,7068.900000035763,11245,12032.800000011921,13430.800000011921,14827.300000011921,15884.900000035763,17599.80000001192,18525,20020.600000023842]","[]","[2767.600000023842,4003.800000011921,6102.800000011921,6402.900000035763,7068.900000035763,8701,9225.5,9472.600000023842,9931,10738.900000035763,11022.699999988079,11245,12032.800000011921,13430.800000011921,14827.300000011921,15884.900000035763,17599.80000001192,18525,19621.19999998808,20020.600000023842,99444.69999998808,100207]","0.3","0.1111111111111111","0","","","","","","","","","","","","","","","","","","","","","","","","","","","","","",""
"","","","preload","6","287067","0.0-5.0","3","4","4","3","3","4","4","3","4","3","4","5","4","5","4","4","5","5","4","4","1","2","1","2","2","1","2","1","1","1","0","1","1","0","0","0","1","0","1","1","0","0","0","1","4","1","2","1","1","3","2","1","2","4","2","634031410327322624","刘","221","","true","","","","","","","","","","","false","[]","[]","[]","","","","","","","","","","","","","","","","","","","","","","","","","",""
"270640","","","instructions","7","557708","0.0-6.0","3","4","4","3","3","4","4","3","4","3","4","5","4","5","4","4","5","5","4","4","1","2","1","2","2","1","2","1","1","1","0","1","1","0","0","0","1","0","1","1","0","0","0","1","4","1","2","1","1","3","2","1","2","4","2","634031410327322624","刘","221","","","","","","","","","","","","","","","","","[{""page_index"":0,""viewing_time"":270640}]","","","","","","","","","","","","","","","","","","","","","","","","",""
"3718","","","instructions","8","561430","0.0-7.0-1.0-0.0","3","4","4","3","3","4","4","3","4","3","4","5","4","5","4","4","5","5","4","4","1","2","1","2","2","1","2","1","1","1","0","1","1","0","0","0","1","0","1","1","0","0","0","1","4","1","2","1","1","3","2","1","2","4","2","634031410327322624","刘","221","","","","","","","","","","","","","","","","","[{""page_index"":0,""viewing_time"":2068},{""page_index"":1,""viewing_time"":871},{""page_index"":2,""viewing_time"":780}]","","","","","","","","","","","","","","","","","","","","","","","","",""
"null","","null","psychophysics","9","563644","0.0-7.0-1.0-1.0-0.0-0.0","3","4","4","3","3","4","4","3","4","3","4","5","4","5","4","4","5","5","4","4","1","2","1","2","2","1","2","1","1","1","0","1","1","0","0","0","1","0","1","1","0","0","0","1","4","1","2","1","1","3","2","1","2","4","2","634031410327322624","刘","221","","","","null","","","","","","","","","","","","","","key","null","18.332915966386295","799.9999682108573","445.8333156175091","j","false","match","img/pentagon.png","五边","五边","ALT1_2","prac_ALT1_2","","","","","","","","","","","",""
"null","<span class='add_' style='color:yellow; font-size: 70px;'> 太慢! </span>","null","html-keyboard-response","10","564146","0.0-7.0-1.0-1.0-0.0-1.0","3","4","4","3","3","4","4","3","4","3","4","5","4","5","4","4","5","5","4","4","1","2","1","2","2","1","2","1","1","1","0","1","1","0","0","0","1","0","1","1","0","0","0","1","4","1","2","1","1","3","2","1","2","4","2","634031410327322624","刘","221","","","","","","","","","","","","","","","","","","","","","","","","","","","","","","feedback_test","","","","","","","","","","","",""
"766","","j","psychophysics","11","565916","0.0-7.0-1.0-1.0-0.0-0.1","3","4","4","3","3","4","4","3","4","3","4","5","4","5","4","4","5","5","4","4","1","2","1","2","2","1","2","1","1","1","0","1","1","0","0","0","1","0","1","1","0","0","0","1","4","1","2","1","1","3","2","1","2","4","2","634031410327322624","刘","221","","","","match","","","","","","","","","","","","","","key","j","16.654076190475774","799.9999682108573","445.8333156175091","j","true","match","img/pentagon.png","五边","五边","ALT1_2","prac_ALT1_2","","","","","","","","","","","",""
"null","<span style='color:GreenYellow; font-size: 70px;'>正确! </span>","null","html-keyboard-response","12","566417","0.0-7.0-1.0-1.0-0.0-1.1","3","4","4","3","3","4","4","3","4","3","4","5","4","5","4","4","5","5","4","4","1","2","1","2","2","1","2","1","1","1","0","1","1","0","0","0","1","0","1","1","0","0","0","1","4","1","2","1","1","3","2","1","2","4","2","634031410327322624","刘","221","","","","","","","","","","","","","","","","","","","","","","","","","","","","","","feedback_test","","","","","","","","","","","",""
"642","","f","psychophysics","13","568061","0.0-7.0-1.0-1.0-0.0-0.2","3","4","4","3","3","4","4","3","4","3","4","5","4","5","4","4","5","5","4","4","1","2","1","2","2","1","2","1","1","1","0","1","1","0","0","0","1","0","1","1","0","0","0","1","4","1","2","1","1","3","2","1","2","4","2","634031410327322624","刘","221","","","","nonmatch","","","","","","","","","","","","","","key","f","16.653397959184225","799.9999682108573","445.8333156175091","f","true","nonmatch","img/triangle.png","圆形","三角","ALT1_2","prac_ALT1_2","","","","","","","","","","","",""
"null","<span style='color:GreenYellow; font-size: 70px;'>正确! </span>","null","html-keyboard-response","14","568572","0.0-7.0-1.0-1.0-0.0-1.2","3","4","4","3","3","4","4","3","4","3","4","5","4","5","4","4","5","5","4","4","1","2","1","2","2","1","2","1","1","1","0","1","1","0","0","0","1","0","1","1","0","0","0","1","4","1","2","1","1","3","2","1","2","4","2","634031410327322624","刘","221","","","","","","","","","","","","","","","","","","","","","","","","","","","","","","feedback_test","","","","","","","","","","","",""
"525","","f","psychophysics","15","570101","0.0-7.0-1.0-1.0-0.0-0.3","3","4","4","3","3","4","4","3","4","3","4","5","4","5","4","4","5","5","4","4","1","2","1","2","2","1","2","1","1","1","0","1","1","0","0","0","1","0","1","1","0","0","0","1","4","1","2","1","1","3","2","1","2","4","2","634031410327322624","刘","221","","","","nonmatch","","","","","","","","","","","","","","key","f","16.65216666666739","799.9999682108573","445.8333156175091","f","true","nonmatch","img/triangle.png","梯形","三角","ALT1_2","prac_ALT1_2","","","","","","","","","","","",""
"null","<span style='color:GreenYellow; font-size: 70px;'>正确! </span>","null","html-keyboard-response","16","570602","0.0-7.0-1.0-1.0-0.0-1.3","3","4","4","3","3","4","4","3","4","3","4","5","4","5","4","4","5","5","4","4","1","2","1","2","2","1","2","1","1","1","0","1","1","0","0","0","1","0","1","1","0","0","0","1","4","1","2","1","1","3","2","1","2","4","2","634031410327322624","刘","221","","","","","","","","","","","","","","","","","","","","","","","","","","","","","","feedback_test","","","","","","","","","","","",""
"547","","f","psychophysics","17","572152","0.0-7.0-1.0-1.0-0.0-0.4","3","4","4","3","3","4","4","3","4","3","4","5","4","5","4","4","5","5","4","4","1","2","1","2","2","1","2","1","1","1","0","1","1","0","0","0","1","0","1","1","0","0","0","1","4","1","2","1","1","3","2","1","2","4","2","634031410327322624","刘","221","","","","nonmatch","","","","","","","","","","","","","","key","f","16.653021739130214","799.9999682108573","445.8333156175091","f","true","nonmatch","img/pentagon.png","圆形","五边","ALT1_2","prac_ALT1_2","","","","","","","","","","","",""
"null","<span style='color:GreenYellow; font-size: 70px;'>正确! </span>","null","html-keyboard-response","18","572655","0.0-7.0-1.0-1.0-0.0-1.4","3","4","4","3","3","4","4","3","4","3","4","5","4","5","4","4","5","5","4","4","1","2","1","2","2","1","2","1","1","1","0","1","1","0","0","0","1","0","1","1","0","0","0","1","4","1","2","1","1","3","2","1","2","4","2","634031410327322624","刘","221","","","","","","","","","","","","","","","","","","","","","","","","","","","","","","feedback_test","","","","","","","","","","","",""
"802","","j","psychophysics","19","574459","0.0-7.0-1.0-1.0-0.0-0.5","3","4","4","3","3","4","4","3","4","3","4","5","4","5","4","4","5","5","4","4","1","2","1","2","2","1","2","1","1","1","0","1","1","0","0","0","1","0","1","1","0","0","0","1","4","1","2","1","1","3","2","1","2","4","2","634031410327322624","刘","221","","","","match","","","","","","","","","","","","","","key","j","16.652514018691754","799.9999682108573","445.8333156175091","j","true","match","img/circle.png","圆形","圆形","ALT1_2","prac_ALT1_2","","","","","","","","","","","",""
"null","<span style='color:GreenYellow; font-size: 70px;'>正确! </span>","null","html-keyboard-response","20","574959","0.0-7.0-1.0-1.0-0.0-1.5","3","4","4","3","3","4","4","3","4","3","4","5","4","5","4","4","5","5","4","4","1","2","1","2","2","1","2","1","1","1","0","1","1","0","0","0","1","0","1","1","0","0","0","1","4","1","2","1","1","3","2","1","2","4","2","634031410327322624","刘","221","","","","","","","","","","","","","","","","","","","","","","","","","","","","","","feedback_test","","","","","","","","","","","",""
"668","","j","psychophysics","21","576630","0.0-7.0-1.0-1.0-0.0-0.6","3","4","4","3","3","4","4","3","4","3","4","5","4","5","4","4","5","5","4","4","1","2","1","2","2","1","2","1","1","1","0","1","1","0","0","0","1","0","1","1","0","0","0","1","4","1","2","1","1","3","2","1","2","4","2","634031410327322624","刘","221","","","","match","","","","","","","","","","","","","","key","j","16.653373737373823","799.9999682108573","445.8333156175091","j","true","match","img/pentagon.png","五边","五边","ALT1_2","prac_ALT1_2","","","","","","","","","","","",""
"null","<span style='color:GreenYellow; font-size: 70px;'>正确! </span>","null","html-keyboard-response","22","577131","0.0-7.0-1.0-1.0-0.0-1.6","3","4","4","3","3","4","4","3","4","3","4","5","4","5","4","4","5","5","4","4","1","2","1","2","2","1","2","1","1","1","0","1","1","0","0","0","1","0","1","1","0","0","0","1","4","1","2","1","1","3","2","1","2","4","2","634031410327322624","刘","221","","","","","","","","","","","","","","","","","","","","","","","","","","","","","","feedback_test","","","","","","","","","","","",""
"610","","f","psychophysics","23","578742","0.0-7.0-1.0-1.0-0.0-0.7","3","4","4","3","3","4","4","3","4","3","4","5","4","5","4","4","5","5","4","4","1","2","1","2","2","1","2","1","1","1","0","1","1","0","0","0","1","0","1","1","0","0","0","1","4","1","2","1","1","3","2","1","2","4","2","634031410327322624","刘","221","","","","nonmatch","","","","","","","","","","","","","","key","f","16.65368421052607","799.9999682108573","445.8333156175091","j","false","match","img/triangle.png","三角","三角","ALT1_2","prac_ALT1_2","","","","","","","","","","","",""
"null","<span style='color:red; font-size: 70px;'>错误! </span>","null","html-keyboard-response","24","579244","0.0-7.0-1.0-1.0-0.0-1.7","3","4","4","3","3","4","4","3","4","3","4","5","4","5","4","4","5","5","4","4","1","2","1","2","2","1","2","1","1","1","0","1","1","0","0","0","1","0","1","1","0","0","0","1","4","1","2","1","1","3","2","1","2","4","2","634031410327322624","刘","221","","","","","","","","","","","","","","","","","","","","","","","","","","","","","","feedback_test","","","","","","","","","","","",""
"754","","f","psychophysics","25","580999","0.0-7.0-1.0-1.0-0.0-0.8","3","4","4","3","3","4","4","3","4","3","4","5","4","5","4","4","5","5","4","4","1","2","1","2","2","1","2","1","1","1","0","1","1","0","0","0","1","0","1","1","0","0","0","1","4","1","2","1","1","3","2","1","2","4","2","634031410327322624","刘","221","","","","nonmatch","","","","","","","","","","","","","","key","f","16.64989423076846","799.9999682108573","445.8333156175091","f","true","nonmatch","img/trapezoid.png","五边","梯形","ALT1_2","prac_ALT1_2","","","","","","","","","","","",""
"null","<span style='color:GreenYellow; font-size: 70px;'>正确! </span>","null","html-keyboard-response","26","581501","0.0-7.0-1.0-1.0-0.0-1.8","3","4","4","3","3","4","4","3","4","3","4","5","4","5","4","4","5","5","4","4","1","2","1","2","2","1","2","1","1","1","0","1","1","0","0","0","1","0","1","1","0","0","0","1","4","1","2","1","1","3","2","1","2","4","2","634031410327322624","刘","221","","","","","","","","","","","","","","","","","","","","","","","","","","","","","","feedback_test","","","","","","","","","","","",""
"519","","f","psychophysics","27","583024","0.0-7.0-1.0-1.0-0.0-0.9","3","4","4","3","3","4","4","3","4","3","4","5","4","5","4","4","5","5","4","4","1","2","1","2","2","1","2","1","1","1","0","1","1","0","0","0","1","0","1","1","0","0","0","1","4","1","2","1","1","3","2","1","2","4","2","634031410327322624","刘","221","","","","nonmatch","","","","","","","","","","","","","","key","f","16.653577777778263","799.9999682108573","445.8333156175091","f","true","nonmatch","img/circle.png","三角","圆形","ALT1_2","prac_ALT1_2","","","","","","","","","","","",""
"null","<span style='color:GreenYellow; font-size: 70px;'>正确! </span>","null","html-keyboard-response","28","583527","0.0-7.0-1.0-1.0-0.0-1.9","3","4","4","3","3","4","4","3","4","3","4","5","4","5","4","4","5","5","4","4","1","2","1","2","2","1","2","1","1","1","0","1","1","0","0","0","1","0","1","1","0","0","0","1","4","1","2","1","1","3","2","1","2","4","2","634031410327322624","刘","221","","","","","","","","","","","","","","","","","","","","","","","","","","","","","","feedback_test","","","","","","","","","","","",""
"566","","f","psychophysics","29","585095","0.0-7.0-1.0-1.0-0.0-0.10","3","4","4","3","3","4","4","3","4","3","4","5","4","5","4","4","5","5","4","4","1","2","1","2","2","1","2","1","1","1","0","1","1","0","0","0","1","0","1","1","0","0","0","1","4","1","2","1","1","3","2","1","2","4","2","634031410327322624","刘","221","","","","nonmatch","","","","","","","","","","","","","","key","f","16.653258064515157","799.9999682108573","445.8333156175091","j","false","match","img/trapezoid.png","梯形","梯形","ALT1_2","prac_ALT1_2","","","","","","","","","","","",""
"null","<span style='color:red; font-size: 70px;'>错误! </span>","null","html-keyboard-response","30","585597","0.0-7.0-1.0-1.0-0.0-1.10","3","4","4","3","3","4","4","3","4","3","4","5","4","5","4","4","5","5","4","4","1","2","1","2","2","1","2","1","1","1","0","1","1","0","0","0","1","0","1","1","0","0","0","1","4","1","2","1","1","3","2","1","2","4","2","634031410327322624","刘","221","","","","","","","","","","","","","","","","","","","","","","","","","","","","","","feedback_test","","","","","","","","","","","",""
"601","","j","psychophysics","31","587200","0.0-7.0-1.0-1.0-0.0-0.11","3","4","4","3","3","4","4","3","4","3","4","5","4","5","4","4","5","5","4","4","1","2","1","2","2","1","2","1","1","1","0","1","1","0","0","0","1","0","1","1","0","0","0","1","4","1","2","1","1","3","2","1","2","4","2","634031410327322624","刘","221","","","","match","","","","","","","","","","","","","","key","j","16.65434736842167","799.9999682108573","445.8333156175091","j","true","match","img/circle.png","圆形","圆形","ALT1_2","prac_ALT1_2","","","","","","","","","","","",""
"null","<span style='color:GreenYellow; font-size: 70px;'>正确! </span>","null","html-keyboard-response","32","587700","0.0-7.0-1.0-1.0-0.0-1.11","3","4","4","3","3","4","4","3","4","3","4","5","4","5","4","4","5","5","4","4","1","2","1","2","2","1","2","1","1","1","0","1","1","0","0","0","1","0","1","1","0","0","0","1","4","1","2","1","1","3","2","1","2","4","2","634031410327322624","刘","221","","","","","","","","","","","","","","","","","","","","","","","","","","","","","","feedback_test","","","","","","","","","","","",""
"716","","f","psychophysics","33","589418","0.0-7.0-1.0-1.0-0.0-0.12","3","4","4","3","3","4","4","3","4","3","4","5","4","5","4","4","5","5","4","4","1","2","1","2","2","1","2","1","1","1","0","1","1","0","0","0","1","0","1","1","0","0","0","1","4","1","2","1","1","3","2","1","2","4","2","634031410327322624","刘","221","","","","nonmatch","","","","","","","","","","","","","","key","f","16.654107843137655","799.9999682108573","445.8333156175091","f","true","nonmatch","img/circle.png","梯形","圆形","ALT1_2","prac_ALT1_2","","","","","","","","","","","",""
"null","<span style='color:GreenYellow; font-size: 70px;'>正确! </span>","null","html-keyboard-response","34","589919","0.0-7.0-1.0-1.0-0.0-1.12","3","4","4","3","3","4","4","3","4","3","4","5","4","5","4","4","5","5","4","4","1","2","1","2","2","1","2","1","1","1","0","1","1","0","0","0","1","0","1","1","0","0","0","1","4","1","2","1","1","3","2","1","2","4","2","634031410327322624","刘","221","","","","","","","","","","","","","","","","","","","","","","","","","","","","","","feedback_test","","","","","","","","","","","",""
"888","","j","psychophysics","35","591810","0.0-7.0-1.0-1.0-0.0-0.13","3","4","4","3","3","4","4","3","4","3","4","5","4","5","4","4","5","5","4","4","1","2","1","2","2","1","2","1","1","1","0","1","1","0","0","0","1","0","1","1","0","0","0","1","4","1","2","1","1","3","2","1","2","4","2","634031410327322624","刘","221","","","","match","","","","","","","","","","","","","","key","j","16.64099107142829","799.9999682108573","445.8333156175091","j","true","match","img/circle.png","圆形","圆形","ALT1_2","prac_ALT1_2","","","","","","","","","","","",""
"null","<span style='color:GreenYellow; font-size: 70px;'>正确! </span>","null","html-keyboard-response","36","592311","0.0-7.0-1.0-1.0-0.0-1.13","3","4","4","3","3","4","4","3","4","3","4","5","4","5","4","4","5","5","4","4","1","2","1","2","2","1","2","1","1","1","0","1","1","0","0","0","1","0","1","1","0","0","0","1","4","1","2","1","1","3","2","1","2","4","2","634031410327322624","刘","221","","","","","","","","","","","","","","","","","","","","","","","","","","","","","","feedback_test","","","","","","","","","","","",""
"582","","f","psychophysics","37","593895","0.0-7.0-1.0-1.0-0.0-0.14","3","4","4","3","3","4","4","3","4","3","4","5","4","5","4","4","5","5","4","4","1","2","1","2","2","1","2","1","1","1","0","1","1","0","0","0","1","0","1","1","0","0","0","1","4","1","2","1","1","3","2","1","2","4","2","634031410327322624","刘","221","","","","nonmatch","","","","","","","","","","","","","","key","f","16.648595744680783","799.9999682108573","445.8333156175091","f","true","nonmatch","img/circle.png","五边","圆形","ALT1_2","prac_ALT1_2","","","","","","","","","","","",""
"null","<span style='color:GreenYellow; font-size: 70px;'>正确! </span>","null","html-keyboard-response","38","594397","0.0-7.0-1.0-1.0-0.0-1.14","3","4","4","3","3","4","4","3","4","3","4","5","4","5","4","4","5","5","4","4","1","2","1","2","2","1","2","1","1","1","0","1","1","0","0","0","1","0","1","1","0","0","0","1","4","1","2","1","1","3","2","1","2","4","2","634031410327322624","刘","221","","","","","","","","","","","","","","","","","","","","","","","","","","","","","","feedback_test","","","","","","","","","","","",""
"644","","j","psychophysics","39","596043","0.0-7.0-1.0-1.0-0.0-0.15","3","4","4","3","3","4","4","3","4","3","4","5","4","5","4","4","5","5","4","4","1","2","1","2","2","1","2","1","1","1","0","1","1","0","0","0","1","0","1","1","0","0","0","1","4","1","2","1","1","3","2","1","2","4","2","634031410327322624","刘","221","","","","match","","","","","","","","","","","","","","key","j","16.653510204081577","799.9999682108573","445.8333156175091","j","true","match","img/triangle.png","三角","三角","ALT1_2","prac_ALT1_2","","","","","","","","","","","",""
"null","<span style='color:GreenYellow; font-size: 70px;'>正确! </span>","null","html-keyboard-response","40","596543","0.0-7.0-1.0-1.0-0.0-1.15","3","4","4","3","3","4","4","3","4","3","4","5","4","5","4","4","5","5","4","4","1","2","1","2","2","1","2","1","1","1","0","1","1","0","0","0","1","0","1","1","0","0","0","1","4","1","2","1","1","3","2","1","2","4","2","634031410327322624","刘","221","","","","","","","","","","","","","","","","","","","","","","","","","","","","","","feedback_test","","","","","","","","","","","",""
"668","","f","psychophysics","41","598212","0.0-7.0-1.0-1.0-0.0-0.16","3","4","4","3","3","4","4","3","4","3","4","5","4","5","4","4","5","5","4","4","1","2","1","2","2","1","2","1","1","1","0","1","1","0","0","0","1","0","1","1","0","0","0","1","4","1","2","1","1","3","2","1","2","4","2","634031410327322624","刘","221","","","","nonmatch","","","","","","","","","","","","","","key","f","16.65332323232327","799.9999682108573","445.8333156175091","f","true","nonmatch","img/triangle.png","五边","三角","ALT1_2","prac_ALT1_2","","","","","","","","","","","",""
"null","<span style='color:GreenYellow; font-size: 70px;'>正确! </span>","null","html-keyboard-response","42","598727","0.0-7.0-1.0-1.0-0.0-1.16","3","4","4","3","3","4","4","3","4","3","4","5","4","5","4","4","5","5","4","4","1","2","1","2","2","1","2","1","1","1","0","1","1","0","0","0","1","0","1","1","0","0","0","1","4","1","2","1","1","3","2","1","2","4","2","634031410327322624","刘","221","","","","","","","","","","","","","","","","","","","","","","","","","","","","","","feedback_test","","","","","","","","","","","",""
"686","","f","psychophysics","43","600415","0.0-7.0-1.0-1.0-0.0-0.17","3","4","4","3","3","4","4","3","4","3","4","5","4","5","4","4","5","5","4","4","1","2","1","2","2","1","2","1","1","1","0","1","1","0","0","0","1","0","1","1","0","0","0","1","4","1","2","1","1","3","2","1","2","4","2","634031410327322624","刘","221","","","","nonmatch","","","","","","","","","","","","","","key","f","16.653445544554668","799.9999682108573","445.8333156175091","f","true","nonmatch","img/pentagon.png","三角","五边","ALT1_2","prac_ALT1_2","","","","","","","","","","","",""
"null","<span style='color:GreenYellow; font-size: 70px;'>正确! </span>","null","html-keyboard-response","44","600918","0.0-7.0-1.0-1.0-0.0-1.17","3","4","4","3","3","4","4","3","4","3","4","5","4","5","4","4","5","5","4","4","1","2","1","2","2","1","2","1","1","1","0","1","1","0","0","0","1","0","1","1","0","0","0","1","4","1","2","1","1","3","2","1","2","4","2","634031410327322624","刘","221","","","","","","","","","","","","","","","","","","","","","","","","","","","","","","feedback_test","","","","","","","","","","","",""
"915","","f","psychophysics","45","602834","0.0-7.0-1.0-1.0-0.0-0.18","3","4","4","3","3","4","4","3","4","3","4","5","4","5","4","4","5","5","4","4","1","2","1","2","2","1","2","1","1","1","0","1","1","0","0","0","1","0","1","1","0","0","0","1","4","1","2","1","1","3","2","1","2","4","2","634031410327322624","刘","221","","","","nonmatch","","","","","","","","","","","","","","key","f","16.654122807017096","799.9999682108573","445.8333156175091","f","true","nonmatch","img/pentagon.png","梯形","五边","ALT1_2","prac_ALT1_2","","","","","","","","","","","",""
"null","<span style='color:GreenYellow; font-size: 70px;'>正确! </span>","null","html-keyboard-response","46","603336","0.0-7.0-1.0-1.0-0.0-1.18","3","4","4","3","3","4","4","3","4","3","4","5","4","5","4","4","5","5","4","4","1","2","1","2","2","1","2","1","1","1","0","1","1","0","0","0","1","0","1","1","0","0","0","1","4","1","2","1","1","3","2","1","2","4","2","634031410327322624","刘","221","","","","","","","","","","","","","","","","","","","","","","","","","","","","","","feedback_test","","","","","","","","","","","",""
"682","","f","psychophysics","47","605018","0.0-7.0-1.0-1.0-0.0-0.19","3","4","4","3","3","4","4","3","4","3","4","5","4","5","4","4","5","5","4","4","1","2","1","2","2","1","2","1","1","1","0","1","1","0","0","0","1","0","1","1","0","0","0","1","4","1","2","1","1","3","2","1","2","4","2","634031410327322624","刘","221","","","","nonmatch","","","","","","","","","","","","","","key","f","16.654429999999703","799.9999682108573","445.8333156175091","f","true","nonmatch","img/trapezoid.png","三角","梯形","ALT1_2","prac_ALT1_2","","","","","","","","","","","",""
"null","<span style='color:GreenYellow; font-size: 70px;'>正确! </span>","null","html-keyboard-response","48","605520","0.0-7.0-1.0-1.0-0.0-1.19","3","4","4","3","3","4","4","3","4","3","4","5","4","5","4","4","5","5","4","4","1","2","1","2","2","1","2","1","1","1","0","1","1","0","0","0","1","0","1","1","0","0","0","1","4","1","2","1","1","3","2","1","2","4","2","634031410327322624","刘","221","","","","","","","","","","","","","","","","","","","","","","","","","","","","","","feedback_test","","","","","","","","","","","",""
"755","","j","psychophysics","49","607276","0.0-7.0-1.0-1.0-0.0-0.20","3","4","4","3","3","4","4","3","4","3","4","5","4","5","4","4","5","5","4","4","1","2","1","2","2","1","2","1","1","1","0","1","1","0","0","0","1","0","1","1","0","0","0","1","4","1","2","1","1","3","2","1","2","4","2","634031410327322624","刘","221","","","","match","","","","","","","","","","","","","","key","j","16.653438095237306","799.9999682108573","445.8333156175091","j","true","match","img/trapezoid.png","梯形","梯形","ALT1_2","prac_ALT1_2","","","","","","","","","","","",""
"null","<span style='color:GreenYellow; font-size: 70px;'>正确! </span>","null","html-keyboard-response","50","607777","0.0-7.0-1.0-1.0-0.0-1.20","3","4","4","3","3","4","4","3","4","3","4","5","4","5","4","4","5","5","4","4","1","2","1","2","2","1","2","1","1","1","0","1","1","0","0","0","1","0","1","1","0","0","0","1","4","1","2","1","1","3","2","1","2","4","2","634031410327322624","刘","221","","","","","","","","","","","","","","","","","","","","","","","","","","","","","","feedback_test","","","","","","","","","","","",""
"613","","j","psychophysics","51","609392","0.0-7.0-1.0-1.0-0.0-0.21","3","4","4","3","3","4","4","3","4","3","4","5","4","5","4","4","5","5","4","4","1","2","1","2","2","1","2","1","1","1","0","1","1","0","0","0","1","0","1","1","0","0","0","1","4","1","2","1","1","3","2","1","2","4","2","634031410327322624","刘","221","","","","match","","","","","","","","","","","","","","key","j","16.65354166666657","799.9999682108573","445.8333156175091","j","true","match","img/triangle.png","三角","三角","ALT1_2","prac_ALT1_2","","","","","","","","","","","",""
"null","<span style='color:GreenYellow; font-size: 70px;'>正确! </span>","null","html-keyboard-response","52","609892","0.0-7.0-1.0-1.0-0.0-1.21","3","4","4","3","3","4","4","3","4","3","4","5","4","5","4","4","5","5","4","4","1","2","1","2","2","1","2","1","1","1","0","1","1","0","0","0","1","0","1","1","0","0","0","1","4","1","2","1","1","3","2","1","2","4","2","634031410327322624","刘","221","","","","","","","","","","","","","","","","","","","","","","","","","","","","","","feedback_test","","","","","","","","","","","",""
"762","","f","psychophysics","53","611657","0.0-7.0-1.0-1.0-0.0-0.22","3","4","4","3","3","4","4","3","4","3","4","5","4","5","4","4","5","5","4","4","1","2","1","2","2","1","2","1","1","1","0","1","1","0","0","0","1","0","1","1","0","0","0","1","4","1","2","1","1","3","2","1","2","4","2","634031410327322624","刘","221","","","","nonmatch","","","","","","","","","","","","","","key","f","16.65371428571442","799.9999682108573","445.8333156175091","j","false","match","img/trapezoid.png","梯形","梯形","ALT1_2","prac_ALT1_2","","","","","","","","","","","",""
"null","<span style='color:red; font-size: 70px;'>错误! </span>","null","html-keyboard-response","54","612159","0.0-7.0-1.0-1.0-0.0-1.22","3","4","4","3","3","4","4","3","4","3","4","5","4","5","4","4","5","5","4","4","1","2","1","2","2","1","2","1","1","1","0","1","1","0","0","0","1","0","1","1","0","0","0","1","4","1","2","1","1","3","2","1","2","4","2","634031410327322624","刘","221","","","","","","","","","","","","","","","","","","","","","","","","","","","","","","feedback_test","","","","","","","","","","","",""
"792","","f","psychophysics","55","613953","0.0-7.0-1.0-1.0-0.0-0.23","3","4","4","3","3","4","4","3","4","3","4","5","4","5","4","4","5","5","4","4","1","2","1","2","2","1","2","1","1","1","0","1","1","0","0","0","1","0","1","1","0","0","0","1","4","1","2","1","1","3","2","1","2","4","2","634031410327322624","刘","221","","","","nonmatch","","","","","","","","","","","","","","key","f","16.65371028037424","799.9999682108573","445.8333156175091","f","true","nonmatch","img/trapezoid.png","圆形","梯形","ALT1_2","prac_ALT1_2","","","","","","","","","","","",""
"null","<span style='color:GreenYellow; font-size: 70px;'>正确! </span>","null","html-keyboard-response","56","614457","0.0-7.0-1.0-1.0-0.0-1.23","3","4","4","3","3","4","4","3","4","3","4","5","4","5","4","4","5","5","4","4","1","2","1","2","2","1","2","1","1","1","0","1","1","0","0","0","1","0","1","1","0","0","0","1","4","1","2","1","1","3","2","1","2","4","2","634031410327322624","刘","221","","","","","","","","","","","","","","","","","","","","","","","","","","","","","","feedback_test","","","","","","","","","","","",""
"921","","f","psychophysics","57","616385","0.0-7.0-1.0-1.0-0.0-0.24","3","4","4","3","3","4","4","3","4","3","4","5","4","5","4","4","5","5","4","4","1","2","1","2","2","1","2","1","1","1","0","1","1","0","0","0","1","0","1","1","0","0","0","1","4","1","2","1","1","3","2","1","2","4","2","634031410327322624","刘","221","","","","nonmatch","","","","","","","","","","","","","","key","f","16.651086956521738","799.9999682108573","445.8333156175091","f","true","nonmatch","img/trapezoid.png","五边","梯形","ALT1_2","prac_ALT1_2","","","","","","","","","","","",""
"null","<span style='color:GreenYellow; font-size: 70px;'>正确! </span>","null","html-keyboard-response","58","616887","0.0-7.0-1.0-1.0-0.0-1.24","3","4","4","3","3","4","4","3","4","3","4","5","4","5","4","4","5","5","4","4","1","2","1","2","2","1","2","1","1","1","0","1","1","0","0","0","1","0","1","1","0","0","0","1","4","1","2","1","1","3","2","1","2","4","2","634031410327322624","刘","221","","","","","","","","","","","","","","","","","","","","","","","","","","","","","","feedback_test","","","","","","","","","","","",""
"691","","j","psychophysics","59","618588","0.0-7.0-1.0-1.0-0.0-0.25","3","4","4","3","3","4","4","3","4","3","4","5","4","5","4","4","5","5","4","4","1","2","1","2","2","1","2","1","1","1","0","1","1","0","0","0","1","0","1","1","0","0","0","1","4","1","2","1","1","3","2","1","2","4","2","634031410327322624","刘","221","","","","match","","","","","","","","","","","","","","key","j","16.65369306930622","799.9999682108573","445.8333156175091","j","true","match","img/circle.png","圆形","圆形","ALT1_2","prac_ALT1_2","","","","","","","","","","","",""
"null","<span style='color:GreenYellow; font-size: 70px;'>正确! </span>","null","html-keyboard-response","60","619089","0.0-7.0-1.0-1.0-0.0-1.25","3","4","4","3","3","4","4","3","4","3","4","5","4","5","4","4","5","5","4","4","1","2","1","2","2","1","2","1","1","1","0","1","1","0","0","0","1","0","1","1","0","0","0","1","4","1","2","1","1","3","2","1","2","4","2","634031410327322624","刘","221","","","","","","","","","","","","","","","","","","","","","","","","","","","","","","feedback_test","","","","","","","","","","","",""
"545","","f","psychophysics","61","620636","0.0-7.0-1.0-1.0-0.0-0.26","3","4","4","3","3","4","4","3","4","3","4","5","4","5","4","4","5","5","4","4","1","2","1","2","2","1","2","1","1","1","0","1","1","0","0","0","1","0","1","1","0","0","0","1","4","1","2","1","1","3","2","1","2","4","2","634031410327322624","刘","221","","","","nonmatch","","","","","","","","","","","","","","key","f","16.653108695652286","799.9999682108573","445.8333156175091","f","true","nonmatch","img/triangle.png","梯形","三角","ALT1_2","prac_ALT1_2","","","","","","","","","","","",""
"null","<span style='color:GreenYellow; font-size: 70px;'>正确! </span>","null","html-keyboard-response","62","621137","0.0-7.0-1.0-1.0-0.0-1.26","3","4","4","3","3","4","4","3","4","3","4","5","4","5","4","4","5","5","4","4","1","2","1","2","2","1","2","1","1","1","0","1","1","0","0","0","1","0","1","1","0","0","0","1","4","1","2","1","1","3","2","1","2","4","2","634031410327322624","刘","221","","","","","","","","","","","","","","","","","","","","","","","","","","","","","","feedback_test","","","","","","","","","","","",""
"601","","f","psychophysics","63","622739","0.0-7.0-1.0-1.0-0.0-0.27","3","4","4","3","3","4","4","3","4","3","4","5","4","5","4","4","5","5","4","4","1","2","1","2","2","1","2","1","1","1","0","1","1","0","0","0","1","0","1","1","0","0","0","1","4","1","2","1","1","3","2","1","2","4","2","634031410327322624","刘","221","","","","nonmatch","","","","","","","","","","","","","","key","f","16.644757894736617","799.9999682108573","445.8333156175091","f","true","nonmatch","img/pentagon.png","圆形","五边","ALT1_2","prac_ALT1_2","","","","","","","","","","","",""
"null","<span style='color:GreenYellow; font-size: 70px;'>正确! </span>","null","html-keyboard-response","64","623240","0.0-7.0-1.0-1.0-0.0-1.27","3","4","4","3","3","4","4","3","4","3","4","5","4","5","4","4","5","5","4","4","1","2","1","2","2","1","2","1","1","1","0","1","1","0","0","0","1","0","1","1","0","0","0","1","4","1","2","1","1","3","2","1","2","4","2","634031410327322624","刘","221","","","","","","","","","","","","","","","","","","","","","","","","","","","","","","feedback_test","","","","","","","","","","","",""
"714","","f","psychophysics","65","624955","0.0-7.0-1.0-1.0-0.0-0.28","3","4","4","3","3","4","4","3","4","3","4","5","4","5","4","4","5","5","4","4","1","2","1","2","2","1","2","1","1","1","0","1","1","0","0","0","1","0","1","1","0","0","0","1","4","1","2","1","1","3","2","1","2","4","2","634031410327322624","刘","221","","","","nonmatch","","","","","","","","","","","","","","key","f","16.653313725490545","799.9999682108573","445.8333156175091","f","true","nonmatch","img/pentagon.png","三角","五边","ALT1_2","prac_ALT1_2","","","","","","","","","","","",""
"null","<span style='color:GreenYellow; font-size: 70px;'>正确! </span>","null","html-keyboard-response","66","625456","0.0-7.0-1.0-1.0-0.0-1.28","3","4","4","3","3","4","4","3","4","3","4","5","4","5","4","4","5","5","4","4","1","2","1","2","2","1","2","1","1","1","0","1","1","0","0","0","1","0","1","1","0","0","0","1","4","1","2","1","1","3","2","1","2","4","2","634031410327322624","刘","221","","","","","","","","","","","","","","","","","","","","","","","","","","","","","","feedback_test","","","","","","","","","","","",""
"959","","j","psychophysics","67","627416","0.0-7.0-1.0-1.0-0.0-0.29","3","4","4","3","3","4","4","3","4","3","4","5","4","5","4","4","5","5","4","4","1","2","1","2","2","1","2","1","1","1","0","1","1","0","0","0","1","0","1","1","0","0","0","1","4","1","2","1","1","3","2","1","2","4","2","634031410327322624","刘","221","","","","match","","","","","","","","","","","","","","key","j","16.650827586206262","799.9999682108573","445.8333156175091","f","false","nonmatch","img/circle.png","梯形","圆形","ALT1_2","prac_ALT1_2","","","","","","","","","","","",""
"null","<span style='color:red; font-size: 70px;'>错误! </span>","null","html-keyboard-response","68","627918","0.0-7.0-1.0-1.0-0.0-1.29","3","4","4","3","3","4","4","3","4","3","4","5","4","5","4","4","5","5","4","4","1","2","1","2","2","1","2","1","1","1","0","1","1","0","0","0","1","0","1","1","0","0","0","1","4","1","2","1","1","3","2","1","2","4","2","634031410327322624","刘","221","","","","","","","","","","","","","","","","","","","","","","","","","","","","","","feedback_test","","","","","","","","","","","",""
"688","","j","psychophysics","69","629608","0.0-7.0-1.0-1.0-0.0-0.30","3","4","4","3","3","4","4","3","4","3","4","5","4","5","4","4","5","5","4","4","1","2","1","2","2","1","2","1","1","1","0","1","1","0","0","0","1","0","1","1","0","0","0","1","4","1","2","1","1","3","2","1","2","4","2","634031410327322624","刘","221","","","","match","","","","","","","","","","","","","","key","j","16.65352475247461","799.9999682108573","445.8333156175091","j","true","match","img/triangle.png","三角","三角","ALT1_2","prac_ALT1_2","","","","","","","","","","","",""
"null","<span style='color:GreenYellow; font-size: 70px;'>正确! </span>","null","html-keyboard-response","70","630109","0.0-7.0-1.0-1.0-0.0-1.30","3","4","4","3","3","4","4","3","4","3","4","5","4","5","4","4","5","5","4","4","1","2","1","2","2","1","2","1","1","1","0","1","1","0","0","0","1","0","1","1","0","0","0","1","4","1","2","1","1","3","2","1","2","4","2","634031410327322624","刘","221","","","","","","","","","","","","","","","","","","","","","","","","","","","","","","feedback_test","","","","","","","","","","","",""
"610","","f","psychophysics","71","631721","0.0-7.0-1.0-1.0-0.0-0.31","3","4","4","3","3","4","4","3","4","3","4","5","4","5","4","4","5","5","4","4","1","2","1","2","2","1","2","1","1","1","0","1","1","0","0","0","1","0","1","1","0","0","0","1","4","1","2","1","1","3","2","1","2","4","2","634031410327322624","刘","221","","","","nonmatch","","","","","","","","","","","","","","key","f","16.652760416665842","799.9999682108573","445.8333156175091","f","true","nonmatch","img/pentagon.png","梯形","五边","ALT1_2","prac_ALT1_2","","","","","","","","","","","",""
"null","<span style='color:GreenYellow; font-size: 70px;'>正确! </span>","null","html-keyboard-response","72","632224","0.0-7.0-1.0-1.0-0.0-1.31","3","4","4","3","3","4","4","3","4","3","4","5","4","5","4","4","5","5","4","4","1","2","1","2","2","1","2","1","1","1","0","1","1","0","0","0","1","0","1","1","0","0","0","1","4","1","2","1","1","3","2","1","2","4","2","634031410327322624","刘","221","","","","","","","","","","","","","","","","","","","","","","","","","","","","","","feedback_test","","","","","","","","","","","",""
"676","","j","psychophysics","73","633902","0.0-7.0-1.0-1.0-0.0-0.32","3","4","4","3","3","4","4","3","4","3","4","5","4","5","4","4","5","5","4","4","1","2","1","2","2","1","2","1","1","1","0","1","1","0","0","0","1","0","1","1","0","0","0","1","4","1","2","1","1","3","2","1","2","4","2","634031410327322624","刘","221","","","","match","","","","","","","","","","","","","","key","j","16.653880000000353","799.9999682108573","445.8333156175091","j","true","match","img/circle.png","圆形","圆形","ALT1_2","prac_ALT1_2","","","","","","","","","","","",""
"null","<span style='color:GreenYellow; font-size: 70px;'>正确! </span>","null","html-keyboard-response","74","634406","0.0-7.0-1.0-1.0-0.0-1.32","3","4","4","3","3","4","4","3","4","3","4","5","4","5","4","4","5","5","4","4","1","2","1","2","2","1","2","1","1","1","0","1","1","0","0","0","1","0","1","1","0","0","0","1","4","1","2","1","1","3","2","1","2","4","2","634031410327322624","刘","221","","","","","","","","","","","","","","","","","","","","","","","","","","","","","","feedback_test","","","","","","","","","","","",""
"710","","f","psychophysics","75","636117","0.0-7.0-1.0-1.0-0.0-0.33","3","4","4","3","3","4","4","3","4","3","4","5","4","5","4","4","5","5","4","4","1","2","1","2","2","1","2","1","1","1","0","1","1","0","0","0","1","0","1","1","0","0","0","1","4","1","2","1","1","3","2","1","2","4","2","634031410327322624","刘","221","","","","nonmatch","","","","","","","","","","","","","","key","f","16.654215686274327","799.9999682108573","445.8333156175091","j","false","match","img/trapezoid.png","梯形","梯形","ALT1_2","prac_ALT1_2","","","","","","","","","","","",""
"null","<span style='color:red; font-size: 70px;'>错误! </span>","null","html-keyboard-response","76","636619","0.0-7.0-1.0-1.0-0.0-1.33","3","4","4","3","3","4","4","3","4","3","4","5","4","5","4","4","5","5","4","4","1","2","1","2","2","1","2","1","1","1","0","1","1","0","0","0","1","0","1","1","0","0","0","1","4","1","2","1","1","3","2","1","2","4","2","634031410327322624","刘","221","","","","","","","","","","","","","","","","","","","","","","","","","","","","","","feedback_test","","","","","","","","","","","",""
"884","","f","psychophysics","77","638506","0.0-7.0-1.0-1.0-0.0-0.34","3","4","4","3","3","4","4","3","4","3","4","5","4","5","4","4","5","5","4","4","1","2","1","2","2","1","2","1","1","1","0","1","1","0","0","0","1","0","1","1","0","0","0","1","4","1","2","1","1","3","2","1","2","4","2","634031410327322624","刘","221","","","","nonmatch","","","","","","","","","","","","","","key","f","16.653919642856636","799.9999682108573","445.8333156175091","f","true","nonmatch","img/triangle.png","圆形","三角","ALT1_2","prac_ALT1_2","","","","","","","","","","","",""
"null","<span style='color:GreenYellow; font-size: 70px;'>正确! </span>","null","html-keyboard-response","78","639008","0.0-7.0-1.0-1.0-0.0-1.34","3","4","4","3","3","4","4","3","4","3","4","5","4","5","4","4","5","5","4","4","1","2","1","2","2","1","2","1","1","1","0","1","1","0","0","0","1","0","1","1","0","0","0","1","4","1","2","1","1","3","2","1","2","4","2","634031410327322624","刘","221","","","","","","","","","","","","","","","","","","","","","","","","","","","","","","feedback_test","","","","","","","","","","","",""
"598","","f","psychophysics","79","640607","0.0-7.0-1.0-1.0-0.0-0.35","3","4","4","3","3","4","4","3","4","3","4","5","4","5","4","4","5","5","4","4","1","2","1","2","2","1","2","1","1","1","0","1","1","0","0","0","1","0","1","1","0","0","0","1","4","1","2","1","1","3","2","1","2","4","2","634031410327322624","刘","221","","","","nonmatch","","","","","","","","","","","","","","key","f","16.65464210526307","799.9999682108573","445.8333156175091","f","true","nonmatch","img/trapezoid.png","三角","梯形","ALT1_2","prac_ALT1_2","","","","","","","","","","","",""
"null","<span style='color:GreenYellow; font-size: 70px;'>正确! </span>","null","html-keyboard-response","80","641108","0.0-7.0-1.0-1.0-0.0-1.35","3","4","4","3","3","4","4","3","4","3","4","5","4","5","4","4","5","5","4","4","1","2","1","2","2","1","2","1","1","1","0","1","1","0","0","0","1","0","1","1","0","0","0","1","4","1","2","1","1","3","2","1","2","4","2","634031410327322624","刘","221","","","","","","","","","","","","","","","","","","","","","","","","","","","","","","feedback_test","","","","","","","","","","","",""
"717","","j","psychophysics","81","642827","0.0-7.0-1.0-1.0-0.0-0.36","3","4","4","3","3","4","4","3","4","3","4","5","4","5","4","4","5","5","4","4","1","2","1","2","2","1","2","1","1","1","0","1","1","0","0","0","1","0","1","1","0","0","0","1","4","1","2","1","1","3","2","1","2","4","2","634031410327322624","刘","221","","","","match","","","","","","","","","","","","","","key","j","16.653621359223056","799.9999682108573","445.8333156175091","j","true","match","img/triangle.png","三角","三角","ALT1_2","prac_ALT1_2","","","","","","","","","","","",""
"null","<span style='color:GreenYellow; font-size: 70px;'>正确! </span>","null","html-keyboard-response","82","643331","0.0-7.0-1.0-1.0-0.0-1.36","3","4","4","3","3","4","4","3","4","3","4","5","4","5","4","4","5","5","4","4","1","2","1","2","2","1","2","1","1","1","0","1","1","0","0","0","1","0","1","1","0","0","0","1","4","1","2","1","1","3","2","1","2","4","2","634031410327322624","刘","221","","","","","","","","","","","","","","","","","","","","","","","","","","","","","","feedback_test","","","","","","","","","","","",""
"671","","j","psychophysics","83","645003","0.0-7.0-1.0-1.0-0.0-0.37","3","4","4","3","3","4","4","3","4","3","4","5","4","5","4","4","5","5","4","4","1","2","1","2","2","1","2","1","1","1","0","1","1","0","0","0","1","0","1","1","0","0","0","1","4","1","2","1","1","3","2","1","2","4","2","634031410327322624","刘","221","","","","match","","","","","","","","","","","","","","key","j","16.653060606061103","799.9999682108573","445.8333156175091","j","true","match","img/pentagon.png","五边","五边","ALT1_2","prac_ALT1_2","","","","","","","","","","","",""
"null","<span style='color:GreenYellow; font-size: 70px;'>正确! </span>","null","html-keyboard-response","84","645504","0.0-7.0-1.0-1.0-0.0-1.37","3","4","4","3","3","4","4","3","4","3","4","5","4","5","4","4","5","5","4","4","1","2","1","2","2","1","2","1","1","1","0","1","1","0","0","0","1","0","1","1","0","0","0","1","4","1","2","1","1","3","2","1","2","4","2","634031410327322624","刘","221","","","","","","","","","","","","","","","","","","","","","","","","","","","","","","feedback_test","","","","","","","","","","","",""
"755","","j","psychophysics","85","647260","0.0-7.0-1.0-1.0-0.0-0.38","3","4","4","3","3","4","4","3","4","3","4","5","4","5","4","4","5","5","4","4","1","2","1","2","2","1","2","1","1","1","0","1","1","0","0","0","1","0","1","1","0","0","0","1","4","1","2","1","1","3","2","1","2","4","2","634031410327322624","刘","221","","","","match","","","","","","","","","","","","","","key","j","16.654019047619244","799.9999682108573","445.8333156175091","j","true","match","img/trapezoid.png","梯形","梯形","ALT1_2","prac_ALT1_2","","","","","","","","","","","",""
"null","<span style='color:GreenYellow; font-size: 70px;'>正确! </span>","null","html-keyboard-response","86","647762","0.0-7.0-1.0-1.0-0.0-1.38","3","4","4","3","3","4","4","3","4","3","4","5","4","5","4","4","5","5","4","4","1","2","1","2","2","1","2","1","1","1","0","1","1","0","0","0","1","0","1","1","0","0","0","1","4","1","2","1","1","3","2","1","2","4","2","634031410327322624","刘","221","","","","","","","","","","","","","","","","","","","","","","","","","","","","","","feedback_test","","","","","","","","","","","",""
"655","","j","psychophysics","87","649420","0.0-7.0-1.0-1.0-0.0-0.39","3","4","4","3","3","4","4","3","4","3","4","5","4","5","4","4","5","5","4","4","1","2","1","2","2","1","2","1","1","1","0","1","1","0","0","0","1","0","1","1","0","0","0","1","4","1","2","1","1","3","2","1","2","4","2","634031410327322624","刘","221","","","","match","","","","","","","","","","","","","","key","j","16.650999999999506","799.9999682108573","445.8333156175091","j","true","match","img/pentagon.png","五边","五边","ALT1_2","prac_ALT1_2","","","","","","","","","","","",""
"null","<span style='color:GreenYellow; font-size: 70px;'>正确! </span>","null","html-keyboard-response","88","649923","0.0-7.0-1.0-1.0-0.0-1.39","3","4","4","3","3","4","4","3","4","3","4","5","4","5","4","4","5","5","4","4","1","2","1","2","2","1","2","1","1","1","0","1","1","0","0","0","1","0","1","1","0","0","0","1","4","1","2","1","1","3","2","1","2","4","2","634031410327322624","刘","221","","","","","","","","","","","","","","","","","","","","","","","","","","","","","","feedback_test","","","","","","","","","","","",""
"815","","f","psychophysics","89","651740","0.0-7.0-1.0-1.0-0.0-0.40","3","4","4","3","3","4","4","3","4","3","4","5","4","5","4","4","5","5","4","4","1","2","1","2","2","1","2","1","1","1","0","1","1","0","0","0","1","0","1","1","0","0","0","1","4","1","2","1","1","3","2","1","2","4","2","634031410327322624","刘","221","","","","nonmatch","","","","","","","","","","","","","","key","f","16.653342592592473","799.9999682108573","445.8333156175091","f","true","nonmatch","img/circle.png","三角","圆形","ALT1_2","prac_ALT1_2","","","","","","","","","","","",""
"null","<span style='color:GreenYellow; font-size: 70px;'>正确! </span>","null","html-keyboard-response","90","652241","0.0-7.0-1.0-1.0-0.0-1.40","3","4","4","3","3","4","4","3","4","3","4","5","4","5","4","4","5","5","4","4","1","2","1","2","2","1","2","1","1","1","0","1","1","0","0","0","1","0","1","1","0","0","0","1","4","1","2","1","1","3","2","1","2","4","2","634031410327322624","刘","221","","","","","","","","","","","","","","","","","","","","","","","","","","","","","","feedback_test","","","","","","","","","","","",""
"604","","f","psychophysics","91","653847","0.0-7.0-1.0-1.0-0.0-0.41","3","4","4","3","3","4","4","3","4","3","4","5","4","5","4","4","5","5","4","4","1","2","1","2","2","1","2","1","1","1","0","1","1","0","0","0","1","0","1","1","0","0","0","1","4","1","2","1","1","3","2","1","2","4","2","634031410327322624","刘","221","","","","nonmatch","","","","","","","","","","","","","","key","f","16.653336842104448","799.9999682108573","445.8333156175091","f","true","nonmatch","img/circle.png","五边","圆形","ALT1_2","prac_ALT1_2","","","","","","","","","","","",""
"null","<span style='color:GreenYellow; font-size: 70px;'>正确! </span>","null","html-keyboard-response","92","654347","0.0-7.0-1.0-1.0-0.0-1.41","3","4","4","3","3","4","4","3","4","3","4","5","4","5","4","4","5","5","4","4","1","2","1","2","2","1","2","1","1","1","0","1","1","0","0","0","1","0","1","1","0","0","0","1","4","1","2","1","1","3","2","1","2","4","2","634031410327322624","刘","221","","","","","","","","","","","","","","","","","","","","","","","","","","","","","","feedback_test","","","","","","","","","","","",""
"989","","f","psychophysics","93","656338","0.0-7.0-1.0-1.0-0.0-0.42","3","4","4","3","3","4","4","3","4","3","4","5","4","5","4","4","5","5","4","4","1","2","1","2","2","1","2","1","1","1","0","1","1","0","0","0","1","0","1","1","0","0","0","1","4","1","2","1","1","3","2","1","2","4","2","634031410327322624","刘","221","","","","nonmatch","","","","","","","","","","","","","","key","f","16.653630252100896","799.9999682108573","445.8333156175091","j","false","match","img/triangle.png","三角","三角","ALT1_2","prac_ALT1_2","","","","","","","","","","","",""
"null","<span style='color:red; font-size: 70px;'>错误! </span>","null","html-keyboard-response","94","656840","0.0-7.0-1.0-1.0-0.0-1.42","3","4","4","3","3","4","4","3","4","3","4","5","4","5","4","4","5","5","4","4","1","2","1","2","2","1","2","1","1","1","0","1","1","0","0","0","1","0","1","1","0","0","0","1","4","1","2","1","1","3","2","1","2","4","2","634031410327322624","刘","221","","","","","","","","","","","","","","","","","","","","","","","","","","","","","","feedback_test","","","","","","","","","","","",""
"909","","j","psychophysics","95","658752","0.0-7.0-1.0-1.0-0.0-0.43","3","4","4","3","3","4","4","3","4","3","4","5","4","5","4","4","5","5","4","4","1","2","1","2","2","1","2","1","1","1","0","1","1","0","0","0","1","0","1","1","0","0","0","1","4","1","2","1","1","3","2","1","2","4","2","634031410327322624","刘","221","","","","match","","","","","","","","","","","","","","key","j","16.654596491227654","799.9999682108573","445.8333156175091","j","true","match","img/pentagon.png","五边","五边","ALT1_2","prac_ALT1_2","","","","","","","","","","","",""
"null","<span style='color:GreenYellow; font-size: 70px;'>正确! </span>","null","html-keyboard-response","96","659253","0.0-7.0-1.0-1.0-0.0-1.43","3","4","4","3","3","4","4","3","4","3","4","5","4","5","4","4","5","5","4","4","1","2","1","2","2","1","2","1","1","1","0","1","1","0","0","0","1","0","1","1","0","0","0","1","4","1","2","1","1","3","2","1","2","4","2","634031410327322624","刘","221","","","","","","","","","","","","","","","","","","","","","","","","","","","","","","feedback_test","","","","","","","","","","","",""
"743","","j","psychophysics","97","660999","0.0-7.0-1.0-1.0-0.0-0.44","3","4","4","3","3","4","4","3","4","3","4","5","4","5","4","4","5","5","4","4","1","2","1","2","2","1","2","1","1","1","0","1","1","0","0","0","1","0","1","1","0","0","0","1","4","1","2","1","1","3","2","1","2","4","2","634031410327322624","刘","221","","","","match","","","","","","","","","","","","","","key","j","16.651961538461574","799.9999682108573","445.8333156175091","j","true","match","img/trapezoid.png","梯形","梯形","ALT1_2","prac_ALT1_2","","","","","","","","","","","",""
"null","<span style='color:GreenYellow; font-size: 70px;'>正确! </span>","null","html-keyboard-response","98","661501","0.0-7.0-1.0-1.0-0.0-1.44","3","4","4","3","3","4","4","3","4","3","4","5","4","5","4","4","5","5","4","4","1","2","1","2","2","1","2","1","1","1","0","1","1","0","0","0","1","0","1","1","0","0","0","1","4","1","2","1","1","3","2","1","2","4","2","634031410327322624","刘","221","","","","","","","","","","","","","","","","","","","","","","","","","","","","","","feedback_test","","","","","","","","","","","",""
"664","","j","psychophysics","99","663167","0.0-7.0-1.0-1.0-0.0-0.45","3","4","4","3","3","4","4","3","4","3","4","5","4","5","4","4","5","5","4","4","1","2","1","2","2","1","2","1","1","1","0","1","1","0","0","0","1","0","1","1","0","0","0","1","4","1","2","1","1","3","2","1","2","4","2","634031410327322624","刘","221","","","","match","","","","","","","","","","","","","","key","j","16.65418181818148","799.9999682108573","445.8333156175091","j","true","match","img/circle.png","圆形","圆形","ALT1_2","prac_ALT1_2","","","","","","","","","","","",""
"null","<span style='color:GreenYellow; font-size: 70px;'>正确! </span>","null","html-keyboard-response","100","663668","0.0-7.0-1.0-1.0-0.0-1.45","3","4","4","3","3","4","4","3","4","3","4","5","4","5","4","4","5","5","4","4","1","2","1","2","2","1","2","1","1","1","0","1","1","0","0","0","1","0","1","1","0","0","0","1","4","1","2","1","1","3","2","1","2","4","2","634031410327322624","刘","221","","","","","","","","","","","","","","","","","","","","","","","","","","","","","","feedback_test","","","","","","","","","","","",""
"710","","f","psychophysics","101","665381","0.0-7.0-1.0-1.0-0.0-0.46","3","4","4","3","3","4","4","3","4","3","4","5","4","5","4","4","5","5","4","4","1","2","1","2","2","1","2","1","1","1","0","1","1","0","0","0","1","0","1","1","0","0","0","1","4","1","2","1","1","3","2","1","2","4","2","634031410327322624","刘","221","","","","nonmatch","","","","","","","","","","","","","","key","f","16.65098039215595","799.9999682108573","445.8333156175091","f","true","nonmatch","img/triangle.png","五边","三角","ALT1_2","prac_ALT1_2","","","","","","","","","","","",""
"null","<span style='color:GreenYellow; font-size: 70px;'>正确! </span>","null","html-keyboard-response","102","665881","0.0-7.0-1.0-1.0-0.0-1.46","3","4","4","3","3","4","4","3","4","3","4","5","4","5","4","4","5","5","4","4","1","2","1","2","2","1","2","1","1","1","0","1","1","0","0","0","1","0","1","1","0","0","0","1","4","1","2","1","1","3","2","1","2","4","2","634031410327322624","刘","221","","","","","","","","","","","","","","","","","","","","","","","","","","","","","","feedback_test","","","","","","","","","","","",""
"577","","f","psychophysics","103","667461","0.0-7.0-1.0-1.0-0.0-0.47","3","4","4","3","3","4","4","3","4","3","4","5","4","5","4","4","5","5","4","4","1","2","1","2","2","1","2","1","1","1","0","1","1","0","0","0","1","0","1","1","0","0","0","1","4","1","2","1","1","3","2","1","2","4","2","634031410327322624","刘","221","","","","nonmatch","","","","","","","","","","","","","","key","f","16.653904255319812","799.9999682108573","445.8333156175091","f","true","nonmatch","img/trapezoid.png","圆形","梯形","ALT1_2","prac_ALT1_2","","","","","","","","","","","",""
"null","<span style='color:GreenYellow; font-size: 70px;'>正确! </span>","null","html-keyboard-response","104","667972","0.0-7.0-1.0-1.0-0.0-1.47","3","4","4","3","3","4","4","3","4","3","4","5","4","5","4","4","5","5","4","4","1","2","1","2","2","1","2","1","1","1","0","1","1","0","0","0","1","0","1","1","0","0","0","1","4","1","2","1","1","3","2","1","2","4","2","634031410327322624","刘","221","","","","","","","","","","","","","","","","","","","","","","","","","","","","","","feedback_test","","","","","","","","","","","",""
"844","<style>.context{color:white; font-size: 35px; line-height:40px}</style>                          <div><p class='context'>您正确回答了85% 的试次。</p><p class='context'>您的平均反应时为695毫秒。</p><p class='context'>恭喜您完成练习。按空格键进入正式实验。</p><p class='footer' style='font-size: 35px; line-height:40px;'>请在进入正式实验实验之前将您的<span style='color: lightgreen;'>食指</span>放在电脑键盘的相应键位上进行按键。</p>"," ","html-keyboard-response","105","668819","0.0-7.0-1.0-2.0","3","4","4","3","3","4","4","3","4","3","4","5","4","5","4","4","5","5","4","4","1","2","1","2","2","1","2","1","1","1","0","1","1","0","0","0","1","0","1","1","0","0","0","1","4","1","2","1","1","3","2","1","2","4","2","634031410327322624","刘","221","","","","","","","","","","","","","","","","","","","","","","","","","","","","","","","","","","","","","","","","","",""
"627","
  <p style='color: white; font-size: 22px'>请您将手指放在按键上，准备进入正式的匹配任务。</p>
  <p> <div style = ""color: green""><按空格键进入下一阶段的匹配任务></div></p>
  "," ","html-keyboard-response","106","669452","0.0-7.0-1.0-3.0","3","4","4","3","3","4","4","3","4","3","4","5","4","5","4","4","5","5","4","4","1","2","1","2","2","1","2","1","1","1","0","1","1","0","0","0","1","0","1","1","0","0","0","1","4","1","2","1","1","3","2","1","2","4","2","634031410327322624","刘","221","","","","","","","","","","","","","","","","","","","","","","","","","","","","","","","","","","","","","","","","","",""
"647","","f","psychophysics","107","671101","0.0-7.0-1.0-4.0-0.0-0.0","3","4","4","3","3","4","4","3","4","3","4","5","4","5","4","4","5","5","4","4","1","2","1","2","2","1","2","1","1","1","0","1","1","0","0","0","1","0","1","1","0","0","0","1","4","1","2","1","1","3","2","1","2","4","2","634031410327322624","刘","221","","","","nonmatch","","","","","","","","","","","","","","key","f","16.653295918366616","799.9999682108573","445.8333156175091","f","true","nonmatch","img/trapezoid.png","五边","梯形","ALT1","formal_ALT1_2","","","","","","","","","","","",""
"null","<span style='color:GreenYellow; font-size: 70px;'>正确! </span>","null","html-keyboard-response","108","671602","0.0-7.0-1.0-4.0-0.0-1.0","3","4","4","3","3","4","4","3","4","3","4","5","4","5","4","4","5","5","4","4","1","2","1","2","2","1","2","1","1","1","0","1","1","0","0","0","1","0","1","1","0","0","0","1","4","1","2","1","1","3","2","1","2","4","2","634031410327322624","刘","221","","","","","","","","","","","","","","","","","","","","","","","","","","","","","","feedback_test","","","","","","","","","","","",""
"702","","j","psychophysics","109","673306","0.0-7.0-1.0-4.0-0.0-0.1","3","4","4","3","3","4","4","3","4","3","4","5","4","5","4","4","5","5","4","4","1","2","1","2","2","1","2","1","1","1","0","1","1","0","0","0","1","0","1","1","0","0","0","1","4","1","2","1","1","3","2","1","2","4","2","634031410327322624","刘","221","","","","match","","","","","","","","","","","","","","key","j","16.643465346534562","799.9999682108573","445.8333156175091","j","true","match","img/triangle.png","三角","三角","ALT1","formal_ALT1_2","","","","","","","","","","","",""
"null","<span style='color:GreenYellow; font-size: 70px;'>正确! </span>","null","html-keyboard-response","110","673807","0.0-7.0-1.0-4.0-0.0-1.1","3","4","4","3","3","4","4","3","4","3","4","5","4","5","4","4","5","5","4","4","1","2","1","2","2","1","2","1","1","1","0","1","1","0","0","0","1","0","1","1","0","0","0","1","4","1","2","1","1","3","2","1","2","4","2","634031410327322624","刘","221","","","","","","","","","","","","","","","","","","","","","","","","","","","","","","feedback_test","","","","","","","","","","","",""
"564","","j","psychophysics","111","675373","0.0-7.0-1.0-4.0-0.0-0.2","3","4","4","3","3","4","4","3","4","3","4","5","4","5","4","4","5","5","4","4","1","2","1","2","2","1","2","1","1","1","0","1","1","0","0","0","1","0","1","1","0","0","0","1","4","1","2","1","1","3","2","1","2","4","2","634031410327322624","刘","221","","","","match","","","","","","","","","","","","","","key","j","16.653451612903936","799.9999682108573","445.8333156175091","j","true","match","img/pentagon.png","五边","五边","ALT1","formal_ALT1_2","","","","","","","","","","","",""
"null","<span style='color:GreenYellow; font-size: 70px;'>正确! </span>","null","html-keyboard-response","112","675875","0.0-7.0-1.0-4.0-0.0-1.2","3","4","4","3","3","4","4","3","4","3","4","5","4","5","4","4","5","5","4","4","1","2","1","2","2","1","2","1","1","1","0","1","1","0","0","0","1","0","1","1","0","0","0","1","4","1","2","1","1","3","2","1","2","4","2","634031410327322624","刘","221","","","","","","","","","","","","","","","","","","","","","","","","","","","","","","feedback_test","","","","","","","","","","","",""
"567","","j","psychophysics","113","677444","0.0-7.0-1.0-4.0-0.0-0.3","3","4","4","3","3","4","4","3","4","3","4","5","4","5","4","4","5","5","4","4","1","2","1","2","2","1","2","1","1","1","0","1","1","0","0","0","1","0","1","1","0","0","0","1","4","1","2","1","1","3","2","1","2","4","2","634031410327322624","刘","221","","","","match","","","","","","","","","","","","","","key","j","16.651182795698272","799.9999682108573","445.8333156175091","j","true","match","img/triangle.png","三角","三角","ALT1","formal_ALT1_2","","","","","","","","","","","",""
"null","<span style='color:GreenYellow; font-size: 70px;'>正确! </span>","null","html-keyboard-response","114","677945","0.0-7.0-1.0-4.0-0.0-1.3","3","4","4","3","3","4","4","3","4","3","4","5","4","5","4","4","5","5","4","4","1","2","1","2","2","1","2","1","1","1","0","1","1","0","0","0","1","0","1","1","0","0","0","1","4","1","2","1","1","3","2","1","2","4","2","634031410327322624","刘","221","","","","","","","","","","","","","","","","","","","","","","","","","","","","","","feedback_test","","","","","","","","","","","",""
"687","","f","psychophysics","115","679634","0.0-7.0-1.0-4.0-0.0-0.4","3","4","4","3","3","4","4","3","4","3","4","5","4","5","4","4","5","5","4","4","1","2","1","2","2","1","2","1","1","1","0","1","1","0","0","0","1","0","1","1","0","0","0","1","4","1","2","1","1","3","2","1","2","4","2","634031410327322624","刘","221","","","","nonmatch","","","","","","","","","","","","","","key","f","16.653287128712474","799.9999682108573","445.8333156175091","f","true","nonmatch","img/triangle.png","五边","三角","ALT1","formal_ALT1_2","","","","","","","","","","","",""
"null","<span style='color:GreenYellow; font-size: 70px;'>正确! </span>","null","html-keyboard-response","116","680135","0.0-7.0-1.0-4.0-0.0-1.4","3","4","4","3","3","4","4","3","4","3","4","5","4","5","4","4","5","5","4","4","1","2","1","2","2","1","2","1","1","1","0","1","1","0","0","0","1","0","1","1","0","0","0","1","4","1","2","1","1","3","2","1","2","4","2","634031410327322624","刘","221","","","","","","","","","","","","","","","","","","","","","","","","","","","","","","feedback_test","","","","","","","","","","","",""
"720","","f","psychophysics","117","681855","0.0-7.0-1.0-4.0-0.0-0.5","3","4","4","3","3","4","4","3","4","3","4","5","4","5","4","4","5","5","4","4","1","2","1","2","2","1","2","1","1","1","0","1","1","0","0","0","1","0","1","1","0","0","0","1","4","1","2","1","1","3","2","1","2","4","2","634031410327322624","刘","221","","","","nonmatch","","","","","","","","","","","","","","key","f","16.65307843137199","799.9999682108573","445.8333156175091","f","true","nonmatch","img/triangle.png","圆形","三角","ALT1","formal_ALT1_2","","","","","","","","","","","",""
"null","<span style='color:GreenYellow; font-size: 70px;'>正确! </span>","null","html-keyboard-response","118","682357","0.0-7.0-1.0-4.0-0.0-1.5","3","4","4","3","3","4","4","3","4","3","4","5","4","5","4","4","5","5","4","4","1","2","1","2","2","1","2","1","1","1","0","1","1","0","0","0","1","0","1","1","0","0","0","1","4","1","2","1","1","3","2","1","2","4","2","634031410327322624","刘","221","","","","","","","","","","","","","","","","","","","","","","","","","","","","","","feedback_test","","","","","","","","","","","",""
"724","","j","psychophysics","119","684084","0.0-7.0-1.0-4.0-0.0-0.6","3","4","4","3","3","4","4","3","4","3","4","5","4","5","4","4","5","5","4","4","1","2","1","2","2","1","2","1","1","1","0","1","1","0","0","0","1","0","1","1","0","0","0","1","4","1","2","1","1","3","2","1","2","4","2","634031410327322624","刘","221","","","","match","","","","","","","","","","","","","","key","j","16.6541747572816","799.9999682108573","445.8333156175091","j","true","match","img/circle.png","圆形","圆形","ALT1","formal_ALT1_2","","","","","","","","","","","",""
"null","<span style='color:GreenYellow; font-size: 70px;'>正确! </span>","null","html-keyboard-response","120","684585","0.0-7.0-1.0-4.0-0.0-1.6","3","4","4","3","3","4","4","3","4","3","4","5","4","5","4","4","5","5","4","4","1","2","1","2","2","1","2","1","1","1","0","1","1","0","0","0","1","0","1","1","0","0","0","1","4","1","2","1","1","3","2","1","2","4","2","634031410327322624","刘","221","","","","","","","","","","","","","","","","","","","","","","","","","","","","","","feedback_test","","","","","","","","","","","",""
"684","","f","psychophysics","121","686270","0.0-7.0-1.0-4.0-0.0-0.7","3","4","4","3","3","4","4","3","4","3","4","5","4","5","4","4","5","5","4","4","1","2","1","2","2","1","2","1","1","1","0","1","1","0","0","0","1","0","1","1","0","0","0","1","4","1","2","1","1","3","2","1","2","4","2","634031410327322624","刘","221","","","","nonmatch","","","","","","","","","","","","","","key","f","16.650219999999972","799.9999682108573","445.8333156175091","f","true","nonmatch","img/trapezoid.png","圆形","梯形","ALT1","formal_ALT1_2","","","","","","","","","","","",""
"null","<span style='color:GreenYellow; font-size: 70px;'>正确! </span>","null","html-keyboard-response","122","686772","0.0-7.0-1.0-4.0-0.0-1.7","3","4","4","3","3","4","4","3","4","3","4","5","4","5","4","4","5","5","4","4","1","2","1","2","2","1","2","1","1","1","0","1","1","0","0","0","1","0","1","1","0","0","0","1","4","1","2","1","1","3","2","1","2","4","2","634031410327322624","刘","221","","","","","","","","","","","","","","","","","","","","","","","","","","","","","","feedback_test","","","","","","","","","","","",""
"822","","f","psychophysics","123","688596","0.0-7.0-1.0-4.0-0.0-0.8","3","4","4","3","3","4","4","3","4","3","4","5","4","5","4","4","5","5","4","4","1","2","1","2","2","1","2","1","1","1","0","1","1","0","0","0","1","0","1","1","0","0","0","1","4","1","2","1","1","3","2","1","2","4","2","634031410327322624","刘","221","","","","nonmatch","","","","","","","","","","","","","","key","f","16.65430275229374","799.9999682108573","445.8333156175091","f","true","nonmatch","img/circle.png","梯形","圆形","ALT1","formal_ALT1_2","","","","","","","","","","","",""
"null","<span style='color:GreenYellow; font-size: 70px;'>正确! </span>","null","html-keyboard-response","124","689097","0.0-7.0-1.0-4.0-0.0-1.8","3","4","4","3","3","4","4","3","4","3","4","5","4","5","4","4","5","5","4","4","1","2","1","2","2","1","2","1","1","1","0","1","1","0","0","0","1","0","1","1","0","0","0","1","4","1","2","1","1","3","2","1","2","4","2","634031410327322624","刘","221","","","","","","","","","","","","","","","","","","","","","","","","","","","","","","feedback_test","","","","","","","","","","","",""
"619","","f","psychophysics","125","690718","0.0-7.0-1.0-4.0-0.0-0.9","3","4","4","3","3","4","4","3","4","3","4","5","4","5","4","4","5","5","4","4","1","2","1","2","2","1","2","1","1","1","0","1","1","0","0","0","1","0","1","1","0","0","0","1","4","1","2","1","1","3","2","1","2","4","2","634031410327322624","刘","221","","","","nonmatch","","","","","","","","","","","","","","key","f","16.654729166665977","799.9999682108573","445.8333156175091","f","true","nonmatch","img/circle.png","三角","圆形","ALT1","formal_ALT1_2","","","","","","","","","","","",""
"null","<span style='color:GreenYellow; font-size: 70px;'>正确! </span>","null","html-keyboard-response","126","691219","0.0-7.0-1.0-4.0-0.0-1.9","3","4","4","3","3","4","4","3","4","3","4","5","4","5","4","4","5","5","4","4","1","2","1","2","2","1","2","1","1","1","0","1","1","0","0","0","1","0","1","1","0","0","0","1","4","1","2","1","1","3","2","1","2","4","2","634031410327322624","刘","221","","","","","","","","","","","","","","","","","","","","","","","","","","","","","","feedback_test","","","","","","","","","","","",""
"779","","j","psychophysics","127","693000","0.0-7.0-1.0-4.0-0.0-0.10","3","4","4","3","3","4","4","3","4","3","4","5","4","5","4","4","5","5","4","4","1","2","1","2","2","1","2","1","1","1","0","1","1","0","0","0","1","0","1","1","0","0","0","1","4","1","2","1","1","3","2","1","2","4","2","634031410327322624","刘","221","","","","match","","","","","","","","","","","","","","key","j","16.649876190475855","799.9999682108573","445.8333156175091","j","true","match","img/trapezoid.png","梯形","梯形","ALT1","formal_ALT1_2","","","","","","","","","","","",""
"null","<span style='color:GreenYellow; font-size: 70px;'>正确! </span>","null","html-keyboard-response","128","693502","0.0-7.0-1.0-4.0-0.0-1.10","3","4","4","3","3","4","4","3","4","3","4","5","4","5","4","4","5","5","4","4","1","2","1","2","2","1","2","1","1","1","0","1","1","0","0","0","1","0","1","1","0","0","0","1","4","1","2","1","1","3","2","1","2","4","2","634031410327322624","刘","221","","","","","","","","","","","","","","","","","","","","","","","","","","","","","","feedback_test","","","","","","","","","","","",""
"658","","f","psychophysics","129","695162","0.0-7.0-1.0-4.0-0.0-0.11","3","4","4","3","3","4","4","3","4","3","4","5","4","5","4","4","5","5","4","4","1","2","1","2","2","1","2","1","1","1","0","1","1","0","0","0","1","0","1","1","0","0","0","1","4","1","2","1","1","3","2","1","2","4","2","634031410327322624","刘","221","","","","nonmatch","","","","","","","","","","","","","","key","f","16.65365306122409","799.9999682108573","445.8333156175091","f","true","nonmatch","img/pentagon.png","梯形","五边","ALT1","formal_ALT1_2","","","","","","","","","","","",""
"null","<span style='color:GreenYellow; font-size: 70px;'>正确! </span>","null","html-keyboard-response","130","695663","0.0-7.0-1.0-4.0-0.0-1.11","3","4","4","3","3","4","4","3","4","3","4","5","4","5","4","4","5","5","4","4","1","2","1","2","2","1","2","1","1","1","0","1","1","0","0","0","1","0","1","1","0","0","0","1","4","1","2","1","1","3","2","1","2","4","2","634031410327322624","刘","221","","","","","","","","","","","","","","","","","","","","","","","","","","","","","","feedback_test","","","","","","","","","","","",""
"697","","f","psychophysics","131","697362","0.0-7.0-1.0-4.0-0.0-0.12","3","4","4","3","3","4","4","3","4","3","4","5","4","5","4","4","5","5","4","4","1","2","1","2","2","1","2","1","1","1","0","1","1","0","0","0","1","0","1","1","0","0","0","1","4","1","2","1","1","3","2","1","2","4","2","634031410327322624","刘","221","","","","nonmatch","","","","","","","","","","","","","","key","f","16.653524752475764","799.9999682108573","445.8333156175091","f","true","nonmatch","img/triangle.png","梯形","三角","ALT1","formal_ALT1_2","","","","","","","","","","","",""
"null","<span style='color:GreenYellow; font-size: 70px;'>正确! </span>","null","html-keyboard-response","132","697863","0.0-7.0-1.0-4.0-0.0-1.12","3","4","4","3","3","4","4","3","4","3","4","5","4","5","4","4","5","5","4","4","1","2","1","2","2","1","2","1","1","1","0","1","1","0","0","0","1","0","1","1","0","0","0","1","4","1","2","1","1","3","2","1","2","4","2","634031410327322624","刘","221","","","","","","","","","","","","","","","","","","","","","","","","","","","","","","feedback_test","","","","","","","","","","","",""
"611","","f","psychophysics","133","699475","0.0-7.0-1.0-4.0-0.0-0.13","3","4","4","3","3","4","4","3","4","3","4","5","4","5","4","4","5","5","4","4","1","2","1","2","2","1","2","1","1","1","0","1","1","0","0","0","1","0","1","1","0","0","0","1","4","1","2","1","1","3","2","1","2","4","2","634031410327322624","刘","221","","","","nonmatch","","","","","","","","","","","","","","key","f","16.648094736841067","799.9999682108573","445.8333156175091","f","true","nonmatch","img/pentagon.png","圆形","五边","ALT1","formal_ALT1_2","","","","","","","","","","","",""
"null","<span style='color:GreenYellow; font-size: 70px;'>正确! </span>","null","html-keyboard-response","134","699976","0.0-7.0-1.0-4.0-0.0-1.13","3","4","4","3","3","4","4","3","4","3","4","5","4","5","4","4","5","5","4","4","1","2","1","2","2","1","2","1","1","1","0","1","1","0","0","0","1","0","1","1","0","0","0","1","4","1","2","1","1","3","2","1","2","4","2","634031410327322624","刘","221","","","","","","","","","","","","","","","","","","","","","","","","","","","","","","feedback_test","","","","","","","","","","","",""
"476","","f","psychophysics","135","701454","0.0-7.0-1.0-4.0-0.0-0.14","3","4","4","3","3","4","4","3","4","3","4","5","4","5","4","4","5","5","4","4","1","2","1","2","2","1","2","1","1","1","0","1","1","0","0","0","1","0","1","1","0","0","0","1","4","1","2","1","1","3","2","1","2","4","2","634031410327322624","刘","221","","","","nonmatch","","","","","","","","","","","","","","key","f","16.653181818181608","799.9999682108573","445.8333156175091","f","true","nonmatch","img/trapezoid.png","三角","梯形","ALT1","formal_ALT1_2","","","","","","","","","","","",""
"null","<span style='color:GreenYellow; font-size: 70px;'>正确! </span>","null","html-keyboard-response","136","701955","0.0-7.0-1.0-4.0-0.0-1.14","3","4","4","3","3","4","4","3","4","3","4","5","4","5","4","4","5","5","4","4","1","2","1","2","2","1","2","1","1","1","0","1","1","0","0","0","1","0","1","1","0","0","0","1","4","1","2","1","1","3","2","1","2","4","2","634031410327322624","刘","221","","","","","","","","","","","","","","","","","","","","","","","","","","","","","","feedback_test","","","","","","","","","","","",""
"755","","j","psychophysics","137","703712","0.0-7.0-1.0-4.0-0.0-0.15","3","4","4","3","3","4","4","3","4","3","4","5","4","5","4","4","5","5","4","4","1","2","1","2","2","1","2","1","1","1","0","1","1","0","0","0","1","0","1","1","0","0","0","1","4","1","2","1","1","3","2","1","2","4","2","634031410327322624","刘","221","","","","match","","","","","","","","","","","","","","key","j","16.65361904761909","799.9999682108573","445.8333156175091","j","true","match","img/circle.png","圆形","圆形","ALT1","formal_ALT1_2","","","","","","","","","","","",""
"null","<span style='color:GreenYellow; font-size: 70px;'>正确! </span>","null","html-keyboard-response","138","704213","0.0-7.0-1.0-4.0-0.0-1.15","3","4","4","3","3","4","4","3","4","3","4","5","4","5","4","4","5","5","4","4","1","2","1","2","2","1","2","1","1","1","0","1","1","0","0","0","1","0","1","1","0","0","0","1","4","1","2","1","1","3","2","1","2","4","2","634031410327322624","刘","221","","","","","","","","","","","","","","","","","","","","","","","","","","","","","","feedback_test","","","","","","","","","","","",""
"789","","j","psychophysics","139","706004","0.0-7.0-1.0-4.0-0.0-0.16","3","4","4","3","3","4","4","3","4","3","4","5","4","5","4","4","5","5","4","4","1","2","1","2","2","1","2","1","1","1","0","1","1","0","0","0","1","0","1","1","0","0","0","1","4","1","2","1","1","3","2","1","2","4","2","634031410327322624","刘","221","","","","match","","","","","","","","","","","","","","key","j","16.653009433961554","799.9999682108573","445.8333156175091","j","true","match","img/circle.png","圆形","圆形","ALT1","formal_ALT1_2","","","","","","","","","","","",""
"null","<span style='color:GreenYellow; font-size: 70px;'>正确! </span>","null","html-keyboard-response","140","706506","0.0-7.0-1.0-4.0-0.0-1.16","3","4","4","3","3","4","4","3","4","3","4","5","4","5","4","4","5","5","4","4","1","2","1","2","2","1","2","1","1","1","0","1","1","0","0","0","1","0","1","1","0","0","0","1","4","1","2","1","1","3","2","1","2","4","2","634031410327322624","刘","221","","","","","","","","","","","","","","","","","","","","","","","","","","","","","","feedback_test","","","","","","","","","","","",""
"687","","j","psychophysics","141","708196","0.0-7.0-1.0-4.0-0.0-0.17","3","4","4","3","3","4","4","3","4","3","4","5","4","5","4","4","5","5","4","4","1","2","1","2","2","1","2","1","1","1","0","1","1","0","0","0","1","0","1","1","0","0","0","1","4","1","2","1","1","3","2","1","2","4","2","634031410327322624","刘","221","","","","match","","","","","","","","","","","","","","key","j","16.644099999999163","799.9999682108573","445.8333156175091","j","true","match","img/pentagon.png","五边","五边","ALT1","formal_ALT1_2","","","","","","","","","","","",""
"null","<span style='color:GreenYellow; font-size: 70px;'>正确! </span>","null","html-keyboard-response","142","708697","0.0-7.0-1.0-4.0-0.0-1.17","3","4","4","3","3","4","4","3","4","3","4","5","4","5","4","4","5","5","4","4","1","2","1","2","2","1","2","1","1","1","0","1","1","0","0","0","1","0","1","1","0","0","0","1","4","1","2","1","1","3","2","1","2","4","2","634031410327322624","刘","221","","","","","","","","","","","","","","","","","","","","","","","","","","","","","","feedback_test","","","","","","","","","","","",""
"996","","j","psychophysics","143","710695","0.0-7.0-1.0-4.0-0.0-0.18","3","4","4","3","3","4","4","3","4","3","4","5","4","5","4","4","5","5","4","4","1","2","1","2","2","1","2","1","1","1","0","1","1","0","0","0","1","0","1","1","0","0","0","1","4","1","2","1","1","3","2","1","2","4","2","634031410327322624","刘","221","","","","match","","","","","","","","","","","","","","key","j","16.652420168067525","799.9999682108573","445.8333156175091","j","true","match","img/trapezoid.png","梯形","梯形","ALT1","formal_ALT1_2","","","","","","","","","","","",""
"null","<span style='color:GreenYellow; font-size: 70px;'>正确! </span>","null","html-keyboard-response","144","711196","0.0-7.0-1.0-4.0-0.0-1.18","3","4","4","3","3","4","4","3","4","3","4","5","4","5","4","4","5","5","4","4","1","2","1","2","2","1","2","1","1","1","0","1","1","0","0","0","1","0","1","1","0","0","0","1","4","1","2","1","1","3","2","1","2","4","2","634031410327322624","刘","221","","","","","","","","","","","","","","","","","","","","","","","","","","","","","","feedback_test","","","","","","","","","","","",""
"661","","j","psychophysics","145","712860","0.0-7.0-1.0-4.0-0.0-0.19","3","4","4","3","3","4","4","3","4","3","4","5","4","5","4","4","5","5","4","4","1","2","1","2","2","1","2","1","1","1","0","1","1","0","0","0","1","0","1","1","0","0","0","1","4","1","2","1","1","3","2","1","2","4","2","634031410327322624","刘","221","","","","match","","","","","","","","","","","","","","key","j","16.651010101009632","799.9999682108573","445.8333156175091","j","true","match","img/pentagon.png","五边","五边","ALT1","formal_ALT1_2","","","","","","","","","","","",""
"null","<span style='color:GreenYellow; font-size: 70px;'>正确! </span>","null","html-keyboard-response","146","713362","0.0-7.0-1.0-4.0-0.0-1.19","3","4","4","3","3","4","4","3","4","3","4","5","4","5","4","4","5","5","4","4","1","2","1","2","2","1","2","1","1","1","0","1","1","0","0","0","1","0","1","1","0","0","0","1","4","1","2","1","1","3","2","1","2","4","2","634031410327322624","刘","221","","","","","","","","","","","","","","","","","","","","","","","","","","","","","","feedback_test","","","","","","","","","","","",""
"868","","f","psychophysics","147","715232","0.0-7.0-1.0-4.0-0.0-0.20","3","4","4","3","3","4","4","3","4","3","4","5","4","5","4","4","5","5","4","4","1","2","1","2","2","1","2","1","1","1","0","1","1","0","0","0","1","0","1","1","0","0","0","1","4","1","2","1","1","3","2","1","2","4","2","634031410327322624","刘","221","","","","nonmatch","","","","","","","","","","","","","","key","f","16.649045045044996","799.9999682108573","445.8333156175091","f","true","nonmatch","img/pentagon.png","三角","五边","ALT1","formal_ALT1_2","","","","","","","","","","","",""
"null","<span style='color:GreenYellow; font-size: 70px;'>正确! </span>","null","html-keyboard-response","148","715733","0.0-7.0-1.0-4.0-0.0-1.20","3","4","4","3","3","4","4","3","4","3","4","5","4","5","4","4","5","5","4","4","1","2","1","2","2","1","2","1","1","1","0","1","1","0","0","0","1","0","1","1","0","0","0","1","4","1","2","1","1","3","2","1","2","4","2","634031410327322624","刘","221","","","","","","","","","","","","","","","","","","","","","","","","","","","","","","feedback_test","","","","","","","","","","","",""
"689","","j","psychophysics","149","717423","0.0-7.0-1.0-4.0-0.0-0.21","3","4","4","3","3","4","4","3","4","3","4","5","4","5","4","4","5","5","4","4","1","2","1","2","2","1","2","1","1","1","0","1","1","0","0","0","1","0","1","1","0","0","0","1","4","1","2","1","1","3","2","1","2","4","2","634031410327322624","刘","221","","","","match","","","","","","","","","","","","","","key","j","16.653310000000054","799.9999682108573","445.8333156175091","j","true","match","img/triangle.png","三角","三角","ALT1","formal_ALT1_2","","","","","","","","","","","",""
"null","<span style='color:GreenYellow; font-size: 70px;'>正确! </span>","null","html-keyboard-response","150","717924","0.0-7.0-1.0-4.0-0.0-1.21","3","4","4","3","3","4","4","3","4","3","4","5","4","5","4","4","5","5","4","4","1","2","1","2","2","1","2","1","1","1","0","1","1","0","0","0","1","0","1","1","0","0","0","1","4","1","2","1","1","3","2","1","2","4","2","634031410327322624","刘","221","","","","","","","","","","","","","","","","","","","","","","","","","","","","","","feedback_test","","","","","","","","","","","",""
"685","","f","psychophysics","151","719610","0.0-7.0-1.0-4.0-0.0-0.22","3","4","4","3","3","4","4","3","4","3","4","5","4","5","4","4","5","5","4","4","1","2","1","2","2","1","2","1","1","1","0","1","1","0","0","0","1","0","1","1","0","0","0","1","4","1","2","1","1","3","2","1","2","4","2","634031410327322624","刘","221","","","","nonmatch","","","","","","","","","","","","","","key","f","16.650869999999415","799.9999682108573","445.8333156175091","f","true","nonmatch","img/circle.png","五边","圆形","ALT1","formal_ALT1_2","","","","","","","","","","","",""
"null","<span style='color:GreenYellow; font-size: 70px;'>正确! </span>","null","html-keyboard-response","152","720111","0.0-7.0-1.0-4.0-0.0-1.22","3","4","4","3","3","4","4","3","4","3","4","5","4","5","4","4","5","5","4","4","1","2","1","2","2","1","2","1","1","1","0","1","1","0","0","0","1","0","1","1","0","0","0","1","4","1","2","1","1","3","2","1","2","4","2","634031410327322624","刘","221","","","","","","","","","","","","","","","","","","","","","","","","","","","","","","feedback_test","","","","","","","","","","","",""
"646","","j","psychophysics","153","721759","0.0-7.0-1.0-4.0-0.0-0.23","3","4","4","3","3","4","4","3","4","3","4","5","4","5","4","4","5","5","4","4","1","2","1","2","2","1","2","1","1","1","0","1","1","0","0","0","1","0","1","1","0","0","0","1","4","1","2","1","1","3","2","1","2","4","2","634031410327322624","刘","221","","","","match","","","","","","","","","","","","","","key","j","16.639371134020323","799.9999682108573","445.8333156175091","j","true","match","img/trapezoid.png","梯形","梯形","ALT1","formal_ALT1_2","","","","","","","","","","","",""
"null","<span style='color:GreenYellow; font-size: 70px;'>正确! </span>","null","html-keyboard-response","154","722261","0.0-7.0-1.0-4.0-0.0-1.23","3","4","4","3","3","4","4","3","4","3","4","5","4","5","4","4","5","5","4","4","1","2","1","2","2","1","2","1","1","1","0","1","1","0","0","0","1","0","1","1","0","0","0","1","4","1","2","1","1","3","2","1","2","4","2","634031410327322624","刘","221","","","","","","","","","","","","","","","","","","","","","","","","","","","","","","feedback_test","","","","","","","","","","","",""
"687","","f","psychophysics","155","723951","0.0-7.0-1.0-4.0-0.0-0.24","3","4","4","3","3","4","4","3","4","3","4","5","4","5","4","4","5","5","4","4","1","2","1","2","2","1","2","1","1","1","0","1","1","0","0","0","1","0","1","1","0","0","0","1","4","1","2","1","1","3","2","1","2","4","2","634031410327322624","刘","221","","","","nonmatch","","","","","","","","","","","","","","key","f","16.651959999999963","799.9999682108573","445.8333156175091","f","true","nonmatch","img/pentagon.png","梯形","五边","ALT1","formal_ALT1_2","","","","","","","","","","","",""
"null","<span style='color:GreenYellow; font-size: 70px;'>正确! </span>","null","html-keyboard-response","156","724452","0.0-7.0-1.0-4.0-0.0-1.24","3","4","4","3","3","4","4","3","4","3","4","5","4","5","4","4","5","5","4","4","1","2","1","2","2","1","2","1","1","1","0","1","1","0","0","0","1","0","1","1","0","0","0","1","4","1","2","1","1","3","2","1","2","4","2","634031410327322624","刘","221","","","","","","","","","","","","","","","","","","","","","","","","","","","","","","feedback_test","","","","","","","","","","","",""
"587","","f","psychophysics","157","726040","0.0-7.0-1.0-4.0-0.0-0.25","3","4","4","3","3","4","4","3","4","3","4","5","4","5","4","4","5","5","4","4","1","2","1","2","2","1","2","1","1","1","0","1","1","0","0","0","1","0","1","1","0","0","0","1","4","1","2","1","1","3","2","1","2","4","2","634031410327322624","刘","221","","","","nonmatch","","","","","","","","","","","","","","key","f","16.65148936170203","799.9999682108573","445.8333156175091","f","true","nonmatch","img/triangle.png","圆形","三角","ALT1","formal_ALT1_2","","","","","","","","","","","",""
"null","<span style='color:GreenYellow; font-size: 70px;'>正确! </span>","null","html-keyboard-response","158","726542","0.0-7.0-1.0-4.0-0.0-1.25","3","4","4","3","3","4","4","3","4","3","4","5","4","5","4","4","5","5","4","4","1","2","1","2","2","1","2","1","1","1","0","1","1","0","0","0","1","0","1","1","0","0","0","1","4","1","2","1","1","3","2","1","2","4","2","634031410327322624","刘","221","","","","","","","","","","","","","","","","","","","","","","","","","","","","","","feedback_test","","","","","","","","","","","",""
"640","","f","psychophysics","159","728183","0.0-7.0-1.0-4.0-0.0-0.26","3","4","4","3","3","4","4","3","4","3","4","5","4","5","4","4","5","5","4","4","1","2","1","2","2","1","2","1","1","1","0","1","1","0","0","0","1","0","1","1","0","0","0","1","4","1","2","1","1","3","2","1","2","4","2","634031410327322624","刘","221","","","","nonmatch","","","","","","","","","","","","","","key","f","16.652804123711793","799.9999682108573","445.8333156175091","f","true","nonmatch","img/triangle.png","五边","三角","ALT1","formal_ALT1_2","","","","","","","","","","","",""
"null","<span style='color:GreenYellow; font-size: 70px;'>正确! </span>","null","html-keyboard-response","160","728684","0.0-7.0-1.0-4.0-0.0-1.26","3","4","4","3","3","4","4","3","4","3","4","5","4","5","4","4","5","5","4","4","1","2","1","2","2","1","2","1","1","1","0","1","1","0","0","0","1","0","1","1","0","0","0","1","4","1","2","1","1","3","2","1","2","4","2","634031410327322624","刘","221","","","","","","","","","","","","","","","","","","","","","","","","","","","","","","feedback_test","","","","","","","","","","","",""
"899","","j","psychophysics","161","730584","0.0-7.0-1.0-4.0-0.0-0.27","3","4","4","3","3","4","4","3","4","3","4","5","4","5","4","4","5","5","4","4","1","2","1","2","2","1","2","1","1","1","0","1","1","0","0","0","1","0","1","1","0","0","0","1","4","1","2","1","1","3","2","1","2","4","2","634031410327322624","刘","221","","","","match","","","","","","","","","","","","","","key","j","16.65374336283102","799.9999682108573","445.8333156175091","j","true","match","img/circle.png","圆形","圆形","ALT1","formal_ALT1_2","","","","","","","","","","","",""
"null","<span style='color:GreenYellow; font-size: 70px;'>正确! </span>","null","html-keyboard-response","162","731085","0.0-7.0-1.0-4.0-0.0-1.27","3","4","4","3","3","4","4","3","4","3","4","5","4","5","4","4","5","5","4","4","1","2","1","2","2","1","2","1","1","1","0","1","1","0","0","0","1","0","1","1","0","0","0","1","4","1","2","1","1","3","2","1","2","4","2","634031410327322624","刘","221","","","","","","","","","","","","","","","","","","","","","","","","","","","","","","feedback_test","","","","","","","","","","","",""
"760","","j","psychophysics","163","732846","0.0-7.0-1.0-4.0-0.0-0.28","3","4","4","3","3","4","4","3","4","3","4","5","4","5","4","4","5","5","4","4","1","2","1","2","2","1","2","1","1","1","0","1","1","0","0","0","1","0","1","1","0","0","0","1","4","1","2","1","1","3","2","1","2","4","2","634031410327322624","刘","221","","","","match","","","","","","","","","","","","","","key","j","16.65334285714198","799.9999682108573","445.8333156175091","j","true","match","img/trapezoid.png","梯形","梯形","ALT1","formal_ALT1_2","","","","","","","","","","","",""
"null","<span style='color:GreenYellow; font-size: 70px;'>正确! </span>","null","html-keyboard-response","164","733348","0.0-7.0-1.0-4.0-0.0-1.28","3","4","4","3","3","4","4","3","4","3","4","5","4","5","4","4","5","5","4","4","1","2","1","2","2","1","2","1","1","1","0","1","1","0","0","0","1","0","1","1","0","0","0","1","4","1","2","1","1","3","2","1","2","4","2","634031410327322624","刘","221","","","","","","","","","","","","","","","","","","","","","","","","","","","","","","feedback_test","","","","","","","","","","","",""
"860","","f","psychophysics","165","735210","0.0-7.0-1.0-4.0-0.0-0.29","3","4","4","3","3","4","4","3","4","3","4","5","4","5","4","4","5","5","4","4","1","2","1","2","2","1","2","1","1","1","0","1","1","0","0","0","1","0","1","1","0","0","0","1","4","1","2","1","1","3","2","1","2","4","2","634031410327322624","刘","221","","","","nonmatch","","","","","","","","","","","","","","key","f","16.653432432433114","799.9999682108573","445.8333156175091","f","true","nonmatch","img/pentagon.png","三角","五边","ALT1","formal_ALT1_2","","","","","","","","","","","",""
"null","<span style='color:GreenYellow; font-size: 70px;'>正确! </span>","null","html-keyboard-response","166","735712","0.0-7.0-1.0-4.0-0.0-1.29","3","4","4","3","3","4","4","3","4","3","4","5","4","5","4","4","5","5","4","4","1","2","1","2","2","1","2","1","1","1","0","1","1","0","0","0","1","0","1","1","0","0","0","1","4","1","2","1","1","3","2","1","2","4","2","634031410327322624","刘","221","","","","","","","","","","","","","","","","","","","","","","","","","","","","","","feedback_test","","","","","","","","","","","",""
"842","","j","psychophysics","167","737556","0.0-7.0-1.0-4.0-0.0-0.30","3","4","4","3","3","4","4","3","4","3","4","5","4","5","4","4","5","5","4","4","1","2","1","2","2","1","2","1","1","1","0","1","1","0","0","0","1","0","1","1","0","0","0","1","4","1","2","1","1","3","2","1","2","4","2","634031410327322624","刘","221","","","","match","","","","","","","","","","","","","","key","j","16.654200000000525","799.9999682108573","445.8333156175091","j","true","match","img/triangle.png","三角","三角","ALT1","formal_ALT1_2","","","","","","","","","","","",""
"null","<span style='color:GreenYellow; font-size: 70px;'>正确! </span>","null","html-keyboard-response","168","738057","0.0-7.0-1.0-4.0-0.0-1.30","3","4","4","3","3","4","4","3","4","3","4","5","4","5","4","4","5","5","4","4","1","2","1","2","2","1","2","1","1","1","0","1","1","0","0","0","1","0","1","1","0","0","0","1","4","1","2","1","1","3","2","1","2","4","2","634031410327322624","刘","221","","","","","","","","","","","","","","","","","","","","","","","","","","","","","","feedback_test","","","","","","","","","","","",""
"759","","j","psychophysics","169","739819","0.0-7.0-1.0-4.0-0.0-0.31","3","4","4","3","3","4","4","3","4","3","4","5","4","5","4","4","5","5","4","4","1","2","1","2","2","1","2","1","1","1","0","1","1","0","0","0","1","0","1","1","0","0","0","1","4","1","2","1","1","3","2","1","2","4","2","634031410327322624","刘","221","","","","match","","","","","","","","","","","","","","key","j","16.651019047618668","799.9999682108573","445.8333156175091","j","true","match","img/pentagon.png","五边","五边","ALT1","formal_ALT1_2","","","","","","","","","","","",""
"null","<span style='color:GreenYellow; font-size: 70px;'>正确! </span>","null","html-keyboard-response","170","740320","0.0-7.0-1.0-4.0-0.0-1.31","3","4","4","3","3","4","4","3","4","3","4","5","4","5","4","4","5","5","4","4","1","2","1","2","2","1","2","1","1","1","0","1","1","0","0","0","1","0","1","1","0","0","0","1","4","1","2","1","1","3","2","1","2","4","2","634031410327322624","刘","221","","","","","","","","","","","","","","","","","","","","","","","","","","","","","","feedback_test","","","","","","","","","","","",""
"667","","f","psychophysics","171","741990","0.0-7.0-1.0-4.0-0.0-0.32","3","4","4","3","3","4","4","3","4","3","4","5","4","5","4","4","5","5","4","4","1","2","1","2","2","1","2","1","1","1","0","1","1","0","0","0","1","0","1","1","0","0","0","1","4","1","2","1","1","3","2","1","2","4","2","634031410327322624","刘","221","","","","nonmatch","","","","","","","","","","","","","","key","f","16.65424242424261","799.9999682108573","445.8333156175091","f","true","nonmatch","img/trapezoid.png","三角","梯形","ALT1","formal_ALT1_2","","","","","","","","","","","",""
"null","<span style='color:GreenYellow; font-size: 70px;'>正确! </span>","null","html-keyboard-response","172","742491","0.0-7.0-1.0-4.0-0.0-1.32","3","4","4","3","3","4","4","3","4","3","4","5","4","5","4","4","5","5","4","4","1","2","1","2","2","1","2","1","1","1","0","1","1","0","0","0","1","0","1","1","0","0","0","1","4","1","2","1","1","3","2","1","2","4","2","634031410327322624","刘","221","","","","","","","","","","","","","","","","","","","","","","","","","","","","","","feedback_test","","","","","","","","","","","",""
"568","","j","psychophysics","173","744060","0.0-7.0-1.0-4.0-0.0-0.33","3","4","4","3","3","4","4","3","4","3","4","5","4","5","4","4","5","5","4","4","1","2","1","2","2","1","2","1","1","1","0","1","1","0","0","0","1","0","1","1","0","0","0","1","4","1","2","1","1","3","2","1","2","4","2","634031410327322624","刘","221","","","","match","","","","","","","","","","","","","","key","j","16.653989247311788","799.9999682108573","445.8333156175091","j","true","match","img/triangle.png","三角","三角","ALT1","formal_ALT1_2","","","","","","","","","","","",""
"null","<span style='color:GreenYellow; font-size: 70px;'>正确! </span>","null","html-keyboard-response","174","744561","0.0-7.0-1.0-4.0-0.0-1.33","3","4","4","3","3","4","4","3","4","3","4","5","4","5","4","4","5","5","4","4","1","2","1","2","2","1","2","1","1","1","0","1","1","0","0","0","1","0","1","1","0","0","0","1","4","1","2","1","1","3","2","1","2","4","2","634031410327322624","刘","221","","","","","","","","","","","","","","","","","","","","","","","","","","","","","","feedback_test","","","","","","","","","","","",""
"624","","f","psychophysics","175","746186","0.0-7.0-1.0-4.0-0.0-0.34","3","4","4","3","3","4","4","3","4","3","4","5","4","5","4","4","5","5","4","4","1","2","1","2","2","1","2","1","1","1","0","1","1","0","0","0","1","0","1","1","0","0","0","1","4","1","2","1","1","3","2","1","2","4","2","634031410327322624","刘","221","","","","nonmatch","","","","","","","","","","","","","","key","f","16.65335416666615","799.9999682108573","445.8333156175091","f","true","nonmatch","img/trapezoid.png","五边","梯形","ALT1","formal_ALT1_2","","","","","","","","","","","",""
"null","<span style='color:GreenYellow; font-size: 70px;'>正确! </span>","null","html-keyboard-response","176","746687","0.0-7.0-1.0-4.0-0.0-1.34","3","4","4","3","3","4","4","3","4","3","4","5","4","5","4","4","5","5","4","4","1","2","1","2","2","1","2","1","1","1","0","1","1","0","0","0","1","0","1","1","0","0","0","1","4","1","2","1","1","3","2","1","2","4","2","634031410327322624","刘","221","","","","","","","","","","","","","","","","","","","","","","","","","","","","","","feedback_test","","","","","","","","","","","",""
