"rt","stimulus","response","trial_type","trial_index","time_elapsed","internal_node_id","swb_1","swb_2","swb_3","swb_4","swb_5","LOT_1","LOT_2","LOT_3","LOT_4","LOT_5","LOT_6","IPC_1","IPC_2","IPC_3","IPC_4","IPC_5","IPC_6","IPC_7","IPC_8","MorIden_1","MorIden_2","MorIden_3","MorIden_4","MorIden_5","MorIden_6","MorIden_7","MorIden_8","MorIden_9","MorIden_10","moralSeImag_1","moralSeImag_2","moralSeImag_3","moralSeImag_4","moralSeImag_5","moralSeImag_6","moralSeImag_7","moralSeImag_8","moralSeImag_9","sde_1","sde_2","sde_3","sde_4","sde_5","sde_6","sde_7","sde_8","sde_9","sde_10","trap2","sde_11","sde_12","sde_13","sde_14","sde_15","sde_16","sde_17","sde_18","sde_19","sde_20","IM_1","IM_2","IM_3","IM_4","IM_5","IM_6","IM_7","IM_8","IM_9","IM_10","IM_11","IM_12","IM_13","IM_14","IM_15","IM_16","IM_17","IM_18","IM_19","IM_20","subj_idx","friend_name","ParticipantID","Sex","Word","Word2","value","success","timeout","failed_images","failed_audio","failed_video","user_agent","responses","item_order","radio_event_ids","radio_event_times","key_event_times","mouse_event_times","straightlining","zigzagging","honeypot","view_history","response_type","key_press","avg_frame_time","center_x","center_y","correct_response","correct","identity","Image","word","condition","task_id","screen_id","time_stamp","person","valence","domain","math","status","duration","question_order","trap2_item"
"3148","
   <p><div style='color:white; font-size: 25px'>您好，欢迎参加本次实验。</div></p>
   <p><div style='color:white; font-size: 25px'>为充分保障您的权利，请确保您已经知晓并同意《参与实验同意书》以及《数据公开知情同意书》。</div></p>
   <p><div style='color:white; font-size: 25px'>如果您未见过上述内容，请咨询实验员。</div></p>
   <p style='color:white; font-size: 25px'>如果您选择继续实验，则表示您已经清楚两份知情同意书的内容并同意。</p>
   <p><div style = ""color: pink;font-size:30px;"">请确保您记得day0的实验编号，您将在本次实验输入该编号，若您忘记，请咨询实验员后作答。</div></p>
   <p><div style = ""color:lightblue;font-size:25px;"">请您尽可能认真地作答，我们将依据您在各问卷和按键任务中的作答质量发放报酬。</div></p>
   <p> <div style = ""color: green""><按空格键至下页></div> </p>
   "," ","html-keyboard-response","0","3150","0.0-0.0","6","6","4","4","3","4","2","4","2","3","5","0","-1","-1","0","-1","0","0","0","4","4","5","5","4","5","5","5","4","4","6","7","4","7","4","2","5","4","6","6","5","4","3","6","2","4","1","5","3","1","5","3","6","1","4","4","5","2","6","4","2","5","4","2","1","3","3","5","2","2","6","2","4","1","1","3","2","6","5","3","763441743210483714","娄","447","Male","[""好他"",""坏我"",""坏他"",""好我""]","[""强他"",""弱我"",""弱他"",""强我""]","","","","","","","","","","","","","","","","","","","","","","","","","","","","","","","","","","","","","","",""
"","","","call-function","1","3151","0.0-1.0-0.0","6","6","4","4","3","4","2","4","2","3","5","0","-1","-1","0","-1","0","0","0","4","4","5","5","4","5","5","5","4","4","6","7","4","7","4","2","5","4","6","6","5","4","3","6","2","4","1","5","3","1","5","3","6","1","4","4","5","2","6","4","2","5","4","2","1","3","3","5","2","2","6","2","4","1","1","3","2","6","5","3","763441743210483714","娄","447","Male","[""好他"",""坏我"",""坏他"",""好我""]","[""强他"",""弱我"",""弱他"",""强我""]","","","","","","","","","","","","","","","","","","","","","","","","","","","","","","","","","","","","","","",""
"27436","","[{""name"":""Sex"",""value"":""0""},{""name"":""friend_name"",""value"":""娄""},{""name"":""ParticipantID"",""value"":""447""}]","survey-html-form","2","30587","0.0-1.0-1.0","6","6","4","4","3","4","2","4","2","3","5","0","-1","-1","0","-1","0","0","0","4","4","5","5","4","5","5","5","4","4","6","7","4","7","4","2","5","4","6","6","5","4","3","6","2","4","1","5","3","1","5","3","6","1","4","4","5","2","6","4","2","5","4","2","1","3","3","5","2","2","6","2","4","1","1","3","2","6","5","3","763441743210483714","娄","447","Male","[""好他"",""坏我"",""坏他"",""好我""]","[""强他"",""弱我"",""弱他"",""强我""]","","","","","","","","","","","","","","","","","","","","","","","","","","","","","","","","","","","","","","",""
"","","","preload","3","31219","0.0-2.0","6","6","4","4","3","4","2","4","2","3","5","0","-1","-1","0","-1","0","0","0","4","4","5","5","4","5","5","5","4","4","6","7","4","7","4","2","5","4","6","6","5","4","3","6","2","4","1","5","3","1","5","3","6","1","4","4","5","2","6","4","2","5","4","2","1","3","3","5","2","2","6","2","4","1","1","3","2","6","5","3","763441743210483714","娄","447","Male","[""好他"",""坏我"",""坏他"",""好我""]","[""强他"",""弱我"",""弱他"",""强我""]","","true","false","[]","[]","[]","","","","","","","","","","","","","","","","","","","","","","","","","","","","","","","","",""
"","","","fullscreen","4","39568","0.0-3.0","6","6","4","4","3","4","2","4","2","3","5","0","-1","-1","0","-1","0","0","0","4","4","5","5","4","5","5","5","4","4","6","7","4","7","4","2","5","4","6","6","5","4","3","6","2","4","1","5","3","1","5","3","6","1","4","4","5","2","6","4","2","5","4","2","1","3","3","5","2","2","6","2","4","1","1","3","2","6","5","3","763441743210483714","娄","447","Male","[""好他"",""坏我"",""坏他"",""好我""]","[""强他"",""弱我"",""弱他"",""强我""]","","true","","","","","{}","","","","","","","","","","","","","","","","","","","","","","","","","","","","","","","",""
"15209.300000011921","","{""Q01"":""6"",""Q02"":""6"",""Q03"":""4"",""Q04"":""4"",""Q05"":""3""}","survey-template","5","54780","0.0-4.0","6","6","4","4","3","4","2","4","2","3","5","0","-1","-1","0","-1","0","0","0","4","4","5","5","4","5","5","5","4","4","6","7","4","7","4","2","5","4","6","6","5","4","3","6","2","4","1","5","3","1","5","3","6","1","4","4","5","2","6","4","2","5","4","2","1","3","3","5","2","2","6","2","4","1","1","3","2","6","5","3","763441743210483714","娄","447","Male","[""好他"",""坏我"",""坏他"",""好我""]","[""强他"",""弱我"",""弱他"",""强我""]","","","","","","","","{""Q01"":""6"",""Q02"":""6"",""Q03"":""4"",""Q04"":""4"",""Q05"":""3""}","[0,1,2,3,4]","[""Q01"",""Q02"",""Q05"",""Q03"",""Q04""]","[2080.100000023842,3536.399999976158,7928,11432.100000023842,14192.100000023842]","[]","[2080.100000023842,3536.399999976158,4488,5608,7928,8705.300000011921,10688.199999988079,11432.100000023842,12328.100000023842,14192.100000023842,15207.800000011921]","0.4","0.25","0","","","","","","","","","","","","","","","","","","","","","","",""
"13619.699999988079","","{""Q01"":""4"",""Q02"":""2"",""Q03"":""4"",""Q04"":""2"",""Q05"":""3"",""Q06"":""5""}","survey-template","6","68403","0.0-5.0","6","6","4","4","3","4","2","4","2","3","5","0","-1","-1","0","-1","0","0","0","4","4","5","5","4","5","5","5","4","4","6","7","4","7","4","2","5","4","6","6","5","4","3","6","2","4","1","5","3","1","5","3","6","1","4","4","5","2","6","4","2","5","4","2","1","3","3","5","2","2","6","2","4","1","1","3","2","6","5","3","763441743210483714","娄","447","Male","[""好他"",""坏我"",""坏他"",""好我""]","[""强他"",""弱我"",""弱他"",""强我""]","","","","","","","","{""Q01"":""4"",""Q02"":""2"",""Q03"":""4"",""Q04"":""2"",""Q05"":""3"",""Q06"":""5""}","[0,1,2,3,4,5]","[""Q01"",""Q02"",""Q03"",""Q04"",""Q05"",""Q06"",""Q06""]","[1979,2733.5,4203,7677,8403.199999988079,11850.799999952316,12843.099999964237]","[]","[1979,2733.5,4203,7677,8403.199999988079,10531.199999988079,11850.799999952316,12843.099999964237,13618.699999988079]","0.6666666666666666","0.2","0","","","","","","","","","","","","","","","","","","","","","","",""
"19989.19999998808","","{""Q01"":""0"",""Q02"":""-1"",""Q03"":""-1"",""Q04"":""0"",""Q05"":""-1"",""Q06"":""0"",""Q07"":""0"",""Q08"":""0""}","survey-template","7","88396","0.0-6.0","6","6","4","4","3","4","2","4","2","3","5","0","-1","-1","0","-1","0","0","0","4","4","5","5","4","5","5","5","4","4","6","7","4","7","4","2","5","4","6","6","5","4","3","6","2","4","1","5","3","1","5","3","6","1","4","4","5","2","6","4","2","5","4","2","1","3","3","5","2","2","6","2","4","1","1","3","2","6","5","3","763441743210483714","娄","447","Male","[""好他"",""坏我"",""坏他"",""好我""]","[""强他"",""弱我"",""弱他"",""强我""]","","","","","","","","{""Q01"":""0"",""Q02"":""-1"",""Q03"":""-1"",""Q04"":""0"",""Q05"":""-1"",""Q06"":""0"",""Q07"":""0"",""Q08"":""0""}","[0,1,2,3,4,5,6,7]","[""Q01"",""Q03"",""Q03"",""Q02"",""Q04"",""Q05"",""Q06"",""Q07"",""Q08""]","[4107.900000035763,7436,8147.800000011921,8691.699999988079,10514.600000023842,13579.900000035763,15163.800000011921,16795.600000023842,19123.900000035763]","[]","[4107.900000035763,5948.100000023842,7436,8147.800000011921,8691.699999988079,10514.600000023842,12164.800000011921,13579.900000035763,15163.800000011921,16795.600000023842,19123.900000035763,19987.80000001192]","0.625","0.5714285714285714","0","","","","","","","","","","","","","","","","","","","","","","",""
"13860","","","instructions","8","102259","0.0-7.0","6","6","4","4","3","4","2","4","2","3","5","0","-1","-1","0","-1","0","0","0","4","4","5","5","4","5","5","5","4","4","6","7","4","7","4","2","5","4","6","6","5","4","3","6","2","4","1","5","3","1","5","3","6","1","4","4","5","2","6","4","2","5","4","2","1","3","3","5","2","2","6","2","4","1","1","3","2","6","5","3","763441743210483714","娄","447","Male","[""好他"",""坏我"",""坏他"",""好我""]","[""强他"",""弱我"",""弱他"",""强我""]","","","","","","","","","","","","","","","","","[{""page_index"":0,""viewing_time"":13860}]","","","","","","","","","","","","","","","","","","","","","",""
"78006","","","instructions","9","180267","0.0-8.0-1.0-0.0","6","6","4","4","3","4","2","4","2","3","5","0","-1","-1","0","-1","0","0","0","4","4","5","5","4","5","5","5","4","4","6","7","4","7","4","2","5","4","6","6","5","4","3","6","2","4","1","5","3","1","5","3","6","1","4","4","5","2","6","4","2","5","4","2","1","3","3","5","2","2","6","2","4","1","1","3","2","6","5","3","763441743210483714","娄","447","Male","[""好他"",""坏我"",""坏他"",""好我""]","[""强他"",""弱我"",""弱他"",""强我""]","","","","","","","","","","","","","","","","","[{""page_index"":0,""viewing_time"":13374},{""page_index"":1,""viewing_time"":58985},{""page_index"":2,""viewing_time"":4288},{""page_index"":3,""viewing_time"":1360}]","","","","","","","","","","","","","","","","","","","","","",""
"null","","null","psychophysics","10","182472","0.0-8.0-1.0-1.0-0.0-0.0","6","6","4","4","3","4","2","4","2","3","5","0","-1","-1","0","-1","0","0","0","4","4","5","5","4","5","5","5","4","4","6","7","4","7","4","2","5","4","6","6","5","4","3","6","2","4","1","5","3","1","5","3","6","1","4","4","5","2","6","4","2","5","4","2","1","3","3","5","2","2","6","2","4","1","1","3","2","6","5","3","763441743210483714","娄","447","Male","[""好他"",""坏我"",""坏他"",""好我""]","[""强他"",""弱我"",""弱他"",""强我""]","","","","","","","","null","","","","","","","","","","key","null","16.79230769230769","960","536","f","false","nonmatch","img/trapezoid.png","强我","弱我","prac_ALT2_ability","practice_ability","","","","","","","","",""
"null","<span class='add_' style='color:yellow; font-size: 70px;'> 太慢! </span>","null","html-keyboard-response","11","182973","0.0-8.0-1.0-1.0-0.0-1.0","6","6","4","4","3","4","2","4","2","3","5","0","-1","-1","0","-1","0","0","0","4","4","5","5","4","5","5","5","4","4","6","7","4","7","4","2","5","4","6","6","5","4","3","6","2","4","1","5","3","1","5","3","6","1","4","4","5","2","6","4","2","5","4","2","1","3","3","5","2","2","6","2","4","1","1","3","2","6","5","3","763441743210483714","娄","447","Male","[""好他"",""坏我"",""坏他"",""好我""]","[""强他"",""弱我"",""弱他"",""强我""]","","","","","","","","","","","","","","","","","","","","","","","","","","","","","","feedback_test","","","","","","","","",""
"283","","f","psychophysics","12","184258","0.0-8.0-1.0-1.0-0.0-0.1","6","6","4","4","3","4","2","4","2","3","5","0","-1","-1","0","-1","0","0","0","4","4","5","5","4","5","5","5","4","4","6","7","4","7","4","2","5","4","6","6","5","4","3","6","2","4","1","5","3","1","5","3","6","1","4","4","5","2","6","4","2","5","4","2","1","3","3","5","2","2","6","2","4","1","1","3","2","6","5","3","763441743210483714","娄","447","Male","[""好他"",""坏我"",""坏他"",""好我""]","[""强他"",""弱我"",""弱他"",""强我""]","","","","","","","","nonmatch","","","","","","","","","","key","f","17.1121621621624","960","536","j","false","match","img/square.png","强他","强他","prac_ALT2_ability","practice_ability","","","","","","","","",""
"null","<span style='color:red; font-size: 70px;'>错误! </span>","null","html-keyboard-response","13","184759","0.0-8.0-1.0-1.0-0.0-1.1","6","6","4","4","3","4","2","4","2","3","5","0","-1","-1","0","-1","0","0","0","4","4","5","5","4","5","5","5","4","4","6","7","4","7","4","2","5","4","6","6","5","4","3","6","2","4","1","5","3","1","5","3","6","1","4","4","5","2","6","4","2","5","4","2","1","3","3","5","2","2","6","2","4","1","1","3","2","6","5","3","763441743210483714","娄","447","Male","[""好他"",""坏我"",""坏他"",""好我""]","[""强他"",""弱我"",""弱他"",""强我""]","","","","","","","","","","","","","","","","","","","","","","","","","","","","","","feedback_test","","","","","","","","",""
"931","","j","psychophysics","14","186691","0.0-8.0-1.0-1.0-0.0-0.2","6","6","4","4","3","4","2","4","2","3","5","0","-1","-1","0","-1","0","0","0","4","4","5","5","4","5","5","5","4","4","6","7","4","7","4","2","5","4","6","6","5","4","3","6","2","4","1","5","3","1","5","3","6","1","4","4","5","2","6","4","2","5","4","2","1","3","3","5","2","2","6","2","4","1","1","3","2","6","5","3","763441743210483714","娄","447","Male","[""好他"",""坏我"",""坏他"",""好我""]","[""强他"",""弱我"",""弱他"",""强我""]","","","","","","","","match","","","","","","","","","","key","j","16.954464285714234","960","536","j","true","match","img/pentagon.png","弱他","弱他","prac_ALT2_ability","practice_ability","","","","","","","","",""
"null","<span style='color:GreenYellow; font-size: 70px;'>正确! </span>","null","html-keyboard-response","15","187192","0.0-8.0-1.0-1.0-0.0-1.2","6","6","4","4","3","4","2","4","2","3","5","0","-1","-1","0","-1","0","0","0","4","4","5","5","4","5","5","5","4","4","6","7","4","7","4","2","5","4","6","6","5","4","3","6","2","4","1","5","3","1","5","3","6","1","4","4","5","2","6","4","2","5","4","2","1","3","3","5","2","2","6","2","4","1","1","3","2","6","5","3","763441743210483714","娄","447","Male","[""好他"",""坏我"",""坏他"",""好我""]","[""强他"",""弱我"",""弱他"",""强我""]","","","","","","","","","","","","","","","","","","","","","","","","","","","","","","feedback_test","","","","","","","","",""
"1114","","f","psychophysics","16","189309","0.0-8.0-1.0-1.0-0.0-0.3","6","6","4","4","3","4","2","4","2","3","5","0","-1","-1","0","-1","0","0","0","4","4","5","5","4","5","5","5","4","4","6","7","4","7","4","2","5","4","6","6","5","4","3","6","2","4","1","5","3","1","5","3","6","1","4","4","5","2","6","4","2","5","4","2","1","3","3","5","2","2","6","2","4","1","1","3","2","6","5","3","763441743210483714","娄","447","Male","[""好他"",""坏我"",""坏他"",""好我""]","[""强他"",""弱我"",""弱他"",""强我""]","","","","","","","","nonmatch","","","","","","","","","","key","f","16.93089430894309","960","536","f","true","nonmatch","img/trapezoid.png","强他","弱我","prac_ALT2_ability","practice_ability","","","","","","","","",""
"null","<span style='color:GreenYellow; font-size: 70px;'>正确! </span>","null","html-keyboard-response","17","189811","0.0-8.0-1.0-1.0-0.0-1.3","6","6","4","4","3","4","2","4","2","3","5","0","-1","-1","0","-1","0","0","0","4","4","5","5","4","5","5","5","4","4","6","7","4","7","4","2","5","4","6","6","5","4","3","6","2","4","1","5","3","1","5","3","6","1","4","4","5","2","6","4","2","5","4","2","1","3","3","5","2","2","6","2","4","1","1","3","2","6","5","3","763441743210483714","娄","447","Male","[""好他"",""坏我"",""坏他"",""好我""]","[""强他"",""弱我"",""弱他"",""强我""]","","","","","","","","","","","","","","","","","","","","","","","","","","","","","","feedback_test","","","","","","","","",""
"924","","j","psychophysics","18","191737","0.0-8.0-1.0-1.0-0.0-0.4","6","6","4","4","3","4","2","4","2","3","5","0","-1","-1","0","-1","0","0","0","4","4","5","5","4","5","5","5","4","4","6","7","4","7","4","2","5","4","6","6","5","4","3","6","2","4","1","5","3","1","5","3","6","1","4","4","5","2","6","4","2","5","4","2","1","3","3","5","2","2","6","2","4","1","1","3","2","6","5","3","763441743210483714","娄","447","Male","[""好他"",""坏我"",""坏他"",""好我""]","[""强他"",""弱我"",""弱他"",""强我""]","","","","","","","","match","","","","","","","","","","key","j","16.95803571428561","960","536","j","true","match","img/ellipse.png","强我","强我","prac_ALT2_ability","practice_ability","","","","","","","","",""
"null","<span style='color:GreenYellow; font-size: 70px;'>正确! </span>","null","html-keyboard-response","19","192238","0.0-8.0-1.0-1.0-0.0-1.4","6","6","4","4","3","4","2","4","2","3","5","0","-1","-1","0","-1","0","0","0","4","4","5","5","4","5","5","5","4","4","6","7","4","7","4","2","5","4","6","6","5","4","3","6","2","4","1","5","3","1","5","3","6","1","4","4","5","2","6","4","2","5","4","2","1","3","3","5","2","2","6","2","4","1","1","3","2","6","5","3","763441743210483714","娄","447","Male","[""好他"",""坏我"",""坏他"",""好我""]","[""强他"",""弱我"",""弱他"",""强我""]","","","","","","","","","","","","","","","","","","","","","","","","","","","","","","feedback_test","","","","","","","","",""
"943","","j","psychophysics","20","194182","0.0-8.0-1.0-1.0-0.0-0.5","6","6","4","4","3","4","2","4","2","3","5","0","-1","-1","0","-1","0","0","0","4","4","5","5","4","5","5","5","4","4","6","7","4","7","4","2","5","4","6","6","5","4","3","6","2","4","1","5","3","1","5","3","6","1","4","4","5","2","6","4","2","5","4","2","1","3","3","5","2","2","6","2","4","1","1","3","2","6","5","3","763441743210483714","娄","447","Male","[""好他"",""坏我"",""坏他"",""好我""]","[""强他"",""弱我"",""弱他"",""强我""]","","","","","","","","match","","","","","","","","","","key","j","17.107079646017493","960","536","j","true","match","img/pentagon.png","弱他","弱他","prac_ALT2_ability","practice_ability","","","","","","","","",""
"null","<span style='color:GreenYellow; font-size: 70px;'>正确! </span>","null","html-keyboard-response","21","194683","0.0-8.0-1.0-1.0-0.0-1.5","6","6","4","4","3","4","2","4","2","3","5","0","-1","-1","0","-1","0","0","0","4","4","5","5","4","5","5","5","4","4","6","7","4","7","4","2","5","4","6","6","5","4","3","6","2","4","1","5","3","1","5","3","6","1","4","4","5","2","6","4","2","5","4","2","1","3","3","5","2","2","6","2","4","1","1","3","2","6","5","3","763441743210483714","娄","447","Male","[""好他"",""坏我"",""坏他"",""好我""]","[""强他"",""弱我"",""弱他"",""强我""]","","","","","","","","","","","","","","","","","","","","","","","","","","","","","","feedback_test","","","","","","","","",""
"1095","","f","psychophysics","22","196781","0.0-8.0-1.0-1.0-0.0-0.6","6","6","4","4","3","4","2","4","2","3","5","0","-1","-1","0","-1","0","0","0","4","4","5","5","4","5","5","5","4","4","6","7","4","7","4","2","5","4","6","6","5","4","3","6","2","4","1","5","3","1","5","3","6","1","4","4","5","2","6","4","2","5","4","2","1","3","3","5","2","2","6","2","4","1","1","3","2","6","5","3","763441743210483714","娄","447","Male","[""好他"",""坏我"",""坏他"",""好我""]","[""强他"",""弱我"",""弱他"",""强我""]","","","","","","","","nonmatch","","","","","","","","","","key","f","16.827419354838757","960","536","f","true","nonmatch","img/ellipse.png","弱他","强我","prac_ALT2_ability","practice_ability","","","","","","","","",""
"null","<span style='color:GreenYellow; font-size: 70px;'>正确! </span>","null","html-keyboard-response","23","197282","0.0-8.0-1.0-1.0-0.0-1.6","6","6","4","4","3","4","2","4","2","3","5","0","-1","-1","0","-1","0","0","0","4","4","5","5","4","5","5","5","4","4","6","7","4","7","4","2","5","4","6","6","5","4","3","6","2","4","1","5","3","1","5","3","6","1","4","4","5","2","6","4","2","5","4","2","1","3","3","5","2","2","6","2","4","1","1","3","2","6","5","3","763441743210483714","娄","447","Male","[""好他"",""坏我"",""坏他"",""好我""]","[""强他"",""弱我"",""弱他"",""强我""]","","","","","","","","","","","","","","","","","","","","","","","","","","","","","","feedback_test","","","","","","","","",""
"950","","j","psychophysics","24","199234","0.0-8.0-1.0-1.0-0.0-0.7","6","6","4","4","3","4","2","4","2","3","5","0","-1","-1","0","-1","0","0","0","4","4","5","5","4","5","5","5","4","4","6","7","4","7","4","2","5","4","6","6","5","4","3","6","2","4","1","5","3","1","5","3","6","1","4","4","5","2","6","4","2","5","4","2","1","3","3","5","2","2","6","2","4","1","1","3","2","6","5","3","763441743210483714","娄","447","Male","[""好他"",""坏我"",""坏他"",""好我""]","[""强他"",""弱我"",""弱他"",""强我""]","","","","","","","","match","","","","","","","","","","key","j","16.809565217391356","960","536","f","false","nonmatch","img/square.png","弱他","强他","prac_ALT2_ability","practice_ability","","","","","","","","",""
"null","<span style='color:red; font-size: 70px;'>错误! </span>","null","html-keyboard-response","25","199736","0.0-8.0-1.0-1.0-0.0-1.7","6","6","4","4","3","4","2","4","2","3","5","0","-1","-1","0","-1","0","0","0","4","4","5","5","4","5","5","5","4","4","6","7","4","7","4","2","5","4","6","6","5","4","3","6","2","4","1","5","3","1","5","3","6","1","4","4","5","2","6","4","2","5","4","2","1","3","3","5","2","2","6","2","4","1","1","3","2","6","5","3","763441743210483714","娄","447","Male","[""好他"",""坏我"",""坏他"",""好我""]","[""强他"",""弱我"",""弱他"",""强我""]","","","","","","","","","","","","","","","","","","","","","","","","","","","","","","feedback_test","","","","","","","","",""
"1172","","f","psychophysics","26","201909","0.0-8.0-1.0-1.0-0.0-0.8","6","6","4","4","3","4","2","4","2","3","5","0","-1","-1","0","-1","0","0","0","4","4","5","5","4","5","5","5","4","4","6","7","4","7","4","2","5","4","6","6","5","4","3","6","2","4","1","5","3","1","5","3","6","1","4","4","5","2","6","4","2","5","4","2","1","3","3","5","2","2","6","2","4","1","1","3","2","6","5","3","763441743210483714","娄","447","Male","[""好他"",""坏我"",""坏他"",""好我""]","[""强他"",""弱我"",""弱他"",""强我""]","","","","","","","","nonmatch","","","","","","","","","","key","f","16.925000000000182","960","536","f","true","nonmatch","img/square.png","弱我","强他","prac_ALT2_ability","practice_ability","","","","","","","","",""
"null","<span style='color:GreenYellow; font-size: 70px;'>正确! </span>","null","html-keyboard-response","27","202409","0.0-8.0-1.0-1.0-0.0-1.8","6","6","4","4","3","4","2","4","2","3","5","0","-1","-1","0","-1","0","0","0","4","4","5","5","4","5","5","5","4","4","6","7","4","7","4","2","5","4","6","6","5","4","3","6","2","4","1","5","3","1","5","3","6","1","4","4","5","2","6","4","2","5","4","2","1","3","3","5","2","2","6","2","4","1","1","3","2","6","5","3","763441743210483714","娄","447","Male","[""好他"",""坏我"",""坏他"",""好我""]","[""强他"",""弱我"",""弱他"",""强我""]","","","","","","","","","","","","","","","","","","","","","","","","","","","","","","feedback_test","","","","","","","","",""
"null","","null","psychophysics","28","204613","0.0-8.0-1.0-1.0-0.0-0.9","6","6","4","4","3","4","2","4","2","3","5","0","-1","-1","0","-1","0","0","0","4","4","5","5","4","5","5","5","4","4","6","7","4","7","4","2","5","4","6","6","5","4","3","6","2","4","1","5","3","1","5","3","6","1","4","4","5","2","6","4","2","5","4","2","1","3","3","5","2","2","6","2","4","1","1","3","2","6","5","3","763441743210483714","娄","447","Male","[""好他"",""坏我"",""坏他"",""好我""]","[""强他"",""弱我"",""弱他"",""强我""]","","","","","","","","null","","","","","","","","","","key","null","16.78846153846154","960","536","f","false","nonmatch","img/pentagon.png","强他","弱他","prac_ALT2_ability","practice_ability","","","","","","","","",""
"null","<span class='add_' style='color:yellow; font-size: 70px;'> 太慢! </span>","null","html-keyboard-response","29","205115","0.0-8.0-1.0-1.0-0.0-1.9","6","6","4","4","3","4","2","4","2","3","5","0","-1","-1","0","-1","0","0","0","4","4","5","5","4","5","5","5","4","4","6","7","4","7","4","2","5","4","6","6","5","4","3","6","2","4","1","5","3","1","5","3","6","1","4","4","5","2","6","4","2","5","4","2","1","3","3","5","2","2","6","2","4","1","1","3","2","6","5","3","763441743210483714","娄","447","Male","[""好他"",""坏我"",""坏他"",""好我""]","[""强他"",""弱我"",""弱他"",""强我""]","","","","","","","","","","","","","","","","","","","","","","","","","","","","","","feedback_test","","","","","","","","",""
"957","","j","psychophysics","30","207074","0.0-8.0-1.0-1.0-0.0-0.10","6","6","4","4","3","4","2","4","2","3","5","0","-1","-1","0","-1","0","0","0","4","4","5","5","4","5","5","5","4","4","6","7","4","7","4","2","5","4","6","6","5","4","3","6","2","4","1","5","3","1","5","3","6","1","4","4","5","2","6","4","2","5","4","2","1","3","3","5","2","2","6","2","4","1","1","3","2","6","5","3","763441743210483714","娄","447","Male","[""好他"",""坏我"",""坏他"",""好我""]","[""强他"",""弱我"",""弱他"",""强我""]","","","","","","","","match","","","","","","","","","","key","j","16.953043478260668","960","536","j","true","match","img/ellipse.png","强我","强我","prac_ALT2_ability","practice_ability","","","","","","","","",""
"null","<span style='color:GreenYellow; font-size: 70px;'>正确! </span>","null","html-keyboard-response","31","207574","0.0-8.0-1.0-1.0-0.0-1.10","6","6","4","4","3","4","2","4","2","3","5","0","-1","-1","0","-1","0","0","0","4","4","5","5","4","5","5","5","4","4","6","7","4","7","4","2","5","4","6","6","5","4","3","6","2","4","1","5","3","1","5","3","6","1","4","4","5","2","6","4","2","5","4","2","1","3","3","5","2","2","6","2","4","1","1","3","2","6","5","3","763441743210483714","娄","447","Male","[""好他"",""坏我"",""坏他"",""好我""]","[""强他"",""弱我"",""弱他"",""强我""]","","","","","","","","","","","","","","","","","","","","","","","","","","","","","","feedback_test","","","","","","","","",""
"874","","j","psychophysics","32","209450","0.0-8.0-1.0-1.0-0.0-0.11","6","6","4","4","3","4","2","4","2","3","5","0","-1","-1","0","-1","0","0","0","4","4","5","5","4","5","5","5","4","4","6","7","4","7","4","2","5","4","6","6","5","4","3","6","2","4","1","5","3","1","5","3","6","1","4","4","5","2","6","4","2","5","4","2","1","3","3","5","2","2","6","2","4","1","1","3","2","6","5","3","763441743210483714","娄","447","Male","[""好他"",""坏我"",""坏他"",""好我""]","[""强他"",""弱我"",""弱他"",""强我""]","","","","","","","","match","","","","","","","","","","key","j","17.12407407407402","960","536","j","true","match","img/square.png","强他","强他","prac_ALT2_ability","practice_ability","","","","","","","","",""
"null","<span style='color:GreenYellow; font-size: 70px;'>正确! </span>","null","html-keyboard-response","33","209952","0.0-8.0-1.0-1.0-0.0-1.11","6","6","4","4","3","4","2","4","2","3","5","0","-1","-1","0","-1","0","0","0","4","4","5","5","4","5","5","5","4","4","6","7","4","7","4","2","5","4","6","6","5","4","3","6","2","4","1","5","3","1","5","3","6","1","4","4","5","2","6","4","2","5","4","2","1","3","3","5","2","2","6","2","4","1","1","3","2","6","5","3","763441743210483714","娄","447","Male","[""好他"",""坏我"",""坏他"",""好我""]","[""强他"",""弱我"",""弱他"",""强我""]","","","","","","","","","","","","","","","","","","","","","","","","","","","","","","feedback_test","","","","","","","","",""
"871","","j","psychophysics","34","211824","0.0-8.0-1.0-1.0-0.0-0.12","6","6","4","4","3","4","2","4","2","3","5","0","-1","-1","0","-1","0","0","0","4","4","5","5","4","5","5","5","4","4","6","7","4","7","4","2","5","4","6","6","5","4","3","6","2","4","1","5","3","1","5","3","6","1","4","4","5","2","6","4","2","5","4","2","1","3","3","5","2","2","6","2","4","1","1","3","2","6","5","3","763441743210483714","娄","447","Male","[""好他"",""坏我"",""坏他"",""好我""]","[""强他"",""弱我"",""弱他"",""强我""]","","","","","","","","match","","","","","","","","","","key","j","17.27570093457944","960","536","j","true","match","img/ellipse.png","强我","强我","prac_ALT2_ability","practice_ability","","","","","","","","",""
"null","<span style='color:GreenYellow; font-size: 70px;'>正确! </span>","null","html-keyboard-response","35","212325","0.0-8.0-1.0-1.0-0.0-1.12","6","6","4","4","3","4","2","4","2","3","5","0","-1","-1","0","-1","0","0","0","4","4","5","5","4","5","5","5","4","4","6","7","4","7","4","2","5","4","6","6","5","4","3","6","2","4","1","5","3","1","5","3","6","1","4","4","5","2","6","4","2","5","4","2","1","3","3","5","2","2","6","2","4","1","1","3","2","6","5","3","763441743210483714","娄","447","Male","[""好他"",""坏我"",""坏他"",""好我""]","[""强他"",""弱我"",""弱他"",""强我""]","","","","","","","","","","","","","","","","","","","","","","","","","","","","","","feedback_test","","","","","","","","",""
"null","","null","psychophysics","36","214527","0.0-8.0-1.0-1.0-0.0-0.13","6","6","4","4","3","4","2","4","2","3","5","0","-1","-1","0","-1","0","0","0","4","4","5","5","4","5","5","5","4","4","6","7","4","7","4","2","5","4","6","6","5","4","3","6","2","4","1","5","3","1","5","3","6","1","4","4","5","2","6","4","2","5","4","2","1","3","3","5","2","2","6","2","4","1","1","3","2","6","5","3","763441743210483714","娄","447","Male","[""好他"",""坏我"",""坏他"",""好我""]","[""强他"",""弱我"",""弱他"",""强我""]","","","","","","","","null","","","","","","","","","","key","null","17.188976377952756","960","536","j","false","match","img/trapezoid.png","弱我","弱我","prac_ALT2_ability","practice_ability","","","","","","","","",""
"null","<span class='add_' style='color:yellow; font-size: 70px;'> 太慢! </span>","null","html-keyboard-response","37","215028","0.0-8.0-1.0-1.0-0.0-1.13","6","6","4","4","3","4","2","4","2","3","5","0","-1","-1","0","-1","0","0","0","4","4","5","5","4","5","5","5","4","4","6","7","4","7","4","2","5","4","6","6","5","4","3","6","2","4","1","5","3","1","5","3","6","1","4","4","5","2","6","4","2","5","4","2","1","3","3","5","2","2","6","2","4","1","1","3","2","6","5","3","763441743210483714","娄","447","Male","[""好他"",""坏我"",""坏他"",""好我""]","[""强他"",""弱我"",""弱他"",""强我""]","","","","","","","","","","","","","","","","","","","","","","","","","","","","","","feedback_test","","","","","","","","",""
"933","","j","psychophysics","38","216963","0.0-8.0-1.0-1.0-0.0-0.14","6","6","4","4","3","4","2","4","2","3","5","0","-1","-1","0","-1","0","0","0","4","4","5","5","4","5","5","5","4","4","6","7","4","7","4","2","5","4","6","6","5","4","3","6","2","4","1","5","3","1","5","3","6","1","4","4","5","2","6","4","2","5","4","2","1","3","3","5","2","2","6","2","4","1","1","3","2","6","5","3","763441743210483714","娄","447","Male","[""好他"",""坏我"",""坏他"",""好我""]","[""强他"",""弱我"",""弱他"",""强我""]","","","","","","","","match","","","","","","","","","","key","j","16.66521739130435","960","536","f","false","nonmatch","img/pentagon.png","强我","弱他","prac_ALT2_ability","practice_ability","","","","","","","","",""
"null","<span style='color:red; font-size: 70px;'>错误! </span>","null","html-keyboard-response","39","217464","0.0-8.0-1.0-1.0-0.0-1.14","6","6","4","4","3","4","2","4","2","3","5","0","-1","-1","0","-1","0","0","0","4","4","5","5","4","5","5","5","4","4","6","7","4","7","4","2","5","4","6","6","5","4","3","6","2","4","1","5","3","1","5","3","6","1","4","4","5","2","6","4","2","5","4","2","1","3","3","5","2","2","6","2","4","1","1","3","2","6","5","3","763441743210483714","娄","447","Male","[""好他"",""坏我"",""坏他"",""好我""]","[""强他"",""弱我"",""弱他"",""强我""]","","","","","","","","","","","","","","","","","","","","","","","","","","","","","","feedback_test","","","","","","","","",""
"908","","j","psychophysics","40","219373","0.0-8.0-1.0-1.0-0.0-0.15","6","6","4","4","3","4","2","4","2","3","5","0","-1","-1","0","-1","0","0","0","4","4","5","5","4","5","5","5","4","4","6","7","4","7","4","2","5","4","6","6","5","4","3","6","2","4","1","5","3","1","5","3","6","1","4","4","5","2","6","4","2","5","4","2","1","3","3","5","2","2","6","2","4","1","1","3","2","6","5","3","763441743210483714","娄","447","Male","[""好他"",""坏我"",""坏他"",""好我""]","[""强他"",""弱我"",""弱他"",""强我""]","","","","","","","","match","","","","","","","","","","key","j","16.961607142856987","960","536","f","false","nonmatch","img/ellipse.png","强他","强我","prac_ALT2_ability","practice_ability","","","","","","","","",""
"null","<span style='color:red; font-size: 70px;'>错误! </span>","null","html-keyboard-response","41","219874","0.0-8.0-1.0-1.0-0.0-1.15","6","6","4","4","3","4","2","4","2","3","5","0","-1","-1","0","-1","0","0","0","4","4","5","5","4","5","5","5","4","4","6","7","4","7","4","2","5","4","6","6","5","4","3","6","2","4","1","5","3","1","5","3","6","1","4","4","5","2","6","4","2","5","4","2","1","3","3","5","2","2","6","2","4","1","1","3","2","6","5","3","763441743210483714","娄","447","Male","[""好他"",""坏我"",""坏他"",""好我""]","[""强他"",""弱我"",""弱他"",""强我""]","","","","","","","","","","","","","","","","","","","","","","","","","","","","","","feedback_test","","","","","","","","",""
"961","","f","psychophysics","42","221837","0.0-8.0-1.0-1.0-0.0-0.16","6","6","4","4","3","4","2","4","2","3","5","0","-1","-1","0","-1","0","0","0","4","4","5","5","4","5","5","5","4","4","6","7","4","7","4","2","5","4","6","6","5","4","3","6","2","4","1","5","3","1","5","3","6","1","4","4","5","2","6","4","2","5","4","2","1","3","3","5","2","2","6","2","4","1","1","3","2","6","5","3","763441743210483714","娄","447","Male","[""好他"",""坏我"",""坏他"",""好我""]","[""强他"",""弱我"",""弱他"",""强我""]","","","","","","","","nonmatch","","","","","","","","","","key","f","17.051754385964863","960","536","f","true","nonmatch","img/pentagon.png","弱我","弱他","prac_ALT2_ability","practice_ability","","","","","","","","",""
"null","<span style='color:GreenYellow; font-size: 70px;'>正确! </span>","null","html-keyboard-response","43","222339","0.0-8.0-1.0-1.0-0.0-1.16","6","6","4","4","3","4","2","4","2","3","5","0","-1","-1","0","-1","0","0","0","4","4","5","5","4","5","5","5","4","4","6","7","4","7","4","2","5","4","6","6","5","4","3","6","2","4","1","5","3","1","5","3","6","1","4","4","5","2","6","4","2","5","4","2","1","3","3","5","2","2","6","2","4","1","1","3","2","6","5","3","763441743210483714","娄","447","Male","[""好他"",""坏我"",""坏他"",""好我""]","[""强他"",""弱我"",""弱他"",""强我""]","","","","","","","","","","","","","","","","","","","","","","","","","","","","","","feedback_test","","","","","","","","",""
"995","","f","psychophysics","44","224336","0.0-8.0-1.0-1.0-0.0-0.17","6","6","4","4","3","4","2","4","2","3","5","0","-1","-1","0","-1","0","0","0","4","4","5","5","4","5","5","5","4","4","6","7","4","7","4","2","5","4","6","6","5","4","3","6","2","4","1","5","3","1","5","3","6","1","4","4","5","2","6","4","2","5","4","2","1","3","3","5","2","2","6","2","4","1","1","3","2","6","5","3","763441743210483714","娄","447","Male","[""好他"",""坏我"",""坏他"",""好我""]","[""强他"",""弱我"",""弱他"",""强我""]","","","","","","","","nonmatch","","","","","","","","","","key","f","16.854310344827635","960","536","j","false","match","img/trapezoid.png","弱我","弱我","prac_ALT2_ability","practice_ability","","","","","","","","",""
"null","<span style='color:red; font-size: 70px;'>错误! </span>","null","html-keyboard-response","45","224837","0.0-8.0-1.0-1.0-0.0-1.17","6","6","4","4","3","4","2","4","2","3","5","0","-1","-1","0","-1","0","0","0","4","4","5","5","4","5","5","5","4","4","6","7","4","7","4","2","5","4","6","6","5","4","3","6","2","4","1","5","3","1","5","3","6","1","4","4","5","2","6","4","2","5","4","2","1","3","3","5","2","2","6","2","4","1","1","3","2","6","5","3","763441743210483714","娄","447","Male","[""好他"",""坏我"",""坏他"",""好我""]","[""强他"",""弱我"",""弱他"",""强我""]","","","","","","","","","","","","","","","","","","","","","","","","","","","","","","feedback_test","","","","","","","","",""
"979","","f","psychophysics","46","226818","0.0-8.0-1.0-1.0-0.0-0.18","6","6","4","4","3","4","2","4","2","3","5","0","-1","-1","0","-1","0","0","0","4","4","5","5","4","5","5","5","4","4","6","7","4","7","4","2","5","4","6","6","5","4","3","6","2","4","1","5","3","1","5","3","6","1","4","4","5","2","6","4","2","5","4","2","1","3","3","5","2","2","6","2","4","1","1","3","2","6","5","3","763441743210483714","娄","447","Male","[""好他"",""坏我"",""坏他"",""好我""]","[""强他"",""弱我"",""弱他"",""强我""]","","","","","","","","nonmatch","","","","","","","","","","key","f","16.951724137930984","960","536","f","true","nonmatch","img/ellipse.png","弱我","强我","prac_ALT2_ability","practice_ability","","","","","","","","",""
"null","<span style='color:GreenYellow; font-size: 70px;'>正确! </span>","null","html-keyboard-response","47","227331","0.0-8.0-1.0-1.0-0.0-1.18","6","6","4","4","3","4","2","4","2","3","5","0","-1","-1","0","-1","0","0","0","4","4","5","5","4","5","5","5","4","4","6","7","4","7","4","2","5","4","6","6","5","4","3","6","2","4","1","5","3","1","5","3","6","1","4","4","5","2","6","4","2","5","4","2","1","3","3","5","2","2","6","2","4","1","1","3","2","6","5","3","763441743210483714","娄","447","Male","[""好他"",""坏我"",""坏他"",""好我""]","[""强他"",""弱我"",""弱他"",""强我""]","","","","","","","","","","","","","","","","","","","","","","","","","","","","","","feedback_test","","","","","","","","",""
"1029","","j","psychophysics","48","229362","0.0-8.0-1.0-1.0-0.0-0.19","6","6","4","4","3","4","2","4","2","3","5","0","-1","-1","0","-1","0","0","0","4","4","5","5","4","5","5","5","4","4","6","7","4","7","4","2","5","4","6","6","5","4","3","6","2","4","1","5","3","1","5","3","6","1","4","4","5","2","6","4","2","5","4","2","1","3","3","5","2","2","6","2","4","1","1","3","2","6","5","3","763441743210483714","娄","447","Male","[""好他"",""坏我"",""坏他"",""好我""]","[""强他"",""弱我"",""弱他"",""强我""]","","","","","","","","match","","","","","","","","","","key","j","17.233620689654973","960","536","f","false","nonmatch","img/trapezoid.png","弱他","弱我","prac_ALT2_ability","practice_ability","","","","","","","","",""
"null","<span style='color:red; font-size: 70px;'>错误! </span>","null","html-keyboard-response","49","229863","0.0-8.0-1.0-1.0-0.0-1.19","6","6","4","4","3","4","2","4","2","3","5","0","-1","-1","0","-1","0","0","0","4","4","5","5","4","5","5","5","4","4","6","7","4","7","4","2","5","4","6","6","5","4","3","6","2","4","1","5","3","1","5","3","6","1","4","4","5","2","6","4","2","5","4","2","1","3","3","5","2","2","6","2","4","1","1","3","2","6","5","3","763441743210483714","娄","447","Male","[""好他"",""坏我"",""坏他"",""好我""]","[""强他"",""弱我"",""弱他"",""强我""]","","","","","","","","","","","","","","","","","","","","","","","","","","","","","","feedback_test","","","","","","","","",""
"942","","f","psychophysics","50","231807","0.0-8.0-1.0-1.0-0.0-0.20","6","6","4","4","3","4","2","4","2","3","5","0","-1","-1","0","-1","0","0","0","4","4","5","5","4","5","5","5","4","4","6","7","4","7","4","2","5","4","6","6","5","4","3","6","2","4","1","5","3","1","5","3","6","1","4","4","5","2","6","4","2","5","4","2","1","3","3","5","2","2","6","2","4","1","1","3","2","6","5","3","763441743210483714","娄","447","Male","[""好他"",""坏我"",""坏他"",""好我""]","[""强他"",""弱我"",""弱他"",""强我""]","","","","","","","","nonmatch","","","","","","","","","","key","f","16.80695652173903","960","536","f","true","nonmatch","img/square.png","强我","强他","prac_ALT2_ability","practice_ability","","","","","","","","",""
"null","<span style='color:GreenYellow; font-size: 70px;'>正确! </span>","null","html-keyboard-response","51","232307","0.0-8.0-1.0-1.0-0.0-1.20","6","6","4","4","3","4","2","4","2","3","5","0","-1","-1","0","-1","0","0","0","4","4","5","5","4","5","5","5","4","4","6","7","4","7","4","2","5","4","6","6","5","4","3","6","2","4","1","5","3","1","5","3","6","1","4","4","5","2","6","4","2","5","4","2","1","3","3","5","2","2","6","2","4","1","1","3","2","6","5","3","763441743210483714","娄","447","Male","[""好他"",""坏我"",""坏他"",""好我""]","[""强他"",""弱我"",""弱他"",""强我""]","","","","","","","","","","","","","","","","","","","","","","","","","","","","","","feedback_test","","","","","","","","",""
"902","","f","psychophysics","52","234211","0.0-8.0-1.0-1.0-0.0-0.21","6","6","4","4","3","4","2","4","2","3","5","0","-1","-1","0","-1","0","0","0","4","4","5","5","4","5","5","5","4","4","6","7","4","7","4","2","5","4","6","6","5","4","3","6","2","4","1","5","3","1","5","3","6","1","4","4","5","2","6","4","2","5","4","2","1","3","3","5","2","2","6","2","4","1","1","3","2","6","5","3","763441743210483714","娄","447","Male","[""好他"",""坏我"",""坏他"",""好我""]","[""强他"",""弱我"",""弱他"",""强我""]","","","","","","","","nonmatch","","","","","","","","","","key","f","17.118181818181817","960","536","j","false","match","img/trapezoid.png","弱我","弱我","prac_ALT2_ability","practice_ability","","","","","","","","",""
"null","<span style='color:red; font-size: 70px;'>错误! </span>","null","html-keyboard-response","53","234713","0.0-8.0-1.0-1.0-0.0-1.21","6","6","4","4","3","4","2","4","2","3","5","0","-1","-1","0","-1","0","0","0","4","4","5","5","4","5","5","5","4","4","6","7","4","7","4","2","5","4","6","6","5","4","3","6","2","4","1","5","3","1","5","3","6","1","4","4","5","2","6","4","2","5","4","2","1","3","3","5","2","2","6","2","4","1","1","3","2","6","5","3","763441743210483714","娄","447","Male","[""好他"",""坏我"",""坏他"",""好我""]","[""强他"",""弱我"",""弱他"",""强我""]","","","","","","","","","","","","","","","","","","","","","","","","","","","","","","feedback_test","","","","","","","","",""
"1072","","j","psychophysics","54","236786","0.0-8.0-1.0-1.0-0.0-0.22","6","6","4","4","3","4","2","4","2","3","5","0","-1","-1","0","-1","0","0","0","4","4","5","5","4","5","5","5","4","4","6","7","4","7","4","2","5","4","6","6","5","4","3","6","2","4","1","5","3","1","5","3","6","1","4","4","5","2","6","4","2","5","4","2","1","3","3","5","2","2","6","2","4","1","1","3","2","6","5","3","763441743210483714","娄","447","Male","[""好他"",""坏我"",""坏他"",""好我""]","[""强他"",""弱我"",""弱他"",""强我""]","","","","","","","","match","","","","","","","","","","key","j","16.66178861788637","960","536","j","true","match","img/pentagon.png","弱他","弱他","prac_ALT2_ability","practice_ability","","","","","","","","",""
"null","<span style='color:GreenYellow; font-size: 70px;'>正确! </span>","null","html-keyboard-response","55","237287","0.0-8.0-1.0-1.0-0.0-1.22","6","6","4","4","3","4","2","4","2","3","5","0","-1","-1","0","-1","0","0","0","4","4","5","5","4","5","5","5","4","4","6","7","4","7","4","2","5","4","6","6","5","4","3","6","2","4","1","5","3","1","5","3","6","1","4","4","5","2","6","4","2","5","4","2","1","3","3","5","2","2","6","2","4","1","1","3","2","6","5","3","763441743210483714","娄","447","Male","[""好他"",""坏我"",""坏他"",""好我""]","[""强他"",""弱我"",""弱他"",""强我""]","","","","","","","","","","","","","","","","","","","","","","","","","","","","","","feedback_test","","","","","","","","",""
"1157","","j","psychophysics","56","239444","0.0-8.0-1.0-1.0-0.0-0.23","6","6","4","4","3","4","2","4","2","3","5","0","-1","-1","0","-1","0","0","0","4","4","5","5","4","5","5","5","4","4","6","7","4","7","4","2","5","4","6","6","5","4","3","6","2","4","1","5","3","1","5","3","6","1","4","4","5","2","6","4","2","5","4","2","1","3","3","5","2","2","6","2","4","1","1","3","2","6","5","3","763441743210483714","娄","447","Male","[""好他"",""坏我"",""坏他"",""好我""]","[""强他"",""弱我"",""弱他"",""强我""]","","","","","","","","match","","","","","","","","","","key","j","16.923622047244233","960","536","j","true","match","img/square.png","强他","强他","prac_ALT2_ability","practice_ability","","","","","","","","",""
"null","<span style='color:GreenYellow; font-size: 70px;'>正确! </span>","null","html-keyboard-response","57","239946","0.0-8.0-1.0-1.0-0.0-1.23","6","6","4","4","3","4","2","4","2","3","5","0","-1","-1","0","-1","0","0","0","4","4","5","5","4","5","5","5","4","4","6","7","4","7","4","2","5","4","6","6","5","4","3","6","2","4","1","5","3","1","5","3","6","1","4","4","5","2","6","4","2","5","4","2","1","3","3","5","2","2","6","2","4","1","1","3","2","6","5","3","763441743210483714","娄","447","Male","[""好他"",""坏我"",""坏他"",""好我""]","[""强他"",""弱我"",""弱他"",""强我""]","","","","","","","","","","","","","","","","","","","","","","","","","","","","","","feedback_test","","","","","","","","",""
"832","","f","psychophysics","58","241780","0.0-8.0-1.0-1.0-0.0-0.24","6","6","4","4","3","4","2","4","2","3","5","0","-1","-1","0","-1","0","0","0","4","4","5","5","4","5","5","5","4","4","6","7","4","7","4","2","5","4","6","6","5","4","3","6","2","4","1","5","3","1","5","3","6","1","4","4","5","2","6","4","2","5","4","2","1","3","3","5","2","2","6","2","4","1","1","3","2","6","5","3","763441743210483714","娄","447","Male","[""好他"",""坏我"",""坏他"",""好我""]","[""强他"",""弱我"",""弱他"",""强我""]","","","","","","","","nonmatch","","","","","","","","","","key","f","16.977570093458","960","536","f","true","nonmatch","img/ellipse.png","弱我","强我","prac_ALT2_ability","practice_ability","","","","","","","","",""
"null","<span style='color:GreenYellow; font-size: 70px;'>正确! </span>","null","html-keyboard-response","59","242284","0.0-8.0-1.0-1.0-0.0-1.24","6","6","4","4","3","4","2","4","2","3","5","0","-1","-1","0","-1","0","0","0","4","4","5","5","4","5","5","5","4","4","6","7","4","7","4","2","5","4","6","6","5","4","3","6","2","4","1","5","3","1","5","3","6","1","4","4","5","2","6","4","2","5","4","2","1","3","3","5","2","2","6","2","4","1","1","3","2","6","5","3","763441743210483714","娄","447","Male","[""好他"",""坏我"",""坏他"",""好我""]","[""强他"",""弱我"",""弱他"",""强我""]","","","","","","","","","","","","","","","","","","","","","","","","","","","","","","feedback_test","","","","","","","","",""
"900","","j","psychophysics","60","244185","0.0-8.0-1.0-1.0-0.0-0.25","6","6","4","4","3","4","2","4","2","3","5","0","-1","-1","0","-1","0","0","0","4","4","5","5","4","5","5","5","4","4","6","7","4","7","4","2","5","4","6","6","5","4","3","6","2","4","1","5","3","1","5","3","6","1","4","4","5","2","6","4","2","5","4","2","1","3","3","5","2","2","6","2","4","1","1","3","2","6","5","3","763441743210483714","娄","447","Male","[""好他"",""坏我"",""坏他"",""好我""]","[""强他"",""弱我"",""弱他"",""强我""]","","","","","","","","match","","","","","","","","","","key","j","17.119090909090698","960","536","j","true","match","img/trapezoid.png","弱我","弱我","prac_ALT2_ability","practice_ability","","","","","","","","",""
"null","<span style='color:GreenYellow; font-size: 70px;'>正确! </span>","null","html-keyboard-response","61","244687","0.0-8.0-1.0-1.0-0.0-1.25","6","6","4","4","3","4","2","4","2","3","5","0","-1","-1","0","-1","0","0","0","4","4","5","5","4","5","5","5","4","4","6","7","4","7","4","2","5","4","6","6","5","4","3","6","2","4","1","5","3","1","5","3","6","1","4","4","5","2","6","4","2","5","4","2","1","3","3","5","2","2","6","2","4","1","1","3","2","6","5","3","763441743210483714","娄","447","Male","[""好他"",""坏我"",""坏他"",""好我""]","[""强他"",""弱我"",""弱他"",""强我""]","","","","","","","","","","","","","","","","","","","","","","","","","","","","","","feedback_test","","","","","","","","",""
"798","","j","psychophysics","62","246487","0.0-8.0-1.0-1.0-0.0-0.26","6","6","4","4","3","4","2","4","2","3","5","0","-1","-1","0","-1","0","0","0","4","4","5","5","4","5","5","5","4","4","6","7","4","7","4","2","5","4","6","6","5","4","3","6","2","4","1","5","3","1","5","3","6","1","4","4","5","2","6","4","2","5","4","2","1","3","3","5","2","2","6","2","4","1","1","3","2","6","5","3","763441743210483714","娄","447","Male","[""好他"",""坏我"",""坏他"",""好我""]","[""强他"",""弱我"",""弱他"",""强我""]","","","","","","","","match","","","","","","","","","","key","j","16.98190476190482","960","536","j","true","match","img/ellipse.png","强我","强我","prac_ALT2_ability","practice_ability","","","","","","","","",""
"null","<span style='color:GreenYellow; font-size: 70px;'>正确! </span>","null","html-keyboard-response","63","247006","0.0-8.0-1.0-1.0-0.0-1.26","6","6","4","4","3","4","2","4","2","3","5","0","-1","-1","0","-1","0","0","0","4","4","5","5","4","5","5","5","4","4","6","7","4","7","4","2","5","4","6","6","5","4","3","6","2","4","1","5","3","1","5","3","6","1","4","4","5","2","6","4","2","5","4","2","1","3","3","5","2","2","6","2","4","1","1","3","2","6","5","3","763441743210483714","娄","447","Male","[""好他"",""坏我"",""坏他"",""好我""]","[""强他"",""弱我"",""弱他"",""强我""]","","","","","","","","","","","","","","","","","","","","","","","","","","","","","","feedback_test","","","","","","","","",""
"1003","","j","psychophysics","64","249011","0.0-8.0-1.0-1.0-0.0-0.27","6","6","4","4","3","4","2","4","2","3","5","0","-1","-1","0","-1","0","0","0","4","4","5","5","4","5","5","5","4","4","6","7","4","7","4","2","5","4","6","6","5","4","3","6","2","4","1","5","3","1","5","3","6","1","4","4","5","2","6","4","2","5","4","2","1","3","3","5","2","2","6","2","4","1","1","3","2","6","5","3","763441743210483714","娄","447","Male","[""好他"",""坏我"",""坏他"",""好我""]","[""强他"",""弱我"",""弱他"",""强我""]","","","","","","","","match","","","","","","","","","","key","j","16.943589743589694","960","536","j","true","match","img/square.png","强他","强他","prac_ALT2_ability","practice_ability","","","","","","","","",""
"null","<span style='color:GreenYellow; font-size: 70px;'>正确! </span>","null","html-keyboard-response","65","249512","0.0-8.0-1.0-1.0-0.0-1.27","6","6","4","4","3","4","2","4","2","3","5","0","-1","-1","0","-1","0","0","0","4","4","5","5","4","5","5","5","4","4","6","7","4","7","4","2","5","4","6","6","5","4","3","6","2","4","1","5","3","1","5","3","6","1","4","4","5","2","6","4","2","5","4","2","1","3","3","5","2","2","6","2","4","1","1","3","2","6","5","3","763441743210483714","娄","447","Male","[""好他"",""坏我"",""坏他"",""好我""]","[""强他"",""弱我"",""弱他"",""强我""]","","","","","","","","","","","","","","","","","","","","","","","","","","","","","","feedback_test","","","","","","","","",""
"825","","f","psychophysics","66","251338","0.0-8.0-1.0-1.0-0.0-0.28","6","6","4","4","3","4","2","4","2","3","5","0","-1","-1","0","-1","0","0","0","4","4","5","5","4","5","5","5","4","4","6","7","4","7","4","2","5","4","6","6","5","4","3","6","2","4","1","5","3","1","5","3","6","1","4","4","5","2","6","4","2","5","4","2","1","3","3","5","2","2","6","2","4","1","1","3","2","6","5","3","763441743210483714","娄","447","Male","[""好他"",""坏我"",""坏他"",""好我""]","[""强他"",""弱我"",""弱他"",""强我""]","","","","","","","","nonmatch","","","","","","","","","","key","f","17.137142857142802","960","536","f","true","nonmatch","img/ellipse.png","强他","强我","prac_ALT2_ability","practice_ability","","","","","","","","",""
"null","<span style='color:GreenYellow; font-size: 70px;'>正确! </span>","null","html-keyboard-response","67","251839","0.0-8.0-1.0-1.0-0.0-1.28","6","6","4","4","3","4","2","4","2","3","5","0","-1","-1","0","-1","0","0","0","4","4","5","5","4","5","5","5","4","4","6","7","4","7","4","2","5","4","6","6","5","4","3","6","2","4","1","5","3","1","5","3","6","1","4","4","5","2","6","4","2","5","4","2","1","3","3","5","2","2","6","2","4","1","1","3","2","6","5","3","763441743210483714","娄","447","Male","[""好他"",""坏我"",""坏他"",""好我""]","[""强他"",""弱我"",""弱他"",""强我""]","","","","","","","","","","","","","","","","","","","","","","","","","","","","","","feedback_test","","","","","","","","",""
"893","","f","psychophysics","68","253734","0.0-8.0-1.0-1.0-0.0-0.29","6","6","4","4","3","4","2","4","2","3","5","0","-1","-1","0","-1","0","0","0","4","4","5","5","4","5","5","5","4","4","6","7","4","7","4","2","5","4","6","6","5","4","3","6","2","4","1","5","3","1","5","3","6","1","4","4","5","2","6","4","2","5","4","2","1","3","3","5","2","2","6","2","4","1","1","3","2","6","5","3","763441743210483714","娄","447","Male","[""好他"",""坏我"",""坏他"",""好我""]","[""强他"",""弱我"",""弱他"",""强我""]","","","","","","","","nonmatch","","","","","","","","","","key","f","16.960909090909198","960","536","f","true","nonmatch","img/square.png","弱我","强他","prac_ALT2_ability","practice_ability","","","","","","","","",""
"null","<span style='color:GreenYellow; font-size: 70px;'>正确! </span>","null","html-keyboard-response","69","254235","0.0-8.0-1.0-1.0-0.0-1.29","6","6","4","4","3","4","2","4","2","3","5","0","-1","-1","0","-1","0","0","0","4","4","5","5","4","5","5","5","4","4","6","7","4","7","4","2","5","4","6","6","5","4","3","6","2","4","1","5","3","1","5","3","6","1","4","4","5","2","6","4","2","5","4","2","1","3","3","5","2","2","6","2","4","1","1","3","2","6","5","3","763441743210483714","娄","447","Male","[""好他"",""坏我"",""坏他"",""好我""]","[""强他"",""弱我"",""弱他"",""强我""]","","","","","","","","","","","","","","","","","","","","","","","","","","","","","","feedback_test","","","","","","","","",""
"923","","j","psychophysics","70","256159","0.0-8.0-1.0-1.0-0.0-0.30","6","6","4","4","3","4","2","4","2","3","5","0","-1","-1","0","-1","0","0","0","4","4","5","5","4","5","5","5","4","4","6","7","4","7","4","2","5","4","6","6","5","4","3","6","2","4","1","5","3","1","5","3","6","1","4","4","5","2","6","4","2","5","4","2","1","3","3","5","2","2","6","2","4","1","1","3","2","6","5","3","763441743210483714","娄","447","Male","[""好他"",""坏我"",""坏他"",""好我""]","[""强他"",""弱我"",""弱他"",""强我""]","","","","","","","","match","","","","","","","","","","key","j","16.95752212389391","960","536","f","false","nonmatch","img/trapezoid.png","强他","弱我","prac_ALT2_ability","practice_ability","","","","","","","","",""
"null","<span style='color:red; font-size: 70px;'>错误! </span>","null","html-keyboard-response","71","256660","0.0-8.0-1.0-1.0-0.0-1.30","6","6","4","4","3","4","2","4","2","3","5","0","-1","-1","0","-1","0","0","0","4","4","5","5","4","5","5","5","4","4","6","7","4","7","4","2","5","4","6","6","5","4","3","6","2","4","1","5","3","1","5","3","6","1","4","4","5","2","6","4","2","5","4","2","1","3","3","5","2","2","6","2","4","1","1","3","2","6","5","3","763441743210483714","娄","447","Male","[""好他"",""坏我"",""坏他"",""好我""]","[""强他"",""弱我"",""弱他"",""强我""]","","","","","","","","","","","","","","","","","","","","","","","","","","","","","","feedback_test","","","","","","","","",""
"832","","j","psychophysics","72","258493","0.0-8.0-1.0-1.0-0.0-0.31","6","6","4","4","3","4","2","4","2","3","5","0","-1","-1","0","-1","0","0","0","4","4","5","5","4","5","5","5","4","4","6","7","4","7","4","2","5","4","6","6","5","4","3","6","2","4","1","5","3","1","5","3","6","1","4","4","5","2","6","4","2","5","4","2","1","3","3","5","2","2","6","2","4","1","1","3","2","6","5","3","763441743210483714","娄","447","Male","[""好他"",""坏我"",""坏他"",""好我""]","[""强他"",""弱我"",""弱他"",""强我""]","","","","","","","","match","","","","","","","","","","key","j","16.818518518518463","960","536","j","true","match","img/pentagon.png","弱他","弱他","prac_ALT2_ability","practice_ability","","","","","","","","",""
"null","<span style='color:GreenYellow; font-size: 70px;'>正确! </span>","null","html-keyboard-response","73","258995","0.0-8.0-1.0-1.0-0.0-1.31","6","6","4","4","3","4","2","4","2","3","5","0","-1","-1","0","-1","0","0","0","4","4","5","5","4","5","5","5","4","4","6","7","4","7","4","2","5","4","6","6","5","4","3","6","2","4","1","5","3","1","5","3","6","1","4","4","5","2","6","4","2","5","4","2","1","3","3","5","2","2","6","2","4","1","1","3","2","6","5","3","763441743210483714","娄","447","Male","[""好他"",""坏我"",""坏他"",""好我""]","[""强他"",""弱我"",""弱他"",""强我""]","","","","","","","","","","","","","","","","","","","","","","","","","","","","","","feedback_test","","","","","","","","",""
"980","","f","psychophysics","74","260976","0.0-8.0-1.0-1.0-0.0-0.32","6","6","4","4","3","4","2","4","2","3","5","0","-1","-1","0","-1","0","0","0","4","4","5","5","4","5","5","5","4","4","6","7","4","7","4","2","5","4","6","6","5","4","3","6","2","4","1","5","3","1","5","3","6","1","4","4","5","2","6","4","2","5","4","2","1","3","3","5","2","2","6","2","4","1","1","3","2","6","5","3","763441743210483714","娄","447","Male","[""好他"",""坏我"",""坏他"",""好我""]","[""强他"",""弱我"",""弱他"",""强我""]","","","","","","","","nonmatch","","","","","","","","","","key","f","16.661864406779465","960","536","f","true","nonmatch","img/pentagon.png","强我","弱他","prac_ALT2_ability","practice_ability","","","","","","","","",""
"null","<span style='color:GreenYellow; font-size: 70px;'>正确! </span>","null","html-keyboard-response","75","261477","0.0-8.0-1.0-1.0-0.0-1.32","6","6","4","4","3","4","2","4","2","3","5","0","-1","-1","0","-1","0","0","0","4","4","5","5","4","5","5","5","4","4","6","7","4","7","4","2","5","4","6","6","5","4","3","6","2","4","1","5","3","1","5","3","6","1","4","4","5","2","6","4","2","5","4","2","1","3","3","5","2","2","6","2","4","1","1","3","2","6","5","3","763441743210483714","娄","447","Male","[""好他"",""坏我"",""坏他"",""好我""]","[""强他"",""弱我"",""弱他"",""强我""]","","","","","","","","","","","","","","","","","","","","","","","","","","","","","","feedback_test","","","","","","","","",""
"848","","j","psychophysics","76","263334","0.0-8.0-1.0-1.0-0.0-0.33","6","6","4","4","3","4","2","4","2","3","5","0","-1","-1","0","-1","0","0","0","4","4","5","5","4","5","5","5","4","4","6","7","4","7","4","2","5","4","6","6","5","4","3","6","2","4","1","5","3","1","5","3","6","1","4","4","5","2","6","4","2","5","4","2","1","3","3","5","2","2","6","2","4","1","1","3","2","6","5","3","763441743210483714","娄","447","Male","[""好他"",""坏我"",""坏他"",""好我""]","[""强他"",""弱我"",""弱他"",""强我""]","","","","","","","","match","","","","","","","","","","key","j","16.664545454545244","960","536","j","true","match","img/square.png","强他","强他","prac_ALT2_ability","practice_ability","","","","","","","","",""
"null","<span style='color:GreenYellow; font-size: 70px;'>正确! </span>","null","html-keyboard-response","77","263834","0.0-8.0-1.0-1.0-0.0-1.33","6","6","4","4","3","4","2","4","2","3","5","0","-1","-1","0","-1","0","0","0","4","4","5","5","4","5","5","5","4","4","6","7","4","7","4","2","5","4","6","6","5","4","3","6","2","4","1","5","3","1","5","3","6","1","4","4","5","2","6","4","2","5","4","2","1","3","3","5","2","2","6","2","4","1","1","3","2","6","5","3","763441743210483714","娄","447","Male","[""好他"",""坏我"",""坏他"",""好我""]","[""强他"",""弱我"",""弱他"",""强我""]","","","","","","","","","","","","","","","","","","","","","","","","","","","","","","feedback_test","","","","","","","","",""
"865","","j","psychophysics","78","265701","0.0-8.0-1.0-1.0-0.0-0.34","6","6","4","4","3","4","2","4","2","3","5","0","-1","-1","0","-1","0","0","0","4","4","5","5","4","5","5","5","4","4","6","7","4","7","4","2","5","4","6","6","5","4","3","6","2","4","1","5","3","1","5","3","6","1","4","4","5","2","6","4","2","5","4","2","1","3","3","5","2","2","6","2","4","1","1","3","2","6","5","3","763441743210483714","娄","447","Male","[""好他"",""坏我"",""坏他"",""好我""]","[""强他"",""弱我"",""弱他"",""强我""]","","","","","","","","match","","","","","","","","","","key","j","16.776363636363847","960","536","j","true","match","img/ellipse.png","强我","强我","prac_ALT2_ability","practice_ability","","","","","","","","",""
"null","<span style='color:GreenYellow; font-size: 70px;'>正确! </span>","null","html-keyboard-response","79","266202","0.0-8.0-1.0-1.0-0.0-1.34","6","6","4","4","3","4","2","4","2","3","5","0","-1","-1","0","-1","0","0","0","4","4","5","5","4","5","5","5","4","4","6","7","4","7","4","2","5","4","6","6","5","4","3","6","2","4","1","5","3","1","5","3","6","1","4","4","5","2","6","4","2","5","4","2","1","3","3","5","2","2","6","2","4","1","1","3","2","6","5","3","763441743210483714","娄","447","Male","[""好他"",""坏我"",""坏他"",""好我""]","[""强他"",""弱我"",""弱他"",""强我""]","","","","","","","","","","","","","","","","","","","","","","","","","","","","","","feedback_test","","","","","","","","",""
"779","","j","psychophysics","80","267982","0.0-8.0-1.0-1.0-0.0-0.35","6","6","4","4","3","4","2","4","2","3","5","0","-1","-1","0","-1","0","0","0","4","4","5","5","4","5","5","5","4","4","6","7","4","7","4","2","5","4","6","6","5","4","3","6","2","4","1","5","3","1","5","3","6","1","4","4","5","2","6","4","2","5","4","2","1","3","3","5","2","2","6","2","4","1","1","3","2","6","5","3","763441743210483714","娄","447","Male","[""好他"",""坏我"",""坏他"",""好我""]","[""强他"",""弱我"",""弱他"",""强我""]","","","","","","","","match","","","","","","","","","","key","j","16.816346153845817","960","536","j","true","match","img/square.png","强他","强他","prac_ALT2_ability","practice_ability","","","","","","","","",""
"null","<span style='color:GreenYellow; font-size: 70px;'>正确! </span>","null","html-keyboard-response","81","268483","0.0-8.0-1.0-1.0-0.0-1.35","6","6","4","4","3","4","2","4","2","3","5","0","-1","-1","0","-1","0","0","0","4","4","5","5","4","5","5","5","4","4","6","7","4","7","4","2","5","4","6","6","5","4","3","6","2","4","1","5","3","1","5","3","6","1","4","4","5","2","6","4","2","5","4","2","1","3","3","5","2","2","6","2","4","1","1","3","2","6","5","3","763441743210483714","娄","447","Male","[""好他"",""坏我"",""坏他"",""好我""]","[""强他"",""弱我"",""弱他"",""强我""]","","","","","","","","","","","","","","","","","","","","","","","","","","","","","","feedback_test","","","","","","","","",""
"904","","j","psychophysics","82","270389","0.0-8.0-1.0-1.0-0.0-0.36","6","6","4","4","3","4","2","4","2","3","5","0","-1","-1","0","-1","0","0","0","4","4","5","5","4","5","5","5","4","4","6","7","4","7","4","2","5","4","6","6","5","4","3","6","2","4","1","5","3","1","5","3","6","1","4","4","5","2","6","4","2","5","4","2","1","3","3","5","2","2","6","2","4","1","1","3","2","6","5","3","763441743210483714","娄","447","Male","[""好他"",""坏我"",""坏他"",""好我""]","[""强他"",""弱我"",""弱他"",""强我""]","","","","","","","","match","","","","","","","","","","key","j","16.962162162162056","960","536","j","true","match","img/trapezoid.png","弱我","弱我","prac_ALT2_ability","practice_ability","","","","","","","","",""
"null","<span style='color:GreenYellow; font-size: 70px;'>正确! </span>","null","html-keyboard-response","83","270891","0.0-8.0-1.0-1.0-0.0-1.36","6","6","4","4","3","4","2","4","2","3","5","0","-1","-1","0","-1","0","0","0","4","4","5","5","4","5","5","5","4","4","6","7","4","7","4","2","5","4","6","6","5","4","3","6","2","4","1","5","3","1","5","3","6","1","4","4","5","2","6","4","2","5","4","2","1","3","3","5","2","2","6","2","4","1","1","3","2","6","5","3","763441743210483714","娄","447","Male","[""好他"",""坏我"",""坏他"",""好我""]","[""强他"",""弱我"",""弱他"",""强我""]","","","","","","","","","","","","","","","","","","","","","","","","","","","","","","feedback_test","","","","","","","","",""
"911","","f","psychophysics","84","272804","0.0-8.0-1.0-1.0-0.0-0.37","6","6","4","4","3","4","2","4","2","3","5","0","-1","-1","0","-1","0","0","0","4","4","5","5","4","5","5","5","4","4","6","7","4","7","4","2","5","4","6","6","5","4","3","6","2","4","1","5","3","1","5","3","6","1","4","4","5","2","6","4","2","5","4","2","1","3","3","5","2","2","6","2","4","1","1","3","2","6","5","3","763441743210483714","娄","447","Male","[""好他"",""坏我"",""坏他"",""好我""]","[""强他"",""弱我"",""弱他"",""强我""]","","","","","","","","nonmatch","","","","","","","","","","key","f","16.961607142857247","960","536","f","true","nonmatch","img/trapezoid.png","强我","弱我","prac_ALT2_ability","practice_ability","","","","","","","","",""
"null","<span style='color:GreenYellow; font-size: 70px;'>正确! </span>","null","html-keyboard-response","85","273305","0.0-8.0-1.0-1.0-0.0-1.37","6","6","4","4","3","4","2","4","2","3","5","0","-1","-1","0","-1","0","0","0","4","4","5","5","4","5","5","5","4","4","6","7","4","7","4","2","5","4","6","6","5","4","3","6","2","4","1","5","3","1","5","3","6","1","4","4","5","2","6","4","2","5","4","2","1","3","3","5","2","2","6","2","4","1","1","3","2","6","5","3","763441743210483714","娄","447","Male","[""好他"",""坏我"",""坏他"",""好我""]","[""强他"",""弱我"",""弱他"",""强我""]","","","","","","","","","","","","","","","","","","","","","","","","","","","","","","feedback_test","","","","","","","","",""
"717","","j","psychophysics","86","275024","0.0-8.0-1.0-1.0-0.0-0.38","6","6","4","4","3","4","2","4","2","3","5","0","-1","-1","0","-1","0","0","0","4","4","5","5","4","5","5","5","4","4","6","7","4","7","4","2","5","4","6","6","5","4","3","6","2","4","1","5","3","1","5","3","6","1","4","4","5","2","6","4","2","5","4","2","1","3","3","5","2","2","6","2","4","1","1","3","2","6","5","3","763441743210483714","娄","447","Male","[""好他"",""坏我"",""坏他"",""好我""]","[""强他"",""弱我"",""弱他"",""强我""]","","","","","","","","match","","","","","","","","","","key","j","17.16969696969685","960","536","j","true","match","img/trapezoid.png","弱我","弱我","prac_ALT2_ability","practice_ability","","","","","","","","",""
"null","<span style='color:GreenYellow; font-size: 70px;'>正确! </span>","null","html-keyboard-response","87","275525","0.0-8.0-1.0-1.0-0.0-1.38","6","6","4","4","3","4","2","4","2","3","5","0","-1","-1","0","-1","0","0","0","4","4","5","5","4","5","5","5","4","4","6","7","4","7","4","2","5","4","6","6","5","4","3","6","2","4","1","5","3","1","5","3","6","1","4","4","5","2","6","4","2","5","4","2","1","3","3","5","2","2","6","2","4","1","1","3","2","6","5","3","763441743210483714","娄","447","Male","[""好他"",""坏我"",""坏他"",""好我""]","[""强他"",""弱我"",""弱他"",""强我""]","","","","","","","","","","","","","","","","","","","","","","","","","","","","","","feedback_test","","","","","","","","",""
"884","","j","psychophysics","88","277410","0.0-8.0-1.0-1.0-0.0-0.39","6","6","4","4","3","4","2","4","2","3","5","0","-1","-1","0","-1","0","0","0","4","4","5","5","4","5","5","5","4","4","6","7","4","7","4","2","5","4","6","6","5","4","3","6","2","4","1","5","3","1","5","3","6","1","4","4","5","2","6","4","2","5","4","2","1","3","3","5","2","2","6","2","4","1","1","3","2","6","5","3","763441743210483714","娄","447","Male","[""好他"",""坏我"",""坏他"",""好我""]","[""强他"",""弱我"",""弱他"",""强我""]","","","","","","","","match","","","","","","","","","","key","j","16.81261261261219","960","536","f","false","nonmatch","img/square.png","强我","强他","prac_ALT2_ability","practice_ability","","","","","","","","",""
"null","<span style='color:red; font-size: 70px;'>错误! </span>","null","html-keyboard-response","89","277912","0.0-8.0-1.0-1.0-0.0-1.39","6","6","4","4","3","4","2","4","2","3","5","0","-1","-1","0","-1","0","0","0","4","4","5","5","4","5","5","5","4","4","6","7","4","7","4","2","5","4","6","6","5","4","3","6","2","4","1","5","3","1","5","3","6","1","4","4","5","2","6","4","2","5","4","2","1","3","3","5","2","2","6","2","4","1","1","3","2","6","5","3","763441743210483714","娄","447","Male","[""好他"",""坏我"",""坏他"",""好我""]","[""强他"",""弱我"",""弱他"",""强我""]","","","","","","","","","","","","","","","","","","","","","","","","","","","","","","feedback_test","","","","","","","","",""
"699","","f","psychophysics","90","279612","0.0-8.0-1.0-1.0-0.0-0.40","6","6","4","4","3","4","2","4","2","3","5","0","-1","-1","0","-1","0","0","0","4","4","5","5","4","5","5","5","4","4","6","7","4","7","4","2","5","4","6","6","5","4","3","6","2","4","1","5","3","1","5","3","6","1","4","4","5","2","6","4","2","5","4","2","1","3","3","5","2","2","6","2","4","1","1","3","2","6","5","3","763441743210483714","娄","447","Male","[""好他"",""坏我"",""坏他"",""好我""]","[""强他"",""弱我"",""弱他"",""强我""]","","","","","","","","nonmatch","","","","","","","","","","key","f","17.17244897959148","960","536","f","true","nonmatch","img/ellipse.png","弱他","强我","prac_ALT2_ability","practice_ability","","","","","","","","",""
"null","<span style='color:GreenYellow; font-size: 70px;'>正确! </span>","null","html-keyboard-response","91","280119","0.0-8.0-1.0-1.0-0.0-1.40","6","6","4","4","3","4","2","4","2","3","5","0","-1","-1","0","-1","0","0","0","4","4","5","5","4","5","5","5","4","4","6","7","4","7","4","2","5","4","6","6","5","4","3","6","2","4","1","5","3","1","5","3","6","1","4","4","5","2","6","4","2","5","4","2","1","3","3","5","2","2","6","2","4","1","1","3","2","6","5","3","763441743210483714","娄","447","Male","[""好他"",""坏我"",""坏他"",""好我""]","[""强他"",""弱我"",""弱他"",""强我""]","","","","","","","","","","","","","","","","","","","","","","","","","","","","","","feedback_test","","","","","","","","",""
"737","","j","psychophysics","92","281857","0.0-8.0-1.0-1.0-0.0-0.41","6","6","4","4","3","4","2","4","2","3","5","0","-1","-1","0","-1","0","0","0","4","4","5","5","4","5","5","5","4","4","6","7","4","7","4","2","5","4","6","6","5","4","3","6","2","4","1","5","3","1","5","3","6","1","4","4","5","2","6","4","2","5","4","2","1","3","3","5","2","2","6","2","4","1","1","3","2","6","5","3","763441743210483714","娄","447","Male","[""好他"",""坏我"",""坏他"",""好我""]","[""强他"",""弱我"",""弱他"",""强我""]","","","","","","","","match","","","","","","","","","","key","j","16.991089108911236","960","536","j","true","match","img/ellipse.png","强我","强我","prac_ALT2_ability","practice_ability","","","","","","","","",""
"null","<span style='color:GreenYellow; font-size: 70px;'>正确! </span>","null","html-keyboard-response","93","282366","0.0-8.0-1.0-1.0-0.0-1.41","6","6","4","4","3","4","2","4","2","3","5","0","-1","-1","0","-1","0","0","0","4","4","5","5","4","5","5","5","4","4","6","7","4","7","4","2","5","4","6","6","5","4","3","6","2","4","1","5","3","1","5","3","6","1","4","4","5","2","6","4","2","5","4","2","1","3","3","5","2","2","6","2","4","1","1","3","2","6","5","3","763441743210483714","娄","447","Male","[""好他"",""坏我"",""坏他"",""好我""]","[""强他"",""弱我"",""弱他"",""强我""]","","","","","","","","","","","","","","","","","","","","","","","","","","","","","","feedback_test","","","","","","","","",""
"886","","j","psychophysics","94","284253","0.0-8.0-1.0-1.0-0.0-0.42","6","6","4","4","3","4","2","4","2","3","5","0","-1","-1","0","-1","0","0","0","4","4","5","5","4","5","5","5","4","4","6","7","4","7","4","2","5","4","6","6","5","4","3","6","2","4","1","5","3","1","5","3","6","1","4","4","5","2","6","4","2","5","4","2","1","3","3","5","2","2","6","2","4","1","1","3","2","6","5","3","763441743210483714","娄","447","Male","[""好他"",""坏我"",""坏他"",""好我""]","[""强他"",""弱我"",""弱他"",""强我""]","","","","","","","","match","","","","","","","","","","key","j","17.122935779816192","960","536","f","false","nonmatch","img/trapezoid.png","弱他","弱我","prac_ALT2_ability","practice_ability","","","","","","","","",""
"null","<span style='color:red; font-size: 70px;'>错误! </span>","null","html-keyboard-response","95","284756","0.0-8.0-1.0-1.0-0.0-1.42","6","6","4","4","3","4","2","4","2","3","5","0","-1","-1","0","-1","0","0","0","4","4","5","5","4","5","5","5","4","4","6","7","4","7","4","2","5","4","6","6","5","4","3","6","2","4","1","5","3","1","5","3","6","1","4","4","5","2","6","4","2","5","4","2","1","3","3","5","2","2","6","2","4","1","1","3","2","6","5","3","763441743210483714","娄","447","Male","[""好他"",""坏我"",""坏他"",""好我""]","[""强他"",""弱我"",""弱他"",""强我""]","","","","","","","","","","","","","","","","","","","","","","","","","","","","","","feedback_test","","","","","","","","",""
"1055","","j","psychophysics","96","286812","0.0-8.0-1.0-1.0-0.0-0.43","6","6","4","4","3","4","2","4","2","3","5","0","-1","-1","0","-1","0","0","0","4","4","5","5","4","5","5","5","4","4","6","7","4","7","4","2","5","4","6","6","5","4","3","6","2","4","1","5","3","1","5","3","6","1","4","4","5","2","6","4","2","5","4","2","1","3","3","5","2","2","6","2","4","1","1","3","2","6","5","3","763441743210483714","娄","447","Male","[""好他"",""坏我"",""坏他"",""好我""]","[""强他"",""弱我"",""弱他"",""强我""]","","","","","","","","match","","","","","","","","","","key","j","16.798360655737895","960","536","f","false","nonmatch","img/square.png","弱他","强他","prac_ALT2_ability","practice_ability","","","","","","","","",""
"null","<span style='color:red; font-size: 70px;'>错误! </span>","null","html-keyboard-response","97","287313","0.0-8.0-1.0-1.0-0.0-1.43","6","6","4","4","3","4","2","4","2","3","5","0","-1","-1","0","-1","0","0","0","4","4","5","5","4","5","5","5","4","4","6","7","4","7","4","2","5","4","6","6","5","4","3","6","2","4","1","5","3","1","5","3","6","1","4","4","5","2","6","4","2","5","4","2","1","3","3","5","2","2","6","2","4","1","1","3","2","6","5","3","763441743210483714","娄","447","Male","[""好他"",""坏我"",""坏他"",""好我""]","[""强他"",""弱我"",""弱他"",""强我""]","","","","","","","","","","","","","","","","","","","","","","","","","","","","","","feedback_test","","","","","","","","",""
"777","","j","psychophysics","98","289092","0.0-8.0-1.0-1.0-0.0-0.44","6","6","4","4","3","4","2","4","2","3","5","0","-1","-1","0","-1","0","0","0","4","4","5","5","4","5","5","5","4","4","6","7","4","7","4","2","5","4","6","6","5","4","3","6","2","4","1","5","3","1","5","3","6","1","4","4","5","2","6","4","2","5","4","2","1","3","3","5","2","2","6","2","4","1","1","3","2","6","5","3","763441743210483714","娄","447","Male","[""好他"",""坏我"",""坏他"",""好我""]","[""强他"",""弱我"",""弱他"",""强我""]","","","","","","","","match","","","","","","","","","","key","j","16.988349514562994","960","536","f","false","nonmatch","img/pentagon.png","强他","弱他","prac_ALT2_ability","practice_ability","","","","","","","","",""
"null","<span style='color:red; font-size: 70px;'>错误! </span>","null","html-keyboard-response","99","289593","0.0-8.0-1.0-1.0-0.0-1.44","6","6","4","4","3","4","2","4","2","3","5","0","-1","-1","0","-1","0","0","0","4","4","5","5","4","5","5","5","4","4","6","7","4","7","4","2","5","4","6","6","5","4","3","6","2","4","1","5","3","1","5","3","6","1","4","4","5","2","6","4","2","5","4","2","1","3","3","5","2","2","6","2","4","1","1","3","2","6","5","3","763441743210483714","娄","447","Male","[""好他"",""坏我"",""坏他"",""好我""]","[""强他"",""弱我"",""弱他"",""强我""]","","","","","","","","","","","","","","","","","","","","","","","","","","","","","","feedback_test","","","","","","","","",""
"952","","f","psychophysics","100","291546","0.0-8.0-1.0-1.0-0.0-0.45","6","6","4","4","3","4","2","4","2","3","5","0","-1","-1","0","-1","0","0","0","4","4","5","5","4","5","5","5","4","4","6","7","4","7","4","2","5","4","6","6","5","4","3","6","2","4","1","5","3","1","5","3","6","1","4","4","5","2","6","4","2","5","4","2","1","3","3","5","2","2","6","2","4","1","1","3","2","6","5","3","763441743210483714","娄","447","Male","[""好他"",""坏我"",""坏他"",""好我""]","[""强他"",""弱我"",""弱他"",""强我""]","","","","","","","","nonmatch","","","","","","","","","","key","f","16.954385964912177","960","536","j","false","match","img/pentagon.png","弱他","弱他","prac_ALT2_ability","practice_ability","","","","","","","","",""
"null","<span style='color:red; font-size: 70px;'>错误! </span>","null","html-keyboard-response","101","292047","0.0-8.0-1.0-1.0-0.0-1.45","6","6","4","4","3","4","2","4","2","3","5","0","-1","-1","0","-1","0","0","0","4","4","5","5","4","5","5","5","4","4","6","7","4","7","4","2","5","4","6","6","5","4","3","6","2","4","1","5","3","1","5","3","6","1","4","4","5","2","6","4","2","5","4","2","1","3","3","5","2","2","6","2","4","1","1","3","2","6","5","3","763441743210483714","娄","447","Male","[""好他"",""坏我"",""坏他"",""好我""]","[""强他"",""弱我"",""弱他"",""强我""]","","","","","","","","","","","","","","","","","","","","","","","","","","","","","","feedback_test","","","","","","","","",""
"1135","","j","psychophysics","102","294183","0.0-8.0-1.0-1.0-0.0-0.46","6","6","4","4","3","4","2","4","2","3","5","0","-1","-1","0","-1","0","0","0","4","4","5","5","4","5","5","5","4","4","6","7","4","7","4","2","5","4","6","6","5","4","3","6","2","4","1","5","3","1","5","3","6","1","4","4","5","2","6","4","2","5","4","2","1","3","3","5","2","2","6","2","4","1","1","3","2","6","5","3","763441743210483714","娄","447","Male","[""好他"",""坏我"",""坏他"",""好我""]","[""强他"",""弱我"",""弱他"",""强我""]","","","","","","","","match","","","","","","","","","","key","j","16.928","960","536","j","true","match","img/pentagon.png","弱他","弱他","prac_ALT2_ability","practice_ability","","","","","","","","",""
"null","<span style='color:GreenYellow; font-size: 70px;'>正确! </span>","null","html-keyboard-response","103","294684","0.0-8.0-1.0-1.0-0.0-1.46","6","6","4","4","3","4","2","4","2","3","5","0","-1","-1","0","-1","0","0","0","4","4","5","5","4","5","5","5","4","4","6","7","4","7","4","2","5","4","6","6","5","4","3","6","2","4","1","5","3","1","5","3","6","1","4","4","5","2","6","4","2","5","4","2","1","3","3","5","2","2","6","2","4","1","1","3","2","6","5","3","763441743210483714","娄","447","Male","[""好他"",""坏我"",""坏他"",""好我""]","[""强他"",""弱我"",""弱他"",""强我""]","","","","","","","","","","","","","","","","","","","","","","","","","","","","","","feedback_test","","","","","","","","",""
"784","","f","psychophysics","104","296470","0.0-8.0-1.0-1.0-0.0-0.47","6","6","4","4","3","4","2","4","2","3","5","0","-1","-1","0","-1","0","0","0","4","4","5","5","4","5","5","5","4","4","6","7","4","7","4","2","5","4","6","6","5","4","3","6","2","4","1","5","3","1","5","3","6","1","4","4","5","2","6","4","2","5","4","2","1","3","3","5","2","2","6","2","4","1","1","3","2","6","5","3","763441743210483714","娄","447","Male","[""好他"",""坏我"",""坏他"",""好我""]","[""强他"",""弱我"",""弱他"",""强我""]","","","","","","","","nonmatch","","","","","","","","","","key","f","16.823809523809523","960","536","f","true","nonmatch","img/pentagon.png","弱我","弱他","prac_ALT2_ability","practice_ability","","","","","","","","",""
"null","<span style='color:GreenYellow; font-size: 70px;'>正确! </span>","null","html-keyboard-response","105","296971","0.0-8.0-1.0-1.0-0.0-1.47","6","6","4","4","3","4","2","4","2","3","5","0","-1","-1","0","-1","0","0","0","4","4","5","5","4","5","5","5","4","4","6","7","4","7","4","2","5","4","6","6","5","4","3","6","2","4","1","5","3","1","5","3","6","1","4","4","5","2","6","4","2","5","4","2","1","3","3","5","2","2","6","2","4","1","1","3","2","6","5","3","763441743210483714","娄","447","Male","[""好他"",""坏我"",""坏他"",""好我""]","[""强他"",""弱我"",""弱他"",""强我""]","","","","","","","","","","","","","","","","","","","","","","","","","","","","","","feedback_test","","","","","","","","",""
"10161","<style>.context{color:white; font-size: 35px; line-height:40px}</style>                          <div><p class='context'>您正确回答了67% 的试次。</p><p class='context'>您的平均反应时为920毫秒。</p><p class='context'>恭喜您完成练习。按空格键进入正式实验。</p><p class='footer' style='color:white;font-size: 35px; line-height:40px;'>请在进入正式实验实验之前将您的<span style='color: lightgreen;'>食指</span>放在电脑键盘的相应键位上进行按键。</p>"," ","html-keyboard-response","106","307134","0.0-8.0-1.0-2.0","6","6","4","4","3","4","2","4","2","3","5","0","-1","-1","0","-1","0","0","0","4","4","5","5","4","5","5","5","4","4","6","7","4","7","4","2","5","4","6","6","5","4","3","6","2","4","1","5","3","1","5","3","6","1","4","4","5","2","6","4","2","5","4","2","1","3","3","5","2","2","6","2","4","1","1","3","2","6","5","3","763441743210483714","娄","447","Male","[""好他"",""坏我"",""坏他"",""好我""]","[""强他"",""弱我"",""弱他"",""强我""]","","","","","","","","","","","","","","","","","","","","","","","","","","","","","","","","","","","","","","",""
"1882","
  <p style='color: white; font-size: 22px'>请您将手指放在按键上，准备进入正式的匹配任务。</p>
  <p> <div style = ""color: green""><按空格键进入下一阶段的匹配任务></div></p>
  "," ","html-keyboard-response","107","309020","0.0-8.0-1.0-3.0","6","6","4","4","3","4","2","4","2","3","5","0","-1","-1","0","-1","0","0","0","4","4","5","5","4","5","5","5","4","4","6","7","4","7","4","2","5","4","6","6","5","4","3","6","2","4","1","5","3","1","5","3","6","1","4","4","5","2","6","4","2","5","4","2","1","3","3","5","2","2","6","2","4","1","1","3","2","6","5","3","763441743210483714","娄","447","Male","[""好他"",""坏我"",""坏他"",""好我""]","[""强他"",""弱我"",""弱他"",""强我""]","","","","","","","","","","","","","","","","","","","","","","","","","","","","","","","","","","","","","","",""
"1096","","f","psychophysics","108","311118","0.0-8.0-1.0-4.0-0.0-0.0","6","6","4","4","3","4","2","4","2","3","5","0","-1","-1","0","-1","0","0","0","4","4","5","5","4","5","5","5","4","4","6","7","4","7","4","2","5","4","6","6","5","4","3","6","2","4","1","5","3","1","5","3","6","1","4","4","5","2","6","4","2","5","4","2","1","3","3","5","2","2","6","2","4","1","1","3","2","6","5","3","763441743210483714","娄","447","Male","[""好他"",""坏我"",""坏他"",""好我""]","[""强他"",""弱我"",""弱他"",""强我""]","","","","","","","","nonmatch","","","","","","","","","","key","f","17.508474576271187","960","536","j","false","match","img/trapezoid.png","弱我","弱我","ALT2","ability","","","","","","","","",""
"null","<span style='color:red; font-size: 70px;'>错误! </span>","null","html-keyboard-response","109","311619","0.0-8.0-1.0-4.0-0.0-1.0","6","6","4","4","3","4","2","4","2","3","5","0","-1","-1","0","-1","0","0","0","4","4","5","5","4","5","5","5","4","4","6","7","4","7","4","2","5","4","6","6","5","4","3","6","2","4","1","5","3","1","5","3","6","1","4","4","5","2","6","4","2","5","4","2","1","3","3","5","2","2","6","2","4","1","1","3","2","6","5","3","763441743210483714","娄","447","Male","[""好他"",""坏我"",""坏他"",""好我""]","[""强他"",""弱我"",""弱他"",""强我""]","","","","","","","","","","","","","","","","","","","","","","","","","","","","","","feedback_test","","","","","","","","",""
"null","","null","psychophysics","110","313822","0.0-8.0-1.0-4.0-0.0-0.1","6","6","4","4","3","4","2","4","2","3","5","0","-1","-1","0","-1","0","0","0","4","4","5","5","4","5","5","5","4","4","6","7","4","7","4","2","5","4","6","6","5","4","3","6","2","4","1","5","3","1","5","3","6","1","4","4","5","2","6","4","2","5","4","2","1","3","3","5","2","2","6","2","4","1","1","3","2","6","5","3","763441743210483714","娄","447","Male","[""好他"",""坏我"",""坏他"",""好我""]","[""强他"",""弱我"",""弱他"",""强我""]","","","","","","","","null","","","","","","","","","","key","null","17.320472440944975","960","536","f","false","nonmatch","img/trapezoid.png","强我","弱我","ALT2","ability","","","","","","","","",""
"null","<span class='add_' style='color:yellow; font-size: 70px;'> 太慢! </span>","null","html-keyboard-response","111","314323","0.0-8.0-1.0-4.0-0.0-1.1","6","6","4","4","3","4","2","4","2","3","5","0","-1","-1","0","-1","0","0","0","4","4","5","5","4","5","5","5","4","4","6","7","4","7","4","2","5","4","6","6","5","4","3","6","2","4","1","5","3","1","5","3","6","1","4","4","5","2","6","4","2","5","4","2","1","3","3","5","2","2","6","2","4","1","1","3","2","6","5","3","763441743210483714","娄","447","Male","[""好他"",""坏我"",""坏他"",""好我""]","[""强他"",""弱我"",""弱他"",""强我""]","","","","","","","","","","","","","","","","","","","","","","","","","","","","","","feedback_test","","","","","","","","",""
"1015","","f","psychophysics","112","316352","0.0-8.0-1.0-4.0-0.0-0.2","6","6","4","4","3","4","2","4","2","3","5","0","-1","-1","0","-1","0","0","0","4","4","5","5","4","5","5","5","4","4","6","7","4","7","4","2","5","4","6","6","5","4","3","6","2","4","1","5","3","1","5","3","6","1","4","4","5","2","6","4","2","5","4","2","1","3","3","5","2","2","6","2","4","1","1","3","2","6","5","3","763441743210483714","娄","447","Male","[""好他"",""坏我"",""坏他"",""好我""]","[""强他"",""弱我"",""弱他"",""强我""]","","","","","","","","nonmatch","","","","","","","","","","key","f","17.537719298245513","960","536","f","true","nonmatch","img/square.png","弱我","强他","ALT2","ability","","","","","","","","",""
"null","<span style='color:GreenYellow; font-size: 70px;'>正确! </span>","null","html-keyboard-response","113","316853","0.0-8.0-1.0-4.0-0.0-1.2","6","6","4","4","3","4","2","4","2","3","5","0","-1","-1","0","-1","0","0","0","4","4","5","5","4","5","5","5","4","4","6","7","4","7","4","2","5","4","6","6","5","4","3","6","2","4","1","5","3","1","5","3","6","1","4","4","5","2","6","4","2","5","4","2","1","3","3","5","2","2","6","2","4","1","1","3","2","6","5","3","763441743210483714","娄","447","Male","[""好他"",""坏我"",""坏他"",""好我""]","[""强他"",""弱我"",""弱他"",""强我""]","","","","","","","","","","","","","","","","","","","","","","","","","","","","","","feedback_test","","","","","","","","",""
"1011","","f","psychophysics","114","318864","0.0-8.0-1.0-4.0-0.0-0.3","6","6","4","4","3","4","2","4","2","3","5","0","-1","-1","0","-1","0","0","0","4","4","5","5","4","5","5","5","4","4","6","7","4","7","4","2","5","4","6","6","5","4","3","6","2","4","1","5","3","1","5","3","6","1","4","4","5","2","6","4","2","5","4","2","1","3","3","5","2","2","6","2","4","1","1","3","2","6","5","3","763441743210483714","娄","447","Male","[""好他"",""坏我"",""坏他"",""好我""]","[""强他"",""弱我"",""弱他"",""强我""]","","","","","","","","nonmatch","","","","","","","","","","key","f","17.862162162162267","960","536","f","true","nonmatch","img/trapezoid.png","弱他","弱我","ALT2","ability","","","","","","","","",""
"null","<span style='color:GreenYellow; font-size: 70px;'>正确! </span>","null","html-keyboard-response","115","319370","0.0-8.0-1.0-4.0-0.0-1.3","6","6","4","4","3","4","2","4","2","3","5","0","-1","-1","0","-1","0","0","0","4","4","5","5","4","5","5","5","4","4","6","7","4","7","4","2","5","4","6","6","5","4","3","6","2","4","1","5","3","1","5","3","6","1","4","4","5","2","6","4","2","5","4","2","1","3","3","5","2","2","6","2","4","1","1","3","2","6","5","3","763441743210483714","娄","447","Male","[""好他"",""坏我"",""坏他"",""好我""]","[""强他"",""弱我"",""弱他"",""强我""]","","","","","","","","","","","","","","","","","","","","","","","","","","","","","","feedback_test","","","","","","","","",""
"1106","","f","psychophysics","116","321478","0.0-8.0-1.0-4.0-0.0-0.4","6","6","4","4","3","4","2","4","2","3","5","0","-1","-1","0","-1","0","0","0","4","4","5","5","4","5","5","5","4","4","6","7","4","7","4","2","5","4","6","6","5","4","3","6","2","4","1","5","3","1","5","3","6","1","4","4","5","2","6","4","2","5","4","2","1","3","3","5","2","2","6","2","4","1","1","3","2","6","5","3","763441743210483714","娄","447","Male","[""好他"",""坏我"",""坏他"",""好我""]","[""强他"",""弱我"",""弱他"",""强我""]","","","","","","","","nonmatch","","","","","","","","","","key","f","17.209917355371612","960","536","f","true","nonmatch","img/trapezoid.png","强他","弱我","ALT2","ability","","","","","","","","",""
"null","<span style='color:GreenYellow; font-size: 70px;'>正确! </span>","null","html-keyboard-response","117","321979","0.0-8.0-1.0-4.0-0.0-1.4","6","6","4","4","3","4","2","4","2","3","5","0","-1","-1","0","-1","0","0","0","4","4","5","5","4","5","5","5","4","4","6","7","4","7","4","2","5","4","6","6","5","4","3","6","2","4","1","5","3","1","5","3","6","1","4","4","5","2","6","4","2","5","4","2","1","3","3","5","2","2","6","2","4","1","1","3","2","6","5","3","763441743210483714","娄","447","Male","[""好他"",""坏我"",""坏他"",""好我""]","[""强他"",""弱我"",""弱他"",""强我""]","","","","","","","","","","","","","","","","","","","","","","","","","","","","","","feedback_test","","","","","","","","",""
"842","","j","psychophysics","118","323857","0.0-8.0-1.0-4.0-0.0-0.5","6","6","4","4","3","4","2","4","2","3","5","0","-1","-1","0","-1","0","0","0","4","4","5","5","4","5","5","5","4","4","6","7","4","7","4","2","5","4","6","6","5","4","3","6","2","4","1","5","3","1","5","3","6","1","4","4","5","2","6","4","2","5","4","2","1","3","3","5","2","2","6","2","4","1","1","3","2","6","5","3","763441743210483714","娄","447","Male","[""好他"",""坏我"",""坏他"",""好我""]","[""强他"",""弱我"",""弱他"",""强我""]","","","","","","","","match","","","","","","","","","","key","j","17.2814814814817","960","536","j","true","match","img/square.png","强他","强他","ALT2","ability","","","","","","","","",""
"null","<span style='color:GreenYellow; font-size: 70px;'>正确! </span>","null","html-keyboard-response","119","324360","0.0-8.0-1.0-4.0-0.0-1.5","6","6","4","4","3","4","2","4","2","3","5","0","-1","-1","0","-1","0","0","0","4","4","5","5","4","5","5","5","4","4","6","7","4","7","4","2","5","4","6","6","5","4","3","6","2","4","1","5","3","1","5","3","6","1","4","4","5","2","6","4","2","5","4","2","1","3","3","5","2","2","6","2","4","1","1","3","2","6","5","3","763441743210483714","娄","447","Male","[""好他"",""坏我"",""坏他"",""好我""]","[""强他"",""弱我"",""弱他"",""强我""]","","","","","","","","","","","","","","","","","","","","","","","","","","","","","","feedback_test","","","","","","","","",""
"1192","","f","psychophysics","120","326553","0.0-8.0-1.0-4.0-0.0-0.6","6","6","4","4","3","4","2","4","2","3","5","0","-1","-1","0","-1","0","0","0","4","4","5","5","4","5","5","5","4","4","6","7","4","7","4","2","5","4","6","6","5","4","3","6","2","4","1","5","3","1","5","3","6","1","4","4","5","2","6","4","2","5","4","2","1","3","3","5","2","2","6","2","4","1","1","3","2","6","5","3","763441743210483714","娄","447","Male","[""好他"",""坏我"",""坏他"",""好我""]","[""强他"",""弱我"",""弱他"",""强我""]","","","","","","","","nonmatch","","","","","","","","","","key","f","17.604032258064233","960","536","f","true","nonmatch","img/pentagon.png","弱我","弱他","ALT2","ability","","","","","","","","",""
"null","<span style='color:GreenYellow; font-size: 70px;'>正确! </span>","null","html-keyboard-response","121","327054","0.0-8.0-1.0-4.0-0.0-1.6","6","6","4","4","3","4","2","4","2","3","5","0","-1","-1","0","-1","0","0","0","4","4","5","5","4","5","5","5","4","4","6","7","4","7","4","2","5","4","6","6","5","4","3","6","2","4","1","5","3","1","5","3","6","1","4","4","5","2","6","4","2","5","4","2","1","3","3","5","2","2","6","2","4","1","1","3","2","6","5","3","763441743210483714","娄","447","Male","[""好他"",""坏我"",""坏他"",""好我""]","[""强他"",""弱我"",""弱他"",""强我""]","","","","","","","","","","","","","","","","","","","","","","","","","","","","","","feedback_test","","","","","","","","",""
"1008","","j","psychophysics","122","329063","0.0-8.0-1.0-4.0-0.0-0.7","6","6","4","4","3","4","2","4","2","3","5","0","-1","-1","0","-1","0","0","0","4","4","5","5","4","5","5","5","4","4","6","7","4","7","4","2","5","4","6","6","5","4","3","6","2","4","1","5","3","1","5","3","6","1","4","4","5","2","6","4","2","5","4","2","1","3","3","5","2","2","6","2","4","1","1","3","2","6","5","3","763441743210483714","娄","447","Male","[""好他"",""坏我"",""坏他"",""好我""]","[""强他"",""弱我"",""弱他"",""强我""]","","","","","","","","match","","","","","","","","","","key","j","17.49912280701775","960","536","j","true","match","img/trapezoid.png","弱我","弱我","ALT2","ability","","","","","","","","",""
"null","<span style='color:GreenYellow; font-size: 70px;'>正确! </span>","null","html-keyboard-response","123","329564","0.0-8.0-1.0-4.0-0.0-1.7","6","6","4","4","3","4","2","4","2","3","5","0","-1","-1","0","-1","0","0","0","4","4","5","5","4","5","5","5","4","4","6","7","4","7","4","2","5","4","6","6","5","4","3","6","2","4","1","5","3","1","5","3","6","1","4","4","5","2","6","4","2","5","4","2","1","3","3","5","2","2","6","2","4","1","1","3","2","6","5","3","763441743210483714","娄","447","Male","[""好他"",""坏我"",""坏他"",""好我""]","[""强他"",""弱我"",""弱他"",""强我""]","","","","","","","","","","","","","","","","","","","","","","","","","","","","","","feedback_test","","","","","","","","",""
"938","","j","psychophysics","124","331503","0.0-8.0-1.0-4.0-0.0-0.8","6","6","4","4","3","4","2","4","2","3","5","0","-1","-1","0","-1","0","0","0","4","4","5","5","4","5","5","5","4","4","6","7","4","7","4","2","5","4","6","6","5","4","3","6","2","4","1","5","3","1","5","3","6","1","4","4","5","2","6","4","2","5","4","2","1","3","3","5","2","2","6","2","4","1","1","3","2","6","5","3","763441743210483714","娄","447","Male","[""好他"",""坏我"",""坏他"",""好我""]","[""强他"",""弱我"",""弱他"",""强我""]","","","","","","","","match","","","","","","","","","","key","j","16.970535714285298","960","536","f","false","nonmatch","img/ellipse.png","强他","强我","ALT2","ability","","","","","","","","",""
"null","<span style='color:red; font-size: 70px;'>错误! </span>","null","html-keyboard-response","125","332004","0.0-8.0-1.0-4.0-0.0-1.8","6","6","4","4","3","4","2","4","2","3","5","0","-1","-1","0","-1","0","0","0","4","4","5","5","4","5","5","5","4","4","6","7","4","7","4","2","5","4","6","6","5","4","3","6","2","4","1","5","3","1","5","3","6","1","4","4","5","2","6","4","2","5","4","2","1","3","3","5","2","2","6","2","4","1","1","3","2","6","5","3","763441743210483714","娄","447","Male","[""好他"",""坏我"",""坏他"",""好我""]","[""强他"",""弱我"",""弱他"",""强我""]","","","","","","","","","","","","","","","","","","","","","","","","","","","","","","feedback_test","","","","","","","","",""
"811","","f","psychophysics","126","333817","0.0-8.0-1.0-4.0-0.0-0.9","6","6","4","4","3","4","2","4","2","3","5","0","-1","-1","0","-1","0","0","0","4","4","5","5","4","5","5","5","4","4","6","7","4","7","4","2","5","4","6","6","5","4","3","6","2","4","1","5","3","1","5","3","6","1","4","4","5","2","6","4","2","5","4","2","1","3","3","5","2","2","6","2","4","1","1","3","2","6","5","3","763441743210483714","娄","447","Male","[""好他"",""坏我"",""坏他"",""好我""]","[""强他"",""弱我"",""弱他"",""强我""]","","","","","","","","nonmatch","","","","","","","","","","key","f","16.97830188679256","960","536","f","true","nonmatch","img/ellipse.png","弱他","强我","ALT2","ability","","","","","","","","",""
"null","<span style='color:GreenYellow; font-size: 70px;'>正确! </span>","null","html-keyboard-response","127","334318","0.0-8.0-1.0-4.0-0.0-1.9","6","6","4","4","3","4","2","4","2","3","5","0","-1","-1","0","-1","0","0","0","4","4","5","5","4","5","5","5","4","4","6","7","4","7","4","2","5","4","6","6","5","4","3","6","2","4","1","5","3","1","5","3","6","1","4","4","5","2","6","4","2","5","4","2","1","3","3","5","2","2","6","2","4","1","1","3","2","6","5","3","763441743210483714","娄","447","Male","[""好他"",""坏我"",""坏他"",""好我""]","[""强他"",""弱我"",""弱他"",""强我""]","","","","","","","","","","","","","","","","","","","","","","","","","","","","","","feedback_test","","","","","","","","",""
"1036","","j","psychophysics","128","336356","0.0-8.0-1.0-4.0-0.0-0.10","6","6","4","4","3","4","2","4","2","3","5","0","-1","-1","0","-1","0","0","0","4","4","5","5","4","5","5","5","4","4","6","7","4","7","4","2","5","4","6","6","5","4","3","6","2","4","1","5","3","1","5","3","6","1","4","4","5","2","6","4","2","5","4","2","1","3","3","5","2","2","6","2","4","1","1","3","2","6","5","3","763441743210483714","娄","447","Male","[""好他"",""坏我"",""坏他"",""好我""]","[""强他"",""弱我"",""弱他"",""强我""]","","","","","","","","match","","","","","","","","","","key","j","17.084745762711865","960","536","f","false","nonmatch","img/pentagon.png","强他","弱他","ALT2","ability","","","","","","","","",""
"null","<span style='color:red; font-size: 70px;'>错误! </span>","null","html-keyboard-response","129","336857","0.0-8.0-1.0-4.0-0.0-1.10","6","6","4","4","3","4","2","4","2","3","5","0","-1","-1","0","-1","0","0","0","4","4","5","5","4","5","5","5","4","4","6","7","4","7","4","2","5","4","6","6","5","4","3","6","2","4","1","5","3","1","5","3","6","1","4","4","5","2","6","4","2","5","4","2","1","3","3","5","2","2","6","2","4","1","1","3","2","6","5","3","763441743210483714","娄","447","Male","[""好他"",""坏我"",""坏他"",""好我""]","[""强他"",""弱我"",""弱他"",""强我""]","","","","","","","","","","","","","","","","","","","","","","","","","","","","","","feedback_test","","","","","","","","",""
"841","","j","psychophysics","130","338700","0.0-8.0-1.0-4.0-0.0-0.11","6","6","4","4","3","4","2","4","2","3","5","0","-1","-1","0","-1","0","0","0","4","4","5","5","4","5","5","5","4","4","6","7","4","7","4","2","5","4","6","6","5","4","3","6","2","4","1","5","3","1","5","3","6","1","4","4","5","2","6","4","2","5","4","2","1","3","3","5","2","2","6","2","4","1","1","3","2","6","5","3","763441743210483714","娄","447","Male","[""好他"",""坏我"",""坏他"",""好我""]","[""强他"",""弱我"",""弱他"",""强我""]","","","","","","","","match","","","","","","","","","","key","j","16.818348623853318","960","536","j","true","match","img/pentagon.png","弱他","弱他","ALT2","ability","","","","","","","","",""
"null","<span style='color:GreenYellow; font-size: 70px;'>正确! </span>","null","html-keyboard-response","131","339201","0.0-8.0-1.0-4.0-0.0-1.11","6","6","4","4","3","4","2","4","2","3","5","0","-1","-1","0","-1","0","0","0","4","4","5","5","4","5","5","5","4","4","6","7","4","7","4","2","5","4","6","6","5","4","3","6","2","4","1","5","3","1","5","3","6","1","4","4","5","2","6","4","2","5","4","2","1","3","3","5","2","2","6","2","4","1","1","3","2","6","5","3","763441743210483714","娄","447","Male","[""好他"",""坏我"",""坏他"",""好我""]","[""强他"",""弱我"",""弱他"",""强我""]","","","","","","","","","","","","","","","","","","","","","","","","","","","","","","feedback_test","","","","","","","","",""
"1061","","f","psychophysics","132","341264","0.0-8.0-1.0-4.0-0.0-0.12","6","6","4","4","3","4","2","4","2","3","5","0","-1","-1","0","-1","0","0","0","4","4","5","5","4","5","5","5","4","4","6","7","4","7","4","2","5","4","6","6","5","4","3","6","2","4","1","5","3","1","5","3","6","1","4","4","5","2","6","4","2","5","4","2","1","3","3","5","2","2","6","2","4","1","1","3","2","6","5","3","763441743210483714","娄","447","Male","[""好他"",""坏我"",""坏他"",""好我""]","[""强他"",""弱我"",""弱他"",""强我""]","","","","","","","","nonmatch","","","","","","","","","","key","f","17.08083333333343","960","536","f","true","nonmatch","img/ellipse.png","弱我","强我","ALT2","ability","","","","","","","","",""
"null","<span style='color:GreenYellow; font-size: 70px;'>正确! </span>","null","html-keyboard-response","133","341765","0.0-8.0-1.0-4.0-0.0-1.12","6","6","4","4","3","4","2","4","2","3","5","0","-1","-1","0","-1","0","0","0","4","4","5","5","4","5","5","5","4","4","6","7","4","7","4","2","5","4","6","6","5","4","3","6","2","4","1","5","3","1","5","3","6","1","4","4","5","2","6","4","2","5","4","2","1","3","3","5","2","2","6","2","4","1","1","3","2","6","5","3","763441743210483714","娄","447","Male","[""好他"",""坏我"",""坏他"",""好我""]","[""强他"",""弱我"",""弱他"",""强我""]","","","","","","","","","","","","","","","","","","","","","","","","","","","","","","feedback_test","","","","","","","","",""
"993","","j","psychophysics","134","343760","0.0-8.0-1.0-4.0-0.0-0.13","6","6","4","4","3","4","2","4","2","3","5","0","-1","-1","0","-1","0","0","0","4","4","5","5","4","5","5","5","4","4","6","7","4","7","4","2","5","4","6","6","5","4","3","6","2","4","1","5","3","1","5","3","6","1","4","4","5","2","6","4","2","5","4","2","1","3","3","5","2","2","6","2","4","1","1","3","2","6","5","3","763441743210483714","娄","447","Male","[""好他"",""坏我"",""坏他"",""好我""]","[""强他"",""弱我"",""弱他"",""强我""]","","","","","","","","match","","","","","","","","","","key","j","17.095652173913045","960","536","j","true","match","img/ellipse.png","强我","强我","ALT2","ability","","","","","","","","",""
"null","<span style='color:GreenYellow; font-size: 70px;'>正确! </span>","null","html-keyboard-response","135","344260","0.0-8.0-1.0-4.0-0.0-1.13","6","6","4","4","3","4","2","4","2","3","5","0","-1","-1","0","-1","0","0","0","4","4","5","5","4","5","5","5","4","4","6","7","4","7","4","2","5","4","6","6","5","4","3","6","2","4","1","5","3","1","5","3","6","1","4","4","5","2","6","4","2","5","4","2","1","3","3","5","2","2","6","2","4","1","1","3","2","6","5","3","763441743210483714","娄","447","Male","[""好他"",""坏我"",""坏他"",""好我""]","[""强他"",""弱我"",""弱他"",""强我""]","","","","","","","","","","","","","","","","","","","","","","","","","","","","","","feedback_test","","","","","","","","",""
"1056","","f","psychophysics","136","346317","0.0-8.0-1.0-4.0-0.0-0.14","6","6","4","4","3","4","2","4","2","3","5","0","-1","-1","0","-1","0","0","0","4","4","5","5","4","5","5","5","4","4","6","7","4","7","4","2","5","4","6","6","5","4","3","6","2","4","1","5","3","1","5","3","6","1","4","4","5","2","6","4","2","5","4","2","1","3","3","5","2","2","6","2","4","1","1","3","2","6","5","3","763441743210483714","娄","447","Male","[""好他"",""坏我"",""坏他"",""好我""]","[""强他"",""弱我"",""弱他"",""强我""]","","","","","","","","nonmatch","","","","","","","","","","key","f","17.119327731092046","960","536","j","false","match","img/pentagon.png","弱他","弱他","ALT2","ability","","","","","","","","",""
"null","<span style='color:red; font-size: 70px;'>错误! </span>","null","html-keyboard-response","137","346818","0.0-8.0-1.0-4.0-0.0-1.14","6","6","4","4","3","4","2","4","2","3","5","0","-1","-1","0","-1","0","0","0","4","4","5","5","4","5","5","5","4","4","6","7","4","7","4","2","5","4","6","6","5","4","3","6","2","4","1","5","3","1","5","3","6","1","4","4","5","2","6","4","2","5","4","2","1","3","3","5","2","2","6","2","4","1","1","3","2","6","5","3","763441743210483714","娄","447","Male","[""好他"",""坏我"",""坏他"",""好我""]","[""强他"",""弱我"",""弱他"",""强我""]","","","","","","","","","","","","","","","","","","","","","","","","","","","","","","feedback_test","","","","","","","","",""
