"rt","stimulus","response","trial_type","trial_index","time_elapsed","internal_node_id","swb_1","swb_2","swb_3","swb_4","swb_5","LOT_1","LOT_2","LOT_3","LOT_4","LOT_5","LOT_6","IPC_1","IPC_2","IPC_3","IPC_4","IPC_5","IPC_6","IPC_7","IPC_8","MorIden_1","MorIden_2","MorIden_3","MorIden_4","MorIden_5","MorIden_6","MorIden_7","MorIden_8","MorIden_9","MorIden_10","moralSeImag_1","moralSeImag_2","moralSeImag_3","moralSeImag_4","moralSeImag_5","moralSeImag_6","moralSeImag_7","moralSeImag_8","moralSeImag_9","sde_1","sde_2","sde_3","sde_4","sde_5","sde_6","sde_7","sde_8","sde_9","sde_10","trap2","sde_11","sde_12","sde_13","sde_14","sde_15","sde_16","sde_17","sde_18","sde_19","sde_20","IM_1","IM_2","IM_3","IM_4","IM_5","IM_6","IM_7","IM_8","IM_9","IM_10","IM_11","IM_12","IM_13","IM_14","IM_15","IM_16","IM_17","IM_18","IM_19","IM_20","subj_idx","friend_name","ParticipantID","Sex","Word","Word2","value","success","timeout","failed_images","failed_audio","failed_video","user_agent","responses","item_order","radio_event_ids","radio_event_times","key_event_times","mouse_event_times","straightlining","zigzagging","honeypot","task_id","screen_id","time_stamp","response_type","key_press","avg_frame_time","center_x","center_y","person","word","valence","domain","math","correct_response","correct","status","view_history","identity","duration","Image","condition","question_order","trap2_item"
"1103","
   <p><div style='color:white; font-size: 25px'>您好，欢迎参加本次实验。</div></p>
   <p><div style='color:white; font-size: 25px'>为充分保障您的权利，请确保您已经知晓并同意《参与实验同意书》以及《数据公开知情同意书》。</div></p>
   <p><div style='color:white; font-size: 25px'>如果您未见过上述内容，请咨询实验员。</div></p>
   <p style='color:white; font-size: 25px'>如果您选择继续实验，则表示您已经清楚两份知情同意书的内容并同意。</p>
   <p><div style = ""color: pink;font-size:30px;"">请确保您记得day0的实验编号，您将在本次实验输入该编号，若您忘记，请咨询实验员后作答。</div></p>
   <p><div style = ""color:lightblue;font-size:25px;"">请您尽可能认真地作答，我们将依据您在各问卷和按键任务中的作答质量发放报酬。</div></p>
   <p> <div style = ""color: green""><按空格键至下页></div> </p>
   "," ","html-keyboard-response","0","1105","0.0-0.0","7","6","6","6","6","5","4","5","5","5","5","2","2","2","1","1","2","2","1","5","5","5","5","4","4","5","4","5","4","6","6","7","7","7","5","6","7","6","7","6","6","7","6","7","6","1","6","6","1","6","6","6","6","6","4","6","7","7","6","7","7","7","5","7","7","6","7","7","7","7","5","7","7","6","7","7","7","6","7","598842647070638080","刘","170","Male","[""好我"",""好他"",""坏我"",""坏他""]","[""强我"",""强他"",""弱我"",""弱他""]","","","","","","","","","","","","","","","","","","","","","","","","","","","","","","","","","","","","","","",""
"","","","call-function","1","1105","0.0-1.0-0.0","7","6","6","6","6","5","4","5","5","5","5","2","2","2","1","1","2","2","1","5","5","5","5","4","4","5","4","5","4","6","6","7","7","7","5","6","7","6","7","6","6","7","6","7","6","1","6","6","1","6","6","6","6","6","4","6","7","7","6","7","7","7","5","7","7","6","7","7","7","7","5","7","7","6","7","7","7","6","7","598842647070638080","刘","170","Male","[""好我"",""好他"",""坏我"",""坏他""]","[""强我"",""强他"",""弱我"",""弱他""]","","","","","","","","","","","","","","","","","","","","","","","","","","","","","","","","","","","","","","",""
"11688","","[{""name"":""Sex"",""value"":""0""},{""name"":""friend_name"",""value"":""刘""},{""name"":""ParticipantID"",""value"":""170""}]","survey-html-form","2","12794","0.0-1.0-1.0","7","6","6","6","6","5","4","5","5","5","5","2","2","2","1","1","2","2","1","5","5","5","5","4","4","5","4","5","4","6","6","7","7","7","5","6","7","6","7","6","6","7","6","7","6","1","6","6","1","6","6","6","6","6","4","6","7","7","6","7","7","7","5","7","7","6","7","7","7","7","5","7","7","6","7","7","7","6","7","598842647070638080","刘","170","Male","[""好我"",""好他"",""坏我"",""坏他""]","[""强我"",""强他"",""弱我"",""弱他""]","","","","","","","","","","","","","","","","","","","","","","","","","","","","","","","","","","","","","","",""
"","","","preload","3","13162","0.0-2.0","7","6","6","6","6","5","4","5","5","5","5","2","2","2","1","1","2","2","1","5","5","5","5","4","4","5","4","5","4","6","6","7","7","7","5","6","7","6","7","6","6","7","6","7","6","1","6","6","1","6","6","6","6","6","4","6","7","7","6","7","7","7","5","7","7","6","7","7","7","7","5","7","7","6","7","7","7","6","7","598842647070638080","刘","170","Male","[""好我"",""好他"",""坏我"",""坏他""]","[""强我"",""强他"",""弱我"",""弱他""]","","true","false","[]","[]","[]","","","","","","","","","","","","","","","","","","","","","","","","","","","","","","","","",""
"","","","fullscreen","4","14814","0.0-3.0","7","6","6","6","6","5","4","5","5","5","5","2","2","2","1","1","2","2","1","5","5","5","5","4","4","5","4","5","4","6","6","7","7","7","5","6","7","6","7","6","6","7","6","7","6","1","6","6","1","6","6","6","6","6","4","6","7","7","6","7","7","7","5","7","7","6","7","7","7","7","5","7","7","6","7","7","7","6","7","598842647070638080","刘","170","Male","[""好我"",""好他"",""坏我"",""坏他""]","[""强我"",""强他"",""弱我"",""弱他""]","","true","","","","","{}","","","","","","","","","","","","","","","","","","","","","","","","","","","","","","","",""
"30914.30000114441","","{""Q01"":""7"",""Q02"":""6"",""Q03"":""6"",""Q04"":""6"",""Q05"":""6""}","survey-template","5","45730","0.0-4.0","7","6","6","6","6","5","4","5","5","5","5","2","2","2","1","1","2","2","1","5","5","5","5","4","4","5","4","5","4","6","6","7","7","7","5","6","7","6","7","6","6","7","6","7","6","1","6","6","1","6","6","6","6","6","4","6","7","7","6","7","7","7","5","7","7","6","7","7","7","7","5","7","7","6","7","7","7","6","7","598842647070638080","刘","170","Male","[""好我"",""好他"",""坏我"",""坏他""]","[""强我"",""强他"",""弱我"",""弱他""]","","","","","","","","{""Q01"":""7"",""Q02"":""6"",""Q03"":""6"",""Q04"":""6"",""Q05"":""6""}","[0,1,2,3,4]","[""Q01"",""Q02"",""Q03"",""Q04"",""Q05"",""Q04"",""Q03"",""Q05"",""Q02"",""Q02"",""Q01"",""Q05"",""Q03"",""Q02"",""Q01"",""Q05"",""Q02"",""Q05""]","[4393.400001525879,5602.10000038147,6338.5,9321.5,10577.80000114441,12273.60000038147,14113.5,14929.900001525879,16497.5,17401.70000076294,18401.70000076294,19785.80000114441,21169.60000038147,22441.5,23033.70000076294,23993.60000038147,26977.60000038147,28897.30000114441]","[]","[2577.7000007629395,4393.400001525879,5602.10000038147,6338.5,9321.5,10577.80000114441,11962.10000038147,12273.60000038147,14113.5,14929.900001525879,16497.5,17401.70000076294,18401.70000076294,19785.80000114441,21169.60000038147,22441.5,22801.5,23033.70000076294,23993.60000038147,26977.60000038147,28897.30000114441,30913.60000038147]","0.8","0.25","0","","","","","","","","","","","","","","","","","","","","","","",""
"13317.60000038147","","{""Q01"":""5"",""Q02"":""4"",""Q03"":""5"",""Q04"":""5"",""Q05"":""5"",""Q06"":""5""}","survey-template","6","59049","0.0-5.0","7","6","6","6","6","5","4","5","5","5","5","2","2","2","1","1","2","2","1","5","5","5","5","4","4","5","4","5","4","6","6","7","7","7","5","6","7","6","7","6","6","7","6","7","6","1","6","6","1","6","6","6","6","6","4","6","7","7","6","7","7","7","5","7","7","6","7","7","7","7","5","7","7","6","7","7","7","6","7","598842647070638080","刘","170","Male","[""好我"",""好他"",""坏我"",""坏他""]","[""强我"",""强他"",""弱我"",""弱他""]","","","","","","","","{""Q01"":""5"",""Q02"":""4"",""Q03"":""5"",""Q04"":""5"",""Q05"":""5"",""Q06"":""5""}","[0,1,2,3,4,5]","[""Q01"",""Q02"",""Q03"",""Q04"",""Q05"",""Q06""]","[2164.6000003814697,4396.700000762939,5628.39999961853,7716.60000038147,8669.10000038147,11260.5]","[]","[2164.6000003814697,4396.700000762939,5628.39999961853,7716.60000038147,8669.10000038147,11260.5,13317.10000038147]","0.5","0.4","0","","","","","","","","","","","","","","","","","","","","","","",""
"99413.79999923706","","{""Q01"":""2"",""Q02"":""2"",""Q03"":""2"",""Q04"":""1"",""Q05"":""1"",""Q06"":""2"",""Q07"":""2"",""Q08"":""1""}","survey-template","7","158466","0.0-6.0","7","6","6","6","6","5","4","5","5","5","5","2","2","2","1","1","2","2","1","5","5","5","5","4","4","5","4","5","4","6","6","7","7","7","5","6","7","6","7","6","6","7","6","7","6","1","6","6","1","6","6","6","6","6","4","6","7","7","6","7","7","7","5","7","7","6","7","7","7","7","5","7","7","6","7","7","7","6","7","598842647070638080","刘","170","Male","[""好我"",""好他"",""坏我"",""坏他""]","[""强我"",""强他"",""弱我"",""弱他""]","","","","","","","","{""Q01"":""2"",""Q02"":""2"",""Q03"":""2"",""Q04"":""1"",""Q05"":""1"",""Q06"":""2"",""Q07"":""2"",""Q08"":""1""}","[0,1,2,3,4,5,6,7]","[""Q01"",""Q03"",""Q02"",""Q04"",""Q05"",""Q06"",""Q08"",""Q07"",""Q05"",""Q04""]","[4084.7999992370605,4965.099998474121,5757.599998474121,9772.79999923706,12156.79999923706,12772.89999961853,15389.099998474121,16308.89999961853,17452.79999923706,20477.19999885559]","[]","[2316.7999992370605,2917,4084.7999992370605,4965.099998474121,5757.599998474121,9772.79999923706,12156.79999923706,12772.89999961853,14125.19999885559,15389.099998474121,16308.89999961853,17452.79999923706,20109,20477.19999885559,99412.89999961853]","0.625","0.42857142857142855","0","","","","","","","","","","","","","","","","","","","","","","",""
"22293","
    <p><div style='color:white;font-size:35px; line-height:20px;'>词汇评估任务</div></p><br>
    <p><div style='color:white;font-size:25px; line-height:20px;'>请再次回忆该亲密的朋友，你们至少2年前就认识了，并且最近2年经常见面。</div></p>
    <p><div style='color:white;font-size:25px; line-height:20px;'>在本实验中，您将会看到一些形容词。</div></p>
    <p><div style='color:yellow;font-size:25px; line-height:20px;'>您的任务是判断这些形容词是否符合对您自己或您的朋友的描述。</div></p><p style='font-size:35px'>符合按<span style=""color:lightgreen""> f 键</span>，不符合按<span style=""color:red""> j 键</span></p>","0","html-button-response","8","180761","0.0-7.0-0.0","7","6","6","6","6","5","4","5","5","5","5","2","2","2","1","1","2","2","1","5","5","5","5","4","4","5","4","5","4","6","6","7","7","7","5","6","7","6","7","6","6","7","6","7","6","1","6","6","1","6","6","6","6","6","4","6","7","7","6","7","7","7","5","7","7","6","7","7","7","7","5","7","7","6","7","7","7","6","7","598842647070638080","刘","170","Male","[""好我"",""好他"",""坏我"",""坏他""]","[""强我"",""强他"",""弱我"",""弱他""]","","","","","","","","","","","","","","","","","SRET_EW","EW_instructions","Tue Dec 19 2023 16:00:05 GMT+0800 (中国标准时间)","","","","","","","","","","","","","","","","","","","",""
"862","","f","psychophysics","9","182625","0.0-7.0-1.0-0.0","7","6","6","6","6","5","4","5","5","5","5","2","2","2","1","1","2","2","1","5","5","5","5","4","4","5","4","5","4","6","6","7","7","7","5","6","7","6","7","6","6","7","6","7","6","1","6","6","1","6","6","6","6","6","4","6","7","7","6","7","7","7","5","7","7","6","7","7","7","7","5","7","7","6","7","7","7","6","7","598842647070638080","刘","170","Male","[""好我"",""好他"",""坏我"",""坏他""]","[""强我"",""强他"",""弱我"",""弱他""]","","","","","","","","yes","","","","","","","","","SRET_EW","EW_practice","","key","f","16.65282142857125","768","428","朋友","忠实","Positive","morality","","","","","","","","","","",""
"951","","j","psychophysics","10","184578","0.0-7.0-1.0-0.1","7","6","6","6","6","5","4","5","5","5","5","2","2","2","1","1","2","2","1","5","5","5","5","4","4","5","4","5","4","6","6","7","7","7","5","6","7","6","7","6","6","7","6","7","6","1","6","6","1","6","6","6","6","6","4","6","7","7","6","7","7","7","5","7","7","6","7","7","7","7","5","7","7","6","7","7","7","6","7","598842647070638080","刘","170","Male","[""好我"",""好他"",""坏我"",""坏他""]","[""强我"",""强他"",""弱我"",""弱他""]","","","","","","","","no","","","","","","","","","SRET_EW","EW_practice","","key","j","16.65084482758614","768","428","自己","刻板","Negative","ability","","","","","","","","","","",""
"1517","","j","psychophysics","11","187097","0.0-7.0-1.0-0.2","7","6","6","6","6","5","4","5","5","5","5","2","2","2","1","1","2","2","1","5","5","5","5","4","4","5","4","5","4","6","6","7","7","7","5","6","7","6","7","6","6","7","6","7","6","1","6","6","1","6","6","6","6","6","4","6","7","7","6","7","7","7","5","7","7","6","7","7","7","7","5","7","7","6","7","7","7","6","7","598842647070638080","刘","170","Male","[""好我"",""好他"",""坏我"",""坏他""]","[""强我"",""强他"",""弱我"",""弱他""]","","","","","","","","no","","","","","","","","","SRET_EW","EW_practice","","key","j","16.651533333333404","768","428","朋友","徇私","Negative","morality","","","","","","","","","","",""
"839","","f","psychophysics","12","188937","0.0-7.0-1.0-0.3","7","6","6","6","6","5","4","5","5","5","5","2","2","2","1","1","2","2","1","5","5","5","5","4","4","5","4","5","4","6","6","7","7","7","5","6","7","6","7","6","6","7","6","7","6","1","6","6","1","6","6","6","6","6","4","6","7","7","6","7","7","7","5","7","7","6","7","7","7","7","5","7","7","6","7","7","7","6","7","598842647070638080","刘","170","Male","[""好我"",""好他"",""坏我"",""坏他""]","[""强我"",""强他"",""弱我"",""弱他""]","","","","","","","","yes","","","","","","","","","SRET_EW","EW_practice","","key","f","16.654499999999956","768","428","自己","严谨","Positive","ability","","","","","","","","","","",""
"34431","
    <p><div style='color:white;font-size:35px; line-height:20px;'>请您再次阅读实验要求</div></p><br>
    <p><div style='color:white;font-size:25px; line-height:20px;'>请回忆某一个亲密的朋友，你们至少2年前就认识了，并且最近2年经常见面。</div></p>
    <p><div style='color:white;font-size:25px; line-height:20px;'>在本实验中，您将会看到一些形容词。</div></p>
    <p><div style='color:yellow;font-size:25px; line-height:20px;'>您的任务是判断这些形容词是否符合对您自己或您的朋友的描述。</div></p>
    <p><div class='footer' style='font-size:25px; line-height:20px;'>如果对本实验还有不清楚之处，请立即向实验员咨询。</p><p style='font-size:25px; line-height:20px;'>如果您明白了规则：</p><p style='font-size:22px; line-height:20px;'>请按 继续 进入正式实验</p>
    </div>
    <p style='font-size:35px'>符合按<span style=""color:lightgreen""> f 键</span>，不符合按<span style=""color:red""> j 键</span></p>","0","html-button-response","13","223369","0.0-7.0-2.0","7","6","6","6","6","5","4","5","5","5","5","2","2","2","1","1","2","2","1","5","5","5","5","4","4","5","4","5","4","6","6","7","7","7","5","6","7","6","7","6","6","7","6","7","6","1","6","6","1","6","6","6","6","6","4","6","7","7","6","7","7","7","5","7","7","6","7","7","7","7","5","7","7","6","7","7","7","6","7","598842647070638080","刘","170","Male","[""好我"",""好他"",""坏我"",""坏他""]","[""强我"",""强他"",""弱我"",""弱他""]","","","","","","","","","","","","","","","","","SRET_EW","prac_instructions","Tue Dec 19 2023 16:00:05 GMT+0800 (中国标准时间)","","","","","","","","","","","","","","","","","","","",""
"1054","","f","psychophysics","14","225425","0.0-7.0-3.0-0.0","7","6","6","6","6","5","4","5","5","5","5","2","2","2","1","1","2","2","1","5","5","5","5","4","4","5","4","5","4","6","6","7","7","7","5","6","7","6","7","6","6","7","6","7","6","1","6","6","1","6","6","6","6","6","4","6","7","7","6","7","7","7","5","7","7","6","7","7","7","7","5","7","7","6","7","7","7","6","7","598842647070638080","刘","170","Male","[""好我"",""好他"",""坏我"",""坏他""]","[""强我"",""强他"",""弱我"",""弱他""]","","","","","","","","yes","","","","","","","","","SRET","EW_formal","","key","f","16.6509105691055","768","428","朋友","务实","Positive","ability","","","","","","","","","","",""
"990","","f","psychophysics","15","227416","0.0-7.0-3.0-0.1","7","6","6","6","6","5","4","5","5","5","5","2","2","2","1","1","2","2","1","5","5","5","5","4","4","5","4","5","4","6","6","7","7","7","5","6","7","6","7","6","6","7","6","7","6","1","6","6","1","6","6","6","6","6","4","6","7","7","6","7","7","7","5","7","7","6","7","7","7","7","5","7","7","6","7","7","7","6","7","598842647070638080","刘","170","Male","[""好我"",""好他"",""坏我"",""坏他""]","[""强我"",""强他"",""弱我"",""弱他""]","","","","","","","","yes","","","","","","","","","SRET","EW_formal","","key","f","16.651210084033664","768","428","自己","坚贞","Positive","morality","","","","","","","","","","",""
"1006","","j","psychophysics","16","229425","0.0-7.0-3.0-0.2","7","6","6","6","6","5","4","5","5","5","5","2","2","2","1","1","2","2","1","5","5","5","5","4","4","5","4","5","4","6","6","7","7","7","5","6","7","6","7","6","6","7","6","7","6","1","6","6","1","6","6","6","6","6","4","6","7","7","6","7","7","7","5","7","7","6","7","7","7","7","5","7","7","6","7","7","7","6","7","598842647070638080","刘","170","Male","[""好我"",""好他"",""坏我"",""坏他""]","[""强我"",""强他"",""弱我"",""弱他""]","","","","","","","","no","","","","","","","","","SRET","EW_formal","","key","j","16.650756302521028","768","428","自己","说谎","Negative","morality","","","","","","","","","","",""
"927","","j","psychophysics","17","231354","0.0-7.0-3.0-0.3","7","6","6","6","6","5","4","5","5","5","5","2","2","2","1","1","2","2","1","5","5","5","5","4","4","5","4","5","4","6","6","7","7","7","5","6","7","6","7","6","6","7","6","7","6","1","6","6","1","6","6","6","6","6","4","6","7","7","6","7","7","7","5","7","7","6","7","7","7","7","5","7","7","6","7","7","7","6","7","598842647070638080","刘","170","Male","[""好我"",""好他"",""坏我"",""坏他""]","[""强我"",""强他"",""弱我"",""弱他""]","","","","","","","","no","","","","","","","","","SRET","EW_formal","","key","j","16.65482608695646","768","428","朋友","迷糊","Negative","ability","","","","","","","","","","",""
"828","","f","psychophysics","18","233185","0.0-7.0-3.0-0.4","7","6","6","6","6","5","4","5","5","5","5","2","2","2","1","1","2","2","1","5","5","5","5","4","4","5","4","5","4","6","6","7","7","7","5","6","7","6","7","6","6","7","6","7","6","1","6","6","1","6","6","6","6","6","4","6","7","7","6","7","7","7","5","7","7","6","7","7","7","7","5","7","7","6","7","7","7","6","7","598842647070638080","刘","170","Male","[""好我"",""好他"",""坏我"",""坏他""]","[""强我"",""强他"",""弱我"",""弱他""]","","","","","","","","yes","","","","","","","","","SRET","EW_formal","","key","f","16.650266055046014","768","428","自己","高尚","Positive","morality","","","","","","","","","","",""
"607","","f","psychophysics","19","234793","0.0-7.0-3.0-0.5","7","6","6","6","6","5","4","5","5","5","5","2","2","2","1","1","2","2","1","5","5","5","5","4","4","5","4","5","4","6","6","7","7","7","5","6","7","6","7","6","6","7","6","7","6","1","6","6","1","6","6","6","6","6","4","6","7","7","6","7","7","7","5","7","7","6","7","7","7","7","5","7","7","6","7","7","7","6","7","598842647070638080","刘","170","Male","[""好我"",""好他"",""坏我"",""坏他""]","[""强我"",""强他"",""弱我"",""弱他""]","","","","","","","","yes","","","","","","","","","SRET","EW_formal","","key","f","16.65778124999997","768","428","自己","上进","Positive","ability","","","","","","","","","","",""
"879","","j","psychophysics","20","236674","0.0-7.0-3.0-0.6","7","6","6","6","6","5","4","5","5","5","5","2","2","2","1","1","2","2","1","5","5","5","5","4","4","5","4","5","4","6","6","7","7","7","5","6","7","6","7","6","6","7","6","7","6","1","6","6","1","6","6","6","6","6","4","6","7","7","6","7","7","7","5","7","7","6","7","7","7","7","5","7","7","6","7","7","7","6","7","598842647070638080","刘","170","Male","[""好我"",""好他"",""坏我"",""坏他""]","[""强我"",""强他"",""弱我"",""弱他""]","","","","","","","","no","","","","","","","","","SRET","EW_formal","","key","j","16.651053571428616","768","428","自己","逞能","Negative","ability","","","","","","","","","","",""
"1022","","j","psychophysics","21","238697","0.0-7.0-3.0-0.7","7","6","6","6","6","5","4","5","5","5","5","2","2","2","1","1","2","2","1","5","5","5","5","4","4","5","4","5","4","6","6","7","7","7","5","6","7","6","7","6","6","7","6","7","6","1","6","6","1","6","6","6","6","6","4","6","7","7","6","7","7","7","5","7","7","6","7","7","7","7","5","7","7","6","7","7","7","6","7","598842647070638080","刘","170","Male","[""好我"",""好他"",""坏我"",""坏他""]","[""强我"",""强他"",""弱我"",""弱他""]","","","","","","","","no","","","","","","","","","SRET","EW_formal","","key","j","16.65160833333333","768","428","自己","邪恶","Negative","morality","","","","","","","","","","",""
"1975","","f","psychophysics","22","241672","0.0-7.0-3.0-0.8","7","6","6","6","6","5","4","5","5","5","5","2","2","2","1","1","2","2","1","5","5","5","5","4","4","5","4","5","4","6","6","7","7","7","5","6","7","6","7","6","6","7","6","7","6","1","6","6","1","6","6","6","6","6","4","6","7","7","6","7","7","7","5","7","7","6","7","7","7","7","5","7","7","6","7","7","7","6","7","598842647070638080","刘","170","Male","[""好我"",""好他"",""坏我"",""坏他""]","[""强我"",""强他"",""弱我"",""弱他""]","","","","","","","","yes","","","","","","","","","SRET","EW_formal","","key","f","16.65155617977536","768","428","朋友","勤奋","Positive","ability","","","","","","","","","","",""
"656","","f","psychophysics","23","243329","0.0-7.0-3.0-0.9","7","6","6","6","6","5","4","5","5","5","5","2","2","2","1","1","2","2","1","5","5","5","5","4","4","5","4","5","4","6","6","7","7","7","5","6","7","6","7","6","6","7","6","7","6","1","6","6","1","6","6","6","6","6","4","6","7","7","6","7","7","7","5","7","7","6","7","7","7","7","5","7","7","6","7","7","7","6","7","598842647070638080","刘","170","Male","[""好我"",""好他"",""坏我"",""坏他""]","[""强我"",""强他"",""弱我"",""弱他""]","","","","","","","","yes","","","","","","","","","SRET","EW_formal","","key","f","16.650949494949675","768","428","朋友","忠勇","Positive","morality","","","","","","","","","","",""
"1151","","f","psychophysics","24","245481","0.0-7.0-3.0-0.10","7","6","6","6","6","5","4","5","5","5","5","2","2","2","1","1","2","2","1","5","5","5","5","4","4","5","4","5","4","6","6","7","7","7","5","6","7","6","7","6","6","7","6","7","6","1","6","6","1","6","6","6","6","6","4","6","7","7","6","7","7","7","5","7","7","6","7","7","7","7","5","7","7","6","7","7","7","6","7","598842647070638080","刘","170","Male","[""好我"",""好他"",""坏我"",""坏他""]","[""强我"",""强他"",""弱我"",""弱他""]","","","","","","","","yes","","","","","","","","","SRET","EW_formal","","key","f","16.65242968749999","768","428","朋友","娴熟","Positive","ability","","","","","","","","","","",""
"1054","","j","psychophysics","25","247537","0.0-7.0-3.0-0.11","7","6","6","6","6","5","4","5","5","5","5","2","2","2","1","1","2","2","1","5","5","5","5","4","4","5","4","5","4","6","6","7","7","7","5","6","7","6","7","6","6","7","6","7","6","1","6","6","1","6","6","6","6","6","4","6","7","7","6","7","7","7","5","7","7","6","7","7","7","7","5","7","7","6","7","7","7","6","7","598842647070638080","刘","170","Male","[""好我"",""好他"",""坏我"",""坏他""]","[""强我"",""强他"",""弱我"",""弱他""]","","","","","","","","no","","","","","","","","","SRET","EW_formal","","key","j","16.647565573770468","768","428","自己","卑鄙","Negative","morality","","","","","","","","","","",""
"638","","j","psychophysics","26","249177","0.0-7.0-3.0-0.12","7","6","6","6","6","5","4","5","5","5","5","2","2","2","1","1","2","2","1","5","5","5","5","4","4","5","4","5","4","6","6","7","7","7","5","6","7","6","7","6","6","7","6","7","6","1","6","6","1","6","6","6","6","6","4","6","7","7","6","7","7","7","5","7","7","6","7","7","7","7","5","7","7","6","7","7","7","6","7","598842647070638080","刘","170","Male","[""好我"",""好他"",""坏我"",""坏他""]","[""强我"",""强他"",""弱我"",""弱他""]","","","","","","","","no","","","","","","","","","SRET","EW_formal","","key","j","16.651775510203894","768","428","自己","无能","Negative","ability","","","","","","","","","","",""
"933","","j","psychophysics","27","251112","0.0-7.0-3.0-0.13","7","6","6","6","6","5","4","5","5","5","5","2","2","2","1","1","2","2","1","5","5","5","5","4","4","5","4","5","4","6","6","7","7","7","5","6","7","6","7","6","6","7","6","7","6","1","6","6","1","6","6","6","6","6","4","6","7","7","6","7","7","7","5","7","7","6","7","7","7","7","5","7","7","6","7","7","7","6","7","598842647070638080","刘","170","Male","[""好我"",""好他"",""坏我"",""坏他""]","[""强我"",""强他"",""弱我"",""弱他""]","","","","","","","","no","","","","","","","","","SRET","EW_formal","","key","j","16.65309565217391","768","428","自己","中用","Positive","ability","","","","","","","","","","",""
"1383","","j","psychophysics","28","253497","0.0-7.0-3.0-0.14","7","6","6","6","6","5","4","5","5","5","5","2","2","2","1","1","2","2","1","5","5","5","5","4","4","5","4","5","4","6","6","7","7","7","5","6","7","6","7","6","6","7","6","7","6","1","6","6","1","6","6","6","6","6","4","6","7","7","6","7","7","7","5","7","7","6","7","7","7","7","5","7","7","6","7","7","7","6","7","598842647070638080","刘","170","Male","[""好我"",""好他"",""坏我"",""坏他""]","[""强我"",""强他"",""弱我"",""弱他""]","","","","","","","","no","","","","","","","","","SRET","EW_formal","","key","j","16.64995070422539","768","428","自己","低劣","Negative","morality","","","","","","","","","","",""
"999","","f","psychophysics","29","255497","0.0-7.0-3.0-0.15","7","6","6","6","6","5","4","5","5","5","5","2","2","2","1","1","2","2","1","5","5","5","5","4","4","5","4","5","4","6","6","7","7","7","5","6","7","6","7","6","6","7","6","7","6","1","6","6","1","6","6","6","6","6","4","6","7","7","6","7","7","7","5","7","7","6","7","7","7","7","5","7","7","6","7","7","7","6","7","598842647070638080","刘","170","Male","[""好我"",""好他"",""坏我"",""坏他""]","[""强我"",""强他"",""弱我"",""弱他""]","","","","","","","","yes","","","","","","","","","SRET","EW_formal","","key","f","16.651966386554644","768","428","自己","侠义","Positive","morality","","","","","","","","","","",""
"726","","f","psychophysics","30","257225","0.0-7.0-3.0-0.16","7","6","6","6","6","5","4","5","5","5","5","2","2","2","1","1","2","2","1","5","5","5","5","4","4","5","4","5","4","6","6","7","7","7","5","6","7","6","7","6","6","7","6","7","6","1","6","6","1","6","6","6","6","6","4","6","7","7","6","7","7","7","5","7","7","6","7","7","7","7","5","7","7","6","7","7","7","6","7","598842647070638080","刘","170","Male","[""好我"",""好他"",""坏我"",""坏他""]","[""强我"",""强他"",""弱我"",""弱他""]","","","","","","","","yes","","","","","","","","","SRET","EW_formal","","key","f","16.651728155339775","768","428","自己","自律","Positive","ability","","","","","","","","","","",""
"919","","f","psychophysics","31","259145","0.0-7.0-3.0-0.17","7","6","6","6","6","5","4","5","5","5","5","2","2","2","1","1","2","2","1","5","5","5","5","4","4","5","4","5","4","6","6","7","7","7","5","6","7","6","7","6","6","7","6","7","6","1","6","6","1","6","6","6","6","6","4","6","7","7","6","7","7","7","5","7","7","6","7","7","7","7","5","7","7","6","7","7","7","6","7","598842647070638080","刘","170","Male","[""好我"",""好他"",""坏我"",""坏他""]","[""强我"",""强他"",""弱我"",""弱他""]","","","","","","","","yes","","","","","","","","","SRET","EW_formal","","key","f","16.65090350877175","768","428","自己","正气","Positive","morality","","","","","","","","","","",""
"688","","f","psychophysics","32","260834","0.0-7.0-3.0-0.18","7","6","6","6","6","5","4","5","5","5","5","2","2","2","1","1","2","2","1","5","5","5","5","4","4","5","4","5","4","6","6","7","7","7","5","6","7","6","7","6","6","7","6","7","6","1","6","6","1","6","6","6","6","6","4","6","7","7","6","7","7","7","5","7","7","6","7","7","7","7","5","7","7","6","7","7","7","6","7","598842647070638080","刘","170","Male","[""好我"",""好他"",""坏我"",""坏他""]","[""强我"",""强他"",""弱我"",""弱他""]","","","","","","","","yes","","","","","","","","","SRET","EW_formal","","key","f","16.651534653465276","768","428","朋友","高明","Positive","ability","","","","","","","","","","",""
"701","","j","psychophysics","33","262537","0.0-7.0-3.0-0.19","7","6","6","6","6","5","4","5","5","5","5","2","2","2","1","1","2","2","1","5","5","5","5","4","4","5","4","5","4","6","6","7","7","7","5","6","7","6","7","6","6","7","6","7","6","1","6","6","1","6","6","6","6","6","4","6","7","7","6","7","7","7","5","7","7","6","7","7","7","7","5","7","7","6","7","7","7","6","7","598842647070638080","刘","170","Male","[""好我"",""好他"",""坏我"",""坏他""]","[""强我"",""强他"",""弱我"",""弱他""]","","","","","","","","no","","","","","","","","","SRET","EW_formal","","key","j","16.650693069306943","768","428","朋友","拜金","Negative","morality","","","","","","","","","","",""
"863","","j","psychophysics","34","264401","0.0-7.0-3.0-0.20","7","6","6","6","6","5","4","5","5","5","5","2","2","2","1","1","2","2","1","5","5","5","5","4","4","5","4","5","4","6","6","7","7","7","5","6","7","6","7","6","6","7","6","7","6","1","6","6","1","6","6","6","6","6","4","6","7","7","6","7","7","7","5","7","7","6","7","7","7","7","5","7","7","6","7","7","7","6","7","598842647070638080","刘","170","Male","[""好我"",""好他"",""坏我"",""坏他""]","[""强我"",""强他"",""弱我"",""弱他""]","","","","","","","","no","","","","","","","","","SRET","EW_formal","","key","j","16.653153153153152","768","428","自己","无敌","Positive","ability","","","","","","","","","","",""
"687","","j","psychophysics","35","266089","0.0-7.0-3.0-0.21","7","6","6","6","6","5","4","5","5","5","5","2","2","2","1","1","2","2","1","5","5","5","5","4","4","5","4","5","4","6","6","7","7","7","5","6","7","6","7","6","6","7","6","7","6","1","6","6","1","6","6","6","6","6","4","6","7","7","6","7","7","7","5","7","7","6","7","7","7","7","5","7","7","6","7","7","7","6","7","598842647070638080","刘","170","Male","[""好我"",""好他"",""坏我"",""坏他""]","[""强我"",""强他"",""弱我"",""弱他""]","","","","","","","","no","","","","","","","","","SRET","EW_formal","","key","j","16.65408999999985","768","428","自己","拖拉","Negative","ability","","","","","","","","","","",""
"873","","j","psychophysics","36","267963","0.0-7.0-3.0-0.22","7","6","6","6","6","5","4","5","5","5","5","2","2","2","1","1","2","2","1","5","5","5","5","4","4","5","4","5","4","6","6","7","7","7","5","6","7","6","7","6","6","7","6","7","6","1","6","6","1","6","6","6","6","6","4","6","7","7","6","7","7","7","5","7","7","6","7","7","7","7","5","7","7","6","7","7","7","6","7","598842647070638080","刘","170","Male","[""好我"",""好他"",""坏我"",""坏他""]","[""强我"",""强他"",""弱我"",""弱他""]","","","","","","","","no","","","","","","","","","SRET","EW_formal","","key","j","16.655589285714086","768","428","朋友","愚蠢","Negative","ability","","","","","","","","","","",""
"860","","j","psychophysics","37","269825","0.0-7.0-3.0-0.23","7","6","6","6","6","5","4","5","5","5","5","2","2","2","1","1","2","2","1","5","5","5","5","4","4","5","4","5","4","6","6","7","7","7","5","6","7","6","7","6","6","7","6","7","6","1","6","6","1","6","6","6","6","6","4","6","7","7","6","7","7","7","5","7","7","6","7","7","7","7","5","7","7","6","7","7","7","6","7","598842647070638080","刘","170","Male","[""好我"",""好他"",""坏我"",""坏他""]","[""强我"",""强他"",""弱我"",""弱他""]","","","","","","","","no","","","","","","","","","SRET","EW_formal","","key","j","16.65156756756777","768","428","朋友","失信","Negative","morality","","","","","","","","","","",""
"654","","j","psychophysics","38","271481","0.0-7.0-3.0-0.24","7","6","6","6","6","5","4","5","5","5","5","2","2","2","1","1","2","2","1","5","5","5","5","4","4","5","4","5","4","6","6","7","7","7","5","6","7","6","7","6","6","7","6","7","6","1","6","6","1","6","6","6","6","6","4","6","7","7","6","7","7","7","5","7","7","6","7","7","7","7","5","7","7","6","7","7","7","6","7","598842647070638080","刘","170","Male","[""好我"",""好他"",""坏我"",""坏他""]","[""强我"",""强他"",""弱我"",""弱他""]","","","","","","","","no","","","","","","","","","SRET","EW_formal","","key","j","16.65122448979599","768","428","自己","愚钝","Negative","ability","","","","","","","","","","",""
"518","","f","psychophysics","39","273000","0.0-7.0-3.0-0.25","7","6","6","6","6","5","4","5","5","5","5","2","2","2","1","1","2","2","1","5","5","5","5","4","4","5","4","5","4","6","6","7","7","7","5","6","7","6","7","6","6","7","6","7","6","1","6","6","1","6","6","6","6","6","4","6","7","7","6","7","7","7","5","7","7","6","7","7","7","7","5","7","7","6","7","7","7","6","7","598842647070638080","刘","170","Male","[""好我"",""好他"",""坏我"",""坏他""]","[""强我"",""强他"",""弱我"",""弱他""]","","","","","","","","yes","","","","","","","","","SRET","EW_formal","","key","f","16.65138888888889","768","428","朋友","依靠","Negative","ability","","","","","","","","","","",""
"527","","f","psychophysics","40","274529","0.0-7.0-3.0-0.26","7","6","6","6","6","5","4","5","5","5","5","2","2","2","1","1","2","2","1","5","5","5","5","4","4","5","4","5","4","6","6","7","7","7","5","6","7","6","7","6","6","7","6","7","6","1","6","6","1","6","6","6","6","6","4","6","7","7","6","7","7","7","5","7","7","6","7","7","7","7","5","7","7","6","7","7","7","6","7","598842647070638080","刘","170","Male","[""好我"",""好他"",""坏我"",""坏他""]","[""强我"",""强他"",""弱我"",""弱他""]","","","","","","","","yes","","","","","","","","","SRET","EW_formal","","key","f","16.652098901099066","768","428","朋友","爱国","Positive","morality","","","","","","","","","","",""
"872","","j","psychophysics","41","276401","0.0-7.0-3.0-0.27","7","6","6","6","6","5","4","5","5","5","5","2","2","2","1","1","2","2","1","5","5","5","5","4","4","5","4","5","4","6","6","7","7","7","5","6","7","6","7","6","6","7","6","7","6","1","6","6","1","6","6","6","6","6","4","6","7","7","6","7","7","7","5","7","7","6","7","7","7","7","5","7","7","6","7","7","7","6","7","598842647070638080","刘","170","Male","[""好我"",""好他"",""坏我"",""坏他""]","[""强我"",""强他"",""弱我"",""弱他""]","","","","","","","","no","","","","","","","","","SRET","EW_formal","","key","j","16.654017857142858","768","428","自己","龌龊","Negative","morality","","","","","","","","","","",""
"927","","j","psychophysics","42","278329","0.0-7.0-3.0-0.28","7","6","6","6","6","5","4","5","5","5","5","2","2","2","1","1","2","2","1","5","5","5","5","4","4","5","4","5","4","6","6","7","7","7","5","6","7","6","7","6","6","7","6","7","6","1","6","6","1","6","6","6","6","6","4","6","7","7","6","7","7","7","5","7","7","6","7","7","7","7","5","7","7","6","7","7","7","6","7","598842647070638080","刘","170","Male","[""好我"",""好他"",""坏我"",""坏他""]","[""强我"",""强他"",""弱我"",""弱他""]","","","","","","","","no","","","","","","","","","SRET","EW_formal","","key","j","16.650368421052566","768","428","自己","逞强","Negative","ability","","","","","","","","","","",""
"582","","f","psychophysics","43","279912","0.0-7.0-3.0-0.29","7","6","6","6","6","5","4","5","5","5","5","2","2","2","1","1","2","2","1","5","5","5","5","4","4","5","4","5","4","6","6","7","7","7","5","6","7","6","7","6","6","7","6","7","6","1","6","6","1","6","6","6","6","6","4","6","7","7","6","7","7","7","5","7","7","6","7","7","7","7","5","7","7","6","7","7","7","6","7","598842647070638080","刘","170","Male","[""好我"",""好他"",""坏我"",""坏他""]","[""强我"",""强他"",""弱我"",""弱他""]","","","","","","","","yes","","","","","","","","","SRET","EW_formal","","key","f","16.65173684210504","768","428","自己","善心","Positive","morality","","","","","","","","","","",""
"574","","f","psychophysics","44","281489","0.0-7.0-3.0-0.30","7","6","6","6","6","5","4","5","5","5","5","2","2","2","1","1","2","2","1","5","5","5","5","4","4","5","4","5","4","6","6","7","7","7","5","6","7","6","7","6","6","7","6","7","6","1","6","6","1","6","6","6","6","6","4","6","7","7","6","7","7","7","5","7","7","6","7","7","7","7","5","7","7","6","7","7","7","6","7","598842647070638080","刘","170","Male","[""好我"",""好他"",""坏我"",""坏他""]","[""强我"",""强他"",""弱我"",""弱他""]","","","","","","","","yes","","","","","","","","","SRET","EW_formal","","key","f","16.647698924730918","768","428","朋友","奉献","Positive","morality","","","","","","","","","","",""
"789","","j","psychophysics","45","283280","0.0-7.0-3.0-0.31","7","6","6","6","6","5","4","5","5","5","5","2","2","2","1","1","2","2","1","5","5","5","5","4","4","5","4","5","4","6","6","7","7","7","5","6","7","6","7","6","6","7","6","7","6","1","6","6","1","6","6","6","6","6","4","6","7","7","6","7","7","7","5","7","7","6","7","7","7","7","5","7","7","6","7","7","7","6","7","598842647070638080","刘","170","Male","[""好我"",""好他"",""坏我"",""坏他""]","[""强我"",""强他"",""弱我"",""弱他""]","","","","","","","","no","","","","","","","","","SRET","EW_formal","","key","j","16.6515514018693","768","428","自己","拖延","Negative","ability","","","","","","","","","","",""
"854","","j","psychophysics","46","285136","0.0-7.0-3.0-0.32","7","6","6","6","6","5","4","5","5","5","5","2","2","2","1","1","2","2","1","5","5","5","5","4","4","5","4","5","4","6","6","7","7","7","5","6","7","6","7","6","6","7","6","7","6","1","6","6","1","6","6","6","6","6","4","6","7","7","6","7","7","7","5","7","7","6","7","7","7","7","5","7","7","6","7","7","7","6","7","598842647070638080","刘","170","Male","[""好我"",""好他"",""坏我"",""坏他""]","[""强我"",""强他"",""弱我"",""弱他""]","","","","","","","","no","","","","","","","","","SRET","EW_formal","","key","j","16.654109090909003","768","428","自己","笨蛋","Negative","ability","","","","","","","","","","",""
"774","","f","psychophysics","47","286912","0.0-7.0-3.0-0.33","7","6","6","6","6","5","4","5","5","5","5","2","2","2","1","1","2","2","1","5","5","5","5","4","4","5","4","5","4","6","6","7","7","7","5","6","7","6","7","6","6","7","6","7","6","1","6","6","1","6","6","6","6","6","4","6","7","7","6","7","7","7","5","7","7","6","7","7","7","7","5","7","7","6","7","7","7","6","7","598842647070638080","刘","170","Male","[""好我"",""好他"",""坏我"",""坏他""]","[""强我"",""强他"",""弱我"",""弱他""]","","","","","","","","yes","","","","","","","","","SRET","EW_formal","","key","f","16.652990566037776","768","428","朋友","慈悲","Positive","morality","","","","","","","","","","",""
"799","","j","psychophysics","48","288712","0.0-7.0-3.0-0.34","7","6","6","6","6","5","4","5","5","5","5","2","2","2","1","1","2","2","1","5","5","5","5","4","4","5","4","5","4","6","6","7","7","7","5","6","7","6","7","6","6","7","6","7","6","1","6","6","1","6","6","6","6","6","4","6","7","7","6","7","7","7","5","7","7","6","7","7","7","7","5","7","7","6","7","7","7","6","7","598842647070638080","刘","170","Male","[""好我"",""好他"",""坏我"",""坏他""]","[""强我"",""强他"",""弱我"",""弱他""]","","","","","","","","no","","","","","","","","","SRET","EW_formal","","key","j","16.650831775701164","768","428","朋友","无助","Negative","ability","","","","","","","","","","",""
"999","","j","psychophysics","49","290712","0.0-7.0-3.0-0.35","7","6","6","6","6","5","4","5","5","5","5","2","2","2","1","1","2","2","1","5","5","5","5","4","4","5","4","5","4","6","6","7","7","7","5","6","7","6","7","6","6","7","6","7","6","1","6","6","1","6","6","6","6","6","4","6","7","7","6","7","7","7","5","7","7","6","7","7","7","7","5","7","7","6","7","7","7","6","7","598842647070638080","刘","170","Male","[""好我"",""好他"",""坏我"",""坏他""]","[""强我"",""强他"",""弱我"",""弱他""]","","","","","","","","no","","","","","","","","","SRET","EW_formal","","key","j","16.652991596638703","768","428","朋友","才尽","Negative","ability","","","","","","","","","","",""
"1000","","f","psychophysics","50","292713","0.0-7.0-3.0-0.36","7","6","6","6","6","5","4","5","5","5","5","2","2","2","1","1","2","2","1","5","5","5","5","4","4","5","4","5","4","6","6","7","7","7","5","6","7","6","7","6","6","7","6","7","6","1","6","6","1","6","6","6","6","6","4","6","7","7","6","7","7","7","5","7","7","6","7","7","7","7","5","7","7","6","7","7","7","6","7","598842647070638080","刘","170","Male","[""好我"",""好他"",""坏我"",""坏他""]","[""强我"",""强他"",""弱我"",""弱他""]","","","","","","","","yes","","","","","","","","","SRET","EW_formal","","key","f","16.653621848739153","768","428","自己","思辨","Positive","ability","","","","","","","","","","",""
"896","","f","psychophysics","51","294610","0.0-7.0-3.0-0.37","7","6","6","6","6","5","4","5","5","5","5","2","2","2","1","1","2","2","1","5","5","5","5","4","4","5","4","5","4","6","6","7","7","7","5","6","7","6","7","6","6","7","6","7","6","1","6","6","1","6","6","6","6","6","4","6","7","7","6","7","7","7","5","7","7","6","7","7","7","7","5","7","7","6","7","7","7","6","7","598842647070638080","刘","170","Male","[""好我"",""好他"",""坏我"",""坏他""]","[""强我"",""强他"",""弱我"",""弱他""]","","","","","","","","yes","","","","","","","","","SRET","EW_formal","","key","f","16.65354867256607","768","428","朋友","谦逊","Positive","morality","","","","","","","","","","",""
"1085","","j","psychophysics","52","296696","0.0-7.0-3.0-0.38","7","6","6","6","6","5","4","5","5","5","5","2","2","2","1","1","2","2","1","5","5","5","5","4","4","5","4","5","4","6","6","7","7","7","5","6","7","6","7","6","6","7","6","7","6","1","6","6","1","6","6","6","6","6","4","6","7","7","6","7","7","7","5","7","7","6","7","7","7","7","5","7","7","6","7","7","7","6","7","598842647070638080","刘","170","Male","[""好我"",""好他"",""坏我"",""坏他""]","[""强我"",""强他"",""弱我"",""弱他""]","","","","","","","","no","","","","","","","","","SRET","EW_formal","","key","j","16.65196800000034","768","428","朋友","虚假","Negative","morality","","","","","","","","","","",""
"849","","f","psychophysics","53","298546","0.0-7.0-3.0-0.39","7","6","6","6","6","5","4","5","5","5","5","2","2","2","1","1","2","2","1","5","5","5","5","4","4","5","4","5","4","6","6","7","7","7","5","6","7","6","7","6","6","7","6","7","6","1","6","6","1","6","6","6","6","6","4","6","7","7","6","7","7","7","5","7","7","6","7","7","7","7","5","7","7","6","7","7","7","6","7","598842647070638080","刘","170","Male","[""好我"",""好他"",""坏我"",""坏他""]","[""强我"",""强他"",""弱我"",""弱他""]","","","","","","","","yes","","","","","","","","","SRET","EW_formal","","key","f","16.649836363636528","768","428","朋友","仁爱","Positive","morality","","","","","","","","","","",""
"956","","j","psychophysics","54","300505","0.0-7.0-3.0-0.40","7","6","6","6","6","5","4","5","5","5","5","2","2","2","1","1","2","2","1","5","5","5","5","4","4","5","4","5","4","6","6","7","7","7","5","6","7","6","7","6","6","7","6","7","6","1","6","6","1","6","6","6","6","6","4","6","7","7","6","7","7","7","5","7","7","6","7","7","7","7","5","7","7","6","7","7","7","6","7","598842647070638080","刘","170","Male","[""好我"",""好他"",""坏我"",""坏他""]","[""强我"",""强他"",""弱我"",""弱他""]","","","","","","","","no","","","","","","","","","SRET","EW_formal","","key","j","16.651482758620567","768","428","朋友","歹毒","Negative","morality","","","","","","","","","","",""
"1054","","j","psychophysics","55","302561","0.0-7.0-3.0-0.41","7","6","6","6","6","5","4","5","5","5","5","2","2","2","1","1","2","2","1","5","5","5","5","4","4","5","4","5","4","6","6","7","7","7","5","6","7","6","7","6","6","7","6","7","6","1","6","6","1","6","6","6","6","6","4","6","7","7","6","7","7","7","5","7","7","6","7","7","7","7","5","7","7","6","7","7","7","6","7","598842647070638080","刘","170","Male","[""好我"",""好他"",""坏我"",""坏他""]","[""强我"",""强他"",""弱我"",""弱他""]","","","","","","","","no","","","","","","","","","SRET","EW_formal","","key","j","16.65156097561017","768","428","自己","迟钝","Negative","ability","","","","","","","","","","",""
"974","","j","psychophysics","56","304536","0.0-7.0-3.0-0.42","7","6","6","6","6","5","4","5","5","5","5","2","2","2","1","1","2","2","1","5","5","5","5","4","4","5","4","5","4","6","6","7","7","7","5","6","7","6","7","6","6","7","6","7","6","1","6","6","1","6","6","6","6","6","4","6","7","7","6","7","7","7","5","7","7","6","7","7","7","7","5","7","7","6","7","7","7","6","7","598842647070638080","刘","170","Male","[""好我"",""好他"",""坏我"",""坏他""]","[""强我"",""强他"",""弱我"",""弱他""]","","","","","","","","no","","","","","","","","","SRET","EW_formal","","key","j","16.649632478632334","768","428","朋友","盲目","Negative","ability","","","","","","","","","","",""
"1303","","f","psychophysics","57","306841","0.0-7.0-3.0-0.43","7","6","6","6","6","5","4","5","5","5","5","2","2","2","1","1","2","2","1","5","5","5","5","4","4","5","4","5","4","6","6","7","7","7","5","6","7","6","7","6","6","7","6","7","6","1","6","6","1","6","6","6","6","6","4","6","7","7","6","7","7","7","5","7","7","6","7","7","7","7","5","7","7","6","7","7","7","6","7","598842647070638080","刘","170","Male","[""好我"",""好他"",""坏我"",""坏他""]","[""强我"",""强他"",""弱我"",""弱他""]","","","","","","","","yes","","","","","","","","","SRET","EW_formal","","key","f","16.651717391304597","768","428","朋友","坦荡","Positive","morality","","","","","","","","","","",""
"638","","j","psychophysics","58","308480","0.0-7.0-3.0-0.44","7","6","6","6","6","5","4","5","5","5","5","2","2","2","1","1","2","2","1","5","5","5","5","4","4","5","4","5","4","6","6","7","7","7","5","6","7","6","7","6","6","7","6","7","6","1","6","6","1","6","6","6","6","6","4","6","7","7","6","7","7","7","5","7","7","6","7","7","7","7","5","7","7","6","7","7","7","6","7","598842647070638080","刘","170","Male","[""好我"",""好他"",""坏我"",""坏他""]","[""强我"",""强他"",""弱我"",""弱他""]","","","","","","","","no","","","","","","","","","SRET","EW_formal","","key","j","16.649432989690673","768","428","自己","黑心","Negative","morality","","","","","","","","","","",""
"623","","f","psychophysics","59","310105","0.0-7.0-3.0-0.45","7","6","6","6","6","5","4","5","5","5","5","2","2","2","1","1","2","2","1","5","5","5","5","4","4","5","4","5","4","6","6","7","7","7","5","6","7","6","7","6","6","7","6","7","6","1","6","6","1","6","6","6","6","6","4","6","7","7","6","7","7","7","5","7","7","6","7","7","7","7","5","7","7","6","7","7","7","6","7","598842647070638080","刘","170","Male","[""好我"",""好他"",""坏我"",""坏他""]","[""强我"",""强他"",""弱我"",""弱他""]","","","","","","","","yes","","","","","","","","","SRET","EW_formal","","key","f","16.651865979381142","768","428","朋友","有力","Positive","ability","","","","","","","","","","",""
"807","","j","psychophysics","60","311913","0.0-7.0-3.0-0.46","7","6","6","6","6","5","4","5","5","5","5","2","2","2","1","1","2","2","1","5","5","5","5","4","4","5","4","5","4","6","6","7","7","7","5","6","7","6","7","6","6","7","6","7","6","1","6","6","1","6","6","6","6","6","4","6","7","7","6","7","7","7","5","7","7","6","7","7","7","7","5","7","7","6","7","7","7","6","7","598842647070638080","刘","170","Male","[""好我"",""好他"",""坏我"",""坏他""]","[""强我"",""强他"",""弱我"",""弱他""]","","","","","","","","no","","","","","","","","","SRET","EW_formal","","key","j","16.65112149532695","768","428","朋友","狡狯","Negative","morality","","","","","","","","","","",""
"927","","f","psychophysics","61","313841","0.0-7.0-3.0-0.47","7","6","6","6","6","5","4","5","5","5","5","2","2","2","1","1","2","2","1","5","5","5","5","4","4","5","4","5","4","6","6","7","7","7","5","6","7","6","7","6","6","7","6","7","6","1","6","6","1","6","6","6","6","6","4","6","7","7","6","7","7","7","5","7","7","6","7","7","7","7","5","7","7","6","7","7","7","6","7","598842647070638080","刘","170","Male","[""好我"",""好他"",""坏我"",""坏他""]","[""强我"",""强他"",""弱我"",""弱他""]","","","","","","","","yes","","","","","","","","","SRET","EW_formal","","key","f","16.6514434782611","768","428","自己","孝顺","Positive","morality","","","","","","","","","","",""
"839","","j","psychophysics","62","315681","0.0-7.0-3.0-0.48","7","6","6","6","6","5","4","5","5","5","5","2","2","2","1","1","2","2","1","5","5","5","5","4","4","5","4","5","4","6","6","7","7","7","5","6","7","6","7","6","6","7","6","7","6","1","6","6","1","6","6","6","6","6","4","6","7","7","6","7","7","7","5","7","7","6","7","7","7","7","5","7","7","6","7","7","7","6","7","598842647070638080","刘","170","Male","[""好我"",""好他"",""坏我"",""坏他""]","[""强我"",""强他"",""弱我"",""弱他""]","","","","","","","","no","","","","","","","","","SRET","EW_formal","","key","j","16.65117272727287","768","428","朋友","恶劣","Negative","morality","","","","","","","","","","",""
"1126","","j","psychophysics","63","317808","0.0-7.0-3.0-0.49","7","6","6","6","6","5","4","5","5","5","5","2","2","2","1","1","2","2","1","5","5","5","5","4","4","5","4","5","4","6","6","7","7","7","5","6","7","6","7","6","6","7","6","7","6","1","6","6","1","6","6","6","6","6","4","6","7","7","6","7","7","7","5","7","7","6","7","7","7","7","5","7","7","6","7","7","7","6","7","598842647070638080","刘","170","Male","[""好我"",""好他"",""坏我"",""坏他""]","[""强我"",""强他"",""弱我"",""弱他""]","","","","","","","","no","","","","","","","","","SRET","EW_formal","","key","j","16.649698412698594","768","428","自己","狡诈","Negative","morality","","","","","","","","","","",""
"982","","j","psychophysics","64","319793","0.0-7.0-3.0-0.50","7","6","6","6","6","5","4","5","5","5","5","2","2","2","1","1","2","2","1","5","5","5","5","4","4","5","4","5","4","6","6","7","7","7","5","6","7","6","7","6","6","7","6","7","6","1","6","6","1","6","6","6","6","6","4","6","7","7","6","7","7","7","5","7","7","6","7","7","7","7","5","7","7","6","7","7","7","6","7","598842647070638080","刘","170","Male","[""好我"",""好他"",""坏我"",""坏他""]","[""强我"",""强他"",""弱我"",""弱他""]","","","","","","","","no","","","","","","","","","SRET","EW_formal","","key","j","16.651285714285933","768","428","朋友","果断","Positive","ability","","","","","","","","","","",""
"830","","f","psychophysics","65","321625","0.0-7.0-3.0-0.51","7","6","6","6","6","5","4","5","5","5","5","2","2","2","1","1","2","2","1","5","5","5","5","4","4","5","4","5","4","6","6","7","7","7","5","6","7","6","7","6","6","7","6","7","6","1","6","6","1","6","6","6","6","6","4","6","7","7","6","7","7","7","5","7","7","6","7","7","7","7","5","7","7","6","7","7","7","6","7","598842647070638080","刘","170","Male","[""好我"",""好他"",""坏我"",""坏他""]","[""强我"",""强他"",""弱我"",""弱他""]","","","","","","","","yes","","","","","","","","","SRET","EW_formal","","key","f","16.653623853210966","768","428","自己","高效","Positive","ability","","","","","","","","","","",""
"918","","f","psychophysics","66","323544","0.0-7.0-3.0-0.52","7","6","6","6","6","5","4","5","5","5","5","2","2","2","1","1","2","2","1","5","5","5","5","4","4","5","4","5","4","6","6","7","7","7","5","6","7","6","7","6","6","7","6","7","6","1","6","6","1","6","6","6","6","6","4","6","7","7","6","7","7","7","5","7","7","6","7","7","7","7","5","7","7","6","7","7","7","6","7","598842647070638080","刘","170","Male","[""好我"",""好他"",""坏我"",""坏他""]","[""强我"",""强他"",""弱我"",""弱他""]","","","","","","","","yes","","","","","","","","","SRET","EW_formal","","key","f","16.650464912280626","768","428","朋友","顶事","Positive","ability","","","","","","","","","","",""
"655","","f","psychophysics","67","325200","0.0-7.0-3.0-0.53","7","6","6","6","6","5","4","5","5","5","5","2","2","2","1","1","2","2","1","5","5","5","5","4","4","5","4","5","4","6","6","7","7","7","5","6","7","6","7","6","6","7","6","7","6","1","6","6","1","6","6","6","6","6","4","6","7","7","6","7","7","7","5","7","7","6","7","7","7","7","5","7","7","6","7","7","7","6","7","598842647070638080","刘","170","Male","[""好我"",""好他"",""坏我"",""坏他""]","[""强我"",""强他"",""弱我"",""弱他""]","","","","","","","","yes","","","","","","","","","SRET","EW_formal","","key","f","16.649642857142645","768","428","自己","敬业","Positive","morality","","","","","","","","","","",""
"983","","f","psychophysics","68","327185","0.0-7.0-3.0-0.54","7","6","6","6","6","5","4","5","5","5","5","2","2","2","1","1","2","2","1","5","5","5","5","4","4","5","4","5","4","6","6","7","7","7","5","6","7","6","7","6","6","7","6","7","6","1","6","6","1","6","6","6","6","6","4","6","7","7","6","7","7","7","5","7","7","6","7","7","7","7","5","7","7","6","7","7","7","6","7","598842647070638080","刘","170","Male","[""好我"",""好他"",""坏我"",""坏他""]","[""强我"",""强他"",""弱我"",""弱他""]","","","","","","","","yes","","","","","","","","","SRET","EW_formal","","key","f","16.653151260504007","768","428","朋友","守法","Positive","morality","","","","","","","","","","",""
"663","","f","psychophysics","69","328849","0.0-7.0-3.0-0.55","7","6","6","6","6","5","4","5","5","5","5","2","2","2","1","1","2","2","1","5","5","5","5","4","4","5","4","5","4","6","6","7","7","7","5","6","7","6","7","6","6","7","6","7","6","1","6","6","1","6","6","6","6","6","4","6","7","7","6","7","7","7","5","7","7","6","7","7","7","7","5","7","7","6","7","7","7","6","7","598842647070638080","刘","170","Male","[""好我"",""好他"",""坏我"",""坏他""]","[""强我"",""强他"",""弱我"",""弱他""]","","","","","","","","yes","","","","","","","","","SRET","EW_formal","","key","f","16.646173469387875","768","428","朋友","义气","Positive","morality","","","","","","","","","","",""
"719","","j","psychophysics","70","330569","0.0-7.0-3.0-0.56","7","6","6","6","6","5","4","5","5","5","5","2","2","2","1","1","2","2","1","5","5","5","5","4","4","5","4","5","4","6","6","7","7","7","5","6","7","6","7","6","6","7","6","7","6","1","6","6","1","6","6","6","6","6","4","6","7","7","6","7","7","7","5","7","7","6","7","7","7","7","5","7","7","6","7","7","7","6","7","598842647070638080","刘","170","Male","[""好我"",""好他"",""坏我"",""坏他""]","[""强我"",""强他"",""弱我"",""弱他""]","","","","","","","","no","","","","","","","","","SRET","EW_formal","","key","j","16.65130097087353","768","428","朋友","短视","Negative","ability","","","","","","","","","","",""
"878","","j","psychophysics","71","332449","0.0-7.0-3.0-0.57","7","6","6","6","6","5","4","5","5","5","5","2","2","2","1","1","2","2","1","5","5","5","5","4","4","5","4","5","4","6","6","7","7","7","5","6","7","6","7","6","6","7","6","7","6","1","6","6","1","6","6","6","6","6","4","6","7","7","6","7","7","7","5","7","7","6","7","7","7","7","5","7","7","6","7","7","7","6","7","598842647070638080","刘","170","Male","[""好我"",""好他"",""坏我"",""坏他""]","[""强我"",""强他"",""弱我"",""弱他""]","","","","","","","","no","","","","","","","","","SRET","EW_formal","","key","j","16.650241071428486","768","428","自己","粗心","Negative","ability","","","","","","","","","","",""
"743","","f","psychophysics","72","334192","0.0-7.0-3.0-0.58","7","6","6","6","6","5","4","5","5","5","5","2","2","2","1","1","2","2","1","5","5","5","5","4","4","5","4","5","4","6","6","7","7","7","5","6","7","6","7","6","6","7","6","7","6","1","6","6","1","6","6","6","6","6","4","6","7","7","6","7","7","7","5","7","7","6","7","7","7","7","5","7","7","6","7","7","7","6","7","598842647070638080","刘","170","Male","[""好我"",""好他"",""坏我"",""坏他""]","[""强我"",""强他"",""弱我"",""弱他""]","","","","","","","","yes","","","","","","","","","SRET","EW_formal","","key","f","16.65174757281558","768","428","朋友","博学","Positive","ability","","","","","","","","","","",""
"983","","f","psychophysics","73","336177","0.0-7.0-3.0-0.59","7","6","6","6","6","5","4","5","5","5","5","2","2","2","1","1","2","2","1","5","5","5","5","4","4","5","4","5","4","6","6","7","7","7","5","6","7","6","7","6","6","7","6","7","6","1","6","6","1","6","6","6","6","6","4","6","7","7","6","7","7","7","5","7","7","6","7","7","7","7","5","7","7","6","7","7","7","6","7","598842647070638080","刘","170","Male","[""好我"",""好他"",""坏我"",""坏他""]","[""强我"",""强他"",""弱我"",""弱他""]","","","","","","","","yes","","","","","","","","","SRET","EW_formal","","key","f","16.65455462184868","768","428","自己","远见","Positive","ability","","","","","","","","","","",""
"1047","","j","psychophysics","74","338224","0.0-7.0-3.0-0.60","7","6","6","6","6","5","4","5","5","5","5","2","2","2","1","1","2","2","1","5","5","5","5","4","4","5","4","5","4","6","6","7","7","7","5","6","7","6","7","6","6","7","6","7","6","1","6","6","1","6","6","6","6","6","4","6","7","7","6","7","7","7","5","7","7","6","7","7","7","7","5","7","7","6","7","7","7","6","7","598842647070638080","刘","170","Male","[""好我"",""好他"",""坏我"",""坏他""]","[""强我"",""强他"",""弱我"",""弱他""]","","","","","","","","no","","","","","","","","","SRET","EW_formal","","key","j","16.65134426229538","768","428","朋友","外行","Negative","ability","","","","","","","","","","",""
"992","","f","psychophysics","75","340217","0.0-7.0-3.0-0.61","7","6","6","6","6","5","4","5","5","5","5","2","2","2","1","1","2","2","1","5","5","5","5","4","4","5","4","5","4","6","6","7","7","7","5","6","7","6","7","6","6","7","6","7","6","1","6","6","1","6","6","6","6","6","4","6","7","7","6","7","7","7","5","7","7","6","7","7","7","7","5","7","7","6","7","7","7","6","7","598842647070638080","刘","170","Male","[""好我"",""好他"",""坏我"",""坏他""]","[""强我"",""强他"",""弱我"",""弱他""]","","","","","","","","yes","","","","","","","","","SRET","EW_formal","","key","f","16.652152542372615","768","428","朋友","变通","Positive","ability","","","","","","","","","","",""
"770","","j","psychophysics","76","341987","0.0-7.0-3.0-0.62","7","6","6","6","6","5","4","5","5","5","5","2","2","2","1","1","2","2","1","5","5","5","5","4","4","5","4","5","4","6","6","7","7","7","5","6","7","6","7","6","6","7","6","7","6","1","6","6","1","6","6","6","6","6","4","6","7","7","6","7","7","7","5","7","7","6","7","7","7","7","5","7","7","6","7","7","7","6","7","598842647070638080","刘","170","Male","[""好我"",""好他"",""坏我"",""坏他""]","[""强我"",""强他"",""弱我"",""弱他""]","","","","","","","","no","","","","","","","","","SRET","EW_formal","","key","j","16.651320754716785","768","428","朋友","废物","Negative","ability","","","","","","","","","","",""
"1037","","j","psychophysics","77","344025","0.0-7.0-3.0-0.63","7","6","6","6","6","5","4","5","5","5","5","2","2","2","1","1","2","2","1","5","5","5","5","4","4","5","4","5","4","6","6","7","7","7","5","6","7","6","7","6","6","7","6","7","6","1","6","6","1","6","6","6","6","6","4","6","7","7","6","7","7","7","5","7","7","6","7","7","7","7","5","7","7","6","7","7","7","6","7","598842647070638080","刘","170","Male","[""好我"",""好他"",""坏我"",""坏他""]","[""强我"",""强他"",""弱我"",""弱他""]","","","","","","","","no","","","","","","","","","SRET","EW_formal","","key","j","16.651487603305437","768","428","朋友","无知","Negative","ability","","","","","","","","","","",""
"775","","f","psychophysics","78","345801","0.0-7.0-3.0-0.64","7","6","6","6","6","5","4","5","5","5","5","2","2","2","1","1","2","2","1","5","5","5","5","4","4","5","4","5","4","6","6","7","7","7","5","6","7","6","7","6","6","7","6","7","6","1","6","6","1","6","6","6","6","6","4","6","7","7","6","7","7","7","5","7","7","6","7","7","7","7","5","7","7","6","7","7","7","6","7","598842647070638080","刘","170","Male","[""好我"",""好他"",""坏我"",""坏他""]","[""强我"",""强他"",""弱我"",""弱他""]","","","","","","","","yes","","","","","","","","","SRET","EW_formal","","key","f","16.64853773584901","768","428","自己","守信","Positive","morality","","","","","","","","","","",""
"734","","f","psychophysics","79","347537","0.0-7.0-3.0-0.65","7","6","6","6","6","5","4","5","5","5","5","2","2","2","1","1","2","2","1","5","5","5","5","4","4","5","4","5","4","6","6","7","7","7","5","6","7","6","7","6","6","7","6","7","6","1","6","6","1","6","6","6","6","6","4","6","7","7","6","7","7","7","5","7","7","6","7","7","7","7","5","7","7","6","7","7","7","6","7","598842647070638080","刘","170","Male","[""好我"",""好他"",""坏我"",""坏他""]","[""强我"",""强他"",""弱我"",""弱他""]","","","","","","","","yes","","","","","","","","","SRET","EW_formal","","key","f","16.645640776698926","768","428","朋友","周到","Positive","ability","","","","","","","","","","",""
"1014","","j","psychophysics","80","349553","0.0-7.0-3.0-0.66","7","6","6","6","6","5","4","5","5","5","5","2","2","2","1","1","2","2","1","5","5","5","5","4","4","5","4","5","4","6","6","7","7","7","5","6","7","6","7","6","6","7","6","7","6","1","6","6","1","6","6","6","6","6","4","6","7","7","6","7","7","7","5","7","7","6","7","7","7","7","5","7","7","6","7","7","7","6","7","598842647070638080","刘","170","Male","[""好我"",""好他"",""坏我"",""坏他""]","[""强我"",""强他"",""弱我"",""弱他""]","","","","","","","","no","","","","","","","","","SRET","EW_formal","","key","j","16.650908333333792","768","428","朋友","下流","Negative","morality","","","","","","","","","","",""
"799","","j","psychophysics","81","351353","0.0-7.0-3.0-0.67","7","6","6","6","6","5","4","5","5","5","5","2","2","2","1","1","2","2","1","5","5","5","5","4","4","5","4","5","4","6","6","7","7","7","5","6","7","6","7","6","6","7","6","7","6","1","6","6","1","6","6","6","6","6","4","6","7","7","6","7","7","7","5","7","7","6","7","7","7","7","5","7","7","6","7","7","7","6","7","598842647070638080","刘","170","Male","[""好我"",""好他"",""坏我"",""坏他""]","[""强我"",""强他"",""弱我"",""弱他""]","","","","","","","","no","","","","","","","","","SRET","EW_formal","","key","j","16.650514018691958","768","428","朋友","愚痴","Negative","ability","","","","","","","","","","",""
"830","","f","psychophysics","82","353185","0.0-7.0-3.0-0.68","7","6","6","6","6","5","4","5","5","5","5","2","2","2","1","1","2","2","1","5","5","5","5","4","4","5","4","5","4","6","6","7","7","7","5","6","7","6","7","6","6","7","6","7","6","1","6","6","1","6","6","6","6","6","4","6","7","7","6","7","7","7","5","7","7","6","7","7","7","7","5","7","7","6","7","7","7","6","7","598842647070638080","刘","170","Male","[""好我"",""好他"",""坏我"",""坏他""]","[""强我"",""强他"",""弱我"",""弱他""]","","","","","","","","yes","","","","","","","","","SRET","EW_formal","","key","f","16.64767889908265","768","428","自己","仗义","Positive","morality","","","","","","","","","","",""
"638","","f","psychophysics","83","354825","0.0-7.0-3.0-0.69","7","6","6","6","6","5","4","5","5","5","5","2","2","2","1","1","2","2","1","5","5","5","5","4","4","5","4","5","4","6","6","7","7","7","5","6","7","6","7","6","6","7","6","7","6","1","6","6","1","6","6","6","6","6","4","6","7","7","6","7","7","7","5","7","7","6","7","7","7","7","5","7","7","6","7","7","7","6","7","598842647070638080","刘","170","Male","[""好我"",""好他"",""坏我"",""坏他""]","[""强我"",""强他"",""弱我"",""弱他""]","","","","","","","","yes","","","","","","","","","SRET","EW_formal","","key","f","16.645928571428936","768","428","自己","善良","Positive","morality","","","","","","","","","","",""
"1126","","f","psychophysics","84","356953","0.0-7.0-3.0-0.70","7","6","6","6","6","5","4","5","5","5","5","2","2","2","1","1","2","2","1","5","5","5","5","4","4","5","4","5","4","6","6","7","7","7","5","6","7","6","7","6","6","7","6","7","6","1","6","6","1","6","6","6","6","6","4","6","7","7","6","7","7","7","5","7","7","6","7","7","7","7","5","7","7","6","7","7","7","6","7","598842647070638080","刘","170","Male","[""好我"",""好他"",""坏我"",""坏他""]","[""强我"",""强他"",""弱我"",""弱他""]","","","","","","","","yes","","","","","","","","","SRET","EW_formal","","key","f","16.651301587301692","768","428","朋友","干练","Positive","ability","","","","","","","","","","",""
"1064","","j","psychophysics","85","359019","0.0-7.0-3.0-0.71","7","6","6","6","6","5","4","5","5","5","5","2","2","2","1","1","2","2","1","5","5","5","5","4","4","5","4","5","4","6","6","7","7","7","5","6","7","6","7","6","6","7","6","7","6","1","6","6","1","6","6","6","6","6","4","6","7","7","6","7","7","7","5","7","7","6","7","7","7","7","5","7","7","6","7","7","7","6","7","598842647070638080","刘","170","Male","[""好我"",""好他"",""坏我"",""坏他""]","[""强我"",""强他"",""弱我"",""弱他""]","","","","","","","","no","","","","","","","","","SRET","EW_formal","","key","j","16.65382113821125","768","428","自己","小人","Negative","morality","","","","","","","","","","",""
"1015","","j","psychophysics","86","361034","0.0-7.0-3.0-0.72","7","6","6","6","6","5","4","5","5","5","5","2","2","2","1","1","2","2","1","5","5","5","5","4","4","5","4","5","4","6","6","7","7","7","5","6","7","6","7","6","6","7","6","7","6","1","6","6","1","6","6","6","6","6","4","6","7","7","6","7","7","7","5","7","7","6","7","7","7","7","5","7","7","6","7","7","7","6","7","598842647070638080","刘","170","Male","[""好我"",""好他"",""坏我"",""坏他""]","[""强我"",""强他"",""弱我"",""弱他""]","","","","","","","","no","","","","","","","","","SRET","EW_formal","","key","j","16.652716666666674","768","428","自己","伪善","Negative","morality","","","","","","","","","","",""
"774","","j","psychophysics","87","362810","0.0-7.0-3.0-0.73","7","6","6","6","6","5","4","5","5","5","5","2","2","2","1","1","2","2","1","5","5","5","5","4","4","5","4","5","4","6","6","7","7","7","5","6","7","6","7","6","6","7","6","7","6","1","6","6","1","6","6","6","6","6","4","6","7","7","6","7","7","7","5","7","7","6","7","7","7","7","5","7","7","6","7","7","7","6","7","598842647070638080","刘","170","Male","[""好我"",""好他"",""坏我"",""坏他""]","[""强我"",""强他"",""弱我"",""弱他""]","","","","","","","","no","","","","","","","","","SRET","EW_formal","","key","j","16.653141509434032","768","428","自己","淫乱","Negative","morality","","","","","","","","","","",""
"726","","f","psychophysics","88","364537","0.0-7.0-3.0-0.74","7","6","6","6","6","5","4","5","5","5","5","2","2","2","1","1","2","2","1","5","5","5","5","4","4","5","4","5","4","6","6","7","7","7","5","6","7","6","7","6","6","7","6","7","6","1","6","6","1","6","6","6","6","6","4","6","7","7","6","7","7","7","5","7","7","6","7","7","7","7","5","7","7","6","7","7","7","6","7","598842647070638080","刘","170","Male","[""好我"",""好他"",""坏我"",""坏他""]","[""强我"",""强他"",""弱我"",""弱他""]","","","","","","","","yes","","","","","","","","","SRET","EW_formal","","key","f","16.650194174757576","768","428","自己","精干","Positive","ability","","","","","","","","","","",""
"821","","j","psychophysics","89","366361","0.0-7.0-3.0-0.75","7","6","6","6","6","5","4","5","5","5","5","2","2","2","1","1","2","2","1","5","5","5","5","4","4","5","4","5","4","6","6","7","7","7","5","6","7","6","7","6","6","7","6","7","6","1","6","6","1","6","6","6","6","6","4","6","7","7","6","7","7","7","5","7","7","6","7","7","7","7","5","7","7","6","7","7","7","6","7","598842647070638080","刘","170","Male","[""好我"",""好他"",""坏我"",""坏他""]","[""强我"",""强他"",""弱我"",""弱他""]","","","","","","","","no","","","","","","","","","SRET","EW_formal","","key","j","16.651240740741034","768","428","朋友","蛇蝎","Negative","morality","","","","","","","","","","",""
"1142","","f","psychophysics","90","368505","0.0-7.0-3.0-0.76","7","6","6","6","6","5","4","5","5","5","5","2","2","2","1","1","2","2","1","5","5","5","5","4","4","5","4","5","4","6","6","7","7","7","5","6","7","6","7","6","6","7","6","7","6","1","6","6","1","6","6","6","6","6","4","6","7","7","6","7","7","7","5","7","7","6","7","7","7","7","5","7","7","6","7","7","7","6","7","598842647070638080","刘","170","Male","[""好我"",""好他"",""坏我"",""坏他""]","[""强我"",""强他"",""弱我"",""弱他""]","","","","","","","","yes","","","","","","","","","SRET","EW_formal","","key","f","16.65099218750038","768","428","自己","稳健","Positive","ability","","","","","","","","","","",""
"943","","f","psychophysics","91","370449","0.0-7.0-3.0-0.77","7","6","6","6","6","5","4","5","5","5","5","2","2","2","1","1","2","2","1","5","5","5","5","4","4","5","4","5","4","6","6","7","7","7","5","6","7","6","7","6","6","7","6","7","6","1","6","6","1","6","6","6","6","6","4","6","7","7","6","7","7","7","5","7","7","6","7","7","7","7","5","7","7","6","7","7","7","6","7","598842647070638080","刘","170","Male","[""好我"",""好他"",""坏我"",""坏他""]","[""强我"",""强他"",""弱我"",""弱他""]","","","","","","","","yes","","","","","","","","","SRET","EW_formal","","key","f","16.651077586206597","768","428","自己","懂行","Positive","ability","","","","","","","","","","",""
"1023","","f","psychophysics","92","372473","0.0-7.0-3.0-0.78","7","6","6","6","6","5","4","5","5","5","5","2","2","2","1","1","2","2","1","5","5","5","5","4","4","5","4","5","4","6","6","7","7","7","5","6","7","6","7","6","6","7","6","7","6","1","6","6","1","6","6","6","6","6","4","6","7","7","6","7","7","7","5","7","7","6","7","7","7","7","5","7","7","6","7","7","7","6","7","598842647070638080","刘","170","Male","[""好我"",""好他"",""坏我"",""坏他""]","[""强我"",""强他"",""弱我"",""弱他""]","","","","","","","","yes","","","","","","","","","SRET","EW_formal","","key","f","16.649525000000235","768","428","朋友","好心","Positive","morality","","","","","","","","","","",""
"743","","j","psychophysics","93","374217","0.0-7.0-3.0-0.79","7","6","6","6","6","5","4","5","5","5","5","2","2","2","1","1","2","2","1","5","5","5","5","4","4","5","4","5","4","6","6","7","7","7","5","6","7","6","7","6","6","7","6","7","6","1","6","6","1","6","6","6","6","6","4","6","7","7","6","7","7","7","5","7","7","6","7","7","7","7","5","7","7","6","7","7","7","6","7","598842647070638080","刘","170","Male","[""好我"",""好他"",""坏我"",""坏他""]","[""强我"",""强他"",""弱我"",""弱他""]","","","","","","","","no","","","","","","","","","SRET","EW_formal","","key","j","16.65148076923092","768","428","自己","奸诈","Negative","morality","","","","","","","","","","",""
"894","","j","psychophysics","94","376113","0.0-7.0-3.0-0.80","7","6","6","6","6","5","4","5","5","5","5","2","2","2","1","1","2","2","1","5","5","5","5","4","4","5","4","5","4","6","6","7","7","7","5","6","7","6","7","6","6","7","6","7","6","1","6","6","1","6","6","6","6","6","4","6","7","7","6","7","7","7","5","7","7","6","7","7","7","7","5","7","7","6","7","7","7","6","7","598842647070638080","刘","170","Male","[""好我"",""好他"",""坏我"",""坏他""]","[""强我"",""强他"",""弱我"",""弱他""]","","","","","","","","no","","","","","","","","","SRET","EW_formal","","key","j","16.650300884955723","768","428","朋友","自私","Negative","morality","","","","","","","","","","",""
"911","","f","psychophysics","95","378025","0.0-7.0-3.0-0.81","7","6","6","6","6","5","4","5","5","5","5","2","2","2","1","1","2","2","1","5","5","5","5","4","4","5","4","5","4","6","6","7","7","7","5","6","7","6","7","6","6","7","6","7","6","1","6","6","1","6","6","6","6","6","4","6","7","7","6","7","7","7","5","7","7","6","7","7","7","7","5","7","7","6","7","7","7","6","7","598842647070638080","刘","170","Male","[""好我"",""好他"",""坏我"",""坏他""]","[""强我"",""强他"",""弱我"",""弱他""]","","","","","","","","yes","","","","","","","","","SRET","EW_formal","","key","f","16.651456140350906","768","428","自己","廉正","Positive","morality","","","","","","","","","","",""
"894","","j","psychophysics","96","379921","0.0-7.0-3.0-0.82","7","6","6","6","6","5","4","5","5","5","5","2","2","2","1","1","2","2","1","5","5","5","5","4","4","5","4","5","4","6","6","7","7","7","5","6","7","6","7","6","6","7","6","7","6","1","6","6","1","6","6","6","6","6","4","6","7","7","6","7","7","7","5","7","7","6","7","7","7","7","5","7","7","6","7","7","7","6","7","598842647070638080","刘","170","Male","[""好我"",""好他"",""坏我"",""坏他""]","[""强我"",""强他"",""弱我"",""弱他""]","","","","","","","","no","","","","","","","","","SRET","EW_formal","","key","j","16.65198230088495","768","428","朋友","不端","Negative","morality","","","","","","","","","","",""
"806","","j","psychophysics","97","381729","0.0-7.0-3.0-0.83","7","6","6","6","6","5","4","5","5","5","5","2","2","2","1","1","2","2","1","5","5","5","5","4","4","5","4","5","4","6","6","7","7","7","5","6","7","6","7","6","6","7","6","7","6","1","6","6","1","6","6","6","6","6","4","6","7","7","6","7","7","7","5","7","7","6","7","7","7","7","5","7","7","6","7","7","7","6","7","598842647070638080","刘","170","Male","[""好我"",""好他"",""坏我"",""坏他""]","[""强我"",""强他"",""弱我"",""弱他""]","","","","","","","","no","","","","","","","","","SRET","EW_formal","","key","j","16.650542056074837","768","428","自己","拙笨","Negative","ability","","","","","","","","","","",""
"742","","f","psychophysics","98","383473","0.0-7.0-3.0-0.84","7","6","6","6","6","5","4","5","5","5","5","2","2","2","1","1","2","2","1","5","5","5","5","4","4","5","4","5","4","6","6","7","7","7","5","6","7","6","7","6","6","7","6","7","6","1","6","6","1","6","6","6","6","6","4","6","7","7","6","7","7","7","5","7","7","6","7","7","7","7","5","7","7","6","7","7","7","6","7","598842647070638080","刘","170","Male","[""好我"",""好他"",""坏我"",""坏他""]","[""强我"",""强他"",""弱我"",""弱他""]","","","","","","","","yes","","","","","","","","","SRET","EW_formal","","key","f","16.651307692307455","768","428","自己","主见","Positive","ability","","","","","","","","","","",""
"815","","f","psychophysics","99","385289","0.0-7.0-3.0-0.85","7","6","6","6","6","5","4","5","5","5","5","2","2","2","1","1","2","2","1","5","5","5","5","4","4","5","4","5","4","6","6","7","7","7","5","6","7","6","7","6","6","7","6","7","6","1","6","6","1","6","6","6","6","6","4","6","7","7","6","7","7","7","5","7","7","6","7","7","7","7","5","7","7","6","7","7","7","6","7","598842647070638080","刘","170","Male","[""好我"",""好他"",""坏我"",""坏他""]","[""强我"",""强他"",""弱我"",""弱他""]","","","","","","","","yes","","","","","","","","","SRET","EW_formal","","key","f","16.651888888888706","768","428","朋友","素养","Positive","morality","","","","","","","","","","",""
"686","","j","psychophysics","100","386977","0.0-7.0-3.0-0.86","7","6","6","6","6","5","4","5","5","5","5","2","2","2","1","1","2","2","1","5","5","5","5","4","4","5","4","5","4","6","6","7","7","7","5","6","7","6","7","6","6","7","6","7","6","1","6","6","1","6","6","6","6","6","4","6","7","7","6","7","7","7","5","7","7","6","7","7","7","7","5","7","7","6","7","7","7","6","7","598842647070638080","刘","170","Male","[""好我"",""好他"",""坏我"",""坏他""]","[""强我"",""强他"",""弱我"",""弱他""]","","","","","","","","no","","","","","","","","","SRET","EW_formal","","key","j","16.650200000000186","768","428","朋友","低俗","Negative","morality","","","","","","","","","","",""
"767","","j","psychophysics","101","388745","0.0-7.0-3.0-0.87","7","6","6","6","6","5","4","5","5","5","5","2","2","2","1","1","2","2","1","5","5","5","5","4","4","5","4","5","4","6","6","7","7","7","5","6","7","6","7","6","6","7","6","7","6","1","6","6","1","6","6","6","6","6","4","6","7","7","6","7","7","7","5","7","7","6","7","7","7","7","5","7","7","6","7","7","7","6","7","598842647070638080","刘","170","Male","[""好我"",""好他"",""坏我"",""坏他""]","[""强我"",""强他"",""弱我"",""弱他""]","","","","","","","","no","","","","","","","","","SRET","EW_formal","","key","j","16.651688679245538","768","428","自己","缓慢","Negative","ability","","","","","","","","","","",""
"6472","
    <p><div style='color:white;font-size:35px; line-height:20px;'>计算任务</div></p><br>
    <p><div style='color:red;font-size:25px; line-height:20px;'>接下来，您将看到一些四则运算题，<b>请从键盘选择 0-9 进行反应。</b></div></p>
    <p><div style='color:red;font-size:25px; line-height:20px;'>请尽可能快地进行计算，计算的速度和正确率将影响报酬的发放。</div></p>
    <p><div class='footer' style='color:white;font-size:25px; line-height:20px;'>如果对本实验还有不清楚之处，请立即向实验员咨询。</p><p style='color:white;font-size:25px; line-height:20px;'>如果您明白了规则：</p><p style='color:white;font-size:22px; line-height:20px;'>请按 继续 进入练习</p>
    </div>
    ","0","html-button-response","102","395217","0.0-7.0-4.0","7","6","6","6","6","5","4","5","5","5","5","2","2","2","1","1","2","2","1","5","5","5","5","4","4","5","4","5","4","6","6","7","7","7","5","6","7","6","7","6","6","7","6","7","6","1","6","6","1","6","6","6","6","6","4","6","7","7","6","7","7","7","5","7","7","6","7","7","7","7","5","7","7","6","7","7","7","6","7","598842647070638080","刘","170","Male","[""好我"",""好他"",""坏我"",""坏他""]","[""强我"",""强他"",""弱我"",""弱他""]","","","","","","","","","","","","","","","","","SRET_math","math_instructions","Tue Dec 19 2023 16:00:05 GMT+0800 (中国标准时间)","","","","","","","","","","","","","","","","","","","",""
"1767","","3","psychophysics","103","396985","0.0-7.0-5.0-0.0","7","6","6","6","6","5","4","5","5","5","5","2","2","2","1","1","2","2","1","5","5","5","5","4","4","5","4","5","4","6","6","7","7","7","5","6","7","6","7","6","6","7","6","7","6","1","6","6","1","6","6","6","6","6","4","6","7","7","6","7","7","7","5","7","7","6","7","7","7","7","5","7","7","6","7","7","7","6","7","598842647070638080","刘","170","Male","[""好我"",""好他"",""坏我"",""坏他""]","[""强我"",""强他"",""弱我"",""弱他""]","","","","","","","","3","","","","","","","","","SRET","SRET_math_calculate","","key","3","16.655742857142883","768","428","","","","","3+0= ?","3","1","","","","","","","",""
"1806","","8","psychophysics","104","398793","0.0-7.0-5.0-0.1","7","6","6","6","6","5","4","5","5","5","5","2","2","2","1","1","2","2","1","5","5","5","5","4","4","5","4","5","4","6","6","7","7","7","5","6","7","6","7","6","6","7","6","7","6","1","6","6","1","6","6","6","6","6","4","6","7","7","6","7","7","7","5","7","7","6","7","7","7","7","5","7","7","6","7","7","7","6","7","598842647070638080","刘","170","Male","[""好我"",""好他"",""坏我"",""坏他""]","[""强我"",""强他"",""弱我"",""弱他""]","","","","","","","","8","","","","","","","","","SRET","SRET_math_calculate","","key","8","16.650490740740445","768","428","","","","","8*1= ?","8","1","","","","","","","",""
"1703","","8","psychophysics","105","400497","0.0-7.0-5.0-0.2","7","6","6","6","6","5","4","5","5","5","5","2","2","2","1","1","2","2","1","5","5","5","5","4","4","5","4","5","4","6","6","7","7","7","5","6","7","6","7","6","6","7","6","7","6","1","6","6","1","6","6","6","6","6","4","6","7","7","6","7","7","7","5","7","7","6","7","7","7","7","5","7","7","6","7","7","7","6","7","598842647070638080","刘","170","Male","[""好我"",""好他"",""坏我"",""坏他""]","[""强我"",""强他"",""弱我"",""弱他""]","","","","","","","","8","","","","","","","","","SRET","SRET_math_calculate","","key","8","16.651930693069605","768","428","","","","","2*4= ?","8","1","","","","","","","",""
"1840","","7","psychophysics","106","402338","0.0-7.0-5.0-0.3","7","6","6","6","6","5","4","5","5","5","5","2","2","2","1","1","2","2","1","5","5","5","5","4","4","5","4","5","4","6","6","7","7","7","5","6","7","6","7","6","6","7","6","7","6","1","6","6","1","6","6","6","6","6","4","6","7","7","6","7","7","7","5","7","7","6","7","7","7","7","5","7","7","6","7","7","7","6","7","598842647070638080","刘","170","Male","[""好我"",""好他"",""坏我"",""坏他""]","[""强我"",""强他"",""弱我"",""弱他""]","","","","","","","","7","","","","","","","","","SRET","SRET_math_calculate","","key","7","16.652154545454753","768","428","","","","","9-2= ?","7","1","","","","","","","",""
"1884","","4","psychophysics","107","404225","0.0-7.0-5.0-0.4","7","6","6","6","6","5","4","5","5","5","5","2","2","2","1","1","2","2","1","5","5","5","5","4","4","5","4","5","4","6","6","7","7","7","5","6","7","6","7","6","6","7","6","7","6","1","6","6","1","6","6","6","6","6","4","6","7","7","6","7","7","7","5","7","7","6","7","7","7","7","5","7","7","6","7","7","7","6","7","598842647070638080","刘","170","Male","[""好我"",""好他"",""坏我"",""坏他""]","[""强我"",""强他"",""弱我"",""弱他""]","","","","","","","","4","","","","","","","","","SRET","SRET_math_calculate","","key","4","16.65140178571424","768","428","","","","","20/5= ?","4","1","","","","","","","",""
"1815","","1","psychophysics","108","406041","0.0-7.0-5.0-0.5","7","6","6","6","6","5","4","5","5","5","5","2","2","2","1","1","2","2","1","5","5","5","5","4","4","5","4","5","4","6","6","7","7","7","5","6","7","6","7","6","6","7","6","7","6","1","6","6","1","6","6","6","6","6","4","6","7","7","6","7","7","7","5","7","7","6","7","7","7","7","5","7","7","6","7","7","7","6","7","598842647070638080","刘","170","Male","[""好我"",""好他"",""坏我"",""坏他""]","[""强我"",""强他"",""弱我"",""弱他""]","","","","","","","","1","","","","","","","","","SRET","SRET_math_calculate","","key","1","16.651212962963015","768","428","","","","","9-8= ?","1","1","","","","","","","",""
"2991","","8","psychophysics","109","409033","0.0-7.0-5.0-0.6","7","6","6","6","6","5","4","5","5","5","5","2","2","2","1","1","2","2","1","5","5","5","5","4","4","5","4","5","4","6","6","7","7","7","5","6","7","6","7","6","6","7","6","7","6","1","6","6","1","6","6","6","6","6","4","6","7","7","6","7","7","7","5","7","7","6","7","7","7","7","5","7","7","6","7","7","7","6","7","598842647070638080","刘","170","Male","[""好我"",""好他"",""坏我"",""坏他""]","[""强我"",""强他"",""弱我"",""弱他""]","","","","","","","","8","","","","","","","","","SRET","SRET_math_calculate","","key","8","16.651217877094805","768","428","","","","","11-3= ?","8","1","","","","","","","",""
"1768","","9","psychophysics","110","410802","0.0-7.0-5.0-0.7","7","6","6","6","6","5","4","5","5","5","5","2","2","2","1","1","2","2","1","5","5","5","5","4","4","5","4","5","4","6","6","7","7","7","5","6","7","6","7","6","6","7","6","7","6","1","6","6","1","6","6","6","6","6","4","6","7","7","6","7","7","7","5","7","7","6","7","7","7","7","5","7","7","6","7","7","7","6","7","598842647070638080","刘","170","Male","[""好我"",""好他"",""坏我"",""坏他""]","[""强我"",""强他"",""弱我"",""弱他""]","","","","","","","","9","","","","","","","","","SRET","SRET_math_calculate","","key","9","16.654504761904743","768","428","","","","","1+8= ?","9","1","","","","","","","",""
"2806","","9","psychophysics","111","413609","0.0-7.0-5.0-0.8","7","6","6","6","6","5","4","5","5","5","5","2","2","2","1","1","2","2","1","5","5","5","5","4","4","5","4","5","4","6","6","7","7","7","5","6","7","6","7","6","6","7","6","7","6","1","6","6","1","6","6","6","6","6","4","6","7","7","6","7","7","7","5","7","7","6","7","7","7","7","5","7","7","6","7","7","7","6","7","598842647070638080","刘","170","Male","[""好我"",""好他"",""坏我"",""坏他""]","[""强我"",""强他"",""弱我"",""弱他""]","","","","","","","","9","","","","","","","","","SRET","SRET_math_calculate","","key","9","16.65369047619052","768","428","","","","","32-23= ?","9","1","","","","","","","",""
"1719","","8","psychophysics","112","415329","0.0-7.0-5.0-0.9","7","6","6","6","6","5","4","5","5","5","5","2","2","2","1","1","2","2","1","5","5","5","5","4","4","5","4","5","4","6","6","7","7","7","5","6","7","6","7","6","6","7","6","7","6","1","6","6","1","6","6","6","6","6","4","6","7","7","6","7","7","7","5","7","7","6","7","7","7","7","5","7","7","6","7","7","7","6","7","598842647070638080","刘","170","Male","[""好我"",""好他"",""坏我"",""坏他""]","[""强我"",""强他"",""弱我"",""弱他""]","","","","","","","","8","","","","","","","","","SRET","SRET_math_calculate","","key","8","16.649235294117734","768","428","","","","","5+3= ?","8","1","","","","","","","",""
"2727","","7","psychophysics","113","418057","0.0-7.0-5.0-0.10","7","6","6","6","6","5","4","5","5","5","5","2","2","2","1","1","2","2","1","5","5","5","5","4","4","5","4","5","4","6","6","7","7","7","5","6","7","6","7","6","6","7","6","7","6","1","6","6","1","6","6","6","6","6","4","6","7","7","6","7","7","7","5","7","7","6","7","7","7","7","5","7","7","6","7","7","7","6","7","598842647070638080","刘","170","Male","[""好我"",""好他"",""坏我"",""坏他""]","[""强我"",""强他"",""弱我"",""弱他""]","","","","","","","","7","","","","","","","","","SRET","SRET_math_calculate","","key","7","16.647944785276373","768","428","","","","","11-4= ?","7","1","","","","","","","",""
"1672","","8","psychophysics","114","419729","0.0-7.0-5.0-0.11","7","6","6","6","6","5","4","5","5","5","5","2","2","2","1","1","2","2","1","5","5","5","5","4","4","5","4","5","4","6","6","7","7","7","5","6","7","6","7","6","6","7","6","7","6","1","6","6","1","6","6","6","6","6","4","6","7","7","6","7","7","7","5","7","7","6","7","7","7","7","5","7","7","6","7","7","7","6","7","598842647070638080","刘","170","Male","[""好我"",""好他"",""坏我"",""坏他""]","[""强我"",""强他"",""弱我"",""弱他""]","","","","","","","","8","","","","","","","","","SRET","SRET_math_calculate","","key","8","16.653676767676547","768","428","","","","","6+2= ?","8","1","","","","","","","",""
"1975","","4","psychophysics","115","421705","0.0-7.0-5.0-0.12","7","6","6","6","6","5","4","5","5","5","5","2","2","2","1","1","2","2","1","5","5","5","5","4","4","5","4","5","4","6","6","7","7","7","5","6","7","6","7","6","6","7","6","7","6","1","6","6","1","6","6","6","6","6","4","6","7","7","6","7","7","7","5","7","7","6","7","7","7","7","5","7","7","6","7","7","7","6","7","598842647070638080","刘","170","Male","[""好我"",""好他"",""坏我"",""坏他""]","[""强我"",""强他"",""弱我"",""弱他""]","","","","","","","","4","","","","","","","","","SRET","SRET_math_calculate","","key","4","16.65538983050856","768","428","","","","","13-9= ?","4","1","","","","","","","",""
"1807","","5","psychophysics","116","423513","0.0-7.0-5.0-0.13","7","6","6","6","6","5","4","5","5","5","5","2","2","2","1","1","2","2","1","5","5","5","5","4","4","5","4","5","4","6","6","7","7","7","5","6","7","6","7","6","6","7","6","7","6","1","6","6","1","6","6","6","6","6","4","6","7","7","6","7","7","7","5","7","7","6","7","7","7","7","5","7","7","6","7","7","7","6","7","598842647070638080","刘","170","Male","[""好我"",""好他"",""坏我"",""坏他""]","[""强我"",""强他"",""弱我"",""弱他""]","","","","","","","","5","","","","","","","","","SRET","SRET_math_calculate","","key","5","16.650981481481317","768","428","","","","","3+2= ?","5","1","","","","","","","",""
"1767","","7","psychophysics","117","425281","0.0-7.0-5.0-0.14","7","6","6","6","6","5","4","5","5","5","5","2","2","2","1","1","2","2","1","5","5","5","5","4","4","5","4","5","4","6","6","7","7","7","5","6","7","6","7","6","6","7","6","7","6","1","6","6","1","6","6","6","6","6","4","6","7","7","6","7","7","7","5","7","7","6","7","7","7","7","5","7","7","6","7","7","7","6","7","598842647070638080","刘","170","Male","[""好我"",""好他"",""坏我"",""坏他""]","[""强我"",""强他"",""弱我"",""弱他""]","","","","","","","","7","","","","","","","","","SRET","SRET_math_calculate","","key","7","16.65018095238123","768","428","","","","","4+3= ?","7","1","","","","","","","",""
"2072","","0","psychophysics","118","427353","0.0-7.0-5.0-0.15","7","6","6","6","6","5","4","5","5","5","5","2","2","2","1","1","2","2","1","5","5","5","5","4","4","5","4","5","4","6","6","7","7","7","5","6","7","6","7","6","6","7","6","7","6","1","6","6","1","6","6","6","6","6","4","6","7","7","6","7","7","7","5","7","7","6","7","7","7","7","5","7","7","6","7","7","7","6","7","598842647070638080","刘","170","Male","[""好我"",""好他"",""坏我"",""坏他""]","[""强我"",""强他"",""弱我"",""弱他""]","","","","","","","","0","","","","","","","","","SRET","SRET_math_calculate","","key","0","16.652154471544925","768","428","","","","","6*0= ?","0","1","","","","","","","",""
"1591","","5","psychophysics","119","428945","0.0-7.0-5.0-0.16","7","6","6","6","6","5","4","5","5","5","5","2","2","2","1","1","2","2","1","5","5","5","5","4","4","5","4","5","4","6","6","7","7","7","5","6","7","6","7","6","6","7","6","7","6","1","6","6","1","6","6","6","6","6","4","6","7","7","6","7","7","7","5","7","7","6","7","7","7","7","5","7","7","6","7","7","7","6","7","598842647070638080","刘","170","Male","[""好我"",""好他"",""坏我"",""坏他""]","[""强我"",""强他"",""弱我"",""弱他""]","","","","","","","","5","","","","","","","","","SRET","SRET_math_calculate","","key","5","16.655315789473732","768","428","","","","","10-5= ?","5","1","","","","","","","",""
"1687","","8","psychophysics","120","430633","0.0-7.0-5.0-0.17","7","6","6","6","6","5","4","5","5","5","5","2","2","2","1","1","2","2","1","5","5","5","5","4","4","5","4","5","4","6","6","7","7","7","5","6","7","6","7","6","6","7","6","7","6","1","6","6","1","6","6","6","6","6","4","6","7","7","6","7","7","7","5","7","7","6","7","7","7","7","5","7","7","6","7","7","7","6","7","598842647070638080","刘","170","Male","[""好我"",""好他"",""坏我"",""坏他""]","[""强我"",""强他"",""弱我"",""弱他""]","","","","","","","","8","","","","","","","","","SRET","SRET_math_calculate","","key","8","16.654959999999846","768","428","","","","","1*8= ?","8","1","","","","","","","",""
"2072","","2","psychophysics","121","432705","0.0-7.0-5.0-0.18","7","6","6","6","6","5","4","5","5","5","5","2","2","2","1","1","2","2","1","5","5","5","5","4","4","5","4","5","4","6","6","7","7","7","5","6","7","6","7","6","6","7","6","7","6","1","6","6","1","6","6","6","6","6","4","6","7","7","6","7","7","7","5","7","7","6","7","7","7","7","5","7","7","6","7","7","7","6","7","598842647070638080","刘","170","Male","[""好我"",""好他"",""坏我"",""坏他""]","[""强我"",""强他"",""弱我"",""弱他""]","","","","","","","","2","","","","","","","","","SRET","SRET_math_calculate","","key","2","16.650645161290267","768","428","","","","","90/45= ?","2","1","","","","","","","",""
"3143","","9","psychophysics","122","435849","0.0-7.0-5.0-0.19","7","6","6","6","6","5","4","5","5","5","5","2","2","2","1","1","2","2","1","5","5","5","5","4","4","5","4","5","4","6","6","7","7","7","5","6","7","6","7","6","6","7","6","7","6","1","6","6","1","6","6","6","6","6","4","6","7","7","6","7","7","7","5","7","7","6","7","7","7","7","5","7","7","6","7","7","7","6","7","598842647070638080","刘","170","Male","[""好我"",""好他"",""坏我"",""坏他""]","[""强我"",""强他"",""弱我"",""弱他""]","","","","","","","","9","","","","","","","","","SRET","SRET_math_calculate","","key","9","16.651032085561585","768","428","","","","","43-34= ?","9","1","","","","","","","",""
"2598","","8","psychophysics","123","438449","0.0-7.0-5.0-0.20","7","6","6","6","6","5","4","5","5","5","5","2","2","2","1","1","2","2","1","5","5","5","5","4","4","5","4","5","4","6","6","7","7","7","5","6","7","6","7","6","6","7","6","7","6","1","6","6","1","6","6","6","6","6","4","6","7","7","6","7","7","7","5","7","7","6","7","7","7","7","5","7","7","6","7","7","7","6","7","598842647070638080","刘","170","Male","[""好我"",""好他"",""坏我"",""坏他""]","[""强我"",""强他"",""弱我"",""弱他""]","","","","","","","","8","","","","","","","","","SRET","SRET_math_calculate","","key","8","16.651666666666504","768","428","","","","","56/7= ?","8","1","","","","","","","",""
"2071","","2","psychophysics","124","440521","0.0-7.0-5.0-0.21","7","6","6","6","6","5","4","5","5","5","5","2","2","2","1","1","2","2","1","5","5","5","5","4","4","5","4","5","4","6","6","7","7","7","5","6","7","6","7","6","6","7","6","7","6","1","6","6","1","6","6","6","6","6","4","6","7","7","6","7","7","7","5","7","7","6","7","7","7","7","5","7","7","6","7","7","7","6","7","598842647070638080","刘","170","Male","[""好我"",""好他"",""坏我"",""坏他""]","[""强我"",""强他"",""弱我"",""弱他""]","","","","","","","","2","","","","","","","","","SRET","SRET_math_calculate","","key","2","16.649634146341217","768","428","","","","","18/9= ?","2","1","","","","","","","",""
"1763","","9","psychophysics","125","442284","0.0-7.0-5.0-0.22","7","6","6","6","6","5","4","5","5","5","5","2","2","2","1","1","2","2","1","5","5","5","5","4","4","5","4","5","4","6","6","7","7","7","5","6","7","6","7","6","6","7","6","7","6","1","6","6","1","6","6","6","6","6","4","6","7","7","6","7","7","7","5","7","7","6","7","7","7","7","5","7","7","6","7","7","7","6","7","598842647070638080","刘","170","Male","[""好我"",""好他"",""坏我"",""坏他""]","[""强我"",""强他"",""弱我"",""弱他""]","","","","","","","","9","","","","","","","","","SRET","SRET_math_calculate","","key","9","16.653409523809596","768","428","","","","","8+1= ?","9","1","","","","","","","",""
"1700","","8","psychophysics","126","443985","0.0-7.0-5.0-0.23","7","6","6","6","6","5","4","5","5","5","5","2","2","2","1","1","2","2","1","5","5","5","5","4","4","5","4","5","4","6","6","7","7","7","5","6","7","6","7","6","6","7","6","7","6","1","6","6","1","6","6","6","6","6","4","6","7","7","6","7","7","7","5","7","7","6","7","7","7","7","5","7","7","6","7","7","7","6","7","598842647070638080","刘","170","Male","[""好我"",""好他"",""坏我"",""坏他""]","[""强我"",""强他"",""弱我"",""弱他""]","","","","","","","","8","","","","","","","","","SRET","SRET_math_calculate","","key","8","16.644702970296937","768","428","","","","","2+6= ?","8","1","","","","","","","",""
"1679","","7","psychophysics","127","445665","0.0-7.0-5.0-0.24","7","6","6","6","6","5","4","5","5","5","5","2","2","2","1","1","2","2","1","5","5","5","5","4","4","5","4","5","4","6","6","7","7","7","5","6","7","6","7","6","6","7","6","7","6","1","6","6","1","6","6","6","6","6","4","6","7","7","6","7","7","7","5","7","7","6","7","7","7","7","5","7","7","6","7","7","7","6","7","598842647070638080","刘","170","Male","[""好我"",""好他"",""坏我"",""坏他""]","[""强我"",""强他"",""弱我"",""弱他""]","","","","","","","","7","","","","","","","","","SRET","SRET_math_calculate","","key","7","16.651059999999706","768","428","","","","","1+6= ?","7","1","","","","","","","",""
"1951","","6","psychophysics","128","447617","0.0-7.0-5.0-0.25","7","6","6","6","6","5","4","5","5","5","5","2","2","2","1","1","2","2","1","5","5","5","5","4","4","5","4","5","4","6","6","7","7","7","5","6","7","6","7","6","6","7","6","7","6","1","6","6","1","6","6","6","6","6","4","6","7","7","6","7","7","7","5","7","7","6","7","7","7","7","5","7","7","6","7","7","7","6","7","598842647070638080","刘","170","Male","[""好我"",""好他"",""坏我"",""坏他""]","[""强我"",""强他"",""弱我"",""弱他""]","","","","","","","","6","","","","","","","","","SRET","SRET_math_calculate","","key","6","16.6535344827586","768","428","","","","","4+2= ?","6","1","","","","","","","",""
"1936","","2","psychophysics","129","449553","0.0-7.0-5.0-0.26","7","6","6","6","6","5","4","5","5","5","5","2","2","2","1","1","2","2","1","5","5","5","5","4","4","5","4","5","4","6","6","7","7","7","5","6","7","6","7","6","6","7","6","7","6","1","6","6","1","6","6","6","6","6","4","6","7","7","6","7","7","7","5","7","7","6","7","7","7","7","5","7","7","6","7","7","7","6","7","598842647070638080","刘","170","Male","[""好我"",""好他"",""坏我"",""坏他""]","[""强我"",""强他"",""弱我"",""弱他""]","","","","","","","","2","","","","","","","","","SRET","SRET_math_calculate","","key","2","16.65139130434811","768","428","","","","","5-3= ?","2","1","","","","","","","",""
"1998","","9","psychophysics","130","451553","0.0-7.0-5.0-0.27","7","6","6","6","6","5","4","5","5","5","5","2","2","2","1","1","2","2","1","5","5","5","5","4","4","5","4","5","4","6","6","7","7","7","5","6","7","6","7","6","6","7","6","7","6","1","6","6","1","6","6","6","6","6","4","6","7","7","6","7","7","7","5","7","7","6","7","7","7","7","5","7","7","6","7","7","7","6","7","598842647070638080","刘","170","Male","[""好我"",""好他"",""坏我"",""坏他""]","[""强我"",""强他"",""弱我"",""弱他""]","","","","","","","","9","","","","","","","","","SRET","SRET_math_calculate","","key","9","16.652291666666862","768","428","","","","","3*3= ?","9","1","","","","","","","",""
"1799","","7","psychophysics","131","453353","0.0-7.0-5.0-0.28","7","6","6","6","6","5","4","5","5","5","5","2","2","2","1","1","2","2","1","5","5","5","5","4","4","5","4","5","4","6","6","7","7","7","5","6","7","6","7","6","6","7","6","7","6","1","6","6","1","6","6","6","6","6","4","6","7","7","6","7","7","7","5","7","7","6","7","7","7","7","5","7","7","6","7","7","7","6","7","598842647070638080","刘","170","Male","[""好我"",""好他"",""坏我"",""坏他""]","[""强我"",""强他"",""弱我"",""弱他""]","","","","","","","","7","","","","","","","","","SRET","SRET_math_calculate","","key","7","16.65094392523376","768","428","","","","","3+4= ?","7","1","","","","","","","",""
"1839","","2","psychophysics","132","455193","0.0-7.0-5.0-0.29","7","6","6","6","6","5","4","5","5","5","5","2","2","2","1","1","2","2","1","5","5","5","5","4","4","5","4","5","4","6","6","7","7","7","5","6","7","6","7","6","6","7","6","7","6","1","6","6","1","6","6","6","6","6","4","6","7","7","6","7","7","7","5","7","7","6","7","7","7","7","5","7","7","6","7","7","7","6","7","598842647070638080","刘","170","Male","[""好我"",""好他"",""坏我"",""坏他""]","[""强我"",""强他"",""弱我"",""弱他""]","","","","","","","","2","","","","","","","","","SRET","SRET_math_calculate","","key","2","16.653266055045922","768","428","","","","","8/4= ?","2","1","","","","","","","",""
"1792","","5","psychophysics","133","456985","0.0-7.0-5.0-0.30","7","6","6","6","6","5","4","5","5","5","5","2","2","2","1","1","2","2","1","5","5","5","5","4","4","5","4","5","4","6","6","7","7","7","5","6","7","6","7","6","6","7","6","7","6","1","6","6","1","6","6","6","6","6","4","6","7","7","6","7","7","7","5","7","7","6","7","7","7","7","5","7","7","6","7","7","7","6","7","598842647070638080","刘","170","Male","[""好我"",""好他"",""坏我"",""坏他""]","[""强我"",""强他"",""弱我"",""弱他""]","","","","","","","","5","","","","","","","","","SRET","SRET_math_calculate","","key","5","16.653878504672594","768","428","","","","","16-11= ?","5","1","","","","","","","",""
"1863","","2","psychophysics","134","458849","0.0-7.0-5.0-0.31","7","6","6","6","6","5","4","5","5","5","5","2","2","2","1","1","2","2","1","5","5","5","5","4","4","5","4","5","4","6","6","7","7","7","5","6","7","6","7","6","6","7","6","7","6","1","6","6","1","6","6","6","6","6","4","6","7","7","6","7","7","7","5","7","7","6","7","7","7","7","5","7","7","6","7","7","7","6","7","598842647070638080","刘","170","Male","[""好我"",""好他"",""坏我"",""坏他""]","[""强我"",""强他"",""弱我"",""弱他""]","","","","","","","","2","","","","","","","","","SRET","SRET_math_calculate","","key","2","16.653072072072415","768","428","","","","","22/11= ?","2","1","","","","","","","",""
"1743","","6","psychophysics","135","460593","0.0-7.0-5.0-0.32","7","6","6","6","6","5","4","5","5","5","5","2","2","2","1","1","2","2","1","5","5","5","5","4","4","5","4","5","4","6","6","7","7","7","5","6","7","6","7","6","6","7","6","7","6","1","6","6","1","6","6","6","6","6","4","6","7","7","6","7","7","7","5","7","7","6","7","7","7","7","5","7","7","6","7","7","7","6","7","598842647070638080","刘","170","Male","[""好我"",""好他"",""坏我"",""坏他""]","[""强我"",""强他"",""弱我"",""弱他""]","","","","","","","","6","","","","","","","","","SRET","SRET_math_calculate","","key","6","16.651000000000142","768","428","","","","","9-3= ?","6","1","","","","","","","",""
"1782","","9","psychophysics","136","462377","0.0-7.0-5.0-0.33","7","6","6","6","6","5","4","5","5","5","5","2","2","2","1","1","2","2","1","5","5","5","5","4","4","5","4","5","4","6","6","7","7","7","5","6","7","6","7","6","6","7","6","7","6","1","6","6","1","6","6","6","6","6","4","6","7","7","6","7","7","7","5","7","7","6","7","7","7","7","5","7","7","6","7","7","7","6","7","598842647070638080","刘","170","Male","[""好我"",""好他"",""坏我"",""坏他""]","[""强我"",""强他"",""弱我"",""弱他""]","","","","","","","","9","","","","","","","","","SRET","SRET_math_calculate","","key","9","16.65205607476653","768","428","","","","","5+4= ?","9","1","","","","","","","",""
"1823","","3","psychophysics","137","464201","0.0-7.0-5.0-0.34","7","6","6","6","6","5","4","5","5","5","5","2","2","2","1","1","2","2","1","5","5","5","5","4","4","5","4","5","4","6","6","7","7","7","5","6","7","6","7","6","6","7","6","7","6","1","6","6","1","6","6","6","6","6","4","6","7","7","6","7","7","7","5","7","7","6","7","7","7","7","5","7","7","6","7","7","7","6","7","598842647070638080","刘","170","Male","[""好我"",""好他"",""坏我"",""坏他""]","[""强我"",""强他"",""弱我"",""弱他""]","","","","","","","","3","","","","","","","","","SRET","SRET_math_calculate","","key","3","16.649361111111055","768","428","","","","","8-5= ?","3","1","","","","","","","",""
"2031","","8","psychophysics","138","466233","0.0-7.0-5.0-0.35","7","6","6","6","6","5","4","5","5","5","5","2","2","2","1","1","2","2","1","5","5","5","5","4","4","5","4","5","4","6","6","7","7","7","5","6","7","6","7","6","6","7","6","7","6","1","6","6","1","6","6","6","6","6","4","6","7","7","6","7","7","7","5","7","7","6","7","7","7","7","5","7","7","6","7","7","7","6","7","598842647070638080","刘","170","Male","[""好我"",""好他"",""坏我"",""坏他""]","[""强我"",""强他"",""弱我"",""弱他""]","","","","","","","","8","","","","","","","","","SRET","SRET_math_calculate","","key","8","16.6539669421488","768","428","","","","","50-42= ?","8","1","","","","","","","",""
"1703","","7","psychophysics","139","467937","0.0-7.0-5.0-0.36","7","6","6","6","6","5","4","5","5","5","5","2","2","2","1","1","2","2","1","5","5","5","5","4","4","5","4","5","4","6","6","7","7","7","5","6","7","6","7","6","6","7","6","7","6","1","6","6","1","6","6","6","6","6","4","6","7","7","6","7","7","7","5","7","7","6","7","7","7","7","5","7","7","6","7","7","7","6","7","598842647070638080","刘","170","Male","[""好我"",""好他"",""坏我"",""坏他""]","[""强我"",""强他"",""弱我"",""弱他""]","","","","","","","","7","","","","","","","","","SRET","SRET_math_calculate","","key","7","16.656627450980057","768","428","","","","","6+1= ?","7","1","","","","","","","",""
"1784","","2","psychophysics","140","469722","0.0-7.0-5.0-0.37","7","6","6","6","6","5","4","5","5","5","5","2","2","2","1","1","2","2","1","5","5","5","5","4","4","5","4","5","4","6","6","7","7","7","5","6","7","6","7","6","6","7","6","7","6","1","6","6","1","6","6","6","6","6","4","6","7","7","6","7","7","7","5","7","7","6","7","7","7","7","5","7","7","6","7","7","7","6","7","598842647070638080","刘","170","Male","[""好我"",""好他"",""坏我"",""坏他""]","[""强我"",""强他"",""弱我"",""弱他""]","","","","","","","","2","","","","","","","","","SRET","SRET_math_calculate","","key","2","16.65121698113244","768","428","","","","","9-7= ?","2","1","","","","","","","",""
"1702","","8","psychophysics","141","471425","0.0-7.0-5.0-0.38","7","6","6","6","6","5","4","5","5","5","5","2","2","2","1","1","2","2","1","5","5","5","5","4","4","5","4","5","4","6","6","7","7","7","5","6","7","6","7","6","6","7","6","7","6","1","6","6","1","6","6","6","6","6","4","6","7","7","6","7","7","7","5","7","7","6","7","7","7","7","5","7","7","6","7","7","7","6","7","598842647070638080","刘","170","Male","[""好我"",""好他"",""坏我"",""坏他""]","[""强我"",""强他"",""弱我"",""弱他""]","","","","","","","","8","","","","","","","","","SRET","SRET_math_calculate","","key","8","16.651495049504728","768","428","","","","","3+5= ?","8","1","","","","","","","",""
"1767","","9","psychophysics","142","473193","0.0-7.0-5.0-0.39","7","6","6","6","6","5","4","5","5","5","5","2","2","2","1","1","2","2","1","5","5","5","5","4","4","5","4","5","4","6","6","7","7","7","5","6","7","6","7","6","6","7","6","7","6","1","6","6","1","6","6","6","6","6","4","6","7","7","6","7","7","7","5","7","7","6","7","7","7","7","5","7","7","6","7","7","7","6","7","598842647070638080","刘","170","Male","[""好我"",""好他"",""坏我"",""坏他""]","[""强我"",""强他"",""弱我"",""弱他""]","","","","","","","","9","","","","","","","","","SRET","SRET_math_calculate","","key","9","16.64833333333289","768","428","","","","","1+8= ?","9","1","","","","","","","",""
