"rt","stimulus","response","trial_type","trial_index","time_elapsed","internal_node_id","swb_1","swb_2","swb_3","swb_4","swb_5","LOT_1","LOT_2","LOT_3","LOT_4","LOT_5","LOT_6","IPC_1","IPC_2","IPC_3","IPC_4","IPC_5","IPC_6","IPC_7","IPC_8","MorIden_1","MorIden_2","MorIden_3","MorIden_4","MorIden_5","MorIden_6","MorIden_7","MorIden_8","MorIden_9","MorIden_10","moralSeImag_1","moralSeImag_2","moralSeImag_3","moralSeImag_4","moralSeImag_5","moralSeImag_6","moralSeImag_7","moralSeImag_8","moralSeImag_9","sde_1","sde_2","sde_3","sde_4","sde_5","sde_6","sde_7","sde_8","sde_9","sde_10","trap2","sde_11","sde_12","sde_13","sde_14","sde_15","sde_16","sde_17","sde_18","sde_19","sde_20","IM_1","IM_2","IM_3","IM_4","IM_5","IM_6","IM_7","IM_8","IM_9","IM_10","IM_11","IM_12","IM_13","IM_14","IM_15","IM_16","IM_17","IM_18","IM_19","IM_20","subj_idx","friend_name","ParticipantID","Sex","Word","Word2","value","success","timeout","failed_images","failed_audio","failed_video","user_agent","responses","item_order","radio_event_ids","radio_event_times","key_event_times","mouse_event_times","straightlining","zigzagging","honeypot","view_history","response_type","key_press","avg_frame_time","center_x","center_y","correct_response","correct","identity","Image","word","condition","task_id","screen_id","time_stamp","person","valence","domain","math","status","duration","question_order","trap2_item"
"11349","
   <p><div style='color:white; font-size: 25px'>您好，欢迎参加本次实验。</div></p>
   <p><div style='color:white; font-size: 25px'>为充分保障您的权利，请确保您已经知晓并同意《参与实验同意书》以及《数据公开知情同意书》。</div></p>
   <p><div style='color:white; font-size: 25px'>如果您未见过上述内容，请咨询实验员。</div></p>
   <p style='color:white; font-size: 25px'>如果您选择继续实验，则表示您已经清楚两份知情同意书的内容并同意。</p>
   <p><div style = ""color: pink;font-size:30px;"">请确保您记得day0的实验编号，您将在本次实验输入该编号，若您忘记，请咨询实验员后作答。</div></p>
   <p><div style = ""color:lightblue;font-size:25px;"">请您尽可能认真地作答，我们将依据您在各问卷和按键任务中的作答质量发放报酬。</div></p>
   <p> <div style = ""color: green""><按空格键至下页></div> </p>
   "," ","html-keyboard-response","0","11351","0.0-0.0","6","5","5","6","5","4","3","4","4","4","5","1","0","1","2","0","1","1","2","5","4","5","5","4","3","4","3","4","5","3","4","4","5","3","4","4","5","4","6","4","2","5","7","2","4","1","5","3","1","5","3","3","3","3","5","4","3","3","5","2","5","3","3","2","5","3","7","7","7","3","6","7","7","3","5","2","1","1","5","786688590502694913","柳","648","Male","[""好我"",""坏我"",""好他"",""坏他""]","[""强我"",""弱我"",""强他"",""弱他""]","","","","","","","","","","","","","","","","","","","","","","","","","","","","","","","","","","","","","","",""
"","","","call-function","1","11353","0.0-1.0-0.0","6","5","5","6","5","4","3","4","4","4","5","1","0","1","2","0","1","1","2","5","4","5","5","4","3","4","3","4","5","3","4","4","5","3","4","4","5","4","6","4","2","5","7","2","4","1","5","3","1","5","3","3","3","3","5","4","3","3","5","2","5","3","3","2","5","3","7","7","7","3","6","7","7","3","5","2","1","1","5","786688590502694913","柳","648","Male","[""好我"",""坏我"",""好他"",""坏他""]","[""强我"",""弱我"",""强他"",""弱他""]","","","","","","","","","","","","","","","","","","","","","","","","","","","","","","","","","","","","","","",""
"22114","","[{""name"":""Sex"",""value"":""0""},{""name"":""friend_name"",""value"":""柳""},{""name"":""ParticipantID"",""value"":""648""}]","survey-html-form","2","33467","0.0-1.0-1.0","6","5","5","6","5","4","3","4","4","4","5","1","0","1","2","0","1","1","2","5","4","5","5","4","3","4","3","4","5","3","4","4","5","3","4","4","5","4","6","4","2","5","7","2","4","1","5","3","1","5","3","3","3","3","5","4","3","3","5","2","5","3","3","2","5","3","7","7","7","3","6","7","7","3","5","2","1","1","5","786688590502694913","柳","648","Male","[""好我"",""坏我"",""好他"",""坏他""]","[""强我"",""弱我"",""强他"",""弱他""]","","","","","","","","","","","","","","","","","","","","","","","","","","","","","","","","","","","","","","",""
"","","","preload","3","33906","0.0-2.0","6","5","5","6","5","4","3","4","4","4","5","1","0","1","2","0","1","1","2","5","4","5","5","4","3","4","3","4","5","3","4","4","5","3","4","4","5","4","6","4","2","5","7","2","4","1","5","3","1","5","3","3","3","3","5","4","3","3","5","2","5","3","3","2","5","3","7","7","7","3","6","7","7","3","5","2","1","1","5","786688590502694913","柳","648","Male","[""好我"",""坏我"",""好他"",""坏他""]","[""强我"",""弱我"",""强他"",""弱他""]","","true","false","[]","[]","[]","","","","","","","","","","","","","","","","","","","","","","","","","","","","","","","","",""
"","","","fullscreen","4","60308","0.0-3.0","6","5","5","6","5","4","3","4","4","4","5","1","0","1","2","0","1","1","2","5","4","5","5","4","3","4","3","4","5","3","4","4","5","3","4","4","5","4","6","4","2","5","7","2","4","1","5","3","1","5","3","3","3","3","5","4","3","3","5","2","5","3","3","2","5","3","7","7","7","3","6","7","7","3","5","2","1","1","5","786688590502694913","柳","648","Male","[""好我"",""坏我"",""好他"",""坏他""]","[""强我"",""弱我"",""强他"",""弱他""]","","true","","","","","{}","","","","","","","","","","","","","","","","","","","","","","","","","","","","","","","",""
"28504.399999976158","","{""Q01"":""6"",""Q02"":""5"",""Q03"":""5"",""Q04"":""6"",""Q05"":""5""}","survey-template","5","88816","0.0-4.0","6","5","5","6","5","4","3","4","4","4","5","1","0","1","2","0","1","1","2","5","4","5","5","4","3","4","3","4","5","3","4","4","5","3","4","4","5","4","6","4","2","5","7","2","4","1","5","3","1","5","3","3","3","3","5","4","3","3","5","2","5","3","3","2","5","3","7","7","7","3","6","7","7","3","5","2","1","1","5","786688590502694913","柳","648","Male","[""好我"",""坏我"",""好他"",""坏他""]","[""强我"",""弱我"",""强他"",""弱他""]","","","","","","","","{""Q01"":""6"",""Q02"":""5"",""Q03"":""5"",""Q04"":""6"",""Q05"":""5""}","[0,1,2,3,4]","[""Q01"",""Q02"",""Q03"",""Q04"",""Q05""]","[8032,10723.699999988079,14051.699999988079,21363.69999998808,25531.600000023842]","[]","[8032,10723.699999988079,14051.699999988079,20996.399999976158,21363.69999998808,25531.600000023842,28503.69999998808]","0.6","0.75","0","","","","","","","","","","","","","","","","","","","","","","",""
"47860.39999997616","","{""Q01"":""4"",""Q02"":""3"",""Q03"":""4"",""Q04"":""4"",""Q05"":""4"",""Q06"":""5""}","survey-template","6","136679","0.0-5.0","6","5","5","6","5","4","3","4","4","4","5","1","0","1","2","0","1","1","2","5","4","5","5","4","3","4","3","4","5","3","4","4","5","3","4","4","5","4","6","4","2","5","7","2","4","1","5","3","1","5","3","3","3","3","5","4","3","3","5","2","5","3","3","2","5","3","7","7","7","3","6","7","7","3","5","2","1","1","5","786688590502694913","柳","648","Male","[""好我"",""坏我"",""好他"",""坏他""]","[""强我"",""弱我"",""强他"",""弱他""]","","","","","","","","{""Q01"":""4"",""Q02"":""3"",""Q03"":""4"",""Q04"":""4"",""Q05"":""4"",""Q06"":""5""}","[0,1,2,3,4,5]","[""Q01"",""Q02"",""Q03"",""Q04"",""Q05"",""Q06""]","[10288.199999988079,22459.80000001192,27011.80000001192,30971.899999976158,36759.80000001192,42447.80000001192]","[]","[10288.199999988079,22459.80000001192,27011.80000001192,30971.899999976158,36759.80000001192,42447.80000001192,47859.89999997616]","0.3333333333333333","0.4","0","","","","","","","","","","","","","","","","","","","","","","",""
"48309.80000001192","","{""Q01"":""1"",""Q02"":""0"",""Q03"":""1"",""Q04"":""2"",""Q05"":""0"",""Q06"":""1"",""Q07"":""1"",""Q08"":""2""}","survey-template","7","184992","0.0-6.0","6","5","5","6","5","4","3","4","4","4","5","1","0","1","2","0","1","1","2","5","4","5","5","4","3","4","3","4","5","3","4","4","5","3","4","4","5","4","6","4","2","5","7","2","4","1","5","3","1","5","3","3","3","3","5","4","3","3","5","2","5","3","3","2","5","3","7","7","7","3","6","7","7","3","5","2","1","1","5","786688590502694913","柳","648","Male","[""好我"",""坏我"",""好他"",""坏他""]","[""强我"",""弱我"",""强他"",""弱他""]","","","","","","","","{""Q01"":""1"",""Q02"":""0"",""Q03"":""1"",""Q04"":""2"",""Q05"":""0"",""Q06"":""1"",""Q07"":""1"",""Q08"":""2""}","[0,1,2,3,4,5,6,7]","[""Q01"",""Q02"",""Q03"",""Q04"",""Q05"",""Q06"",""Q07"",""Q08""]","[6640.800000011921,14432.899999976158,21029.19999998808,25401,29972.899999976158,33933,42361,45512.89999997616]","[]","[6640.800000011921,14432.899999976158,21029.19999998808,25401,29972.899999976158,33933,42361,45512.89999997616,48309.19999998808]","0.5","0.7142857142857143","0","","","","","","","","","","","","","","","","","","","","","","",""
"24997","","","instructions","8","209991","0.0-7.0","6","5","5","6","5","4","3","4","4","4","5","1","0","1","2","0","1","1","2","5","4","5","5","4","3","4","3","4","5","3","4","4","5","3","4","4","5","4","6","4","2","5","7","2","4","1","5","3","1","5","3","3","3","3","5","4","3","3","5","2","5","3","3","2","5","3","7","7","7","3","6","7","7","3","5","2","1","1","5","786688590502694913","柳","648","Male","[""好我"",""坏我"",""好他"",""坏他""]","[""强我"",""弱我"",""强他"",""弱他""]","","","","","","","","","","","","","","","","","[{""page_index"":0,""viewing_time"":24997}]","","","","","","","","","","","","","","","","","","","","","",""
"71551","","","instructions","9","281543","0.0-8.0-0.0-0.0","6","5","5","6","5","4","3","4","4","4","5","1","0","1","2","0","1","1","2","5","4","5","5","4","3","4","3","4","5","3","4","4","5","3","4","4","5","4","6","4","2","5","7","2","4","1","5","3","1","5","3","3","3","3","5","4","3","3","5","2","5","3","3","2","5","3","7","7","7","3","6","7","7","3","5","2","1","1","5","786688590502694913","柳","648","Male","[""好我"",""坏我"",""好他"",""坏他""]","[""强我"",""弱我"",""强他"",""弱他""]","","","","","","","","","","","","","","","","","[{""page_index"":0,""viewing_time"":13743},{""page_index"":1,""viewing_time"":48068},{""page_index"":2,""viewing_time"":7416},{""page_index"":3,""viewing_time"":2324}]","","","","","","","","","","","","","","","","","","","","","",""
"null","","null","psychophysics","10","283751","0.0-8.0-0.0-1.0-0.0-0.0","6","5","5","6","5","4","3","4","4","4","5","1","0","1","2","0","1","1","2","5","4","5","5","4","3","4","3","4","5","3","4","4","5","3","4","4","5","4","6","4","2","5","7","2","4","1","5","3","1","5","3","3","3","3","5","4","3","3","5","2","5","3","3","2","5","3","7","7","7","3","6","7","7","3","5","2","1","1","5","786688590502694913","柳","648","Male","[""好我"",""坏我"",""好他"",""坏他""]","[""强我"",""弱我"",""强他"",""弱他""]","","","","","","","","null","","","","","","","","","","key","null","16.66412213740458","720","446","j","false","nonmatch","img/triangle.png","坏我","好我","prac_ALT2_moral","practice_moral","","","","","","","","",""
"null","<span class='add_' style='color:yellow; font-size: 70px;'> 太慢! </span>","null","html-keyboard-response","11","284252","0.0-8.0-0.0-1.0-0.0-1.0","6","5","5","6","5","4","3","4","4","4","5","1","0","1","2","0","1","1","2","5","4","5","5","4","3","4","3","4","5","3","4","4","5","3","4","4","5","4","6","4","2","5","7","2","4","1","5","3","1","5","3","3","3","3","5","4","3","3","5","2","5","3","3","2","5","3","7","7","7","3","6","7","7","3","5","2","1","1","5","786688590502694913","柳","648","Male","[""好我"",""坏我"",""好他"",""坏他""]","[""强我"",""弱我"",""强他"",""弱他""]","","","","","","","","","","","","","","","","","","","","","","","","","","","","","","feedback_test","","","","","","","","",""
"null","","null","psychophysics","12","286459","0.0-8.0-0.0-1.0-0.0-0.1","6","5","5","6","5","4","3","4","4","4","5","1","0","1","2","0","1","1","2","5","4","5","5","4","3","4","3","4","5","3","4","4","5","3","4","4","5","4","6","4","2","5","7","2","4","1","5","3","1","5","3","3","3","3","5","4","3","3","5","2","5","3","3","2","5","3","7","7","7","3","6","7","7","3","5","2","1","1","5","786688590502694913","柳","648","Male","[""好我"",""坏我"",""好他"",""坏他""]","[""强我"",""弱我"",""强他"",""弱他""]","","","","","","","","null","","","","","","","","","","key","null","16.66412213740458","720","446","j","false","nonmatch","img/pentagon.png","好他","坏他","prac_ALT2_moral","practice_moral","","","","","","","","",""
"null","<span class='add_' style='color:yellow; font-size: 70px;'> 太慢! </span>","null","html-keyboard-response","13","286961","0.0-8.0-0.0-1.0-0.0-1.1","6","5","5","6","5","4","3","4","4","4","5","1","0","1","2","0","1","1","2","5","4","5","5","4","3","4","3","4","5","3","4","4","5","3","4","4","5","4","6","4","2","5","7","2","4","1","5","3","1","5","3","3","3","3","5","4","3","3","5","2","5","3","3","2","5","3","7","7","7","3","6","7","7","3","5","2","1","1","5","786688590502694913","柳","648","Male","[""好我"",""坏我"",""好他"",""坏他""]","[""强我"",""弱我"",""强他"",""弱他""]","","","","","","","","","","","","","","","","","","","","","","","","","","","","","","feedback_test","","","","","","","","",""
"714","","j","psychophysics","14","288676","0.0-8.0-0.0-1.0-0.0-0.2","6","5","5","6","5","4","3","4","4","4","5","1","0","1","2","0","1","1","2","5","4","5","5","4","3","4","3","4","5","3","4","4","5","3","4","4","5","4","6","4","2","5","7","2","4","1","5","3","1","5","3","3","3","3","5","4","3","3","5","2","5","3","3","2","5","3","7","7","7","3","6","7","7","3","5","2","1","1","5","786688590502694913","柳","648","Male","[""好我"",""坏我"",""好他"",""坏他""]","[""强我"",""弱我"",""强他"",""弱他""]","","","","","","","","nonmatch","","","","","","","","","","key","j","16.661386138614322","720","446","f","false","match","img/triangle.png","好我","好我","prac_ALT2_moral","practice_moral","","","","","","","","",""
"null","<span style='color:red; font-size: 70px;'>错误! </span>","null","html-keyboard-response","15","289182","0.0-8.0-0.0-1.0-0.0-1.2","6","5","5","6","5","4","3","4","4","4","5","1","0","1","2","0","1","1","2","5","4","5","5","4","3","4","3","4","5","3","4","4","5","3","4","4","5","4","6","4","2","5","7","2","4","1","5","3","1","5","3","3","3","3","5","4","3","3","5","2","5","3","3","2","5","3","7","7","7","3","6","7","7","3","5","2","1","1","5","786688590502694913","柳","648","Male","[""好我"",""坏我"",""好他"",""坏他""]","[""强我"",""弱我"",""强他"",""弱他""]","","","","","","","","","","","","","","","","","","","","","","","","","","","","","","feedback_test","","","","","","","","",""
"784","","j","psychophysics","16","290968","0.0-8.0-0.0-1.0-0.0-0.3","6","5","5","6","5","4","3","4","4","4","5","1","0","1","2","0","1","1","2","5","4","5","5","4","3","4","3","4","5","3","4","4","5","3","4","4","5","4","6","4","2","5","7","2","4","1","5","3","1","5","3","3","3","3","5","4","3","3","5","2","5","3","3","2","5","3","7","7","7","3","6","7","7","3","5","2","1","1","5","786688590502694913","柳","648","Male","[""好我"",""坏我"",""好他"",""坏他""]","[""强我"",""弱我"",""强他"",""弱他""]","","","","","","","","nonmatch","","","","","","","","","","key","j","16.663207547170252","720","446","j","true","nonmatch","img/pentagon.png","好我","坏他","prac_ALT2_moral","practice_moral","","","","","","","","",""
"null","<span style='color:GreenYellow; font-size: 70px;'>正确! </span>","null","html-keyboard-response","17","291469","0.0-8.0-0.0-1.0-0.0-1.3","6","5","5","6","5","4","3","4","4","4","5","1","0","1","2","0","1","1","2","5","4","5","5","4","3","4","3","4","5","3","4","4","5","3","4","4","5","4","6","4","2","5","7","2","4","1","5","3","1","5","3","3","3","3","5","4","3","3","5","2","5","3","3","2","5","3","7","7","7","3","6","7","7","3","5","2","1","1","5","786688590502694913","柳","648","Male","[""好我"",""坏我"",""好他"",""坏他""]","[""强我"",""弱我"",""强他"",""弱他""]","","","","","","","","","","","","","","","","","","","","","","","","","","","","","","feedback_test","","","","","","","","",""
"null","","null","psychophysics","18","293677","0.0-8.0-0.0-1.0-0.0-0.4","6","5","5","6","5","4","3","4","4","4","5","1","0","1","2","0","1","1","2","5","4","5","5","4","3","4","3","4","5","3","4","4","5","3","4","4","5","4","6","4","2","5","7","2","4","1","5","3","1","5","3","3","3","3","5","4","3","3","5","2","5","3","3","2","5","3","7","7","7","3","6","7","7","3","5","2","1","1","5","786688590502694913","柳","648","Male","[""好我"",""坏我"",""好他"",""坏他""]","[""强我"",""弱我"",""强他"",""弱他""]","","","","","","","","null","","","","","","","","","","key","null","16.663358778626133","720","446","f","false","match","img/pentagon.png","坏他","坏他","prac_ALT2_moral","practice_moral","","","","","","","","",""
"null","<span class='add_' style='color:yellow; font-size: 70px;'> 太慢! </span>","null","html-keyboard-response","19","294178","0.0-8.0-0.0-1.0-0.0-1.4","6","5","5","6","5","4","3","4","4","4","5","1","0","1","2","0","1","1","2","5","4","5","5","4","3","4","3","4","5","3","4","4","5","3","4","4","5","4","6","4","2","5","7","2","4","1","5","3","1","5","3","3","3","3","5","4","3","3","5","2","5","3","3","2","5","3","7","7","7","3","6","7","7","3","5","2","1","1","5","786688590502694913","柳","648","Male","[""好我"",""坏我"",""好他"",""坏他""]","[""强我"",""弱我"",""强他"",""弱他""]","","","","","","","","","","","","","","","","","","","","","","","","","","","","","","feedback_test","","","","","","","","",""
"690","","f","psychophysics","20","295870","0.0-8.0-0.0-1.0-0.0-0.5","6","5","5","6","5","4","3","4","4","4","5","1","0","1","2","0","1","1","2","5","4","5","5","4","3","4","3","4","5","3","4","4","5","3","4","4","5","4","6","4","2","5","7","2","4","1","5","3","1","5","3","3","3","3","5","4","3","3","5","2","5","3","3","2","5","3","7","7","7","3","6","7","7","3","5","2","1","1","5","786688590502694913","柳","648","Male","[""好我"",""坏我"",""好他"",""坏他""]","[""强我"",""弱我"",""强他"",""弱他""]","","","","","","","","match","","","","","","","","","","key","f","16.662999999999883","720","446","f","true","match","img/ellipse.png","好他","好他","prac_ALT2_moral","practice_moral","","","","","","","","",""
"null","<span style='color:GreenYellow; font-size: 70px;'>正确! </span>","null","html-keyboard-response","21","296371","0.0-8.0-0.0-1.0-0.0-1.5","6","5","5","6","5","4","3","4","4","4","5","1","0","1","2","0","1","1","2","5","4","5","5","4","3","4","3","4","5","3","4","4","5","3","4","4","5","4","6","4","2","5","7","2","4","1","5","3","1","5","3","3","3","3","5","4","3","3","5","2","5","3","3","2","5","3","7","7","7","3","6","7","7","3","5","2","1","1","5","786688590502694913","柳","648","Male","[""好我"",""坏我"",""好他"",""坏他""]","[""强我"",""弱我"",""强他"",""弱他""]","","","","","","","","","","","","","","","","","","","","","","","","","","","","","","feedback_test","","","","","","","","",""
"1158","","j","psychophysics","22","298532","0.0-8.0-0.0-1.0-0.0-0.6","6","5","5","6","5","4","3","4","4","4","5","1","0","1","2","0","1","1","2","5","4","5","5","4","3","4","3","4","5","3","4","4","5","3","4","4","5","4","6","4","2","5","7","2","4","1","5","3","1","5","3","3","3","3","5","4","3","3","5","2","5","3","3","2","5","3","7","7","7","3","6","7","7","3","5","2","1","1","5","786688590502694913","柳","648","Male","[""好我"",""坏我"",""好他"",""坏他""]","[""强我"",""弱我"",""强他"",""弱他""]","","","","","","","","nonmatch","","","","","","","","","","key","j","16.663565891472686","720","446","j","true","nonmatch","img/triangle.png","坏他","好我","prac_ALT2_moral","practice_moral","","","","","","","","",""
"null","<span style='color:GreenYellow; font-size: 70px;'>正确! </span>","null","html-keyboard-response","23","299033","0.0-8.0-0.0-1.0-0.0-1.6","6","5","5","6","5","4","3","4","4","4","5","1","0","1","2","0","1","1","2","5","4","5","5","4","3","4","3","4","5","3","4","4","5","3","4","4","5","4","6","4","2","5","7","2","4","1","5","3","1","5","3","3","3","3","5","4","3","3","5","2","5","3","3","2","5","3","7","7","7","3","6","7","7","3","5","2","1","1","5","786688590502694913","柳","648","Male","[""好我"",""坏我"",""好他"",""坏他""]","[""强我"",""弱我"",""强他"",""弱他""]","","","","","","","","","","","","","","","","","","","","","","","","","","","","","","feedback_test","","","","","","","","",""
"784","","f","psychophysics","24","300819","0.0-8.0-0.0-1.0-0.0-0.7","6","5","5","6","5","4","3","4","4","4","5","1","0","1","2","0","1","1","2","5","4","5","5","4","3","4","3","4","5","3","4","4","5","3","4","4","5","4","6","4","2","5","7","2","4","1","5","3","1","5","3","3","3","3","5","4","3","3","5","2","5","3","3","2","5","3","7","7","7","3","6","7","7","3","5","2","1","1","5","786688590502694913","柳","648","Male","[""好我"",""坏我"",""好他"",""坏他""]","[""强我"",""弱我"",""强他"",""弱他""]","","","","","","","","match","","","","","","","","","","key","f","16.664150943395896","720","446","f","true","match","img/pentagon.png","坏他","坏他","prac_ALT2_moral","practice_moral","","","","","","","","",""
"null","<span style='color:GreenYellow; font-size: 70px;'>正确! </span>","null","html-keyboard-response","25","301320","0.0-8.0-0.0-1.0-0.0-1.7","6","5","5","6","5","4","3","4","4","4","5","1","0","1","2","0","1","1","2","5","4","5","5","4","3","4","3","4","5","3","4","4","5","3","4","4","5","4","6","4","2","5","7","2","4","1","5","3","1","5","3","3","3","3","5","4","3","3","5","2","5","3","3","2","5","3","7","7","7","3","6","7","7","3","5","2","1","1","5","786688590502694913","柳","648","Male","[""好我"",""坏我"",""好他"",""坏他""]","[""强我"",""弱我"",""强他"",""弱他""]","","","","","","","","","","","","","","","","","","","","","","","","","","","","","","feedback_test","","","","","","","","",""
"1125","","j","psychophysics","26","303446","0.0-8.0-0.0-1.0-0.0-0.8","6","5","5","6","5","4","3","4","4","4","5","1","0","1","2","0","1","1","2","5","4","5","5","4","3","4","3","4","5","3","4","4","5","3","4","4","5","4","6","4","2","5","7","2","4","1","5","3","1","5","3","3","3","3","5","4","3","3","5","2","5","3","3","2","5","3","7","7","7","3","6","7","7","3","5","2","1","1","5","786688590502694913","柳","648","Male","[""好我"",""坏我"",""好他"",""坏他""]","[""强我"",""弱我"",""强他"",""弱他""]","","","","","","","","nonmatch","","","","","","","","","","key","j","16.66614173228374","720","446","f","false","match","img/trapezoid.png","坏我","坏我","prac_ALT2_moral","practice_moral","","","","","","","","",""
"null","<span style='color:red; font-size: 70px;'>错误! </span>","null","html-keyboard-response","27","303948","0.0-8.0-0.0-1.0-0.0-1.8","6","5","5","6","5","4","3","4","4","4","5","1","0","1","2","0","1","1","2","5","4","5","5","4","3","4","3","4","5","3","4","4","5","3","4","4","5","4","6","4","2","5","7","2","4","1","5","3","1","5","3","3","3","3","5","4","3","3","5","2","5","3","3","2","5","3","7","7","7","3","6","7","7","3","5","2","1","1","5","786688590502694913","柳","648","Male","[""好我"",""坏我"",""好他"",""坏他""]","[""强我"",""弱我"",""强他"",""弱他""]","","","","","","","","","","","","","","","","","","","","","","","","","","","","","","feedback_test","","","","","","","","",""
"1107","","j","psychophysics","28","306057","0.0-8.0-0.0-1.0-0.0-0.9","6","5","5","6","5","4","3","4","4","4","5","1","0","1","2","0","1","1","2","5","4","5","5","4","3","4","3","4","5","3","4","4","5","3","4","4","5","4","6","4","2","5","7","2","4","1","5","3","1","5","3","3","3","3","5","4","3","3","5","2","5","3","3","2","5","3","7","7","7","3","6","7","7","3","5","2","1","1","5","786688590502694913","柳","648","Male","[""好我"",""坏我"",""好他"",""坏他""]","[""强我"",""弱我"",""强他"",""弱他""]","","","","","","","","nonmatch","","","","","","","","","","key","j","16.664","720","446","j","true","nonmatch","img/trapezoid.png","好我","坏我","prac_ALT2_moral","practice_moral","","","","","","","","",""
"null","<span style='color:GreenYellow; font-size: 70px;'>正确! </span>","null","html-keyboard-response","29","306557","0.0-8.0-0.0-1.0-0.0-1.9","6","5","5","6","5","4","3","4","4","4","5","1","0","1","2","0","1","1","2","5","4","5","5","4","3","4","3","4","5","3","4","4","5","3","4","4","5","4","6","4","2","5","7","2","4","1","5","3","1","5","3","3","3","3","5","4","3","3","5","2","5","3","3","2","5","3","7","7","7","3","6","7","7","3","5","2","1","1","5","786688590502694913","柳","648","Male","[""好我"",""坏我"",""好他"",""坏他""]","[""强我"",""弱我"",""强他"",""弱他""]","","","","","","","","","","","","","","","","","","","","","","","","","","","","","","feedback_test","","","","","","","","",""
"null","","null","psychophysics","30","308759","0.0-8.0-0.0-1.0-0.0-0.10","6","5","5","6","5","4","3","4","4","4","5","1","0","1","2","0","1","1","2","5","4","5","5","4","3","4","3","4","5","3","4","4","5","3","4","4","5","4","6","4","2","5","7","2","4","1","5","3","1","5","3","3","3","3","5","4","3","3","5","2","5","3","3","2","5","3","7","7","7","3","6","7","7","3","5","2","1","1","5","786688590502694913","柳","648","Male","[""好我"",""坏我"",""好他"",""坏他""]","[""强我"",""弱我"",""强他"",""弱他""]","","","","","","","","null","","","","","","","","","","key","null","16.66030534351145","720","446","j","false","nonmatch","img/trapezoid.png","坏他","坏我","prac_ALT2_moral","practice_moral","","","","","","","","",""
"null","<span class='add_' style='color:yellow; font-size: 70px;'> 太慢! </span>","null","html-keyboard-response","31","309261","0.0-8.0-0.0-1.0-0.0-1.10","6","5","5","6","5","4","3","4","4","4","5","1","0","1","2","0","1","1","2","5","4","5","5","4","3","4","3","4","5","3","4","4","5","3","4","4","5","4","6","4","2","5","7","2","4","1","5","3","1","5","3","3","3","3","5","4","3","3","5","2","5","3","3","2","5","3","7","7","7","3","6","7","7","3","5","2","1","1","5","786688590502694913","柳","648","Male","[""好我"",""坏我"",""好他"",""坏他""]","[""强我"",""弱我"",""强他"",""弱他""]","","","","","","","","","","","","","","","","","","","","","","","","","","","","","","feedback_test","","","","","","","","",""
"null","","null","psychophysics","32","311467","0.0-8.0-0.0-1.0-0.0-0.11","6","5","5","6","5","4","3","4","4","4","5","1","0","1","2","0","1","1","2","5","4","5","5","4","3","4","3","4","5","3","4","4","5","3","4","4","5","4","6","4","2","5","7","2","4","1","5","3","1","5","3","3","3","3","5","4","3","3","5","2","5","3","3","2","5","3","7","7","7","3","6","7","7","3","5","2","1","1","5","786688590502694913","柳","648","Male","[""好我"",""坏我"",""好他"",""坏他""]","[""强我"",""弱我"",""强他"",""弱他""]","","","","","","","","null","","","","","","","","","","key","null","16.66412213740458","720","446","j","false","nonmatch","img/ellipse.png","坏他","好他","prac_ALT2_moral","practice_moral","","","","","","","","",""
"null","<span class='add_' style='color:yellow; font-size: 70px;'> 太慢! </span>","null","html-keyboard-response","33","311967","0.0-8.0-0.0-1.0-0.0-1.11","6","5","5","6","5","4","3","4","4","4","5","1","0","1","2","0","1","1","2","5","4","5","5","4","3","4","3","4","5","3","4","4","5","3","4","4","5","4","6","4","2","5","7","2","4","1","5","3","1","5","3","3","3","3","5","4","3","3","5","2","5","3","3","2","5","3","7","7","7","3","6","7","7","3","5","2","1","1","5","786688590502694913","柳","648","Male","[""好我"",""坏我"",""好他"",""坏他""]","[""强我"",""弱我"",""强他"",""弱他""]","","","","","","","","","","","","","","","","","","","","","","","","","","","","","","feedback_test","","","","","","","","",""
"956","","f","psychophysics","34","313924","0.0-8.0-0.0-1.0-0.0-0.12","6","5","5","6","5","4","3","4","4","4","5","1","0","1","2","0","1","1","2","5","4","5","5","4","3","4","3","4","5","3","4","4","5","3","4","4","5","4","6","4","2","5","7","2","4","1","5","3","1","5","3","3","3","3","5","4","3","3","5","2","5","3","3","2","5","3","7","7","7","3","6","7","7","3","5","2","1","1","5","786688590502694913","柳","648","Male","[""好我"",""坏我"",""好他"",""坏他""]","[""强我"",""弱我"",""强他"",""弱他""]","","","","","","","","match","","","","","","","","","","key","f","16.663247863248163","720","446","f","true","match","img/pentagon.png","坏他","坏他","prac_ALT2_moral","practice_moral","","","","","","","","",""
"null","<span style='color:GreenYellow; font-size: 70px;'>正确! </span>","null","html-keyboard-response","35","314425","0.0-8.0-0.0-1.0-0.0-1.12","6","5","5","6","5","4","3","4","4","4","5","1","0","1","2","0","1","1","2","5","4","5","5","4","3","4","3","4","5","3","4","4","5","3","4","4","5","4","6","4","2","5","7","2","4","1","5","3","1","5","3","3","3","3","5","4","3","3","5","2","5","3","3","2","5","3","7","7","7","3","6","7","7","3","5","2","1","1","5","786688590502694913","柳","648","Male","[""好我"",""坏我"",""好他"",""坏他""]","[""强我"",""弱我"",""强他"",""弱他""]","","","","","","","","","","","","","","","","","","","","","","","","","","","","","","feedback_test","","","","","","","","",""
"1090","","j","psychophysics","36","316517","0.0-8.0-0.0-1.0-0.0-0.13","6","5","5","6","5","4","3","4","4","4","5","1","0","1","2","0","1","1","2","5","4","5","5","4","3","4","3","4","5","3","4","4","5","3","4","4","5","4","6","4","2","5","7","2","4","1","5","3","1","5","3","3","3","3","5","4","3","3","5","2","5","3","3","2","5","3","7","7","7","3","6","7","7","3","5","2","1","1","5","786688590502694913","柳","648","Male","[""好我"",""坏我"",""好他"",""坏他""]","[""强我"",""弱我"",""强他"",""弱他""]","","","","","","","","nonmatch","","","","","","","","","","key","j","16.66370967741926","720","446","j","true","nonmatch","img/pentagon.png","坏我","坏他","prac_ALT2_moral","practice_moral","","","","","","","","",""
"null","<span style='color:GreenYellow; font-size: 70px;'>正确! </span>","null","html-keyboard-response","37","317018","0.0-8.0-0.0-1.0-0.0-1.13","6","5","5","6","5","4","3","4","4","4","5","1","0","1","2","0","1","1","2","5","4","5","5","4","3","4","3","4","5","3","4","4","5","3","4","4","5","4","6","4","2","5","7","2","4","1","5","3","1","5","3","3","3","3","5","4","3","3","5","2","5","3","3","2","5","3","7","7","7","3","6","7","7","3","5","2","1","1","5","786688590502694913","柳","648","Male","[""好我"",""坏我"",""好他"",""坏他""]","[""强我"",""弱我"",""强他"",""弱他""]","","","","","","","","","","","","","","","","","","","","","","","","","","","","","","feedback_test","","","","","","","","",""
"908","","f","psychophysics","38","318926","0.0-8.0-0.0-1.0-0.0-0.14","6","5","5","6","5","4","3","4","4","4","5","1","0","1","2","0","1","1","2","5","4","5","5","4","3","4","3","4","5","3","4","4","5","3","4","4","5","4","6","4","2","5","7","2","4","1","5","3","1","5","3","3","3","3","5","4","3","3","5","2","5","3","3","2","5","3","7","7","7","3","6","7","7","3","5","2","1","1","5","786688590502694913","柳","648","Male","[""好我"",""坏我"",""好他"",""坏他""]","[""强我"",""弱我"",""强他"",""弱他""]","","","","","","","","match","","","","","","","","","","key","f","16.662280701754387","720","446","f","true","match","img/ellipse.png","好他","好他","prac_ALT2_moral","practice_moral","","","","","","","","",""
"null","<span style='color:GreenYellow; font-size: 70px;'>正确! </span>","null","html-keyboard-response","39","319427","0.0-8.0-0.0-1.0-0.0-1.14","6","5","5","6","5","4","3","4","4","4","5","1","0","1","2","0","1","1","2","5","4","5","5","4","3","4","3","4","5","3","4","4","5","3","4","4","5","4","6","4","2","5","7","2","4","1","5","3","1","5","3","3","3","3","5","4","3","3","5","2","5","3","3","2","5","3","7","7","7","3","6","7","7","3","5","2","1","1","5","786688590502694913","柳","648","Male","[""好我"",""坏我"",""好他"",""坏他""]","[""强我"",""弱我"",""强他"",""弱他""]","","","","","","","","","","","","","","","","","","","","","","","","","","","","","","feedback_test","","","","","","","","",""
"null","","null","psychophysics","40","321633","0.0-8.0-0.0-1.0-0.0-0.15","6","5","5","6","5","4","3","4","4","4","5","1","0","1","2","0","1","1","2","5","4","5","5","4","3","4","3","4","5","3","4","4","5","3","4","4","5","4","6","4","2","5","7","2","4","1","5","3","1","5","3","3","3","3","5","4","3","3","5","2","5","3","3","2","5","3","7","7","7","3","6","7","7","3","5","2","1","1","5","786688590502694913","柳","648","Male","[""好我"",""坏我"",""好他"",""坏他""]","[""强我"",""弱我"",""强他"",""弱他""]","","","","","","","","null","","","","","","","","","","key","null","16.66412213740458","720","446","f","false","match","img/triangle.png","好我","好我","prac_ALT2_moral","practice_moral","","","","","","","","",""
"null","<span class='add_' style='color:yellow; font-size: 70px;'> 太慢! </span>","null","html-keyboard-response","41","322135","0.0-8.0-0.0-1.0-0.0-1.15","6","5","5","6","5","4","3","4","4","4","5","1","0","1","2","0","1","1","2","5","4","5","5","4","3","4","3","4","5","3","4","4","5","3","4","4","5","4","6","4","2","5","7","2","4","1","5","3","1","5","3","3","3","3","5","4","3","3","5","2","5","3","3","2","5","3","7","7","7","3","6","7","7","3","5","2","1","1","5","786688590502694913","柳","648","Male","[""好我"",""坏我"",""好他"",""坏他""]","[""强我"",""弱我"",""强他"",""弱他""]","","","","","","","","","","","","","","","","","","","","","","","","","","","","","","feedback_test","","","","","","","","",""
"null","","null","psychophysics","42","324337","0.0-8.0-0.0-1.0-0.0-0.16","6","5","5","6","5","4","3","4","4","4","5","1","0","1","2","0","1","1","2","5","4","5","5","4","3","4","3","4","5","3","4","4","5","3","4","4","5","4","6","4","2","5","7","2","4","1","5","3","1","5","3","3","3","3","5","4","3","3","5","2","5","3","3","2","5","3","7","7","7","3","6","7","7","3","5","2","1","1","5","786688590502694913","柳","648","Male","[""好我"",""坏我"",""好他"",""坏他""]","[""强我"",""弱我"",""强他"",""弱他""]","","","","","","","","null","","","","","","","","","","key","null","16.663358778626133","720","446","j","false","nonmatch","img/triangle.png","好他","好我","prac_ALT2_moral","practice_moral","","","","","","","","",""
"null","<span class='add_' style='color:yellow; font-size: 70px;'> 太慢! </span>","null","html-keyboard-response","43","324838","0.0-8.0-0.0-1.0-0.0-1.16","6","5","5","6","5","4","3","4","4","4","5","1","0","1","2","0","1","1","2","5","4","5","5","4","3","4","3","4","5","3","4","4","5","3","4","4","5","4","6","4","2","5","7","2","4","1","5","3","1","5","3","3","3","3","5","4","3","3","5","2","5","3","3","2","5","3","7","7","7","3","6","7","7","3","5","2","1","1","5","786688590502694913","柳","648","Male","[""好我"",""坏我"",""好他"",""坏他""]","[""强我"",""弱我"",""强他"",""弱他""]","","","","","","","","","","","","","","","","","","","","","","","","","","","","","","feedback_test","","","","","","","","",""
"847","","f","psychophysics","44","326686","0.0-8.0-0.0-1.0-0.0-0.17","6","5","5","6","5","4","3","4","4","4","5","1","0","1","2","0","1","1","2","5","4","5","5","4","3","4","3","4","5","3","4","4","5","3","4","4","5","4","6","4","2","5","7","2","4","1","5","3","1","5","3","3","3","3","5","4","3","3","5","2","5","3","3","2","5","3","7","7","7","3","6","7","7","3","5","2","1","1","5","786688590502694913","柳","648","Male","[""好我"",""坏我"",""好他"",""坏他""]","[""强我"",""弱我"",""强他"",""弱他""]","","","","","","","","match","","","","","","","","","","key","f","16.661467889908042","720","446","j","false","nonmatch","img/trapezoid.png","好他","坏我","prac_ALT2_moral","practice_moral","","","","","","","","",""
"null","<span style='color:red; font-size: 70px;'>错误! </span>","null","html-keyboard-response","45","327187","0.0-8.0-0.0-1.0-0.0-1.17","6","5","5","6","5","4","3","4","4","4","5","1","0","1","2","0","1","1","2","5","4","5","5","4","3","4","3","4","5","3","4","4","5","3","4","4","5","4","6","4","2","5","7","2","4","1","5","3","1","5","3","3","3","3","5","4","3","3","5","2","5","3","3","2","5","3","7","7","7","3","6","7","7","3","5","2","1","1","5","786688590502694913","柳","648","Male","[""好我"",""坏我"",""好他"",""坏他""]","[""强我"",""弱我"",""强他"",""弱他""]","","","","","","","","","","","","","","","","","","","","","","","","","","","","","","feedback_test","","","","","","","","",""
"1154","","f","psychophysics","46","329343","0.0-8.0-0.0-1.0-0.0-0.18","6","5","5","6","5","4","3","4","4","4","5","1","0","1","2","0","1","1","2","5","4","5","5","4","3","4","3","4","5","3","4","4","5","3","4","4","5","4","6","4","2","5","7","2","4","1","5","3","1","5","3","3","3","3","5","4","3","3","5","2","5","3","3","2","5","3","7","7","7","3","6","7","7","3","5","2","1","1","5","786688590502694913","柳","648","Male","[""好我"",""坏我"",""好他"",""坏他""]","[""强我"",""弱我"",""强他"",""弱他""]","","","","","","","","match","","","","","","","","","","key","f","16.663281249999727","720","446","f","true","match","img/triangle.png","好我","好我","prac_ALT2_moral","practice_moral","","","","","","","","",""
"null","<span style='color:GreenYellow; font-size: 70px;'>正确! </span>","null","html-keyboard-response","47","329844","0.0-8.0-0.0-1.0-0.0-1.18","6","5","5","6","5","4","3","4","4","4","5","1","0","1","2","0","1","1","2","5","4","5","5","4","3","4","3","4","5","3","4","4","5","3","4","4","5","4","6","4","2","5","7","2","4","1","5","3","1","5","3","3","3","3","5","4","3","3","5","2","5","3","3","2","5","3","7","7","7","3","6","7","7","3","5","2","1","1","5","786688590502694913","柳","648","Male","[""好我"",""坏我"",""好他"",""坏他""]","[""强我"",""弱我"",""强他"",""弱他""]","","","","","","","","","","","","","","","","","","","","","","","","","","","","","","feedback_test","","","","","","","","",""
"null","","null","psychophysics","48","332052","0.0-8.0-0.0-1.0-0.0-0.19","6","5","5","6","5","4","3","4","4","4","5","1","0","1","2","0","1","1","2","5","4","5","5","4","3","4","3","4","5","3","4","4","5","3","4","4","5","4","6","4","2","5","7","2","4","1","5","3","1","5","3","3","3","3","5","4","3","3","5","2","5","3","3","2","5","3","7","7","7","3","6","7","7","3","5","2","1","1","5","786688590502694913","柳","648","Male","[""好我"",""坏我"",""好他"",""坏他""]","[""强我"",""弱我"",""强他"",""弱他""]","","","","","","","","null","","","","","","","","","","key","null","16.66335877862569","720","446","j","false","nonmatch","img/ellipse.png","坏我","好他","prac_ALT2_moral","practice_moral","","","","","","","","",""
"null","<span class='add_' style='color:yellow; font-size: 70px;'> 太慢! </span>","null","html-keyboard-response","49","332553","0.0-8.0-0.0-1.0-0.0-1.19","6","5","5","6","5","4","3","4","4","4","5","1","0","1","2","0","1","1","2","5","4","5","5","4","3","4","3","4","5","3","4","4","5","3","4","4","5","4","6","4","2","5","7","2","4","1","5","3","1","5","3","3","3","3","5","4","3","3","5","2","5","3","3","2","5","3","7","7","7","3","6","7","7","3","5","2","1","1","5","786688590502694913","柳","648","Male","[""好我"",""坏我"",""好他"",""坏他""]","[""强我"",""弱我"",""强他"",""弱他""]","","","","","","","","","","","","","","","","","","","","","","","","","","","","","","feedback_test","","","","","","","","",""
"1038","","f","psychophysics","50","334592","0.0-8.0-0.0-1.0-0.0-0.20","6","5","5","6","5","4","3","4","4","4","5","1","0","1","2","0","1","1","2","5","4","5","5","4","3","4","3","4","5","3","4","4","5","3","4","4","5","4","6","4","2","5","7","2","4","1","5","3","1","5","3","3","3","3","5","4","3","3","5","2","5","3","3","2","5","3","7","7","7","3","6","7","7","3","5","2","1","1","5","786688590502694913","柳","648","Male","[""好我"",""坏我"",""好他"",""坏他""]","[""强我"",""弱我"",""强他"",""弱他""]","","","","","","","","match","","","","","","","","","","key","f","16.65371900826475","720","446","f","true","match","img/ellipse.png","好他","好他","prac_ALT2_moral","practice_moral","","","","","","","","",""
"null","<span style='color:GreenYellow; font-size: 70px;'>正确! </span>","null","html-keyboard-response","51","335093","0.0-8.0-0.0-1.0-0.0-1.20","6","5","5","6","5","4","3","4","4","4","5","1","0","1","2","0","1","1","2","5","4","5","5","4","3","4","3","4","5","3","4","4","5","3","4","4","5","4","6","4","2","5","7","2","4","1","5","3","1","5","3","3","3","3","5","4","3","3","5","2","5","3","3","2","5","3","7","7","7","3","6","7","7","3","5","2","1","1","5","786688590502694913","柳","648","Male","[""好我"",""坏我"",""好他"",""坏他""]","[""强我"",""弱我"",""强他"",""弱他""]","","","","","","","","","","","","","","","","","","","","","","","","","","","","","","feedback_test","","","","","","","","",""
"940","","j","psychophysics","52","337035","0.0-8.0-0.0-1.0-0.0-0.21","6","5","5","6","5","4","3","4","4","4","5","1","0","1","2","0","1","1","2","5","4","5","5","4","3","4","3","4","5","3","4","4","5","3","4","4","5","4","6","4","2","5","7","2","4","1","5","3","1","5","3","3","3","3","5","4","3","3","5","2","5","3","3","2","5","3","7","7","7","3","6","7","7","3","5","2","1","1","5","786688590502694913","柳","648","Male","[""好我"",""坏我"",""好他"",""坏他""]","[""强我"",""弱我"",""强他"",""弱他""]","","","","","","","","nonmatch","","","","","","","","","","key","j","16.663478260869464","720","446","f","false","match","img/trapezoid.png","坏我","坏我","prac_ALT2_moral","practice_moral","","","","","","","","",""
"null","<span style='color:red; font-size: 70px;'>错误! </span>","null","html-keyboard-response","53","337536","0.0-8.0-0.0-1.0-0.0-1.21","6","5","5","6","5","4","3","4","4","4","5","1","0","1","2","0","1","1","2","5","4","5","5","4","3","4","3","4","5","3","4","4","5","3","4","4","5","4","6","4","2","5","7","2","4","1","5","3","1","5","3","3","3","3","5","4","3","3","5","2","5","3","3","2","5","3","7","7","7","3","6","7","7","3","5","2","1","1","5","786688590502694913","柳","648","Male","[""好我"",""坏我"",""好他"",""坏他""]","[""强我"",""弱我"",""强他"",""弱他""]","","","","","","","","","","","","","","","","","","","","","","","","","","","","","","feedback_test","","","","","","","","",""
"879","","f","psychophysics","54","339416","0.0-8.0-0.0-1.0-0.0-0.22","6","5","5","6","5","4","3","4","4","4","5","1","0","1","2","0","1","1","2","5","4","5","5","4","3","4","3","4","5","3","4","4","5","3","4","4","5","4","6","4","2","5","7","2","4","1","5","3","1","5","3","3","3","3","5","4","3","3","5","2","5","3","3","2","5","3","7","7","7","3","6","7","7","3","5","2","1","1","5","786688590502694913","柳","648","Male","[""好我"",""坏我"",""好他"",""坏他""]","[""强我"",""弱我"",""强他"",""弱他""]","","","","","","","","match","","","","","","","","","","key","f","16.663063063063376","720","446","f","true","match","img/trapezoid.png","坏我","坏我","prac_ALT2_moral","practice_moral","","","","","","","","",""
"null","<span style='color:GreenYellow; font-size: 70px;'>正确! </span>","null","html-keyboard-response","55","339916","0.0-8.0-0.0-1.0-0.0-1.22","6","5","5","6","5","4","3","4","4","4","5","1","0","1","2","0","1","1","2","5","4","5","5","4","3","4","3","4","5","3","4","4","5","3","4","4","5","4","6","4","2","5","7","2","4","1","5","3","1","5","3","3","3","3","5","4","3","3","5","2","5","3","3","2","5","3","7","7","7","3","6","7","7","3","5","2","1","1","5","786688590502694913","柳","648","Male","[""好我"",""坏我"",""好他"",""坏他""]","[""强我"",""弱我"",""强他"",""弱他""]","","","","","","","","","","","","","","","","","","","","","","","","","","","","","","feedback_test","","","","","","","","",""
"928","","j","psychophysics","56","341846","0.0-8.0-0.0-1.0-0.0-0.23","6","5","5","6","5","4","3","4","4","4","5","1","0","1","2","0","1","1","2","5","4","5","5","4","3","4","3","4","5","3","4","4","5","3","4","4","5","4","6","4","2","5","7","2","4","1","5","3","1","5","3","3","3","3","5","4","3","3","5","2","5","3","3","2","5","3","7","7","7","3","6","7","7","3","5","2","1","1","5","786688590502694913","柳","648","Male","[""好我"",""坏我"",""好他"",""坏他""]","[""强我"",""弱我"",""强他"",""弱他""]","","","","","","","","nonmatch","","","","","","","","","","key","j","16.664347826086654","720","446","j","true","nonmatch","img/ellipse.png","好我","好他","prac_ALT2_moral","practice_moral","","","","","","","","",""
"null","<span style='color:GreenYellow; font-size: 70px;'>正确! </span>","null","html-keyboard-response","57","342347","0.0-8.0-0.0-1.0-0.0-1.23","6","5","5","6","5","4","3","4","4","4","5","1","0","1","2","0","1","1","2","5","4","5","5","4","3","4","3","4","5","3","4","4","5","3","4","4","5","4","6","4","2","5","7","2","4","1","5","3","1","5","3","3","3","3","5","4","3","3","5","2","5","3","3","2","5","3","7","7","7","3","6","7","7","3","5","2","1","1","5","786688590502694913","柳","648","Male","[""好我"",""坏我"",""好他"",""坏他""]","[""强我"",""弱我"",""强他"",""弱他""]","","","","","","","","","","","","","","","","","","","","","","","","","","","","","","feedback_test","","","","","","","","",""
"1164","","j","psychophysics","58","344514","0.0-8.0-0.0-1.0-0.0-0.24","6","5","5","6","5","4","3","4","4","4","5","1","0","1","2","0","1","1","2","5","4","5","5","4","3","4","3","4","5","3","4","4","5","3","4","4","5","4","6","4","2","5","7","2","4","1","5","3","1","5","3","3","3","3","5","4","3","3","5","2","5","3","3","2","5","3","7","7","7","3","6","7","7","3","5","2","1","1","5","786688590502694913","柳","648","Male","[""好我"",""坏我"",""好他"",""坏他""]","[""强我"",""弱我"",""强他"",""弱他""]","","","","","","","","nonmatch","","","","","","","","","","key","j","16.663565891473137","720","446","j","true","nonmatch","img/ellipse.png","坏我","好他","prac_ALT2_moral","practice_moral","","","","","","","","",""
"null","<span style='color:GreenYellow; font-size: 70px;'>正确! </span>","null","html-keyboard-response","59","345014","0.0-8.0-0.0-1.0-0.0-1.24","6","5","5","6","5","4","3","4","4","4","5","1","0","1","2","0","1","1","2","5","4","5","5","4","3","4","3","4","5","3","4","4","5","3","4","4","5","4","6","4","2","5","7","2","4","1","5","3","1","5","3","3","3","3","5","4","3","3","5","2","5","3","3","2","5","3","7","7","7","3","6","7","7","3","5","2","1","1","5","786688590502694913","柳","648","Male","[""好我"",""坏我"",""好他"",""坏他""]","[""强我"",""弱我"",""强他"",""弱他""]","","","","","","","","","","","","","","","","","","","","","","","","","","","","","","feedback_test","","","","","","","","",""
"746","","f","psychophysics","60","346762","0.0-8.0-0.0-1.0-0.0-0.25","6","5","5","6","5","4","3","4","4","4","5","1","0","1","2","0","1","1","2","5","4","5","5","4","3","4","3","4","5","3","4","4","5","3","4","4","5","4","6","4","2","5","7","2","4","1","5","3","1","5","3","3","3","3","5","4","3","3","5","2","5","3","3","2","5","3","7","7","7","3","6","7","7","3","5","2","1","1","5","786688590502694913","柳","648","Male","[""好我"",""坏我"",""好他"",""坏他""]","[""强我"",""弱我"",""强他"",""弱他""]","","","","","","","","match","","","","","","","","","","key","f","16.662500000000225","720","446","f","true","match","img/pentagon.png","坏他","坏他","prac_ALT2_moral","practice_moral","","","","","","","","",""
"null","<span style='color:GreenYellow; font-size: 70px;'>正确! </span>","null","html-keyboard-response","61","347263","0.0-8.0-0.0-1.0-0.0-1.25","6","5","5","6","5","4","3","4","4","4","5","1","0","1","2","0","1","1","2","5","4","5","5","4","3","4","3","4","5","3","4","4","5","3","4","4","5","4","6","4","2","5","7","2","4","1","5","3","1","5","3","3","3","3","5","4","3","3","5","2","5","3","3","2","5","3","7","7","7","3","6","7","7","3","5","2","1","1","5","786688590502694913","柳","648","Male","[""好我"",""坏我"",""好他"",""坏他""]","[""强我"",""弱我"",""强他"",""弱他""]","","","","","","","","","","","","","","","","","","","","","","","","","","","","","","feedback_test","","","","","","","","",""
"null","","null","psychophysics","62","349470","0.0-8.0-0.0-1.0-0.0-0.26","6","5","5","6","5","4","3","4","4","4","5","1","0","1","2","0","1","1","2","5","4","5","5","4","3","4","3","4","5","3","4","4","5","3","4","4","5","4","6","4","2","5","7","2","4","1","5","3","1","5","3","3","3","3","5","4","3","3","5","2","5","3","3","2","5","3","7","7","7","3","6","7","7","3","5","2","1","1","5","786688590502694913","柳","648","Male","[""好我"",""坏我"",""好他"",""坏他""]","[""强我"",""弱我"",""强他"",""弱他""]","","","","","","","","null","","","","","","","","","","key","null","16.66287878787879","720","446","f","false","match","img/pentagon.png","坏他","坏他","prac_ALT2_moral","practice_moral","","","","","","","","",""
"null","<span class='add_' style='color:yellow; font-size: 70px;'> 太慢! </span>","null","html-keyboard-response","63","349971","0.0-8.0-0.0-1.0-0.0-1.26","6","5","5","6","5","4","3","4","4","4","5","1","0","1","2","0","1","1","2","5","4","5","5","4","3","4","3","4","5","3","4","4","5","3","4","4","5","4","6","4","2","5","7","2","4","1","5","3","1","5","3","3","3","3","5","4","3","3","5","2","5","3","3","2","5","3","7","7","7","3","6","7","7","3","5","2","1","1","5","786688590502694913","柳","648","Male","[""好我"",""坏我"",""好他"",""坏他""]","[""强我"",""弱我"",""强他"",""弱他""]","","","","","","","","","","","","","","","","","","","","","","","","","","","","","","feedback_test","","","","","","","","",""
"862","","j","psychophysics","64","351834","0.0-8.0-0.0-1.0-0.0-0.27","6","5","5","6","5","4","3","4","4","4","5","1","0","1","2","0","1","1","2","5","4","5","5","4","3","4","3","4","5","3","4","4","5","3","4","4","5","4","6","4","2","5","7","2","4","1","5","3","1","5","3","3","3","3","5","4","3","3","5","2","5","3","3","2","5","3","7","7","7","3","6","7","7","3","5","2","1","1","5","786688590502694913","柳","648","Male","[""好我"",""坏我"",""好他"",""坏他""]","[""强我"",""弱我"",""强他"",""弱他""]","","","","","","","","nonmatch","","","","","","","","","","key","j","16.663063063063376","720","446","j","true","nonmatch","img/trapezoid.png","坏他","坏我","prac_ALT2_moral","practice_moral","","","","","","","","",""
"null","<span style='color:GreenYellow; font-size: 70px;'>正确! </span>","null","html-keyboard-response","65","352336","0.0-8.0-0.0-1.0-0.0-1.27","6","5","5","6","5","4","3","4","4","4","5","1","0","1","2","0","1","1","2","5","4","5","5","4","3","4","3","4","5","3","4","4","5","3","4","4","5","4","6","4","2","5","7","2","4","1","5","3","1","5","3","3","3","3","5","4","3","3","5","2","5","3","3","2","5","3","7","7","7","3","6","7","7","3","5","2","1","1","5","786688590502694913","柳","648","Male","[""好我"",""坏我"",""好他"",""坏他""]","[""强我"",""弱我"",""强他"",""弱他""]","","","","","","","","","","","","","","","","","","","","","","","","","","","","","","feedback_test","","","","","","","","",""
"704","","j","psychophysics","66","354041","0.0-8.0-0.0-1.0-0.0-0.28","6","5","5","6","5","4","3","4","4","4","5","1","0","1","2","0","1","1","2","5","4","5","5","4","3","4","3","4","5","3","4","4","5","3","4","4","5","4","6","4","2","5","7","2","4","1","5","3","1","5","3","3","3","3","5","4","3","3","5","2","5","3","3","2","5","3","7","7","7","3","6","7","7","3","5","2","1","1","5","786688590502694913","柳","648","Male","[""好我"",""坏我"",""好他"",""坏他""]","[""强我"",""弱我"",""强他"",""弱他""]","","","","","","","","nonmatch","","","","","","","","","","key","j","16.664356435643334","720","446","j","true","nonmatch","img/trapezoid.png","好他","坏我","prac_ALT2_moral","practice_moral","","","","","","","","",""
"null","<span style='color:GreenYellow; font-size: 70px;'>正确! </span>","null","html-keyboard-response","67","354542","0.0-8.0-0.0-1.0-0.0-1.28","6","5","5","6","5","4","3","4","4","4","5","1","0","1","2","0","1","1","2","5","4","5","5","4","3","4","3","4","5","3","4","4","5","3","4","4","5","4","6","4","2","5","7","2","4","1","5","3","1","5","3","3","3","3","5","4","3","3","5","2","5","3","3","2","5","3","7","7","7","3","6","7","7","3","5","2","1","1","5","786688590502694913","柳","648","Male","[""好我"",""坏我"",""好他"",""坏他""]","[""强我"",""弱我"",""强他"",""弱他""]","","","","","","","","","","","","","","","","","","","","","","","","","","","","","","feedback_test","","","","","","","","",""
"837","","f","psychophysics","68","356381","0.0-8.0-0.0-1.0-0.0-0.29","6","5","5","6","5","4","3","4","4","4","5","1","0","1","2","0","1","1","2","5","4","5","5","4","3","4","3","4","5","3","4","4","5","3","4","4","5","4","6","4","2","5","7","2","4","1","5","3","1","5","3","3","3","3","5","4","3","3","5","2","5","3","3","2","5","3","7","7","7","3","6","7","7","3","5","2","1","1","5","786688590502694913","柳","648","Male","[""好我"",""坏我"",""好他"",""坏他""]","[""强我"",""弱我"",""强他"",""弱他""]","","","","","","","","match","","","","","","","","","","key","f","16.664220183486453","720","446","f","true","match","img/ellipse.png","好他","好他","prac_ALT2_moral","practice_moral","","","","","","","","",""
"null","<span style='color:GreenYellow; font-size: 70px;'>正确! </span>","null","html-keyboard-response","69","356882","0.0-8.0-0.0-1.0-0.0-1.29","6","5","5","6","5","4","3","4","4","4","5","1","0","1","2","0","1","1","2","5","4","5","5","4","3","4","3","4","5","3","4","4","5","3","4","4","5","4","6","4","2","5","7","2","4","1","5","3","1","5","3","3","3","3","5","4","3","3","5","2","5","3","3","2","5","3","7","7","7","3","6","7","7","3","5","2","1","1","5","786688590502694913","柳","648","Male","[""好我"",""坏我"",""好他"",""坏他""]","[""强我"",""弱我"",""强他"",""弱他""]","","","","","","","","","","","","","","","","","","","","","","","","","","","","","","feedback_test","","","","","","","","",""
"1067","","j","psychophysics","70","358951","0.0-8.0-0.0-1.0-0.0-0.30","6","5","5","6","5","4","3","4","4","4","5","1","0","1","2","0","1","1","2","5","4","5","5","4","3","4","3","4","5","3","4","4","5","3","4","4","5","4","6","4","2","5","7","2","4","1","5","3","1","5","3","3","3","3","5","4","3","3","5","2","5","3","3","2","5","3","7","7","7","3","6","7","7","3","5","2","1","1","5","786688590502694913","柳","648","Male","[""好我"",""坏我"",""好他"",""坏他""]","[""强我"",""弱我"",""强他"",""弱他""]","","","","","","","","nonmatch","","","","","","","","","","key","j","16.666666666666668","720","446","j","true","nonmatch","img/pentagon.png","坏我","坏他","prac_ALT2_moral","practice_moral","","","","","","","","",""
"null","<span style='color:GreenYellow; font-size: 70px;'>正确! </span>","null","html-keyboard-response","71","359453","0.0-8.0-0.0-1.0-0.0-1.30","6","5","5","6","5","4","3","4","4","4","5","1","0","1","2","0","1","1","2","5","4","5","5","4","3","4","3","4","5","3","4","4","5","3","4","4","5","4","6","4","2","5","7","2","4","1","5","3","1","5","3","3","3","3","5","4","3","3","5","2","5","3","3","2","5","3","7","7","7","3","6","7","7","3","5","2","1","1","5","786688590502694913","柳","648","Male","[""好我"",""坏我"",""好他"",""坏他""]","[""强我"",""弱我"",""强他"",""弱他""]","","","","","","","","","","","","","","","","","","","","","","","","","","","","","","feedback_test","","","","","","","","",""
"1068","","j","psychophysics","72","361521","0.0-8.0-0.0-1.0-0.0-0.31","6","5","5","6","5","4","3","4","4","4","5","1","0","1","2","0","1","1","2","5","4","5","5","4","3","4","3","4","5","3","4","4","5","3","4","4","5","4","6","4","2","5","7","2","4","1","5","3","1","5","3","3","3","3","5","4","3","3","5","2","5","3","3","2","5","3","7","7","7","3","6","7","7","3","5","2","1","1","5","786688590502694913","柳","648","Male","[""好我"",""坏我"",""好他"",""坏他""]","[""强我"",""弱我"",""强他"",""弱他""]","","","","","","","","nonmatch","","","","","","","","","","key","j","16.66422764227652","720","446","j","true","nonmatch","img/trapezoid.png","好我","坏我","prac_ALT2_moral","practice_moral","","","","","","","","",""
"null","<span style='color:GreenYellow; font-size: 70px;'>正确! </span>","null","html-keyboard-response","73","362021","0.0-8.0-0.0-1.0-0.0-1.31","6","5","5","6","5","4","3","4","4","4","5","1","0","1","2","0","1","1","2","5","4","5","5","4","3","4","3","4","5","3","4","4","5","3","4","4","5","4","6","4","2","5","7","2","4","1","5","3","1","5","3","3","3","3","5","4","3","3","5","2","5","3","3","2","5","3","7","7","7","3","6","7","7","3","5","2","1","1","5","786688590502694913","柳","648","Male","[""好我"",""坏我"",""好他"",""坏他""]","[""强我"",""弱我"",""强他"",""弱他""]","","","","","","","","","","","","","","","","","","","","","","","","","","","","","","feedback_test","","","","","","","","",""
"917","","f","psychophysics","74","363939","0.0-8.0-0.0-1.0-0.0-0.32","6","5","5","6","5","4","3","4","4","4","5","1","0","1","2","0","1","1","2","5","4","5","5","4","3","4","3","4","5","3","4","4","5","3","4","4","5","4","6","4","2","5","7","2","4","1","5","3","1","5","3","3","3","3","5","4","3","3","5","2","5","3","3","2","5","3","7","7","7","3","6","7","7","3","5","2","1","1","5","786688590502694913","柳","648","Male","[""好我"",""坏我"",""好他"",""坏他""]","[""强我"",""弱我"",""强他"",""弱他""]","","","","","","","","match","","","","","","","","","","key","f","16.66315789473715","720","446","f","true","match","img/pentagon.png","坏他","坏他","prac_ALT2_moral","practice_moral","","","","","","","","",""
"null","<span style='color:GreenYellow; font-size: 70px;'>正确! </span>","null","html-keyboard-response","75","364440","0.0-8.0-0.0-1.0-0.0-1.32","6","5","5","6","5","4","3","4","4","4","5","1","0","1","2","0","1","1","2","5","4","5","5","4","3","4","3","4","5","3","4","4","5","3","4","4","5","4","6","4","2","5","7","2","4","1","5","3","1","5","3","3","3","3","5","4","3","3","5","2","5","3","3","2","5","3","7","7","7","3","6","7","7","3","5","2","1","1","5","786688590502694913","柳","648","Male","[""好我"",""坏我"",""好他"",""坏他""]","[""强我"",""弱我"",""强他"",""弱他""]","","","","","","","","","","","","","","","","","","","","","","","","","","","","","","feedback_test","","","","","","","","",""
"917","","j","psychophysics","76","366359","0.0-8.0-0.0-1.0-0.0-0.33","6","5","5","6","5","4","3","4","4","4","5","1","0","1","2","0","1","1","2","5","4","5","5","4","3","4","3","4","5","3","4","4","5","3","4","4","5","4","6","4","2","5","7","2","4","1","5","3","1","5","3","3","3","3","5","4","3","3","5","2","5","3","3","2","5","3","7","7","7","3","6","7","7","3","5","2","1","1","5","786688590502694913","柳","648","Male","[""好我"",""坏我"",""好他"",""坏他""]","[""强我"",""弱我"",""强他"",""弱他""]","","","","","","","","nonmatch","","","","","","","","","","key","j","16.6640350877194","720","446","f","false","match","img/triangle.png","好我","好我","prac_ALT2_moral","practice_moral","","","","","","","","",""
"null","<span style='color:red; font-size: 70px;'>错误! </span>","null","html-keyboard-response","77","366861","0.0-8.0-0.0-1.0-0.0-1.33","6","5","5","6","5","4","3","4","4","4","5","1","0","1","2","0","1","1","2","5","4","5","5","4","3","4","3","4","5","3","4","4","5","3","4","4","5","4","6","4","2","5","7","2","4","1","5","3","1","5","3","3","3","3","5","4","3","3","5","2","5","3","3","2","5","3","7","7","7","3","6","7","7","3","5","2","1","1","5","786688590502694913","柳","648","Male","[""好我"",""坏我"",""好他"",""坏他""]","[""强我"",""弱我"",""强他"",""弱他""]","","","","","","","","","","","","","","","","","","","","","","","","","","","","","","feedback_test","","","","","","","","",""
"1155","","f","psychophysics","78","369017","0.0-8.0-0.0-1.0-0.0-0.34","6","5","5","6","5","4","3","4","4","4","5","1","0","1","2","0","1","1","2","5","4","5","5","4","3","4","3","4","5","3","4","4","5","3","4","4","5","4","6","4","2","5","7","2","4","1","5","3","1","5","3","3","3","3","5","4","3","3","5","2","5","3","3","2","5","3","7","7","7","3","6","7","7","3","5","2","1","1","5","786688590502694913","柳","648","Male","[""好我"",""坏我"",""好他"",""坏他""]","[""强我"",""弱我"",""强他"",""弱他""]","","","","","","","","match","","","","","","","","","","key","f","16.662790697674417","720","446","j","false","nonmatch","img/triangle.png","坏我","好我","prac_ALT2_moral","practice_moral","","","","","","","","",""
"null","<span style='color:red; font-size: 70px;'>错误! </span>","null","html-keyboard-response","79","369526","0.0-8.0-0.0-1.0-0.0-1.34","6","5","5","6","5","4","3","4","4","4","5","1","0","1","2","0","1","1","2","5","4","5","5","4","3","4","3","4","5","3","4","4","5","3","4","4","5","4","6","4","2","5","7","2","4","1","5","3","1","5","3","3","3","3","5","4","3","3","5","2","5","3","3","2","5","3","7","7","7","3","6","7","7","3","5","2","1","1","5","786688590502694913","柳","648","Male","[""好我"",""坏我"",""好他"",""坏他""]","[""强我"",""弱我"",""强他"",""弱他""]","","","","","","","","","","","","","","","","","","","","","","","","","","","","","","feedback_test","","","","","","","","",""
"668","","j","psychophysics","80","371196","0.0-8.0-0.0-1.0-0.0-0.35","6","5","5","6","5","4","3","4","4","4","5","1","0","1","2","0","1","1","2","5","4","5","5","4","3","4","3","4","5","3","4","4","5","3","4","4","5","4","6","4","2","5","7","2","4","1","5","3","1","5","3","3","3","3","5","4","3","3","5","2","5","3","3","2","5","3","7","7","7","3","6","7","7","3","5","2","1","1","5","786688590502694913","柳","648","Male","[""好我"",""坏我"",""好他"",""坏他""]","[""强我"",""弱我"",""强他"",""弱他""]","","","","","","","","nonmatch","","","","","","","","","","key","j","16.664646464646346","720","446","f","false","match","img/triangle.png","好我","好我","prac_ALT2_moral","practice_moral","","","","","","","","",""
"null","<span style='color:red; font-size: 70px;'>错误! </span>","null","html-keyboard-response","81","371697","0.0-8.0-0.0-1.0-0.0-1.35","6","5","5","6","5","4","3","4","4","4","5","1","0","1","2","0","1","1","2","5","4","5","5","4","3","4","3","4","5","3","4","4","5","3","4","4","5","4","6","4","2","5","7","2","4","1","5","3","1","5","3","3","3","3","5","4","3","3","5","2","5","3","3","2","5","3","7","7","7","3","6","7","7","3","5","2","1","1","5","786688590502694913","柳","648","Male","[""好我"",""坏我"",""好他"",""坏他""]","[""强我"",""弱我"",""强他"",""弱他""]","","","","","","","","","","","","","","","","","","","","","","","","","","","","","","feedback_test","","","","","","","","",""
"null","","null","psychophysics","82","373904","0.0-8.0-0.0-1.0-0.0-0.36","6","5","5","6","5","4","3","4","4","4","5","1","0","1","2","0","1","1","2","5","4","5","5","4","3","4","3","4","5","3","4","4","5","3","4","4","5","4","6","4","2","5","7","2","4","1","5","3","1","5","3","3","3","3","5","4","3","3","5","2","5","3","3","2","5","3","7","7","7","3","6","7","7","3","5","2","1","1","5","786688590502694913","柳","648","Male","[""好我"",""坏我"",""好他"",""坏他""]","[""强我"",""弱我"",""强他"",""弱他""]","","","","","","","","null","","","","","","","","","","key","null","16.66488549618303","720","446","j","false","nonmatch","img/ellipse.png","坏他","好他","prac_ALT2_moral","practice_moral","","","","","","","","",""
"null","<span class='add_' style='color:yellow; font-size: 70px;'> 太慢! </span>","null","html-keyboard-response","83","374405","0.0-8.0-0.0-1.0-0.0-1.36","6","5","5","6","5","4","3","4","4","4","5","1","0","1","2","0","1","1","2","5","4","5","5","4","3","4","3","4","5","3","4","4","5","3","4","4","5","4","6","4","2","5","7","2","4","1","5","3","1","5","3","3","3","3","5","4","3","3","5","2","5","3","3","2","5","3","7","7","7","3","6","7","7","3","5","2","1","1","5","786688590502694913","柳","648","Male","[""好我"",""坏我"",""好他"",""坏他""]","[""强我"",""弱我"",""强他"",""弱他""]","","","","","","","","","","","","","","","","","","","","","","","","","","","","","","feedback_test","","","","","","","","",""
"1103","","f","psychophysics","84","376510","0.0-8.0-0.0-1.0-0.0-0.37","6","5","5","6","5","4","3","4","4","4","5","1","0","1","2","0","1","1","2","5","4","5","5","4","3","4","3","4","5","3","4","4","5","3","4","4","5","4","6","4","2","5","7","2","4","1","5","3","1","5","3","3","3","3","5","4","3","3","5","2","5","3","3","2","5","3","7","7","7","3","6","7","7","3","5","2","1","1","5","786688590502694913","柳","648","Male","[""好我"",""坏我"",""好他"",""坏他""]","[""强我"",""弱我"",""强他"",""弱他""]","","","","","","","","match","","","","","","","","","","key","f","16.664","720","446","f","true","match","img/triangle.png","好我","好我","prac_ALT2_moral","practice_moral","","","","","","","","",""
"null","<span style='color:GreenYellow; font-size: 70px;'>正确! </span>","null","html-keyboard-response","85","377011","0.0-8.0-0.0-1.0-0.0-1.37","6","5","5","6","5","4","3","4","4","4","5","1","0","1","2","0","1","1","2","5","4","5","5","4","3","4","3","4","5","3","4","4","5","3","4","4","5","4","6","4","2","5","7","2","4","1","5","3","1","5","3","3","3","3","5","4","3","3","5","2","5","3","3","2","5","3","7","7","7","3","6","7","7","3","5","2","1","1","5","786688590502694913","柳","648","Male","[""好我"",""坏我"",""好他"",""坏他""]","[""强我"",""弱我"",""强他"",""弱他""]","","","","","","","","","","","","","","","","","","","","","","","","","","","","","","feedback_test","","","","","","","","",""
"1045","","j","psychophysics","86","379057","0.0-8.0-0.0-1.0-0.0-0.38","6","5","5","6","5","4","3","4","4","4","5","1","0","1","2","0","1","1","2","5","4","5","5","4","3","4","3","4","5","3","4","4","5","3","4","4","5","4","6","4","2","5","7","2","4","1","5","3","1","5","3","3","3","3","5","4","3","3","5","2","5","3","3","2","5","3","7","7","7","3","6","7","7","3","5","2","1","1","5","786688590502694913","柳","648","Male","[""好我"",""坏我"",""好他"",""坏他""]","[""强我"",""弱我"",""强他"",""弱他""]","","","","","","","","nonmatch","","","","","","","","","","key","j","16.66393442622951","720","446","j","true","nonmatch","img/triangle.png","坏他","好我","prac_ALT2_moral","practice_moral","","","","","","","","",""
"null","<span style='color:GreenYellow; font-size: 70px;'>正确! </span>","null","html-keyboard-response","87","379558","0.0-8.0-0.0-1.0-0.0-1.38","6","5","5","6","5","4","3","4","4","4","5","1","0","1","2","0","1","1","2","5","4","5","5","4","3","4","3","4","5","3","4","4","5","3","4","4","5","4","6","4","2","5","7","2","4","1","5","3","1","5","3","3","3","3","5","4","3","3","5","2","5","3","3","2","5","3","7","7","7","3","6","7","7","3","5","2","1","1","5","786688590502694913","柳","648","Male","[""好我"",""坏我"",""好他"",""坏他""]","[""强我"",""弱我"",""强他"",""弱他""]","","","","","","","","","","","","","","","","","","","","","","","","","","","","","","feedback_test","","","","","","","","",""
"null","","null","psychophysics","88","381766","0.0-8.0-0.0-1.0-0.0-0.39","6","5","5","6","5","4","3","4","4","4","5","1","0","1","2","0","1","1","2","5","4","5","5","4","3","4","3","4","5","3","4","4","5","3","4","4","5","4","6","4","2","5","7","2","4","1","5","3","1","5","3","3","3","3","5","4","3","3","5","2","5","3","3","2","5","3","7","7","7","3","6","7","7","3","5","2","1","1","5","786688590502694913","柳","648","Male","[""好我"",""坏我"",""好他"",""坏他""]","[""强我"",""弱我"",""强他"",""弱他""]","","","","","","","","null","","","","","","","","","","key","null","16.663636363636186","720","446","f","false","match","img/trapezoid.png","坏我","坏我","prac_ALT2_moral","practice_moral","","","","","","","","",""
"null","<span class='add_' style='color:yellow; font-size: 70px;'> 太慢! </span>","null","html-keyboard-response","89","382267","0.0-8.0-0.0-1.0-0.0-1.39","6","5","5","6","5","4","3","4","4","4","5","1","0","1","2","0","1","1","2","5","4","5","5","4","3","4","3","4","5","3","4","4","5","3","4","4","5","4","6","4","2","5","7","2","4","1","5","3","1","5","3","3","3","3","5","4","3","3","5","2","5","3","3","2","5","3","7","7","7","3","6","7","7","3","5","2","1","1","5","786688590502694913","柳","648","Male","[""好我"",""坏我"",""好他"",""坏他""]","[""强我"",""弱我"",""强他"",""弱他""]","","","","","","","","","","","","","","","","","","","","","","","","","","","","","","feedback_test","","","","","","","","",""
"731","","f","psychophysics","90","383999","0.0-8.0-0.0-1.0-0.0-0.40","6","5","5","6","5","4","3","4","4","4","5","1","0","1","2","0","1","1","2","5","4","5","5","4","3","4","3","4","5","3","4","4","5","3","4","4","5","4","6","4","2","5","7","2","4","1","5","3","1","5","3","3","3","3","5","4","3","3","5","2","5","3","3","2","5","3","7","7","7","3","6","7","7","3","5","2","1","1","5","786688590502694913","柳","648","Male","[""好我"",""坏我"",""好他"",""坏他""]","[""强我"",""弱我"",""强他"",""弱他""]","","","","","","","","match","","","","","","","","","","key","f","16.66407766990314","720","446","f","true","match","img/ellipse.png","好他","好他","prac_ALT2_moral","practice_moral","","","","","","","","",""
"null","<span style='color:GreenYellow; font-size: 70px;'>正确! </span>","null","html-keyboard-response","91","384500","0.0-8.0-0.0-1.0-0.0-1.40","6","5","5","6","5","4","3","4","4","4","5","1","0","1","2","0","1","1","2","5","4","5","5","4","3","4","3","4","5","3","4","4","5","3","4","4","5","4","6","4","2","5","7","2","4","1","5","3","1","5","3","3","3","3","5","4","3","3","5","2","5","3","3","2","5","3","7","7","7","3","6","7","7","3","5","2","1","1","5","786688590502694913","柳","648","Male","[""好我"",""坏我"",""好他"",""坏他""]","[""强我"",""弱我"",""强他"",""弱他""]","","","","","","","","","","","","","","","","","","","","","","","","","","","","","","feedback_test","","","","","","","","",""
"654","","f","psychophysics","92","386154","0.0-8.0-0.0-1.0-0.0-0.41","6","5","5","6","5","4","3","4","4","4","5","1","0","1","2","0","1","1","2","5","4","5","5","4","3","4","3","4","5","3","4","4","5","3","4","4","5","4","6","4","2","5","7","2","4","1","5","3","1","5","3","3","3","3","5","4","3","3","5","2","5","3","3","2","5","3","7","7","7","3","6","7","7","3","5","2","1","1","5","786688590502694913","柳","648","Male","[""好我"",""坏我"",""好他"",""坏他""]","[""强我"",""弱我"",""强他"",""弱他""]","","","","","","","","match","","","","","","","","","","key","f","16.66428571428607","720","446","j","false","nonmatch","img/ellipse.png","好我","好他","prac_ALT2_moral","practice_moral","","","","","","","","",""
"null","<span style='color:red; font-size: 70px;'>错误! </span>","null","html-keyboard-response","93","386670","0.0-8.0-0.0-1.0-0.0-1.41","6","5","5","6","5","4","3","4","4","4","5","1","0","1","2","0","1","1","2","5","4","5","5","4","3","4","3","4","5","3","4","4","5","3","4","4","5","4","6","4","2","5","7","2","4","1","5","3","1","5","3","3","3","3","5","4","3","3","5","2","5","3","3","2","5","3","7","7","7","3","6","7","7","3","5","2","1","1","5","786688590502694913","柳","648","Male","[""好我"",""坏我"",""好他"",""坏他""]","[""强我"",""弱我"",""强他"",""弱他""]","","","","","","","","","","","","","","","","","","","","","","","","","","","","","","feedback_test","","","","","","","","",""
"683","","f","psychophysics","94","388355","0.0-8.0-0.0-1.0-0.0-0.42","6","5","5","6","5","4","3","4","4","4","5","1","0","1","2","0","1","1","2","5","4","5","5","4","3","4","3","4","5","3","4","4","5","3","4","4","5","4","6","4","2","5","7","2","4","1","5","3","1","5","3","3","3","3","5","4","3","3","5","2","5","3","3","2","5","3","7","7","7","3","6","7","7","3","5","2","1","1","5","786688590502694913","柳","648","Male","[""好我"",""坏我"",""好他"",""坏他""]","[""强我"",""弱我"",""强他"",""弱他""]","","","","","","","","match","","","","","","","","","","key","f","16.664000000000232","720","446","f","true","match","img/ellipse.png","好他","好他","prac_ALT2_moral","practice_moral","","","","","","","","",""
"null","<span style='color:GreenYellow; font-size: 70px;'>正确! </span>","null","html-keyboard-response","95","388856","0.0-8.0-0.0-1.0-0.0-1.42","6","5","5","6","5","4","3","4","4","4","5","1","0","1","2","0","1","1","2","5","4","5","5","4","3","4","3","4","5","3","4","4","5","3","4","4","5","4","6","4","2","5","7","2","4","1","5","3","1","5","3","3","3","3","5","4","3","3","5","2","5","3","3","2","5","3","7","7","7","3","6","7","7","3","5","2","1","1","5","786688590502694913","柳","648","Male","[""好我"",""坏我"",""好他"",""坏他""]","[""强我"",""弱我"",""强他"",""弱他""]","","","","","","","","","","","","","","","","","","","","","","","","","","","","","","feedback_test","","","","","","","","",""
"1033","","j","psychophysics","96","390891","0.0-8.0-0.0-1.0-0.0-0.43","6","5","5","6","5","4","3","4","4","4","5","1","0","1","2","0","1","1","2","5","4","5","5","4","3","4","3","4","5","3","4","4","5","3","4","4","5","4","6","4","2","5","7","2","4","1","5","3","1","5","3","3","3","3","5","4","3","3","5","2","5","3","3","2","5","3","7","7","7","3","6","7","7","3","5","2","1","1","5","786688590502694913","柳","648","Male","[""好我"",""坏我"",""好他"",""坏他""]","[""强我"",""弱我"",""强他"",""弱他""]","","","","","","","","nonmatch","","","","","","","","","","key","j","16.662809917355467","720","446","j","true","nonmatch","img/triangle.png","好他","好我","prac_ALT2_moral","practice_moral","","","","","","","","",""
"null","<span style='color:GreenYellow; font-size: 70px;'>正确! </span>","null","html-keyboard-response","97","391392","0.0-8.0-0.0-1.0-0.0-1.43","6","5","5","6","5","4","3","4","4","4","5","1","0","1","2","0","1","1","2","5","4","5","5","4","3","4","3","4","5","3","4","4","5","3","4","4","5","4","6","4","2","5","7","2","4","1","5","3","1","5","3","3","3","3","5","4","3","3","5","2","5","3","3","2","5","3","7","7","7","3","6","7","7","3","5","2","1","1","5","786688590502694913","柳","648","Male","[""好我"",""坏我"",""好他"",""坏他""]","[""强我"",""弱我"",""强他"",""弱他""]","","","","","","","","","","","","","","","","","","","","","","","","","","","","","","feedback_test","","","","","","","","",""
"1096","","j","psychophysics","98","393489","0.0-8.0-0.0-1.0-0.0-0.44","6","5","5","6","5","4","3","4","4","4","5","1","0","1","2","0","1","1","2","5","4","5","5","4","3","4","3","4","5","3","4","4","5","3","4","4","5","4","6","4","2","5","7","2","4","1","5","3","1","5","3","3","3","3","5","4","3","3","5","2","5","3","3","2","5","3","7","7","7","3","6","7","7","3","5","2","1","1","5","786688590502694913","柳","648","Male","[""好我"",""坏我"",""好他"",""坏他""]","[""强我"",""弱我"",""强他"",""弱他""]","","","","","","","","nonmatch","","","","","","","","","","key","j","16.663200000000185","720","446","j","true","nonmatch","img/pentagon.png","好我","坏他","prac_ALT2_moral","practice_moral","","","","","","","","",""
"null","<span style='color:GreenYellow; font-size: 70px;'>正确! </span>","null","html-keyboard-response","99","393990","0.0-8.0-0.0-1.0-0.0-1.44","6","5","5","6","5","4","3","4","4","4","5","1","0","1","2","0","1","1","2","5","4","5","5","4","3","4","3","4","5","3","4","4","5","3","4","4","5","4","6","4","2","5","7","2","4","1","5","3","1","5","3","3","3","3","5","4","3","3","5","2","5","3","3","2","5","3","7","7","7","3","6","7","7","3","5","2","1","1","5","786688590502694913","柳","648","Male","[""好我"",""坏我"",""好他"",""坏他""]","[""强我"",""弱我"",""强他"",""弱他""]","","","","","","","","","","","","","","","","","","","","","","","","","","","","","","feedback_test","","","","","","","","",""
"1134","","f","psychophysics","100","396125","0.0-8.0-0.0-1.0-0.0-0.45","6","5","5","6","5","4","3","4","4","4","5","1","0","1","2","0","1","1","2","5","4","5","5","4","3","4","3","4","5","3","4","4","5","3","4","4","5","4","6","4","2","5","7","2","4","1","5","3","1","5","3","3","3","3","5","4","3","3","5","2","5","3","3","2","5","3","7","7","7","3","6","7","7","3","5","2","1","1","5","786688590502694913","柳","648","Male","[""好我"",""坏我"",""好他"",""坏他""]","[""强我"",""弱我"",""强他"",""弱他""]","","","","","","","","match","","","","","","","","","","key","f","16.66377952755896","720","446","f","true","match","img/trapezoid.png","坏我","坏我","prac_ALT2_moral","practice_moral","","","","","","","","",""
"null","<span style='color:GreenYellow; font-size: 70px;'>正确! </span>","null","html-keyboard-response","101","396626","0.0-8.0-0.0-1.0-0.0-1.45","6","5","5","6","5","4","3","4","4","4","5","1","0","1","2","0","1","1","2","5","4","5","5","4","3","4","3","4","5","3","4","4","5","3","4","4","5","4","6","4","2","5","7","2","4","1","5","3","1","5","3","3","3","3","5","4","3","3","5","2","5","3","3","2","5","3","7","7","7","3","6","7","7","3","5","2","1","1","5","786688590502694913","柳","648","Male","[""好我"",""坏我"",""好他"",""坏他""]","[""强我"",""弱我"",""强他"",""弱他""]","","","","","","","","","","","","","","","","","","","","","","","","","","","","","","feedback_test","","","","","","","","",""
"768","","j","psychophysics","102","398395","0.0-8.0-0.0-1.0-0.0-0.46","6","5","5","6","5","4","3","4","4","4","5","1","0","1","2","0","1","1","2","5","4","5","5","4","3","4","3","4","5","3","4","4","5","3","4","4","5","4","6","4","2","5","7","2","4","1","5","3","1","5","3","3","3","3","5","4","3","3","5","2","5","3","3","2","5","3","7","7","7","3","6","7","7","3","5","2","1","1","5","786688590502694913","柳","648","Male","[""好我"",""坏我"",""好他"",""坏他""]","[""强我"",""弱我"",""强他"",""弱他""]","","","","","","","","nonmatch","","","","","","","","","","key","j","16.663809523809636","720","446","f","false","match","img/trapezoid.png","坏我","坏我","prac_ALT2_moral","practice_moral","","","","","","","","",""
"null","<span style='color:red; font-size: 70px;'>错误! </span>","null","html-keyboard-response","103","398897","0.0-8.0-0.0-1.0-0.0-1.46","6","5","5","6","5","4","3","4","4","4","5","1","0","1","2","0","1","1","2","5","4","5","5","4","3","4","3","4","5","3","4","4","5","3","4","4","5","4","6","4","2","5","7","2","4","1","5","3","1","5","3","3","3","3","5","4","3","3","5","2","5","3","3","2","5","3","7","7","7","3","6","7","7","3","5","2","1","1","5","786688590502694913","柳","648","Male","[""好我"",""坏我"",""好他"",""坏他""]","[""强我"",""弱我"",""强他"",""弱他""]","","","","","","","","","","","","","","","","","","","","","","","","","","","","","","feedback_test","","","","","","","","",""
"840","","f","psychophysics","104","400738","0.0-8.0-0.0-1.0-0.0-0.47","6","5","5","6","5","4","3","4","4","4","5","1","0","1","2","0","1","1","2","5","4","5","5","4","3","4","3","4","5","3","4","4","5","3","4","4","5","4","6","4","2","5","7","2","4","1","5","3","1","5","3","3","3","3","5","4","3","3","5","2","5","3","3","2","5","3","7","7","7","3","6","7","7","3","5","2","1","1","5","786688590502694913","柳","648","Male","[""好我"",""坏我"",""好他"",""坏他""]","[""强我"",""弱我"",""强他"",""弱他""]","","","","","","","","match","","","","","","","","","","key","f","16.664220183486453","720","446","j","false","nonmatch","img/pentagon.png","好他","坏他","prac_ALT2_moral","practice_moral","","","","","","","","",""
"null","<span style='color:red; font-size: 70px;'>错误! </span>","null","html-keyboard-response","105","401247","0.0-8.0-0.0-1.0-0.0-1.47","6","5","5","6","5","4","3","4","4","4","5","1","0","1","2","0","1","1","2","5","4","5","5","4","3","4","3","4","5","3","4","4","5","3","4","4","5","4","6","4","2","5","7","2","4","1","5","3","1","5","3","3","3","3","5","4","3","3","5","2","5","3","3","2","5","3","7","7","7","3","6","7","7","3","5","2","1","1","5","786688590502694913","柳","648","Male","[""好我"",""坏我"",""好他"",""坏他""]","[""强我"",""弱我"",""强他"",""弱他""]","","","","","","","","","","","","","","","","","","","","","","","","","","","","","","feedback_test","","","","","","","","",""
"6246","<style>.context{color:white; font-size: 35px; line-height:40px}</style>                            <div><p class='context'>您正确回答了56% 的试次。</p><p class='context'>您的平均反应时为951毫秒。</p><p class='context'>按空格键继续。</p></div>","tab","html-keyboard-response","106","407496","0.0-8.0-0.0-1.0-1.0-0.0","6","5","5","6","5","4","3","4","4","4","5","1","0","1","2","0","1","1","2","5","4","5","5","4","3","4","3","4","5","3","4","4","5","3","4","4","5","4","6","4","2","5","7","2","4","1","5","3","1","5","3","3","3","3","5","4","3","3","5","2","5","3","3","2","5","3","7","7","7","3","6","7","7","3","5","2","1","1","5","786688590502694913","柳","648","Male","[""好我"",""坏我"",""好他"",""坏他""]","[""强我"",""弱我"",""强他"",""弱他""]","","","","","","","","","","","","","","","","","","","","","","","","","","","","","","","","","","","","","","",""
"39306","","","instructions","107","446803","0.0-8.0-0.0-1.0-1.0-1.0","6","5","5","6","5","4","3","4","4","4","5","1","0","1","2","0","1","1","2","5","4","5","5","4","3","4","3","4","5","3","4","4","5","3","4","4","5","4","6","4","2","5","7","2","4","1","5","3","1","5","3","3","3","3","5","4","3","3","5","2","5","3","3","2","5","3","7","7","7","3","6","7","7","3","5","2","1","1","5","786688590502694913","柳","648","Male","[""好我"",""坏我"",""好他"",""坏他""]","[""强我"",""弱我"",""强他"",""弱他""]","","","","","","","","","","","","","","","","","[{""page_index"":0,""viewing_time"":29830},{""page_index"":1,""viewing_time"":6484},{""page_index"":2,""viewing_time"":2992}]","","","","","","","","","","","","","","","","","","","","","",""
"1003","","j","psychophysics","108","448808","0.0-8.0-0.0-1.1-0.1-0.48","6","5","5","6","5","4","3","4","4","4","5","1","0","1","2","0","1","1","2","5","4","5","5","4","3","4","3","4","5","3","4","4","5","3","4","4","5","4","6","4","2","5","7","2","4","1","5","3","1","5","3","3","3","3","5","4","3","3","5","2","5","3","3","2","5","3","7","7","7","3","6","7","7","3","5","2","1","1","5","786688590502694913","柳","648","Male","[""好我"",""坏我"",""好他"",""坏他""]","[""强我"",""弱我"",""强他"",""弱他""]","","","","","","","","nonmatch","","","","","","","","","","key","j","16.66386554621849","720","446","f","false","match","img/trapezoid.png","坏我","坏我","prac_ALT2_moral","practice_moral","","","","","","","","",""
"null","<span style='color:red; font-size: 70px;'>错误! </span>","null","html-keyboard-response","109","449309","0.0-8.0-0.0-1.1-0.1-1.48","6","5","5","6","5","4","3","4","4","4","5","1","0","1","2","0","1","1","2","5","4","5","5","4","3","4","3","4","5","3","4","4","5","3","4","4","5","4","6","4","2","5","7","2","4","1","5","3","1","5","3","3","3","3","5","4","3","3","5","2","5","3","3","2","5","3","7","7","7","3","6","7","7","3","5","2","1","1","5","786688590502694913","柳","648","Male","[""好我"",""坏我"",""好他"",""坏他""]","[""强我"",""弱我"",""强他"",""弱他""]","","","","","","","","","","","","","","","","","","","","","","","","","","","","","","feedback_test","","","","","","","","",""
"788","","j","psychophysics","110","451098","0.0-8.0-0.0-1.1-0.1-0.49","6","5","5","6","5","4","3","4","4","4","5","1","0","1","2","0","1","1","2","5","4","5","5","4","3","4","3","4","5","3","4","4","5","3","4","4","5","4","6","4","2","5","7","2","4","1","5","3","1","5","3","3","3","3","5","4","3","3","5","2","5","3","3","2","5","3","7","7","7","3","6","7","7","3","5","2","1","1","5","786688590502694913","柳","648","Male","[""好我"",""坏我"",""好他"",""坏他""]","[""强我"",""弱我"",""强他"",""弱他""]","","","","","","","","nonmatch","","","","","","","","","","key","j","16.664150943396447","720","446","f","false","match","img/triangle.png","好我","好我","prac_ALT2_moral","practice_moral","","","","","","","","",""
"null","<span style='color:red; font-size: 70px;'>错误! </span>","null","html-keyboard-response","111","451600","0.0-8.0-0.0-1.1-0.1-1.49","6","5","5","6","5","4","3","4","4","4","5","1","0","1","2","0","1","1","2","5","4","5","5","4","3","4","3","4","5","3","4","4","5","3","4","4","5","4","6","4","2","5","7","2","4","1","5","3","1","5","3","3","3","3","5","4","3","3","5","2","5","3","3","2","5","3","7","7","7","3","6","7","7","3","5","2","1","1","5","786688590502694913","柳","648","Male","[""好我"",""坏我"",""好他"",""坏他""]","[""强我"",""弱我"",""强他"",""弱他""]","","","","","","","","","","","","","","","","","","","","","","","","","","","","","","feedback_test","","","","","","","","",""
"928","","f","psychophysics","112","453529","0.0-8.0-0.0-1.1-0.1-0.50","6","5","5","6","5","4","3","4","4","4","5","1","0","1","2","0","1","1","2","5","4","5","5","4","3","4","3","4","5","3","4","4","5","3","4","4","5","4","6","4","2","5","7","2","4","1","5","3","1","5","3","3","3","3","5","4","3","3","5","2","5","3","3","2","5","3","7","7","7","3","6","7","7","3","5","2","1","1","5","786688590502694913","柳","648","Male","[""好我"",""坏我"",""好他"",""坏他""]","[""强我"",""弱我"",""强他"",""弱他""]","","","","","","","","match","","","","","","","","","","key","f","16.66315789473715","720","446","f","true","match","img/ellipse.png","好他","好他","prac_ALT2_moral","practice_moral","","","","","","","","",""
"null","<span style='color:GreenYellow; font-size: 70px;'>正确! </span>","null","html-keyboard-response","113","454030","0.0-8.0-0.0-1.1-0.1-1.50","6","5","5","6","5","4","3","4","4","4","5","1","0","1","2","0","1","1","2","5","4","5","5","4","3","4","3","4","5","3","4","4","5","3","4","4","5","4","6","4","2","5","7","2","4","1","5","3","1","5","3","3","3","3","5","4","3","3","5","2","5","3","3","2","5","3","7","7","7","3","6","7","7","3","5","2","1","1","5","786688590502694913","柳","648","Male","[""好我"",""坏我"",""好他"",""坏他""]","[""强我"",""弱我"",""强他"",""弱他""]","","","","","","","","","","","","","","","","","","","","","","","","","","","","","","feedback_test","","","","","","","","",""
"1069","","f","psychophysics","114","456101","0.0-8.0-0.0-1.1-0.1-0.51","6","5","5","6","5","4","3","4","4","4","5","1","0","1","2","0","1","1","2","5","4","5","5","4","3","4","3","4","5","3","4","4","5","3","4","4","5","4","6","4","2","5","7","2","4","1","5","3","1","5","3","3","3","3","5","4","3","3","5","2","5","3","3","2","5","3","7","7","7","3","6","7","7","3","5","2","1","1","5","786688590502694913","柳","648","Male","[""好我"",""坏我"",""好他"",""坏他""]","[""强我"",""弱我"",""强他"",""弱他""]","","","","","","","","match","","","","","","","","","","key","f","16.66370967741926","720","446","j","false","nonmatch","img/pentagon.png","好他","坏他","prac_ALT2_moral","practice_moral","","","","","","","","",""
"null","<span style='color:red; font-size: 70px;'>错误! </span>","null","html-keyboard-response","115","456602","0.0-8.0-0.0-1.1-0.1-1.51","6","5","5","6","5","4","3","4","4","4","5","1","0","1","2","0","1","1","2","5","4","5","5","4","3","4","3","4","5","3","4","4","5","3","4","4","5","4","6","4","2","5","7","2","4","1","5","3","1","5","3","3","3","3","5","4","3","3","5","2","5","3","3","2","5","3","7","7","7","3","6","7","7","3","5","2","1","1","5","786688590502694913","柳","648","Male","[""好我"",""坏我"",""好他"",""坏他""]","[""强我"",""弱我"",""强他"",""弱他""]","","","","","","","","","","","","","","","","","","","","","","","","","","","","","","feedback_test","","","","","","","","",""
"848","","j","psychophysics","116","458451","0.0-8.0-0.0-1.1-0.1-0.52","6","5","5","6","5","4","3","4","4","4","5","1","0","1","2","0","1","1","2","5","4","5","5","4","3","4","3","4","5","3","4","4","5","3","4","4","5","4","6","4","2","5","7","2","4","1","5","3","1","5","3","3","3","3","5","4","3","3","5","2","5","3","3","2","5","3","7","7","7","3","6","7","7","3","5","2","1","1","5","786688590502694913","柳","648","Male","[""好我"",""坏我"",""好他"",""坏他""]","[""强我"",""弱我"",""强他"",""弱他""]","","","","","","","","nonmatch","","","","","","","","","","key","j","16.662727272727484","720","446","f","false","match","img/triangle.png","好我","好我","prac_ALT2_moral","practice_moral","","","","","","","","",""
"null","<span style='color:red; font-size: 70px;'>错误! </span>","null","html-keyboard-response","117","458952","0.0-8.0-0.0-1.1-0.1-1.52","6","5","5","6","5","4","3","4","4","4","5","1","0","1","2","0","1","1","2","5","4","5","5","4","3","4","3","4","5","3","4","4","5","3","4","4","5","4","6","4","2","5","7","2","4","1","5","3","1","5","3","3","3","3","5","4","3","3","5","2","5","3","3","2","5","3","7","7","7","3","6","7","7","3","5","2","1","1","5","786688590502694913","柳","648","Male","[""好我"",""坏我"",""好他"",""坏他""]","[""强我"",""弱我"",""强他"",""弱他""]","","","","","","","","","","","","","","","","","","","","","","","","","","","","","","feedback_test","","","","","","","","",""
"842","","f","psychophysics","118","460795","0.0-8.0-0.0-1.1-0.1-0.53","6","5","5","6","5","4","3","4","4","4","5","1","0","1","2","0","1","1","2","5","4","5","5","4","3","4","3","4","5","3","4","4","5","3","4","4","5","4","6","4","2","5","7","2","4","1","5","3","1","5","3","3","3","3","5","4","3","3","5","2","5","3","3","2","5","3","7","7","7","3","6","7","7","3","5","2","1","1","5","786688590502694913","柳","648","Male","[""好我"",""坏我"",""好他"",""坏他""]","[""强我"",""弱我"",""强他"",""弱他""]","","","","","","","","match","","","","","","","","","","key","f","16.663302752293472","720","446","f","true","match","img/triangle.png","好我","好我","prac_ALT2_moral","practice_moral","","","","","","","","",""
"null","<span style='color:GreenYellow; font-size: 70px;'>正确! </span>","null","html-keyboard-response","119","461297","0.0-8.0-0.0-1.1-0.1-1.53","6","5","5","6","5","4","3","4","4","4","5","1","0","1","2","0","1","1","2","5","4","5","5","4","3","4","3","4","5","3","4","4","5","3","4","4","5","4","6","4","2","5","7","2","4","1","5","3","1","5","3","3","3","3","5","4","3","3","5","2","5","3","3","2","5","3","7","7","7","3","6","7","7","3","5","2","1","1","5","786688590502694913","柳","648","Male","[""好我"",""坏我"",""好他"",""坏他""]","[""强我"",""弱我"",""强他"",""弱他""]","","","","","","","","","","","","","","","","","","","","","","","","","","","","","","feedback_test","","","","","","","","",""
"952","","f","psychophysics","120","463250","0.0-8.0-0.0-1.1-0.1-0.54","6","5","5","6","5","4","3","4","4","4","5","1","0","1","2","0","1","1","2","5","4","5","5","4","3","4","3","4","5","3","4","4","5","3","4","4","5","4","6","4","2","5","7","2","4","1","5","3","1","5","3","3","3","3","5","4","3","3","5","2","5","3","3","2","5","3","7","7","7","3","6","7","7","3","5","2","1","1","5","786688590502694913","柳","648","Male","[""好我"",""坏我"",""好他"",""坏他""]","[""强我"",""弱我"",""强他"",""弱他""]","","","","","","","","match","","","","","","","","","","key","f","16.663247863247665","720","446","f","true","match","img/pentagon.png","坏他","坏他","prac_ALT2_moral","practice_moral","","","","","","","","",""
"null","<span style='color:GreenYellow; font-size: 70px;'>正确! </span>","null","html-keyboard-response","121","463751","0.0-8.0-0.0-1.1-0.1-1.54","6","5","5","6","5","4","3","4","4","4","5","1","0","1","2","0","1","1","2","5","4","5","5","4","3","4","3","4","5","3","4","4","5","3","4","4","5","4","6","4","2","5","7","2","4","1","5","3","1","5","3","3","3","3","5","4","3","3","5","2","5","3","3","2","5","3","7","7","7","3","6","7","7","3","5","2","1","1","5","786688590502694913","柳","648","Male","[""好我"",""坏我"",""好他"",""坏他""]","[""强我"",""弱我"",""强他"",""弱他""]","","","","","","","","","","","","","","","","","","","","","","","","","","","","","","feedback_test","","","","","","","","",""
"983","","j","psychophysics","122","465736","0.0-8.0-0.0-1.1-0.1-0.55","6","5","5","6","5","4","3","4","4","4","5","1","0","1","2","0","1","1","2","5","4","5","5","4","3","4","3","4","5","3","4","4","5","3","4","4","5","4","6","4","2","5","7","2","4","1","5","3","1","5","3","3","3","3","5","4","3","3","5","2","5","3","3","2","5","3","7","7","7","3","6","7","7","3","5","2","1","1","5","786688590502694913","柳","648","Male","[""好我"",""坏我"",""好他"",""坏他""]","[""强我"",""弱我"",""强他"",""弱他""]","","","","","","","","nonmatch","","","","","","","","","","key","j","16.66864406779681","720","446","j","true","nonmatch","img/trapezoid.png","好他","坏我","prac_ALT2_moral","practice_moral","","","","","","","","",""
"null","<span style='color:GreenYellow; font-size: 70px;'>正确! </span>","null","html-keyboard-response","123","466238","0.0-8.0-0.0-1.1-0.1-1.55","6","5","5","6","5","4","3","4","4","4","5","1","0","1","2","0","1","1","2","5","4","5","5","4","3","4","3","4","5","3","4","4","5","3","4","4","5","4","6","4","2","5","7","2","4","1","5","3","1","5","3","3","3","3","5","4","3","3","5","2","5","3","3","2","5","3","7","7","7","3","6","7","7","3","5","2","1","1","5","786688590502694913","柳","648","Male","[""好我"",""坏我"",""好他"",""坏他""]","[""强我"",""弱我"",""强他"",""弱他""]","","","","","","","","","","","","","","","","","","","","","","","","","","","","","","feedback_test","","","","","","","","",""
"578","","f","psychophysics","124","467816","0.0-8.0-0.0-1.1-0.1-0.56","6","5","5","6","5","4","3","4","4","4","5","1","0","1","2","0","1","1","2","5","4","5","5","4","3","4","3","4","5","3","4","4","5","3","4","4","5","4","6","4","2","5","7","2","4","1","5","3","1","5","3","3","3","3","5","4","3","3","5","2","5","3","3","2","5","3","7","7","7","3","6","7","7","3","5","2","1","1","5","786688590502694913","柳","648","Male","[""好我"",""坏我"",""好他"",""坏他""]","[""强我"",""弱我"",""强他"",""弱他""]","","","","","","","","match","","","","","","","","","","key","f","16.66382978723367","720","446","j","false","nonmatch","img/ellipse.png","好我","好他","prac_ALT2_moral","practice_moral","","","","","","","","",""
"null","<span style='color:red; font-size: 70px;'>错误! </span>","null","html-keyboard-response","125","468317","0.0-8.0-0.0-1.1-0.1-1.56","6","5","5","6","5","4","3","4","4","4","5","1","0","1","2","0","1","1","2","5","4","5","5","4","3","4","3","4","5","3","4","4","5","3","4","4","5","4","6","4","2","5","7","2","4","1","5","3","1","5","3","3","3","3","5","4","3","3","5","2","5","3","3","2","5","3","7","7","7","3","6","7","7","3","5","2","1","1","5","786688590502694913","柳","648","Male","[""好我"",""坏我"",""好他"",""坏他""]","[""强我"",""弱我"",""强他"",""弱他""]","","","","","","","","","","","","","","","","","","","","","","","","","","","","","","feedback_test","","","","","","","","",""
"1095","","f","psychophysics","126","470413","0.0-8.0-0.0-1.1-0.1-0.57","6","5","5","6","5","4","3","4","4","4","5","1","0","1","2","0","1","1","2","5","4","5","5","4","3","4","3","4","5","3","4","4","5","3","4","4","5","4","6","4","2","5","7","2","4","1","5","3","1","5","3","3","3","3","5","4","3","3","5","2","5","3","3","2","5","3","7","7","7","3","6","7","7","3","5","2","1","1","5","786688590502694913","柳","648","Male","[""好我"",""坏我"",""好他"",""坏他""]","[""强我"",""弱我"",""强他"",""弱他""]","","","","","","","","match","","","","","","","","","","key","f","16.664516129031977","720","446","j","false","nonmatch","img/triangle.png","坏他","好我","prac_ALT2_moral","practice_moral","","","","","","","","",""
"null","<span style='color:red; font-size: 70px;'>错误! </span>","null","html-keyboard-response","127","470914","0.0-8.0-0.0-1.1-0.1-1.57","6","5","5","6","5","4","3","4","4","4","5","1","0","1","2","0","1","1","2","5","4","5","5","4","3","4","3","4","5","3","4","4","5","3","4","4","5","4","6","4","2","5","7","2","4","1","5","3","1","5","3","3","3","3","5","4","3","3","5","2","5","3","3","2","5","3","7","7","7","3","6","7","7","3","5","2","1","1","5","786688590502694913","柳","648","Male","[""好我"",""坏我"",""好他"",""坏他""]","[""强我"",""弱我"",""强他"",""弱他""]","","","","","","","","","","","","","","","","","","","","","","","","","","","","","","feedback_test","","","","","","","","",""
"626","","j","psychophysics","128","472542","0.0-8.0-0.0-1.1-0.1-0.58","6","5","5","6","5","4","3","4","4","4","5","1","0","1","2","0","1","1","2","5","4","5","5","4","3","4","3","4","5","3","4","4","5","3","4","4","5","4","6","4","2","5","7","2","4","1","5","3","1","5","3","3","3","3","5","4","3","3","5","2","5","3","3","2","5","3","7","7","7","3","6","7","7","3","5","2","1","1","5","786688590502694913","柳","648","Male","[""好我"",""坏我"",""好他"",""坏他""]","[""强我"",""弱我"",""强他"",""弱他""]","","","","","","","","nonmatch","","","","","","","","","","key","j","16.663541666666788","720","446","f","false","match","img/trapezoid.png","坏我","坏我","prac_ALT2_moral","practice_moral","","","","","","","","",""
"null","<span style='color:red; font-size: 70px;'>错误! </span>","null","html-keyboard-response","129","473043","0.0-8.0-0.0-1.1-0.1-1.58","6","5","5","6","5","4","3","4","4","4","5","1","0","1","2","0","1","1","2","5","4","5","5","4","3","4","3","4","5","3","4","4","5","3","4","4","5","4","6","4","2","5","7","2","4","1","5","3","1","5","3","3","3","3","5","4","3","3","5","2","5","3","3","2","5","3","7","7","7","3","6","7","7","3","5","2","1","1","5","786688590502694913","柳","648","Male","[""好我"",""坏我"",""好他"",""坏他""]","[""强我"",""弱我"",""强他"",""弱他""]","","","","","","","","","","","","","","","","","","","","","","","","","","","","","","feedback_test","","","","","","","","",""
"850","","f","psychophysics","130","474894","0.0-8.0-0.0-1.1-0.1-0.59","6","5","5","6","5","4","3","4","4","4","5","1","0","1","2","0","1","1","2","5","4","5","5","4","3","4","3","4","5","3","4","4","5","3","4","4","5","4","6","4","2","5","7","2","4","1","5","3","1","5","3","3","3","3","5","4","3","3","5","2","5","3","3","2","5","3","7","7","7","3","6","7","7","3","5","2","1","1","5","786688590502694913","柳","648","Male","[""好我"",""坏我"",""好他"",""坏他""]","[""强我"",""弱我"",""强他"",""弱他""]","","","","","","","","match","","","","","","","","","","key","f","16.663636363636364","720","446","f","true","match","img/pentagon.png","坏他","坏他","prac_ALT2_moral","practice_moral","","","","","","","","",""
"null","<span style='color:GreenYellow; font-size: 70px;'>正确! </span>","null","html-keyboard-response","131","475395","0.0-8.0-0.0-1.1-0.1-1.59","6","5","5","6","5","4","3","4","4","4","5","1","0","1","2","0","1","1","2","5","4","5","5","4","3","4","3","4","5","3","4","4","5","3","4","4","5","4","6","4","2","5","7","2","4","1","5","3","1","5","3","3","3","3","5","4","3","3","5","2","5","3","3","2","5","3","7","7","7","3","6","7","7","3","5","2","1","1","5","786688590502694913","柳","648","Male","[""好我"",""坏我"",""好他"",""坏他""]","[""强我"",""弱我"",""强他"",""弱他""]","","","","","","","","","","","","","","","","","","","","","","","","","","","","","","feedback_test","","","","","","","","",""
"655","","f","psychophysics","132","477051","0.0-8.0-0.0-1.1-0.1-0.60","6","5","5","6","5","4","3","4","4","4","5","1","0","1","2","0","1","1","2","5","4","5","5","4","3","4","3","4","5","3","4","4","5","3","4","4","5","4","6","4","2","5","7","2","4","1","5","3","1","5","3","3","3","3","5","4","3","3","5","2","5","3","3","2","5","3","7","7","7","3","6","7","7","3","5","2","1","1","5","786688590502694913","柳","648","Male","[""好我"",""坏我"",""好他"",""坏他""]","[""强我"",""弱我"",""强他"",""弱他""]","","","","","","","","match","","","","","","","","","","key","f","16.664285714285477","720","446","j","false","nonmatch","img/pentagon.png","坏我","坏他","prac_ALT2_moral","practice_moral","","","","","","","","",""
"null","<span style='color:red; font-size: 70px;'>错误! </span>","null","html-keyboard-response","133","477557","0.0-8.0-0.0-1.1-0.1-1.60","6","5","5","6","5","4","3","4","4","4","5","1","0","1","2","0","1","1","2","5","4","5","5","4","3","4","3","4","5","3","4","4","5","3","4","4","5","4","6","4","2","5","7","2","4","1","5","3","1","5","3","3","3","3","5","4","3","3","5","2","5","3","3","2","5","3","7","7","7","3","6","7","7","3","5","2","1","1","5","786688590502694913","柳","648","Male","[""好我"",""坏我"",""好他"",""坏他""]","[""强我"",""弱我"",""强他"",""弱他""]","","","","","","","","","","","","","","","","","","","","","","","","","","","","","","feedback_test","","","","","","","","",""
"null","","null","psychophysics","134","479765","0.0-8.0-0.0-1.1-0.1-0.61","6","5","5","6","5","4","3","4","4","4","5","1","0","1","2","0","1","1","2","5","4","5","5","4","3","4","3","4","5","3","4","4","5","3","4","4","5","4","6","4","2","5","7","2","4","1","5","3","1","5","3","3","3","3","5","4","3","3","5","2","5","3","3","2","5","3","7","7","7","3","6","7","7","3","5","2","1","1","5","786688590502694913","柳","648","Male","[""好我"",""坏我"",""好他"",""坏他""]","[""强我"",""弱我"",""强他"",""弱他""]","","","","","","","","null","","","","","","","","","","key","null","16.663636363636627","720","446","j","false","nonmatch","img/ellipse.png","坏他","好他","prac_ALT2_moral","practice_moral","","","","","","","","",""
"null","<span class='add_' style='color:yellow; font-size: 70px;'> 太慢! </span>","null","html-keyboard-response","135","480266","0.0-8.0-0.0-1.1-0.1-1.61","6","5","5","6","5","4","3","4","4","4","5","1","0","1","2","0","1","1","2","5","4","5","5","4","3","4","3","4","5","3","4","4","5","3","4","4","5","4","6","4","2","5","7","2","4","1","5","3","1","5","3","3","3","3","5","4","3","3","5","2","5","3","3","2","5","3","7","7","7","3","6","7","7","3","5","2","1","1","5","786688590502694913","柳","648","Male","[""好我"",""坏我"",""好他"",""坏他""]","[""强我"",""弱我"",""强他"",""弱他""]","","","","","","","","","","","","","","","","","","","","","","","","","","","","","","feedback_test","","","","","","","","",""
"857","","f","psychophysics","136","482125","0.0-8.0-0.0-1.1-0.1-0.62","6","5","5","6","5","4","3","4","4","4","5","1","0","1","2","0","1","1","2","5","4","5","5","4","3","4","3","4","5","3","4","4","5","3","4","4","5","4","6","4","2","5","7","2","4","1","5","3","1","5","3","3","3","3","5","4","3","3","5","2","5","3","3","2","5","3","7","7","7","3","6","7","7","3","5","2","1","1","5","786688590502694913","柳","648","Male","[""好我"",""坏我"",""好他"",""坏他""]","[""强我"",""弱我"",""强他"",""弱他""]","","","","","","","","match","","","","","","","","","","key","f","16.66454545454577","720","446","f","true","match","img/pentagon.png","坏他","坏他","prac_ALT2_moral","practice_moral","","","","","","","","",""
"null","<span style='color:GreenYellow; font-size: 70px;'>正确! </span>","null","html-keyboard-response","137","482627","0.0-8.0-0.0-1.1-0.1-1.62","6","5","5","6","5","4","3","4","4","4","5","1","0","1","2","0","1","1","2","5","4","5","5","4","3","4","3","4","5","3","4","4","5","3","4","4","5","4","6","4","2","5","7","2","4","1","5","3","1","5","3","3","3","3","5","4","3","3","5","2","5","3","3","2","5","3","7","7","7","3","6","7","7","3","5","2","1","1","5","786688590502694913","柳","648","Male","[""好我"",""坏我"",""好他"",""坏他""]","[""强我"",""弱我"",""强他"",""弱他""]","","","","","","","","","","","","","","","","","","","","","","","","","","","","","","feedback_test","","","","","","","","",""
"671","","f","psychophysics","138","484299","0.0-8.0-0.0-1.1-0.1-0.63","6","5","5","6","5","4","3","4","4","4","5","1","0","1","2","0","1","1","2","5","4","5","5","4","3","4","3","4","5","3","4","4","5","3","4","4","5","4","6","4","2","5","7","2","4","1","5","3","1","5","3","3","3","3","5","4","3","3","5","2","5","3","3","2","5","3","7","7","7","3","6","7","7","3","5","2","1","1","5","786688590502694913","柳","648","Male","[""好我"",""坏我"",""好他"",""坏他""]","[""强我"",""弱我"",""强他"",""弱他""]","","","","","","","","match","","","","","","","","","","key","f","16.652525252525606","720","446","j","false","nonmatch","img/trapezoid.png","好我","坏我","prac_ALT2_moral","practice_moral","","","","","","","","",""
