"rt","stimulus","response","trial_type","trial_index","time_elapsed","internal_node_id","swb_1","swb_2","swb_3","swb_4","swb_5","LOT_1","LOT_2","LOT_3","LOT_4","LOT_5","LOT_6","IPC_1","IPC_2","IPC_3","IPC_4","IPC_5","IPC_6","IPC_7","IPC_8","MorIden_1","MorIden_2","MorIden_3","MorIden_4","MorIden_5","MorIden_6","MorIden_7","MorIden_8","MorIden_9","MorIden_10","moralSeImag_1","moralSeImag_2","moralSeImag_3","moralSeImag_4","moralSeImag_5","moralSeImag_6","moralSeImag_7","moralSeImag_8","moralSeImag_9","sde_1","sde_2","sde_3","sde_4","sde_5","sde_6","sde_7","sde_8","sde_9","sde_10","trap2","sde_11","sde_12","sde_13","sde_14","sde_15","sde_16","sde_17","sde_18","sde_19","sde_20","IM_1","IM_2","IM_3","IM_4","IM_5","IM_6","IM_7","IM_8","IM_9","IM_10","IM_11","IM_12","IM_13","IM_14","IM_15","IM_16","IM_17","IM_18","IM_19","IM_20","subj_idx","friend_name","ParticipantID","Sex","Word","Word2","value","success","timeout","failed_images","failed_audio","failed_video","user_agent","responses","item_order","radio_event_ids","radio_event_times","key_event_times","mouse_event_times","straightlining","zigzagging","honeypot","task_id","screen_id","time_stamp","response_type","key_press","avg_frame_time","center_x","center_y","person","word","valence","domain","math","correct_response","correct","status","view_history","identity","duration","Image","condition","question_order","trap2_item"
"4318","
   <p><div style='color:white; font-size: 25px'>您好，欢迎参加本次实验。</div></p>
   <p><div style='color:white; font-size: 25px'>为充分保障您的权利，请确保您已经知晓并同意《参与实验同意书》以及《数据公开知情同意书》。</div></p>
   <p><div style='color:white; font-size: 25px'>如果您未见过上述内容，请咨询实验员。</div></p>
   <p style='color:white; font-size: 25px'>如果您选择继续实验，则表示您已经清楚两份知情同意书的内容并同意。</p>
   <p><div style = ""color: pink;font-size:30px;"">请确保您记得day0的实验编号，您将在本次实验输入该编号，若您忘记，请咨询实验员后作答。</div></p>
   <p><div style = ""color:lightblue;font-size:25px;"">请您尽可能认真地作答，我们将依据您在各问卷和按键任务中的作答质量发放报酬。</div></p>
   <p> <div style = ""color: green""><按空格键至下页></div> </p>
   "," ","html-keyboard-response","0","4326","0.0-0.0","5","4","5","5","3","3","3","2","4","5","4","0","-2","0","0","-1","0","1","0","5","4","5","5","4","3","4","4","4","5","4","6","7","7","4","5","4","6","6","4","3","2","5","5","4","4","5","3","3","1","3","2","6","6","3","3","3","3","3","5","2","2","3","3","3","3","2","5","3","4","3","2","2","2","1","2","2","3","2","3","776797303246950402","韦","279","Female","[""好她"",""坏我"",""坏她"",""好我""]","[""强她"",""弱我"",""弱她"",""强我""]","","","","","","","","","","","","","","","","","","","","","","","","","","","","","","","","","","","","","","",""
"","","","call-function","1","4331","0.0-1.0-0.0","5","4","5","5","3","3","3","2","4","5","4","0","-2","0","0","-1","0","1","0","5","4","5","5","4","3","4","4","4","5","4","6","7","7","4","5","4","6","6","4","3","2","5","5","4","4","5","3","3","1","3","2","6","6","3","3","3","3","3","5","2","2","3","3","3","3","2","5","3","4","3","2","2","2","1","2","2","3","2","3","776797303246950402","韦","279","Female","[""好她"",""坏我"",""坏她"",""好我""]","[""强她"",""弱我"",""弱她"",""强我""]","","","","","","","","","","","","","","","","","","","","","","","","","","","","","","","","","","","","","","",""
"122969","","[{""name"":""Sex"",""value"":""1""},{""name"":""friend_name"",""value"":""韦""},{""name"":""ParticipantID"",""value"":""279""}]","survey-html-form","2","127304","0.0-1.0-1.0","5","4","5","5","3","3","3","2","4","5","4","0","-2","0","0","-1","0","1","0","5","4","5","5","4","3","4","4","4","5","4","6","7","7","4","5","4","6","6","4","3","2","5","5","4","4","5","3","3","1","3","2","6","6","3","3","3","3","3","5","2","2","3","3","3","3","2","5","3","4","3","2","2","2","1","2","2","3","2","3","776797303246950402","韦","279","Female","[""好她"",""坏我"",""坏她"",""好我""]","[""强她"",""弱我"",""弱她"",""强我""]","","","","","","","","","","","","","","","","","","","","","","","","","","","","","","","","","","","","","","",""
"","","","preload","3","127888","0.0-2.0","5","4","5","5","3","3","3","2","4","5","4","0","-2","0","0","-1","0","1","0","5","4","5","5","4","3","4","4","4","5","4","6","7","7","4","5","4","6","6","4","3","2","5","5","4","4","5","3","3","1","3","2","6","6","3","3","3","3","3","5","2","2","3","3","3","3","2","5","3","4","3","2","2","2","1","2","2","3","2","3","776797303246950402","韦","279","Female","[""好她"",""坏我"",""坏她"",""好我""]","[""强她"",""弱我"",""弱她"",""强我""]","","true","false","[]","[]","[]","","","","","","","","","","","","","","","","","","","","","","","","","","","","","","","","",""
"","","","fullscreen","4","135660","0.0-3.0","5","4","5","5","3","3","3","2","4","5","4","0","-2","0","0","-1","0","1","0","5","4","5","5","4","3","4","4","4","5","4","6","7","7","4","5","4","6","6","4","3","2","5","5","4","4","5","3","3","1","3","2","6","6","3","3","3","3","3","5","2","2","3","3","3","3","2","5","3","4","3","2","2","2","1","2","2","3","2","3","776797303246950402","韦","279","Female","[""好她"",""坏我"",""坏她"",""好我""]","[""强她"",""弱我"",""弱她"",""强我""]","","true","","","","","{}","","","","","","","","","","","","","","","","","","","","","","","","","","","","","","","",""
"41525.5","","{""Q01"":""5"",""Q02"":""4"",""Q03"":""5"",""Q04"":""5"",""Q05"":""3""}","survey-template","5","177202","0.0-4.0","5","4","5","5","3","3","3","2","4","5","4","0","-2","0","0","-1","0","1","0","5","4","5","5","4","3","4","4","4","5","4","6","7","7","4","5","4","6","6","4","3","2","5","5","4","4","5","3","3","1","3","2","6","6","3","3","3","3","3","5","2","2","3","3","3","3","2","5","3","4","3","2","2","2","1","2","2","3","2","3","776797303246950402","韦","279","Female","[""好她"",""坏我"",""坏她"",""好我""]","[""强她"",""弱我"",""弱她"",""强我""]","","","","","","","","{""Q01"":""5"",""Q02"":""4"",""Q03"":""5"",""Q04"":""5"",""Q05"":""3""}","[0,1,2,3,4]","[""Q01"",""Q01"",""Q02"",""Q03"",""Q01"",""Q01"",""Q02"",""Q03"",""Q04"",""Q04"",""Q05""]","[2638.5,9468.5,12213.599999997765,12890.79999999702,14434.099999997765,16906.099999997765,20572.099999997765,23404.29999999702,26593.599999997765,37289.699999999255,38205.699999999255]","[]","[2638.5,6616.5,9468.5,12213.599999997765,12890.79999999702,14434.099999997765,16906.099999997765,20572.099999997765,22783.79999999702,23404.29999999702,26593.599999997765,37289.699999999255,38205.699999999255,41521.699999999255]","0.6","0.5","0","","","","","","","","","","","","","","","","","","","","","","",""
"64391.79999999702","","{""Q01"":""3"",""Q02"":""3"",""Q03"":""2"",""Q04"":""4"",""Q05"":""5"",""Q06"":""4""}","survey-template","6","241607","0.0-5.0","5","4","5","5","3","3","3","2","4","5","4","0","-2","0","0","-1","0","1","0","5","4","5","5","4","3","4","4","4","5","4","6","7","7","4","5","4","6","6","4","3","2","5","5","4","4","5","3","3","1","3","2","6","6","3","3","3","3","3","5","2","2","3","3","3","3","2","5","3","4","3","2","2","2","1","2","2","3","2","3","776797303246950402","韦","279","Female","[""好她"",""坏我"",""坏她"",""好我""]","[""强她"",""弱我"",""弱她"",""强我""]","","","","","","","","{""Q01"":""3"",""Q02"":""3"",""Q03"":""2"",""Q04"":""4"",""Q05"":""5"",""Q06"":""4""}","[0,1,2,3,4,5]","[""Q01"",""Q02"",""Q03"",""Q02"",""Q04"",""Q05"",""Q06"",""Q01""]","[6470.39999999851,14769.29999999702,15449.79999999702,17409.39999999851,22987.5,26478.099999997765,34979.29999999702,43877.89999999851]","[]","[3621.699999999255,4693.699999999255,6470.39999999851,14769.29999999702,15449.79999999702,17409.39999999851,21763.699999999255,22987.5,24895.5,26478.099999997765,34979.29999999702,43877.89999999851,64389.199999999255]","0.3333333333333333","0.4","0","","","","","","","","","","","","","","","","","","","","","","",""
"53015.199999999255","","{""Q01"":""0"",""Q02"":""-2"",""Q03"":""0"",""Q04"":""0"",""Q05"":""-1"",""Q06"":""0"",""Q07"":""1"",""Q08"":""0""}","survey-template","7","294633","0.0-6.0","5","4","5","5","3","3","3","2","4","5","4","0","-2","0","0","-1","0","1","0","5","4","5","5","4","3","4","4","4","5","4","6","7","7","4","5","4","6","6","4","3","2","5","5","4","4","5","3","3","1","3","2","6","6","3","3","3","3","3","5","2","2","3","3","3","3","2","5","3","4","3","2","2","2","1","2","2","3","2","3","776797303246950402","韦","279","Female","[""好她"",""坏我"",""坏她"",""好我""]","[""强她"",""弱我"",""弱她"",""强我""]","","","","","","","","{""Q01"":""0"",""Q02"":""-2"",""Q03"":""0"",""Q04"":""0"",""Q05"":""-1"",""Q06"":""0"",""Q07"":""1"",""Q08"":""0""}","[0,1,2,3,4,5,6,7]","[""Q01"",""Q02"",""Q03"",""Q04"",""Q05"",""Q04"",""Q06"",""Q07"",""Q08""]","[2718.5,5704.39999999851,10556.199999999255,22224.300000000745,23184.39999999851,26638.099999997765,28762.099999997765,32800,34496.099999997765]","[]","[2718.5,5310.099999997765,5704.39999999851,10556.199999999255,21452.599999997765,22224.300000000745,23184.39999999851,26638.099999997765,28762.099999997765,32800,34496.099999997765,53010.699999999255]","0.625","0.5714285714285714","0","","","","","","","","","","","","","","","","","","","","","","",""
"20523","
    <p><div style='color:white;font-size:35px; line-height:20px;'>词汇评估任务</div></p><br>
    <p><div style='color:white;font-size:25px; line-height:20px;'>请再次回忆该亲密的朋友，你们至少2年前就认识了，并且最近2年经常见面。</div></p>
    <p><div style='color:white;font-size:25px; line-height:20px;'>在本实验中，您将会看到一些形容词。</div></p>
    <p><div style='color:yellow;font-size:25px; line-height:20px;'>您的任务是判断这些形容词是否符合对您自己或您的朋友的描述。</div></p><p style='font-size:35px'>符合按<span style=""color:lightgreen""> j 键</span>，不符合按<span style=""color:red""> f 键</span></p>","0","html-button-response","8","315165","0.0-7.0-0.0","5","4","5","5","3","3","3","2","4","5","4","0","-2","0","0","-1","0","1","0","5","4","5","5","4","3","4","4","4","5","4","6","7","7","4","5","4","6","6","4","3","2","5","5","4","4","5","3","3","1","3","2","6","6","3","3","3","3","3","5","2","2","3","3","3","3","2","5","3","4","3","2","2","2","1","2","2","3","2","3","776797303246950402","韦","279","Female","[""好她"",""坏我"",""坏她"",""好我""]","[""强她"",""弱我"",""弱她"",""强我""]","","","","","","","","","","","","","","","","","SRET_EW","EW_instructions","Wed Dec 20 2023 13:10:54 GMT+0800 (中国标准时间)","","","","","","","","","","","","","","","","","","","",""
"730","","j","psychophysics","9","316925","0.0-7.0-1.0-0.0","5","4","5","5","3","3","3","2","4","5","4","0","-2","0","0","-1","0","1","0","5","4","5","5","4","3","4","4","4","5","4","6","7","7","4","5","4","6","6","4","3","2","5","5","4","4","5","3","3","1","3","2","6","6","3","3","3","3","3","5","2","2","3","3","3","3","2","5","3","4","3","2","2","2","1","2","2","3","2","3","776797303246950402","韦","279","Female","[""好她"",""坏我"",""坏她"",""好我""]","[""强她"",""弱我"",""弱她"",""强我""]","","","","","","","","yes","","","","","","","","","SRET_EW","EW_practice","","key","j","17.216725490195792","683","380","朋友","忠实","Positive","morality","","","","","","","","","","",""
"1842","","j","psychophysics","10","319771","0.0-7.0-1.0-0.1","5","4","5","5","3","3","3","2","4","5","4","0","-2","0","0","-1","0","1","0","5","4","5","5","4","3","4","4","4","5","4","6","7","7","4","5","4","6","6","4","3","2","5","5","4","4","5","3","3","1","3","2","6","6","3","3","3","3","3","5","2","2","3","3","3","3","2","5","3","4","3","2","2","2","1","2","2","3","2","3","776797303246950402","韦","279","Female","[""好她"",""坏我"",""坏她"",""好我""]","[""强她"",""弱我"",""弱她"",""强我""]","","","","","","","","yes","","","","","","","","","SRET_EW","EW_practice","","key","j","16.724810650887328","683","380","自己","严谨","Positive","ability","","","","","","","","","","",""
"837","","f","psychophysics","11","321611","0.0-7.0-1.0-0.2","5","4","5","5","3","3","3","2","4","5","4","0","-2","0","0","-1","0","1","0","5","4","5","5","4","3","4","4","4","5","4","6","7","7","4","5","4","6","6","4","3","2","5","5","4","4","5","3","3","1","3","2","6","6","3","3","3","3","3","5","2","2","3","3","3","3","2","5","3","4","3","2","2","2","1","2","2","3","2","3","776797303246950402","韦","279","Female","[""好她"",""坏我"",""坏她"",""好我""]","[""强她"",""弱我"",""弱她"",""强我""]","","","","","","","","no","","","","","","","","","SRET_EW","EW_practice","","key","f","16.87957407407413","683","380","朋友","徇私","Negative","morality","","","","","","","","","","",""
"1049","","f","psychophysics","12","323663","0.0-7.0-1.0-0.3","5","4","5","5","3","3","3","2","4","5","4","0","-2","0","0","-1","0","1","0","5","4","5","5","4","3","4","4","4","5","4","6","7","7","4","5","4","6","6","4","3","2","5","5","4","4","5","3","3","1","3","2","6","6","3","3","3","3","3","5","2","2","3","3","3","3","2","5","3","4","3","2","2","2","1","2","2","3","2","3","776797303246950402","韦","279","Female","[""好她"",""坏我"",""坏她"",""好我""]","[""强她"",""弱我"",""弱她"",""强我""]","","","","","","","","no","","","","","","","","","SRET_EW","EW_practice","","key","f","17.003600000000247","683","380","自己","刻板","Negative","ability","","","","","","","","","","",""
"12555","
    <p><div style='color:white;font-size:35px; line-height:20px;'>请您再次阅读实验要求</div></p><br>
    <p><div style='color:white;font-size:25px; line-height:20px;'>请回忆某一个亲密的朋友，你们至少2年前就认识了，并且最近2年经常见面。</div></p>
    <p><div style='color:white;font-size:25px; line-height:20px;'>在本实验中，您将会看到一些形容词。</div></p>
    <p><div style='color:yellow;font-size:25px; line-height:20px;'>您的任务是判断这些形容词是否符合对您自己或您的朋友的描述。</div></p>
    <p><div class='footer' style='font-size:25px; line-height:20px;'>如果对本实验还有不清楚之处，请立即向实验员咨询。</p><p style='font-size:25px; line-height:20px;'>如果您明白了规则：</p><p style='font-size:22px; line-height:20px;'>请按 继续 进入正式实验</p>
    </div>
    <p style='font-size:35px'>符合按<span style=""color:lightgreen""> j 键</span>，不符合按<span style=""color:red""> f 键</span></p>","0","html-button-response","13","336221","0.0-7.0-2.0","5","4","5","5","3","3","3","2","4","5","4","0","-2","0","0","-1","0","1","0","5","4","5","5","4","3","4","4","4","5","4","6","7","7","4","5","4","6","6","4","3","2","5","5","4","4","5","3","3","1","3","2","6","6","3","3","3","3","3","5","2","2","3","3","3","3","2","5","3","4","3","2","2","2","1","2","2","3","2","3","776797303246950402","韦","279","Female","[""好她"",""坏我"",""坏她"",""好我""]","[""强她"",""弱我"",""弱她"",""强我""]","","","","","","","","","","","","","","","","","SRET_EW","prac_instructions","Wed Dec 20 2023 13:10:54 GMT+0800 (中国标准时间)","","","","","","","","","","","","","","","","","","","",""
"573","","j","psychophysics","14","337802","0.0-7.0-3.0-0.0","5","4","5","5","3","3","3","2","4","5","4","0","-2","0","0","-1","0","1","0","5","4","5","5","4","3","4","4","4","5","4","6","7","7","4","5","4","6","6","4","3","2","5","5","4","4","5","3","3","1","3","2","6","6","3","3","3","3","3","5","2","2","3","3","3","3","2","5","3","4","3","2","2","2","1","2","2","3","2","3","776797303246950402","韦","279","Female","[""好她"",""坏我"",""坏她"",""好我""]","[""强她"",""弱我"",""弱她"",""强我""]","","","","","","","","yes","","","","","","","","","SRET","EW_formal","","key","j","16.90490322580664","683","380","自己","坚贞","Positive","morality","","","","","","","","","","",""
"805","","f","psychophysics","15","339610","0.0-7.0-3.0-0.1","5","4","5","5","3","3","3","2","4","5","4","0","-2","0","0","-1","0","1","0","5","4","5","5","4","3","4","4","4","5","4","6","7","7","4","5","4","6","6","4","3","2","5","5","4","4","5","3","3","1","3","2","6","6","3","3","3","3","3","5","2","2","3","3","3","3","2","5","3","4","3","2","2","2","1","2","2","3","2","3","776797303246950402","韦","279","Female","[""好她"",""坏我"",""坏她"",""好我""]","[""强她"",""弱我"",""弱她"",""强我""]","","","","","","","","no","","","","","","","","","SRET","EW_formal","","key","f","17.04323809523845","683","380","自己","说谎","Negative","morality","","","","","","","","","","",""
"712","","j","psychophysics","16","341324","0.0-7.0-3.0-0.2","5","4","5","5","3","3","3","2","4","5","4","0","-2","0","0","-1","0","1","0","5","4","5","5","4","3","4","4","4","5","4","6","7","7","4","5","4","6","6","4","3","2","5","5","4","4","5","3","3","1","3","2","6","6","3","3","3","3","3","5","2","2","3","3","3","3","2","5","3","4","3","2","2","2","1","2","2","3","2","3","776797303246950402","韦","279","Female","[""好她"",""坏我"",""坏她"",""好我""]","[""强她"",""弱我"",""弱她"",""强我""]","","","","","","","","yes","","","","","","","","","SRET","EW_formal","","key","j","17.059390000000132","683","380","朋友","务实","Positive","ability","","","","","","","","","","",""
"836","","f","psychophysics","17","343164","0.0-7.0-3.0-0.3","5","4","5","5","3","3","3","2","4","5","4","0","-2","0","0","-1","0","1","0","5","4","5","5","4","3","4","4","4","5","4","6","7","7","4","5","4","6","6","4","3","2","5","5","4","4","5","3","3","1","3","2","6","6","3","3","3","3","3","5","2","2","3","3","3","3","2","5","3","4","3","2","2","2","1","2","2","3","2","3","776797303246950402","韦","279","Female","[""好她"",""坏我"",""坏她"",""好我""]","[""强她"",""弱我"",""弱她"",""强我""]","","","","","","","","no","","","","","","","","","SRET","EW_formal","","key","f","16.724807339449683","683","380","朋友","迷糊","Negative","ability","","","","","","","","","","",""
"940","","j","psychophysics","18","345106","0.0-7.0-3.0-0.4","5","4","5","5","3","3","3","2","4","5","4","0","-2","0","0","-1","0","1","0","5","4","5","5","4","3","4","4","4","5","4","6","7","7","4","5","4","6","6","4","3","2","5","5","4","4","5","3","3","1","3","2","6","6","3","3","3","3","3","5","2","2","3","3","3","3","2","5","3","4","3","2","2","2","1","2","2","3","2","3","776797303246950402","韦","279","Female","[""好她"",""坏我"",""坏她"",""好我""]","[""强她"",""弱我"",""弱她"",""强我""]","","","","","","","","yes","","","","","","","","","SRET","EW_formal","","key","j","16.724826086956867","683","380","自己","懂行","Positive","ability","","","","","","","","","","",""
"818","","j","psychophysics","19","346927","0.0-7.0-3.0-0.5","5","4","5","5","3","3","3","2","4","5","4","0","-2","0","0","-1","0","1","0","5","4","5","5","4","3","4","4","4","5","4","6","7","7","4","5","4","6","6","4","3","2","5","5","4","4","5","3","3","1","3","2","6","6","3","3","3","3","3","5","2","2","3","3","3","3","2","5","3","4","3","2","2","2","1","2","2","3","2","3","776797303246950402","韦","279","Female","[""好她"",""坏我"",""坏她"",""好我""]","[""强她"",""弱我"",""弱她"",""强我""]","","","","","","","","yes","","","","","","","","","SRET","EW_formal","","key","j","16.72495370370355","683","380","自己","忠诚","Positive","morality","","","","","","","","","","",""
"1023","","f","psychophysics","20","348955","0.0-7.0-3.0-0.6","5","4","5","5","3","3","3","2","4","5","4","0","-2","0","0","-1","0","1","0","5","4","5","5","4","3","4","4","4","5","4","6","7","7","4","5","4","6","6","4","3","2","5","5","4","4","5","3","3","1","3","2","6","6","3","3","3","3","3","5","2","2","3","3","3","3","2","5","3","4","3","2","2","2","1","2","2","3","2","3","776797303246950402","韦","279","Female","[""好她"",""坏我"",""坏她"",""好我""]","[""强她"",""弱我"",""弱她"",""强我""]","","","","","","","","no","","","","","","","","","SRET","EW_formal","","key","f","16.724891666666856","683","380","朋友","缺德","Negative","morality","","","","","","","","","","",""
"783","","j","psychophysics","21","350740","0.0-7.0-3.0-0.7","5","4","5","5","3","3","3","2","4","5","4","0","-2","0","0","-1","0","1","0","5","4","5","5","4","3","4","4","4","5","4","6","7","7","4","5","4","6","6","4","3","2","5","5","4","4","5","3","3","1","3","2","6","6","3","3","3","3","3","5","2","2","3","3","3","3","2","5","3","4","3","2","2","2","1","2","2","3","2","3","776797303246950402","韦","279","Female","[""好她"",""坏我"",""坏她"",""好我""]","[""强她"",""弱我"",""弱她"",""强我""]","","","","","","","","yes","","","","","","","","","SRET","EW_formal","","key","j","16.724235849056882","683","380","朋友","廉正","Positive","morality","","","","","","","","","","",""
"1091","","f","psychophysics","22","352835","0.0-7.0-3.0-0.8","5","4","5","5","3","3","3","2","4","5","4","0","-2","0","0","-1","0","1","0","5","4","5","5","4","3","4","4","4","5","4","6","7","7","4","5","4","6","6","4","3","2","5","5","4","4","5","3","3","1","3","2","6","6","3","3","3","3","3","5","2","2","3","3","3","3","2","5","3","4","3","2","2","2","1","2","2","3","2","3","776797303246950402","韦","279","Female","[""好她"",""坏我"",""坏她"",""好我""]","[""强她"",""弱我"",""弱她"",""强我""]","","","","","","","","no","","","","","","","","","SRET","EW_formal","","key","f","16.86075609756115","683","380","自己","怠惰","Negative","ability","","","","","","","","","","",""
"984","","j","psychophysics","23","354821","0.0-7.0-3.0-0.9","5","4","5","5","3","3","3","2","4","5","4","0","-2","0","0","-1","0","1","0","5","4","5","5","4","3","4","4","4","5","4","6","7","7","4","5","4","6","6","4","3","2","5","5","4","4","5","3","3","1","3","2","6","6","3","3","3","3","3","5","2","2","3","3","3","3","2","5","3","4","3","2","2","2","1","2","2","3","2","3","776797303246950402","韦","279","Female","[""好她"",""坏我"",""坏她"",""好我""]","[""强她"",""弱我"",""弱她"",""强我""]","","","","","","","","yes","","","","","","","","","SRET","EW_formal","","key","j","17.620821428571485","683","380","朋友","勤奋","Positive","ability","","","","","","","","","","",""
"1084","","j","psychophysics","24","356909","0.0-7.0-3.0-0.10","5","4","5","5","3","3","3","2","4","5","4","0","-2","0","0","-1","0","1","0","5","4","5","5","4","3","4","4","4","5","4","6","7","7","4","5","4","6","6","4","3","2","5","5","4","4","5","3","3","1","3","2","6","6","3","3","3","3","3","5","2","2","3","3","3","3","2","5","3","4","3","2","2","2","1","2","2","3","2","3","776797303246950402","韦","279","Female","[""好她"",""坏我"",""坏她"",""好我""]","[""强她"",""弱我"",""弱她"",""强我""]","","","","","","","","yes","","","","","","","","","SRET","EW_formal","","key","j","17.001305785123932","683","380","朋友","学霸","Positive","ability","","","","","","","","","","",""
"916","","f","psychophysics","25","358828","0.0-7.0-3.0-0.11","5","4","5","5","3","3","3","2","4","5","4","0","-2","0","0","-1","0","1","0","5","4","5","5","4","3","4","4","4","5","4","6","7","7","4","5","4","6","6","4","3","2","5","5","4","4","5","3","3","1","3","2","6","6","3","3","3","3","3","5","2","2","3","3","3","3","2","5","3","4","3","2","2","2","1","2","2","3","2","3","776797303246950402","韦","279","Female","[""好她"",""坏我"",""坏她"",""好我""]","[""强她"",""弱我"",""弱她"",""强我""]","","","","","","","","no","","","","","","","","","SRET","EW_formal","","key","f","17.81889719626144","683","380","朋友","笨蛋","Negative","ability","","","","","","","","","","",""
"1098","","f","psychophysics","26","360928","0.0-7.0-3.0-0.12","5","4","5","5","3","3","3","2","4","5","4","0","-2","0","0","-1","0","1","0","5","4","5","5","4","3","4","4","4","5","4","6","7","7","4","5","4","6","6","4","3","2","5","5","4","4","5","3","3","1","3","2","6","6","3","3","3","3","3","5","2","2","3","3","3","3","2","5","3","4","3","2","2","2","1","2","2","3","2","3","776797303246950402","韦","279","Female","[""好她"",""坏我"",""坏她"",""好我""]","[""强她"",""弱我"",""弱她"",""强我""]","","","","","","","","no","","","","","","","","","SRET","EW_formal","","key","f","16.996804878048454","683","380","朋友","新手","Negative","ability","","","","","","","","","","",""
"1034","","j","psychophysics","27","362965","0.0-7.0-3.0-0.13","5","4","5","5","3","3","3","2","4","5","4","0","-2","0","0","-1","0","1","0","5","4","5","5","4","3","4","4","4","5","4","6","7","7","4","5","4","6","6","4","3","2","5","5","4","4","5","3","3","1","3","2","6","6","3","3","3","3","3","5","2","2","3","3","3","3","2","5","3","4","3","2","2","2","1","2","2","3","2","3","776797303246950402","韦","279","Female","[""好她"",""坏我"",""坏她"",""好我""]","[""强她"",""弱我"",""弱她"",""强我""]","","","","","","","","yes","","","","","","","","","SRET","EW_formal","","key","j","17.15364102564123","683","380","自己","热心","Positive","morality","","","","","","","","","","",""
"956","","f","psychophysics","28","364931","0.0-7.0-3.0-0.14","5","4","5","5","3","3","3","2","4","5","4","0","-2","0","0","-1","0","1","0","5","4","5","5","4","3","4","4","4","5","4","6","7","7","4","5","4","6","6","4","3","2","5","5","4","4","5","3","3","1","3","2","6","6","3","3","3","3","3","5","2","2","3","3","3","3","2","5","3","4","3","2","2","2","1","2","2","3","2","3","776797303246950402","韦","279","Female","[""好她"",""坏我"",""坏她"",""好我""]","[""强她"",""弱我"",""弱她"",""强我""]","","","","","","","","no","","","","","","","","","SRET","EW_formal","","key","f","17.3168584070801","683","380","朋友","草率","Negative","ability","","","","","","","","","","",""
"1062","","f","psychophysics","29","367003","0.0-7.0-3.0-0.15","5","4","5","5","3","3","3","2","4","5","4","0","-2","0","0","-1","0","1","0","5","4","5","5","4","3","4","4","4","5","4","6","7","7","4","5","4","6","6","4","3","2","5","5","4","4","5","3","3","1","3","2","6","6","3","3","3","3","3","5","2","2","3","3","3","3","2","5","3","4","3","2","2","2","1","2","2","3","2","3","776797303246950402","韦","279","Female","[""好她"",""坏我"",""坏她"",""好我""]","[""强她"",""弱我"",""弱她"",""强我""]","","","","","","","","no","","","","","","","","","SRET","EW_formal","","key","f","17.142966666666812","683","380","朋友","才尽","Negative","ability","","","","","","","","","","",""
"1171","","j","psychophysics","30","369180","0.0-7.0-3.0-0.16","5","4","5","5","3","3","3","2","4","5","4","0","-2","0","0","-1","0","1","0","5","4","5","5","4","3","4","4","4","5","4","6","7","7","4","5","4","6","6","4","3","2","5","5","4","4","5","3","3","1","3","2","6","6","3","3","3","3","3","5","2","2","3","3","3","3","2","5","3","4","3","2","2","2","1","2","2","3","2","3","776797303246950402","韦","279","Female","[""好她"",""坏我"",""坏她"",""好我""]","[""强她"",""弱我"",""弱她"",""强我""]","","","","","","","","yes","","","","","","","","","SRET","EW_formal","","key","j","17.399282258064506","683","380","自己","宽容","Positive","morality","","","","","","","","","","",""
"1300","","j","psychophysics","31","371483","0.0-7.0-3.0-0.17","5","4","5","5","3","3","3","2","4","5","4","0","-2","0","0","-1","0","1","0","5","4","5","5","4","3","4","4","4","5","4","6","7","7","4","5","4","6","6","4","3","2","5","5","4","4","5","3","3","1","3","2","6","6","3","3","3","3","3","5","2","2","3","3","3","3","2","5","3","4","3","2","2","2","1","2","2","3","2","3","776797303246950402","韦","279","Female","[""好她"",""坏我"",""坏她"",""好我""]","[""强她"",""弱我"",""弱她"",""强我""]","","","","","","","","yes","","","","","","","","","SRET","EW_formal","","key","j","17.099261194030117","683","380","朋友","高效","Positive","ability","","","","","","","","","","",""
"926","","f","psychophysics","32","373411","0.0-7.0-3.0-0.18","5","4","5","5","3","3","3","2","4","5","4","0","-2","0","0","-1","0","1","0","5","4","5","5","4","3","4","4","4","5","4","6","7","7","4","5","4","6","6","4","3","2","5","5","4","4","5","3","3","1","3","2","6","6","3","3","3","3","3","5","2","2","3","3","3","3","2","5","3","4","3","2","2","2","1","2","2","3","2","3","776797303246950402","韦","279","Female","[""好她"",""坏我"",""坏她"",""好我""]","[""强她"",""弱我"",""弱她"",""强我""]","","","","","","","","no","","","","","","","","","SRET","EW_formal","","key","f","17.02349999999985","683","380","朋友","虚假","Negative","morality","","","","","","","","","","",""
"1087","","j","psychophysics","33","375501","0.0-7.0-3.0-0.19","5","4","5","5","3","3","3","2","4","5","4","0","-2","0","0","-1","0","1","0","5","4","5","5","4","3","4","4","4","5","4","6","7","7","4","5","4","6","6","4","3","2","5","5","4","4","5","3","3","1","3","2","6","6","3","3","3","3","3","5","2","2","3","3","3","3","2","5","3","4","3","2","2","2","1","2","2","3","2","3","776797303246950402","韦","279","Female","[""好她"",""坏我"",""坏她"",""好我""]","[""强她"",""弱我"",""弱她"",""强我""]","","","","","","","","yes","","","","","","","","","SRET","EW_formal","","key","j","16.99902459016436","683","380","朋友","守信","Positive","morality","","","","","","","","","","",""
"1140","","f","psychophysics","34","377643","0.0-7.0-3.0-0.20","5","4","5","5","3","3","3","2","4","5","4","0","-2","0","0","-1","0","1","0","5","4","5","5","4","3","4","4","4","5","4","6","7","7","4","5","4","6","6","4","3","2","5","5","4","4","5","3","3","1","3","2","6","6","3","3","3","3","3","5","2","2","3","3","3","3","2","5","3","4","3","2","2","2","1","2","2","3","2","3","776797303246950402","韦","279","Female","[""好她"",""坏我"",""坏她"",""好我""]","[""强她"",""弱我"",""弱她"",""强我""]","","","","","","","","no","","","","","","","","","SRET","EW_formal","","key","f","16.85756349206361","683","380","自己","阴毒","Negative","morality","","","","","","","","","","",""
"1096","","j","psychophysics","35","379742","0.0-7.0-3.0-0.21","5","4","5","5","3","3","3","2","4","5","4","0","-2","0","0","-1","0","1","0","5","4","5","5","4","3","4","4","4","5","4","6","7","7","4","5","4","6","6","4","3","2","5","5","4","4","5","3","3","1","3","2","6","6","3","3","3","3","3","5","2","2","3","3","3","3","2","5","3","4","3","2","2","2","1","2","2","3","2","3","776797303246950402","韦","279","Female","[""好她"",""坏我"",""坏她"",""好我""]","[""强她"",""弱我"",""弱她"",""强我""]","","","","","","","","yes","","","","","","","","","SRET","EW_formal","","key","j","17.2777272727276","683","380","自己","聪明","Positive","ability","","","","","","","","","","",""
"826","","f","psychophysics","36","381571","0.0-7.0-3.0-0.22","5","4","5","5","3","3","3","2","4","5","4","0","-2","0","0","-1","0","1","0","5","4","5","5","4","3","4","4","4","5","4","6","7","7","4","5","4","6","6","4","3","2","5","5","4","4","5","3","3","1","3","2","6","6","3","3","3","3","3","5","2","2","3","3","3","3","2","5","3","4","3","2","2","2","1","2","2","3","2","3","776797303246950402","韦","279","Female","[""好她"",""坏我"",""坏她"",""好我""]","[""强她"",""弱我"",""弱她"",""强我""]","","","","","","","","no","","","","","","","","","SRET","EW_formal","","key","f","17.040367924528667","683","380","自己","废物","Negative","ability","","","","","","","","","","",""
"1183","","j","psychophysics","37","383757","0.0-7.0-3.0-0.23","5","4","5","5","3","3","3","2","4","5","4","0","-2","0","0","-1","0","1","0","5","4","5","5","4","3","4","4","4","5","4","6","7","7","4","5","4","6","6","4","3","2","5","5","4","4","5","3","3","1","3","2","6","6","3","3","3","3","3","5","2","2","3","3","3","3","2","5","3","4","3","2","2","2","1","2","2","3","2","3","776797303246950402","韦","279","Female","[""好她"",""坏我"",""坏她"",""好我""]","[""强她"",""弱我"",""弱她"",""强我""]","","","","","","","","yes","","","","","","","","","SRET","EW_formal","","key","j","17.119992125984265","683","380","朋友","刻苦","Positive","ability","","","","","","","","","","",""
"1379","","j","psychophysics","38","386139","0.0-7.0-3.0-0.24","5","4","5","5","3","3","3","2","4","5","4","0","-2","0","0","-1","0","1","0","5","4","5","5","4","3","4","4","4","5","4","6","7","7","4","5","4","6","6","4","3","2","5","5","4","4","5","3","3","1","3","2","6","6","3","3","3","3","3","5","2","2","3","3","3","3","2","5","3","4","3","2","2","2","1","2","2","3","2","3","776797303246950402","韦","279","Female","[""好她"",""坏我"",""坏她"",""好我""]","[""强她"",""弱我"",""弱她"",""强我""]","","","","","","","","yes","","","","","","","","","SRET","EW_formal","","key","j","16.724872340425495","683","380","朋友","无私","Positive","morality","","","","","","","","","","",""
"1174","","f","psychophysics","39","388315","0.0-7.0-3.0-0.25","5","4","5","5","3","3","3","2","4","5","4","0","-2","0","0","-1","0","1","0","5","4","5","5","4","3","4","4","4","5","4","6","7","7","4","5","4","6","6","4","3","2","5","5","4","4","5","3","3","1","3","2","6","6","3","3","3","3","3","5","2","2","3","3","3","3","2","5","3","4","3","2","2","2","1","2","2","3","2","3","776797303246950402","韦","279","Female","[""好她"",""坏我"",""坏她"",""好我""]","[""强她"",""弱我"",""弱她"",""强我""]","","","","","","","","no","","","","","","","","","SRET","EW_formal","","key","f","16.724837209301995","683","380","自己","无知","Negative","ability","","","","","","","","","","",""
"1362","","f","psychophysics","40","390683","0.0-7.0-3.0-0.26","5","4","5","5","3","3","3","2","4","5","4","0","-2","0","0","-1","0","1","0","5","4","5","5","4","3","4","4","4","5","4","6","7","7","4","5","4","6","6","4","3","2","5","5","4","4","5","3","3","1","3","2","6","6","3","3","3","3","3","5","2","2","3","3","3","3","2","5","3","4","3","2","2","2","1","2","2","3","2","3","776797303246950402","韦","279","Female","[""好她"",""坏我"",""坏她"",""好我""]","[""强她"",""弱我"",""弱她"",""强我""]","","","","","","","","no","","","","","","","","","SRET","EW_formal","","key","f","16.96541007194231","683","380","自己","势利","Negative","morality","","","","","","","","","","",""
"1207","","j","psychophysics","41","392893","0.0-7.0-3.0-0.27","5","4","5","5","3","3","3","2","4","5","4","0","-2","0","0","-1","0","1","0","5","4","5","5","4","3","4","4","4","5","4","6","7","7","4","5","4","6","6","4","3","2","5","5","4","4","5","3","3","1","3","2","6","6","3","3","3","3","3","5","2","2","3","3","3","3","2","5","3","4","3","2","2","2","1","2","2","3","2","3","776797303246950402","韦","279","Female","[""好她"",""坏我"",""坏她"",""好我""]","[""强她"",""弱我"",""弱她"",""强我""]","","","","","","","","yes","","","","","","","","","SRET","EW_formal","","key","j","16.853553846153844","683","380","自己","诚信","Positive","morality","","","","","","","","","","",""
"1219","","j","psychophysics","42","395115","0.0-7.0-3.0-0.28","5","4","5","5","3","3","3","2","4","5","4","0","-2","0","0","-1","0","1","0","5","4","5","5","4","3","4","4","4","5","4","6","7","7","4","5","4","6","6","4","3","2","5","5","4","4","5","3","3","1","3","2","6","6","3","3","3","3","3","5","2","2","3","3","3","3","2","5","3","4","3","2","2","2","1","2","2","3","2","3","776797303246950402","韦","279","Female","[""好她"",""坏我"",""坏她"",""好我""]","[""强她"",""弱我"",""弱她"",""强我""]","","","","","","","","yes","","","","","","","","","SRET","EW_formal","","key","j","16.9824846153846","683","380","朋友","高明","Positive","ability","","","","","","","","","","",""
"1201","","j","psychophysics","43","397319","0.0-7.0-3.0-0.29","5","4","5","5","3","3","3","2","4","5","4","0","-2","0","0","-1","0","1","0","5","4","5","5","4","3","4","4","4","5","4","6","7","7","4","5","4","6","6","4","3","2","5","5","4","4","5","3","3","1","3","2","6","6","3","3","3","3","3","5","2","2","3","3","3","3","2","5","3","4","3","2","2","2","1","2","2","3","2","3","776797303246950402","韦","279","Female","[""好她"",""坏我"",""坏她"",""好我""]","[""强她"",""弱我"",""弱她"",""强我""]","","","","","","","","yes","","","","","","","","","SRET","EW_formal","","key","j","16.853476923076848","683","380","自己","慈悲","Positive","morality","","","","","","","","","","",""
"992","","j","psychophysics","44","399315","0.0-7.0-3.0-0.30","5","4","5","5","3","3","3","2","4","5","4","0","-2","0","0","-1","0","1","0","5","4","5","5","4","3","4","4","4","5","4","6","7","7","4","5","4","6","6","4","3","2","5","5","4","4","5","3","3","1","3","2","6","6","3","3","3","3","3","5","2","2","3","3","3","3","2","5","3","4","3","2","2","2","1","2","2","3","2","3","776797303246950402","韦","279","Female","[""好她"",""坏我"",""坏她"",""好我""]","[""强她"",""弱我"",""弱她"",""强我""]","","","","","","","","yes","","","","","","","","","SRET","EW_formal","","key","j","16.724864406779535","683","380","朋友","守法","Positive","morality","","","","","","","","","","",""
"1450","","f","psychophysics","45","401769","0.0-7.0-3.0-0.31","5","4","5","5","3","3","3","2","4","5","4","0","-2","0","0","-1","0","1","0","5","4","5","5","4","3","4","4","4","5","4","6","7","7","4","5","4","6","6","4","3","2","5","5","4","4","5","3","3","1","3","2","6","6","3","3","3","3","3","5","2","2","3","3","3","3","2","5","3","4","3","2","2","2","1","2","2","3","2","3","776797303246950402","韦","279","Female","[""好她"",""坏我"",""坏她"",""好我""]","[""强她"",""弱我"",""弱她"",""强我""]","","","","","","","","no","","","","","","","","","SRET","EW_formal","","key","f","16.958720279720342","683","380","朋友","不孝","Negative","morality","","","","","","","","","","",""
"1155","","j","psychophysics","46","403928","0.0-7.0-3.0-0.32","5","4","5","5","3","3","3","2","4","5","4","0","-2","0","0","-1","0","1","0","5","4","5","5","4","3","4","4","4","5","4","6","7","7","4","5","4","6","6","4","3","2","5","5","4","4","5","3","3","1","3","2","6","6","3","3","3","3","3","5","2","2","3","3","3","3","2","5","3","4","3","2","2","2","1","2","2","3","2","3","776797303246950402","韦","279","Female","[""好她"",""坏我"",""坏她"",""好我""]","[""强她"",""弱我"",""弱她"",""强我""]","","","","","","","","yes","","","","","","","","","SRET","EW_formal","","key","j","16.724798449612486","683","380","自己","善心","Positive","morality","","","","","","","","","","",""
"1354","","f","psychophysics","47","406284","0.0-7.0-3.0-0.33","5","4","5","5","3","3","3","2","4","5","4","0","-2","0","0","-1","0","1","0","5","4","5","5","4","3","4","4","4","5","4","6","7","7","4","5","4","6","6","4","3","2","5","5","4","4","5","3","3","1","3","2","6","6","3","3","3","3","3","5","2","2","3","3","3","3","2","5","3","4","3","2","2","2","1","2","2","3","2","3","776797303246950402","韦","279","Female","[""好她"",""坏我"",""坏她"",""好我""]","[""强她"",""弱我"",""弱她"",""强我""]","","","","","","","","no","","","","","","","","","SRET","EW_formal","","key","f","16.72482857142833","683","380","自己","无助","Negative","ability","","","","","","","","","","",""
"1119","","j","psychophysics","48","408405","0.0-7.0-3.0-0.34","5","4","5","5","3","3","3","2","4","5","4","0","-2","0","0","-1","0","1","0","5","4","5","5","4","3","4","4","4","5","4","6","7","7","4","5","4","6","6","4","3","2","5","5","4","4","5","3","3","1","3","2","6","6","3","3","3","3","3","5","2","2","3","3","3","3","2","5","3","4","3","2","2","2","1","2","2","3","2","3","776797303246950402","韦","279","Female","[""好她"",""坏我"",""坏她"",""好我""]","[""强她"",""弱我"",""弱她"",""强我""]","","","","","","","","yes","","","","","","","","","SRET","EW_formal","","key","j","16.724871999999973","683","380","朋友","善良","Positive","morality","","","","","","","","","","",""
"1008","","j","psychophysics","49","410416","0.0-7.0-3.0-0.35","5","4","5","5","3","3","3","2","4","5","4","0","-2","0","0","-1","0","1","0","5","4","5","5","4","3","4","4","4","5","4","6","7","7","4","5","4","6","6","4","3","2","5","5","4","4","5","3","3","1","3","2","6","6","3","3","3","3","3","5","2","2","3","3","3","3","2","5","3","4","3","2","2","2","1","2","2","3","2","3","776797303246950402","韦","279","Female","[""好她"",""坏我"",""坏她"",""好我""]","[""强她"",""弱我"",""弱她"",""强我""]","","","","","","","","yes","","","","","","","","","SRET","EW_formal","","key","j","16.86530252100808","683","380","自己","努力","Positive","ability","","","","","","","","","","",""
"1129","","j","psychophysics","50","412548","0.0-7.0-3.0-0.36","5","4","5","5","3","3","3","2","4","5","4","0","-2","0","0","-1","0","1","0","5","4","5","5","4","3","4","4","4","5","4","6","7","7","4","5","4","6","6","4","3","2","5","5","4","4","5","3","3","1","3","2","6","6","3","3","3","3","3","5","2","2","3","3","3","3","2","5","3","4","3","2","2","2","1","2","2","3","2","3","776797303246950402","韦","279","Female","[""好她"",""坏我"",""坏她"",""好我""]","[""强她"",""弱我"",""弱她"",""强我""]","","","","","","","","yes","","","","","","","","","SRET","EW_formal","","key","j","16.724865079364953","683","380","朋友","忠勇","Positive","morality","","","","","","","","","","",""
"1048","","f","psychophysics","51","414598","0.0-7.0-3.0-0.37","5","4","5","5","3","3","3","2","4","5","4","0","-2","0","0","-1","0","1","0","5","4","5","5","4","3","4","4","4","5","4","6","7","7","4","5","4","6","6","4","3","2","5","5","4","4","5","3","3","1","3","2","6","6","3","3","3","3","3","5","2","2","3","3","3","3","2","5","3","4","3","2","2","2","1","2","2","3","2","3","776797303246950402","韦","279","Female","[""好她"",""坏我"",""坏她"",""好我""]","[""强她"",""弱我"",""弱她"",""强我""]","","","","","","","","no","","","","","","","","","SRET","EW_formal","","key","f","16.724893442623234","683","380","朋友","下流","Negative","morality","","","","","","","","","","",""
"1026","","j","psychophysics","52","416627","0.0-7.0-3.0-0.38","5","4","5","5","3","3","3","2","4","5","4","0","-2","0","0","-1","0","1","0","5","4","5","5","4","3","4","4","4","5","4","6","7","7","4","5","4","6","6","4","3","2","5","5","4","4","5","3","3","1","3","2","6","6","3","3","3","3","3","5","2","2","3","3","3","3","2","5","3","4","3","2","2","2","1","2","2","3","2","3","776797303246950402","韦","279","Female","[""好她"",""坏我"",""坏她"",""好我""]","[""强她"",""弱我"",""弱她"",""强我""]","","","","","","","","yes","","","","","","","","","SRET","EW_formal","","key","j","16.724766666666742","683","380","自己","仗义","Positive","morality","","","","","","","","","","",""
"1065","","j","psychophysics","53","418694","0.0-7.0-3.0-0.39","5","4","5","5","3","3","3","2","4","5","4","0","-2","0","0","-1","0","1","0","5","4","5","5","4","3","4","4","4","5","4","6","7","7","4","5","4","6","6","4","3","2","5","5","4","4","5","3","3","1","3","2","6","6","3","3","3","3","3","5","2","2","3","3","3","3","2","5","3","4","3","2","2","2","1","2","2","3","2","3","776797303246950402","韦","279","Female","[""好她"",""坏我"",""坏她"",""好我""]","[""强她"",""弱我"",""弱她"",""强我""]","","","","","","","","yes","","","","","","","","","SRET","EW_formal","","key","j","16.861893442623053","683","380","自己","守时","Positive","morality","","","","","","","","","","",""
"788","","f","psychophysics","54","420485","0.0-7.0-3.0-0.40","5","4","5","5","3","3","3","2","4","5","4","0","-2","0","0","-1","0","1","0","5","4","5","5","4","3","4","4","4","5","4","6","7","7","4","5","4","6","6","4","3","2","5","5","4","4","5","3","3","1","3","2","6","6","3","3","3","3","3","5","2","2","3","3","3","3","2","5","3","4","3","2","2","2","1","2","2","3","2","3","776797303246950402","韦","279","Female","[""好她"",""坏我"",""坏她"",""好我""]","[""强她"",""弱我"",""弱她"",""强我""]","","","","","","","","no","","","","","","","","","SRET","EW_formal","","key","f","16.884066666666573","683","380","自己","弱智","Negative","ability","","","","","","","","","","",""
"1006","","j","psychophysics","55","422493","0.0-7.0-3.0-0.41","5","4","5","5","3","3","3","2","4","5","4","0","-2","0","0","-1","0","1","0","5","4","5","5","4","3","4","4","4","5","4","6","7","7","4","5","4","6","6","4","3","2","5","5","4","4","5","3","3","1","3","2","6","6","3","3","3","3","3","5","2","2","3","3","3","3","2","5","3","4","3","2","2","2","1","2","2","3","2","3","776797303246950402","韦","279","Female","[""好她"",""坏我"",""坏她"",""好我""]","[""强她"",""弱我"",""弱她"",""强我""]","","","","","","","","yes","","","","","","","","","SRET","EW_formal","","key","j","17.010752136752398","683","380","朋友","孝顺","Positive","morality","","","","","","","","","","",""
"972","","j","psychophysics","56","424468","0.0-7.0-3.0-0.42","5","4","5","5","3","3","3","2","4","5","4","0","-2","0","0","-1","0","1","0","5","4","5","5","4","3","4","4","4","5","4","6","7","7","4","5","4","6","6","4","3","2","5","5","4","4","5","3","3","1","3","2","6","6","3","3","3","3","3","5","2","2","3","3","3","3","2","5","3","4","3","2","2","2","1","2","2","3","2","3","776797303246950402","韦","279","Female","[""好她"",""坏我"",""坏她"",""好我""]","[""强她"",""弱我"",""弱她"",""强我""]","","","","","","","","yes","","","","","","","","","SRET","EW_formal","","key","j","16.72483760683795","683","380","朋友","刚正","Positive","morality","","","","","","","","","","",""
"1102","","f","psychophysics","57","426573","0.0-7.0-3.0-0.43","5","4","5","5","3","3","3","2","4","5","4","0","-2","0","0","-1","0","1","0","5","4","5","5","4","3","4","4","4","5","4","6","7","7","4","5","4","6","6","4","3","2","5","5","4","4","5","3","3","1","3","2","6","6","3","3","3","3","3","5","2","2","3","3","3","3","2","5","3","4","3","2","2","2","1","2","2","3","2","3","776797303246950402","韦","279","Female","[""好她"",""坏我"",""坏她"",""好我""]","[""强她"",""弱我"",""弱她"",""强我""]","","","","","","","","no","","","","","","","","","SRET","EW_formal","","key","f","16.724856000000145","683","380","自己","逞强","Negative","ability","","","","","","","","","","",""
"1437","","j","psychophysics","58","429013","0.0-7.0-3.0-0.44","5","4","5","5","3","3","3","2","4","5","4","0","-2","0","0","-1","0","1","0","5","4","5","5","4","3","4","4","4","5","4","6","7","7","4","5","4","6","6","4","3","2","5","5","4","4","5","3","3","1","3","2","6","6","3","3","3","3","3","5","2","2","3","3","3","3","2","5","3","4","3","2","2","2","1","2","2","3","2","3","776797303246950402","韦","279","Female","[""好她"",""坏我"",""坏她"",""好我""]","[""强她"",""弱我"",""弱她"",""强我""]","","","","","","","","yes","","","","","","","","","SRET","EW_formal","","key","j","16.840979166666834","683","380","自己","全才","Positive","ability","","","","","","","","","","",""
"1284","","f","psychophysics","59","431299","0.0-7.0-3.0-0.45","5","4","5","5","3","3","3","2","4","5","4","0","-2","0","0","-1","0","1","0","5","4","5","5","4","3","4","4","4","5","4","6","7","7","4","5","4","6","6","4","3","2","5","5","4","4","5","3","3","1","3","2","6","6","3","3","3","3","3","5","2","2","3","3","3","3","2","5","3","4","3","2","2","2","1","2","2","3","2","3","776797303246950402","韦","279","Female","[""好她"",""坏我"",""坏她"",""好我""]","[""强她"",""弱我"",""弱她"",""强我""]","","","","","","","","no","","","","","","","","","SRET","EW_formal","","key","f","16.72485925925904","683","380","朋友","贪腐","Negative","morality","","","","","","","","","","",""
"1132","","f","psychophysics","60","433435","0.0-7.0-3.0-0.46","5","4","5","5","3","3","3","2","4","5","4","0","-2","0","0","-1","0","1","0","5","4","5","5","4","3","4","4","4","5","4","6","7","7","4","5","4","6","6","4","3","2","5","5","4","4","5","3","3","1","3","2","6","6","3","3","3","3","3","5","2","2","3","3","3","3","2","5","3","4","3","2","2","2","1","2","2","3","2","3","776797303246950402","韦","279","Female","[""好她"",""坏我"",""坏她"",""好我""]","[""强她"",""弱我"",""弱她"",""强我""]","","","","","","","","no","","","","","","","","","SRET","EW_formal","","key","f","16.724874015748096","683","380","自己","失信","Negative","morality","","","","","","","","","","",""
"1017","","f","psychophysics","61","435454","0.0-7.0-3.0-0.47","5","4","5","5","3","3","3","2","4","5","4","0","-2","0","0","-1","0","1","0","5","4","5","5","4","3","4","4","4","5","4","6","7","7","4","5","4","6","6","4","3","2","5","5","4","4","5","3","3","1","3","2","6","6","3","3","3","3","3","5","2","2","3","3","3","3","2","5","3","4","3","2","2","2","1","2","2","3","2","3","776797303246950402","韦","279","Female","[""好她"",""坏我"",""坏她"",""好我""]","[""强她"",""弱我"",""弱她"",""强我""]","","","","","","","","no","","","","","","","","","SRET","EW_formal","","key","f","16.724858333333394","683","380","自己","卑鄙","Negative","morality","","","","","","","","","","",""
"970","","f","psychophysics","62","437427","0.0-7.0-3.0-0.48","5","4","5","5","3","3","3","2","4","5","4","0","-2","0","0","-1","0","1","0","5","4","5","5","4","3","4","4","4","5","4","6","7","7","4","5","4","6","6","4","3","2","5","5","4","4","5","3","3","1","3","2","6","6","3","3","3","3","3","5","2","2","3","3","3","3","2","5","3","4","3","2","2","2","1","2","2","3","2","3","776797303246950402","韦","279","Female","[""好她"",""坏我"",""坏她"",""好我""]","[""强她"",""弱我"",""弱她"",""强我""]","","","","","","","","no","","","","","","","","","SRET","EW_formal","","key","f","16.724837606837454","683","380","自己","无为","Negative","ability","","","","","","","","","","",""
"1294","","f","psychophysics","63","439724","0.0-7.0-3.0-0.49","5","4","5","5","3","3","3","2","4","5","4","0","-2","0","0","-1","0","1","0","5","4","5","5","4","3","4","4","4","5","4","6","7","7","4","5","4","6","6","4","3","2","5","5","4","4","5","3","3","1","3","2","6","6","3","3","3","3","3","5","2","2","3","3","3","3","2","5","3","4","3","2","2","2","1","2","2","3","2","3","776797303246950402","韦","279","Female","[""好她"",""坏我"",""坏她"",""好我""]","[""强她"",""弱我"",""弱她"",""强我""]","","","","","","","","no","","","","","","","","","SRET","EW_formal","","key","f","16.974447761194035","683","380","自己","自私","Negative","morality","","","","","","","","","","",""
"1051","","f","psychophysics","64","441779","0.0-7.0-3.0-0.50","5","4","5","5","3","3","3","2","4","5","4","0","-2","0","0","-1","0","1","0","5","4","5","5","4","3","4","4","4","5","4","6","7","7","4","5","4","6","6","4","3","2","5","5","4","4","5","3","3","1","3","2","6","6","3","3","3","3","3","5","2","2","3","3","3","3","2","5","3","4","3","2","2","2","1","2","2","3","2","3","776797303246950402","韦","279","Female","[""好她"",""坏我"",""坏她"",""好我""]","[""强她"",""弱我"",""弱她"",""强我""]","","","","","","","","no","","","","","","","","","SRET","EW_formal","","key","f","16.72468032786903","683","380","自己","愚蠢","Negative","ability","","","","","","","","","","",""
"1222","","j","psychophysics","65","444003","0.0-7.0-3.0-0.51","5","4","5","5","3","3","3","2","4","5","4","0","-2","0","0","-1","0","1","0","5","4","5","5","4","3","4","4","4","5","4","6","7","7","4","5","4","6","6","4","3","2","5","5","4","4","5","3","3","1","3","2","6","6","3","3","3","3","3","5","2","2","3","3","3","3","2","5","3","4","3","2","2","2","1","2","2","3","2","3","776797303246950402","韦","279","Female","[""好她"",""坏我"",""坏她"",""好我""]","[""强她"",""弱我"",""弱她"",""强我""]","","","","","","","","yes","","","","","","","","","SRET","EW_formal","","key","j","16.982153846153793","683","380","自己","敏捷","Positive","ability","","","","","","","","","","",""
"1342","","j","psychophysics","66","446348","0.0-7.0-3.0-0.52","5","4","5","5","3","3","3","2","4","5","4","0","-2","0","0","-1","0","1","0","5","4","5","5","4","3","4","4","4","5","4","6","7","7","4","5","4","6","6","4","3","2","5","5","4","4","5","3","3","1","3","2","6","6","3","3","3","3","3","5","2","2","3","3","3","3","2","5","3","4","3","2","2","2","1","2","2","3","2","3","776797303246950402","韦","279","Female","[""好她"",""坏我"",""坏她"",""好我""]","[""强她"",""弱我"",""弱她"",""强我""]","","","","","","","","yes","","","","","","","","","SRET","EW_formal","","key","j","16.969248175182564","683","380","朋友","细心","Positive","ability","","","","","","","","","","",""
"1211","","f","psychophysics","67","448566","0.0-7.0-3.0-0.53","5","4","5","5","3","3","3","2","4","5","4","0","-2","0","0","-1","0","1","0","5","4","5","5","4","3","4","4","4","5","4","6","7","7","4","5","4","6","6","4","3","2","5","5","4","4","5","3","3","1","3","2","6","6","3","3","3","3","3","5","2","2","3","3","3","3","2","5","3","4","3","2","2","2","1","2","2","3","2","3","776797303246950402","韦","279","Female","[""好她"",""坏我"",""坏她"",""好我""]","[""强她"",""弱我"",""弱她"",""强我""]","","","","","","","","no","","","","","","","","","SRET","EW_formal","","key","f","16.98173846153838","683","380","朋友","拙笨","Negative","ability","","","","","","","","","","",""
"1545","","j","psychophysics","68","451115","0.0-7.0-3.0-0.54","5","4","5","5","3","3","3","2","4","5","4","0","-2","0","0","-1","0","1","0","5","4","5","5","4","3","4","4","4","5","4","6","7","7","4","5","4","6","6","4","3","2","5","5","4","4","5","3","3","1","3","2","6","6","3","3","3","3","3","5","2","2","3","3","3","3","2","5","3","4","3","2","2","2","1","2","2","3","2","3","776797303246950402","韦","279","Female","[""好她"",""坏我"",""坏她"",""好我""]","[""强她"",""弱我"",""弱她"",""强我""]","","","","","","","","yes","","","","","","","","","SRET","EW_formal","","key","j","17.064074324324373","683","380","自己","有力","Positive","ability","","","","","","","","","","",""
"1365","","f","psychophysics","69","453483","0.0-7.0-3.0-0.55","5","4","5","5","3","3","3","2","4","5","4","0","-2","0","0","-1","0","1","0","5","4","5","5","4","3","4","4","4","5","4","6","7","7","4","5","4","6","6","4","3","2","5","5","4","4","5","3","3","1","3","2","6","6","3","3","3","3","3","5","2","2","3","3","3","3","2","5","3","4","3","2","2","2","1","2","2","3","2","3","776797303246950402","韦","279","Female","[""好她"",""坏我"",""坏她"",""好我""]","[""强她"",""弱我"",""弱她"",""强我""]","","","","","","","","no","","","","","","","","","SRET","EW_formal","","key","f","17.467703703703375","683","380","朋友","驽钝","Negative","ability","","","","","","","","","","",""
"1366","","j","psychophysics","70","455852","0.0-7.0-3.0-0.56","5","4","5","5","3","3","3","2","4","5","4","0","-2","0","0","-1","0","1","0","5","4","5","5","4","3","4","4","4","5","4","6","7","7","4","5","4","6","6","4","3","2","5","5","4","4","5","3","3","1","3","2","6","6","3","3","3","3","3","5","2","2","3","3","3","3","2","5","3","4","3","2","2","2","1","2","2","3","2","3","776797303246950402","韦","279","Female","[""好她"",""坏我"",""坏她"",""好我""]","[""强她"",""弱我"",""弱她"",""强我""]","","","","","","","","yes","","","","","","","","","SRET","EW_formal","","key","j","16.967355072463736","683","380","自己","智慧","Positive","ability","","","","","","","","","","",""
"1709","","j","psychophysics","71","458572","0.0-7.0-3.0-0.57","5","4","5","5","3","3","3","2","4","5","4","0","-2","0","0","-1","0","1","0","5","4","5","5","4","3","4","4","4","5","4","6","7","7","4","5","4","6","6","4","3","2","5","5","4","4","5","3","3","1","3","2","6","6","3","3","3","3","3","5","2","2","3","3","3","3","2","5","3","4","3","2","2","2","1","2","2","3","2","3","776797303246950402","韦","279","Female","[""好她"",""坏我"",""坏她"",""好我""]","[""强她"",""弱我"",""弱她"",""强我""]","","","","","","","","yes","","","","","","","","","SRET","EW_formal","","key","j","16.828503105590215","683","380","自己","果决","Positive","ability","","","","","","","","","","",""
"1248","","j","psychophysics","72","460822","0.0-7.0-3.0-0.58","5","4","5","5","3","3","3","2","4","5","4","0","-2","0","0","-1","0","1","0","5","4","5","5","4","3","4","4","4","5","4","6","7","7","4","5","4","6","6","4","3","2","5","5","4","4","5","3","3","1","3","2","6","6","3","3","3","3","3","5","2","2","3","3","3","3","2","5","3","4","3","2","2","2","1","2","2","3","2","3","776797303246950402","韦","279","Female","[""好她"",""坏我"",""坏她"",""好我""]","[""强她"",""弱我"",""弱她"",""强我""]","","","","","","","","yes","","","","","","","","","SRET","EW_formal","","key","j","16.850533834586788","683","380","朋友","高洁","Positive","morality","","","","","","","","","","",""
"858","","f","psychophysics","73","462683","0.0-7.0-3.0-0.59","5","4","5","5","3","3","3","2","4","5","4","0","-2","0","0","-1","0","1","0","5","4","5","5","4","3","4","4","4","5","4","6","7","7","4","5","4","6","6","4","3","2","5","5","4","4","5","3","3","1","3","2","6","6","3","3","3","3","3","5","2","2","3","3","3","3","2","5","3","4","3","2","2","2","1","2","2","3","2","3","776797303246950402","韦","279","Female","[""好她"",""坏我"",""坏她"",""好我""]","[""强她"",""弱我"",""弱她"",""强我""]","","","","","","","","no","","","","","","","","","SRET","EW_formal","","key","f","16.87827522935743","683","380","自己","奸诈","Negative","morality","","","","","","","","","","",""
"1272","","j","psychophysics","74","464958","0.0-7.0-3.0-0.60","5","4","5","5","3","3","3","2","4","5","4","0","-2","0","0","-1","0","1","0","5","4","5","5","4","3","4","4","4","5","4","6","7","7","4","5","4","6","6","4","3","2","5","5","4","4","5","3","3","1","3","2","6","6","3","3","3","3","3","5","2","2","3","3","3","3","2","5","3","4","3","2","2","2","1","2","2","3","2","3","776797303246950402","韦","279","Female","[""好她"",""坏我"",""坏她"",""好我""]","[""强她"",""弱我"",""弱她"",""强我""]","","","","","","","","yes","","","","","","","","","SRET","EW_formal","","key","j","16.72486666666637","683","380","自己","思辨","Positive","ability","","","","","","","","","","",""
"1379","","f","psychophysics","75","467339","0.0-7.0-3.0-0.61","5","4","5","5","3","3","3","2","4","5","4","0","-2","0","0","-1","0","1","0","5","4","5","5","4","3","4","4","4","5","4","6","7","7","4","5","4","6","6","4","3","2","5","5","4","4","5","3","3","1","3","2","6","6","3","3","3","3","3","5","2","2","3","3","3","3","2","5","3","4","3","2","2","2","1","2","2","3","2","3","776797303246950402","韦","279","Female","[""好她"",""坏我"",""坏她"",""好我""]","[""强她"",""弱我"",""弱她"",""强我""]","","","","","","","","no","","","","","","","","","SRET","EW_formal","","key","f","16.72486524822699","683","380","自己","诡诈","Negative","morality","","","","","","","","","","",""
"null","","null","psychophysics","76","470349","0.0-7.0-3.0-0.62","5","4","5","5","3","3","3","2","4","5","4","0","-2","0","0","-1","0","1","0","5","4","5","5","4","3","4","4","4","5","4","6","7","7","4","5","4","6","6","4","3","2","5","5","4","4","5","3","3","1","3","2","6","6","3","3","3","3","3","5","2","2","3","3","3","3","2","5","3","4","3","2","2","2","1","2","2","3","2","3","776797303246950402","韦","279","Female","[""好她"",""坏我"",""坏她"",""好我""]","[""强她"",""弱我"",""弱她"",""强我""]","","","","","","","","","","","","","","","","","SRET","EW_formal","","key","null","16.724815642458253","683","380","自己","粗心","Negative","ability","","","","","","","","","","",""
"782","","f","psychophysics","77","472134","0.0-7.0-3.0-0.63","5","4","5","5","3","3","3","2","4","5","4","0","-2","0","0","-1","0","1","0","5","4","5","5","4","3","4","4","4","5","4","6","7","7","4","5","4","6","6","4","3","2","5","5","4","4","5","3","3","1","3","2","6","6","3","3","3","3","3","5","2","2","3","3","3","3","2","5","3","4","3","2","2","2","1","2","2","3","2","3","776797303246950402","韦","279","Female","[""好她"",""坏我"",""坏她"",""好我""]","[""强她"",""弱我"",""弱她"",""强我""]","","","","","","","","no","","","","","","","","","SRET","EW_formal","","key","f","17.907343434343336","683","380","朋友","虚伪","Negative","morality","","","","","","","","","","",""
"1843","","j","psychophysics","78","474979","0.0-7.0-3.0-0.64","5","4","5","5","3","3","3","2","4","5","4","0","-2","0","0","-1","0","1","0","5","4","5","5","4","3","4","4","4","5","4","6","7","7","4","5","4","6","6","4","3","2","5","5","4","4","5","3","3","1","3","2","6","6","3","3","3","3","3","5","2","2","3","3","3","3","2","5","3","4","3","2","2","2","1","2","2","3","2","3","776797303246950402","韦","279","Female","[""好她"",""坏我"",""坏她"",""好我""]","[""强她"",""弱我"",""弱她"",""强我""]","","","","","","","","yes","","","","","","","","","SRET","EW_formal","","key","j","18.011435897435803","683","380","朋友","中用","Positive","ability","","","","","","","","","","",""
"678","","f","psychophysics","79","476660","0.0-7.0-3.0-0.65","5","4","5","5","3","3","3","2","4","5","4","0","-2","0","0","-1","0","1","0","5","4","5","5","4","3","4","4","4","5","4","6","7","7","4","5","4","6","6","4","3","2","5","5","4","4","5","3","3","1","3","2","6","6","3","3","3","3","3","5","2","2","3","3","3","3","2","5","3","4","3","2","2","2","1","2","2","3","2","3","776797303246950402","韦","279","Female","[""好她"",""坏我"",""坏她"",""好我""]","[""强她"",""弱我"",""弱她"",""强我""]","","","","","","","","no","","","","","","","","","SRET","EW_formal","","key","f","16.724818181818012","683","380","朋友","贪污","Negative","morality","","","","","","","","","","",""
"932","","f","psychophysics","80","478595","0.0-7.0-3.0-0.66","5","4","5","5","3","3","3","2","4","5","4","0","-2","0","0","-1","0","1","0","5","4","5","5","4","3","4","4","4","5","4","6","7","7","4","5","4","6","6","4","3","2","5","5","4","4","5","3","3","1","3","2","6","6","3","3","3","3","3","5","2","2","3","3","3","3","2","5","3","4","3","2","2","2","1","2","2","3","2","3","776797303246950402","韦","279","Female","[""好她"",""坏我"",""坏她"",""好我""]","[""强她"",""弱我"",""弱她"",""强我""]","","","","","","","","no","","","","","","","","","SRET","EW_formal","","key","f","16.72479999999961","683","380","朋友","低劣","Negative","morality","","","","","","","","","","",""
"918","","f","psychophysics","81","480515","0.0-7.0-3.0-0.67","5","4","5","5","3","3","3","2","4","5","4","0","-2","0","0","-1","0","1","0","5","4","5","5","4","3","4","4","4","5","4","6","7","7","4","5","4","6","6","4","3","2","5","5","4","4","5","3","3","1","3","2","6","6","3","3","3","3","3","5","2","2","3","3","3","3","2","5","3","4","3","2","2","2","1","2","2","3","2","3","776797303246950402","韦","279","Female","[""好她"",""坏我"",""坏她"",""好我""]","[""强她"",""弱我"",""弱她"",""强我""]","","","","","","","","no","","","","","","","","","SRET","EW_formal","","key","f","16.87283185840712","683","380","自己","马虎","Negative","ability","","","","","","","","","","",""
"1368","","f","psychophysics","82","482885","0.0-7.0-3.0-0.68","5","4","5","5","3","3","3","2","4","5","4","0","-2","0","0","-1","0","1","0","5","4","5","5","4","3","4","4","4","5","4","6","7","7","4","5","4","6","6","4","3","2","5","5","4","4","5","3","3","1","3","2","6","6","3","3","3","3","3","5","2","2","3","3","3","3","2","5","3","4","3","2","2","2","1","2","2","3","2","3","776797303246950402","韦","279","Female","[""好她"",""坏我"",""坏她"",""好我""]","[""强她"",""弱我"",""弱她"",""强我""]","","","","","","","","no","","","","","","","","","SRET","EW_formal","","key","f","16.844321428571543","683","380","自己","蛇蝎","Negative","morality","","","","","","","","","","",""
"1172","","f","psychophysics","83","485060","0.0-7.0-3.0-0.69","5","4","5","5","3","3","3","2","4","5","4","0","-2","0","0","-1","0","1","0","5","4","5","5","4","3","4","4","4","5","4","6","7","7","4","5","4","6","6","4","3","2","5","5","4","4","5","3","3","1","3","2","6","6","3","3","3","3","3","5","2","2","3","3","3","3","2","5","3","4","3","2","2","2","1","2","2","3","2","3","776797303246950402","韦","279","Female","[""好她"",""坏我"",""坏她"",""好我""]","[""强她"",""弱我"",""弱她"",""强我""]","","","","","","","","no","","","","","","","","","SRET","EW_formal","","key","f","18.92543859649123","683","380","自己","背叛","Negative","morality","","","","","","","","","","",""
"1092","","f","psychophysics","84","487155","0.0-7.0-3.0-0.70","5","4","5","5","3","3","3","2","4","5","4","0","-2","0","0","-1","0","1","0","5","4","5","5","4","3","4","4","4","5","4","6","7","7","4","5","4","6","6","4","3","2","5","5","4","4","5","3","3","1","3","2","6","6","3","3","3","3","3","5","2","2","3","3","3","3","2","5","3","4","3","2","2","2","1","2","2","3","2","3","776797303246950402","韦","279","Female","[""好她"",""坏我"",""坏她"",""好我""]","[""强她"",""弱我"",""弱她"",""强我""]","","","","","","","","no","","","","","","","","","SRET","EW_formal","","key","f","16.724846774193498","683","380","朋友","盲目","Negative","ability","","","","","","","","","","",""
"821","","j","psychophysics","85","488979","0.0-7.0-3.0-0.71","5","4","5","5","3","3","3","2","4","5","4","0","-2","0","0","-1","0","1","0","5","4","5","5","4","3","4","4","4","5","4","6","7","7","4","5","4","6","6","4","3","2","5","5","4","4","5","3","3","1","3","2","6","6","3","3","3","3","3","5","2","2","3","3","3","3","2","5","3","4","3","2","2","2","1","2","2","3","2","3","776797303246950402","韦","279","Female","[""好她"",""坏我"",""坏她"",""好我""]","[""强她"",""弱我"",""弱她"",""强我""]","","","","","","","","yes","","","","","","","","","SRET","EW_formal","","key","j","16.881158878504532","683","380","朋友","博学","Positive","ability","","","","","","","","","","",""
"933","","f","psychophysics","86","490915","0.0-7.0-3.0-0.72","5","4","5","5","3","3","3","2","4","5","4","0","-2","0","0","-1","0","1","0","5","4","5","5","4","3","4","4","4","5","4","6","7","7","4","5","4","6","6","4","3","2","5","5","4","4","5","3","3","1","3","2","6","6","3","3","3","3","3","5","2","2","3","3","3","3","2","5","3","4","3","2","2","2","1","2","2","3","2","3","776797303246950402","韦","279","Female","[""好她"",""坏我"",""坏她"",""好我""]","[""强她"",""弱我"",""弱她"",""强我""]","","","","","","","","no","","","","","","","","","SRET","EW_formal","","key","f","16.87147368421051","683","380","朋友","短视","Negative","ability","","","","","","","","","","",""
"1158","","f","psychophysics","87","493076","0.0-7.0-3.0-0.73","5","4","5","5","3","3","3","2","4","5","4","0","-2","0","0","-1","0","1","0","5","4","5","5","4","3","4","4","4","5","4","6","7","7","4","5","4","6","6","4","3","2","5","5","4","4","5","3","3","1","3","2","6","6","3","3","3","3","3","5","2","2","3","3","3","3","2","5","3","4","3","2","2","2","1","2","2","3","2","3","776797303246950402","韦","279","Female","[""好她"",""坏我"",""坏她"",""好我""]","[""强她"",""弱我"",""弱她"",""强我""]","","","","","","","","no","","","","","","","","","SRET","EW_formal","","key","f","16.85661417322818","683","380","朋友","浅薄","Negative","ability","","","","","","","","","","",""
"764","","j","psychophysics","88","494843","0.0-7.0-3.0-0.74","5","4","5","5","3","3","3","2","4","5","4","0","-2","0","0","-1","0","1","0","5","4","5","5","4","3","4","4","4","5","4","6","7","7","4","5","4","6","6","4","3","2","5","5","4","4","5","3","3","1","3","2","6","6","3","3","3","3","3","5","2","2","3","3","3","3","2","5","3","4","3","2","2","2","1","2","2","3","2","3","776797303246950402","韦","279","Female","[""好她"",""坏我"",""坏她"",""好我""]","[""强她"",""弱我"",""弱她"",""强我""]","","","","","","","","yes","","","","","","","","","SRET","EW_formal","","key","j","16.724799999999924","683","380","自己","坦荡","Positive","morality","","","","","","","","","","",""
"957","","j","psychophysics","89","496803","0.0-7.0-3.0-0.75","5","4","5","5","3","3","3","2","4","5","4","0","-2","0","0","-1","0","1","0","5","4","5","5","4","3","4","4","4","5","4","6","7","7","4","5","4","6","6","4","3","2","5","5","4","4","5","3","3","1","3","2","6","6","3","3","3","3","3","5","2","2","3","3","3","3","2","5","3","4","3","2","2","2","1","2","2","3","2","3","776797303246950402","韦","279","Female","[""好她"",""坏我"",""坏她"",""好我""]","[""强她"",""弱我"",""弱她"",""强我""]","","","","","","","","yes","","","","","","","","","SRET","EW_formal","","key","j","16.87030434782627","683","380","朋友","君子","Positive","morality","","","","","","","","","","",""
"902","","f","psychophysics","90","498707","0.0-7.0-3.0-0.76","5","4","5","5","3","3","3","2","4","5","4","0","-2","0","0","-1","0","1","0","5","4","5","5","4","3","4","4","4","5","4","6","7","7","4","5","4","6","6","4","3","2","5","5","4","4","5","3","3","1","3","2","6","6","3","3","3","3","3","5","2","2","3","3","3","3","2","5","3","4","3","2","2","2","1","2","2","3","2","3","776797303246950402","韦","279","Female","[""好她"",""坏我"",""坏她"",""好我""]","[""强她"",""弱我"",""弱她"",""强我""]","","","","","","","","no","","","","","","","","","SRET","EW_formal","","key","f","16.724876106194884","683","380","朋友","愚钝","Negative","ability","","","","","","","","","","",""
"871","","f","psychophysics","91","500581","0.0-7.0-3.0-0.77","5","4","5","5","3","3","3","2","4","5","4","0","-2","0","0","-1","0","1","0","5","4","5","5","4","3","4","4","4","5","4","6","7","7","4","5","4","6","6","4","3","2","5","5","4","4","5","3","3","1","3","2","6","6","3","3","3","3","3","5","2","2","3","3","3","3","2","5","3","4","3","2","2","2","1","2","2","3","2","3","776797303246950402","韦","279","Female","[""好她"",""坏我"",""坏她"",""好我""]","[""强她"",""弱我"",""弱她"",""强我""]","","","","","","","","no","","","","","","","","","SRET","EW_formal","","key","f","16.725279279279224","683","380","自己","罪恶","Negative","morality","","","","","","","","","","",""
"1076","","f","psychophysics","92","502660","0.0-7.0-3.0-0.78","5","4","5","5","3","3","3","2","4","5","4","0","-2","0","0","-1","0","1","0","5","4","5","5","4","3","4","4","4","5","4","6","7","7","4","5","4","6","6","4","3","2","5","5","4","4","5","3","3","1","3","2","6","6","3","3","3","3","3","5","2","2","3","3","3","3","2","5","3","4","3","2","2","2","1","2","2","3","2","3","776797303246950402","韦","279","Female","[""好她"",""坏我"",""坏她"",""好我""]","[""强她"",""弱我"",""弱她"",""强我""]","","","","","","","","no","","","","","","","","","SRET","EW_formal","","key","f","16.7241626016259","683","380","自己","顶事","Positive","ability","","","","","","","","","","",""
"984","","j","psychophysics","93","504646","0.0-7.0-3.0-0.79","5","4","5","5","3","3","3","2","4","5","4","0","-2","0","0","-1","0","1","0","5","4","5","5","4","3","4","4","4","5","4","6","7","7","4","5","4","6","6","4","3","2","5","5","4","4","5","3","3","1","3","2","6","6","3","3","3","3","3","5","2","2","3","3","3","3","2","5","3","4","3","2","2","2","1","2","2","3","2","3","776797303246950402","韦","279","Female","[""好她"",""坏我"",""坏她"",""好我""]","[""强她"",""弱我"",""弱她"",""强我""]","","","","","","","","yes","","","","","","","","","SRET","EW_formal","","key","j","16.867914529914795","683","380","朋友","毅力","Positive","ability","","","","","","","","","","",""
"962","","f","psychophysics","94","506611","0.0-7.0-3.0-0.80","5","4","5","5","3","3","3","2","4","5","4","0","-2","0","0","-1","0","1","0","5","4","5","5","4","3","4","4","4","5","4","6","7","7","4","5","4","6","6","4","3","2","5","5","4","4","5","3","3","1","3","2","6","6","3","3","3","3","3","5","2","2","3","3","3","3","2","5","3","4","3","2","2","2","1","2","2","3","2","3","776797303246950402","韦","279","Female","[""好她"",""坏我"",""坏她"",""好我""]","[""强她"",""弱我"",""弱她"",""强我""]","","","","","","","","no","","","","","","","","","SRET","EW_formal","","key","f","16.724629310344582","683","380","朋友","偏私","Negative","morality","","","","","","","","","","",""
"948","","j","psychophysics","95","508563","0.0-7.0-3.0-0.81","5","4","5","5","3","3","3","2","4","5","4","0","-2","0","0","-1","0","1","0","5","4","5","5","4","3","4","4","4","5","4","6","7","7","4","5","4","6","6","4","3","2","5","5","4","4","5","3","3","1","3","2","6","6","3","3","3","3","3","5","2","2","3","3","3","3","2","5","3","4","3","2","2","2","1","2","2","3","2","3","776797303246950402","韦","279","Female","[""好她"",""坏我"",""坏她"",""好我""]","[""强她"",""弱我"",""弱她"",""强我""]","","","","","","","","yes","","","","","","","","","SRET","EW_formal","","key","j","16.724913793103166","683","380","朋友","骁勇","Positive","ability","","","","","","","","","","",""
"833","","f","psychophysics","96","510398","0.0-7.0-3.0-0.82","5","4","5","5","3","3","3","2","4","5","4","0","-2","0","0","-1","0","1","0","5","4","5","5","4","3","4","4","4","5","4","6","7","7","4","5","4","6","6","4","3","2","5","5","4","4","5","3","3","1","3","2","6","6","3","3","3","3","3","5","2","2","3","3","3","3","2","5","3","4","3","2","2","2","1","2","2","3","2","3","776797303246950402","韦","279","Female","[""好她"",""坏我"",""坏她"",""好我""]","[""强她"",""弱我"",""弱她"",""强我""]","","","","","","","","no","","","","","","","","","SRET","EW_formal","","key","f","16.879666666666807","683","380","朋友","无赖","Negative","morality","","","","","","","","","","",""
"731","","j","psychophysics","97","512132","0.0-7.0-3.0-0.83","5","4","5","5","3","3","3","2","4","5","4","0","-2","0","0","-1","0","1","0","5","4","5","5","4","3","4","4","4","5","4","6","7","7","4","5","4","6","6","4","3","2","5","5","4","4","5","3","3","1","3","2","6","6","3","3","3","3","3","5","2","2","3","3","3","3","2","5","3","4","3","2","2","2","1","2","2","3","2","3","776797303246950402","韦","279","Female","[""好她"",""坏我"",""坏她"",""好我""]","[""强她"",""弱我"",""弱她"",""强我""]","","","","","","","","yes","","","","","","","","","SRET","EW_formal","","key","j","17.059309999999822","683","380","自己","勤恳","Positive","morality","","","","","","","","","","",""
"975","","j","psychophysics","98","514110","0.0-7.0-3.0-0.84","5","4","5","5","3","3","3","2","4","5","4","0","-2","0","0","-1","0","1","0","5","4","5","5","4","3","4","4","4","5","4","6","7","7","4","5","4","6","6","4","3","2","5","5","4","4","5","3","3","1","3","2","6","6","3","3","3","3","3","5","2","2","3","3","3","3","2","5","3","4","3","2","2","2","1","2","2","3","2","3","776797303246950402","韦","279","Female","[""好她"",""坏我"",""坏她"",""好我""]","[""强她"",""弱我"",""弱她"",""强我""]","","","","","","","","yes","","","","","","","","","SRET","EW_formal","","key","j","16.724838983050994","683","380","朋友","素养","Positive","morality","","","","","","","","","","",""
"1005","","j","psychophysics","99","516117","0.0-7.0-3.0-0.85","5","4","5","5","3","3","3","2","4","5","4","0","-2","0","0","-1","0","1","0","5","4","5","5","4","3","4","4","4","5","4","6","7","7","4","5","4","6","6","4","3","2","5","5","4","4","5","3","3","1","3","2","6","6","3","3","3","3","3","5","2","2","3","3","3","3","2","5","3","4","3","2","2","2","1","2","2","3","2","3","776797303246950402","韦","279","Female","[""好她"",""坏我"",""坏她"",""好我""]","[""强她"",""弱我"",""弱她"",""强我""]","","","","","","","","yes","","","","","","","","","SRET","EW_formal","","key","j","16.724941176470924","683","380","自己","主见","Positive","ability","","","","","","","","","","",""
"735","","f","psychophysics","100","517854","0.0-7.0-3.0-0.86","5","4","5","5","3","3","3","2","4","5","4","0","-2","0","0","-1","0","1","0","5","4","5","5","4","3","4","4","4","5","4","6","7","7","4","5","4","6","6","4","3","2","5","5","4","4","5","3","3","1","3","2","6","6","3","3","3","3","3","5","2","2","3","3","3","3","2","5","3","4","3","2","2","2","1","2","2","3","2","3","776797303246950402","韦","279","Female","[""好她"",""坏我"",""坏她"",""好我""]","[""强她"",""弱我"",""弱她"",""强我""]","","","","","","","","no","","","","","","","","","SRET","EW_formal","","key","f","16.72471844660202","683","380","朋友","低俗","Negative","morality","","","","","","","","","","",""
"973","","f","psychophysics","101","519831","0.0-7.0-3.0-0.87","5","4","5","5","3","3","3","2","4","5","4","0","-2","0","0","-1","0","1","0","5","4","5","5","4","3","4","4","4","5","4","6","7","7","4","5","4","6","6","4","3","2","5","5","4","4","5","3","3","1","3","2","6","6","3","3","3","3","3","5","2","2","3","3","3","3","2","5","3","4","3","2","2","2","1","2","2","3","2","3","776797303246950402","韦","279","Female","[""好她"",""坏我"",""坏她"",""好我""]","[""强她"",""弱我"",""弱她"",""强我""]","","","","","","","","no","","","","","","","","","SRET","EW_formal","","key","f","16.724803418803635","683","380","自己","缓慢","Negative","ability","","","","","","","","","","",""
"14708","
    <p><div style='color:white;font-size:35px; line-height:20px;'>计算任务</div></p><br>
    <p><div style='color:red;font-size:25px; line-height:20px;'>接下来，您将看到一些四则运算题，<b>请从键盘选择 0-9 进行反应。</b></div></p>
    <p><div style='color:red;font-size:25px; line-height:20px;'>请尽可能快地进行计算，计算的速度和正确率将影响报酬的发放。</div></p>
    <p><div class='footer' style='color:white;font-size:25px; line-height:20px;'>如果对本实验还有不清楚之处，请立即向实验员咨询。</p><p style='color:white;font-size:25px; line-height:20px;'>如果您明白了规则：</p><p style='color:white;font-size:22px; line-height:20px;'>请按 继续 进入练习</p>
    </div>
    ","0","html-button-response","102","534542","0.0-7.0-4.0","5","4","5","5","3","3","3","2","4","5","4","0","-2","0","0","-1","0","1","0","5","4","5","5","4","3","4","4","4","5","4","6","7","7","4","5","4","6","6","4","3","2","5","5","4","4","5","3","3","1","3","2","6","6","3","3","3","3","3","5","2","2","3","3","3","3","2","5","3","4","3","2","2","2","1","2","2","3","2","3","776797303246950402","韦","279","Female","[""好她"",""坏我"",""坏她"",""好我""]","[""强她"",""弱我"",""弱她"",""强我""]","","","","","","","","","","","","","","","","","SRET_math","math_instructions","Wed Dec 20 2023 13:10:54 GMT+0800 (中国标准时间)","","","","","","","","","","","","","","","","","","","",""
"2170","","3","psychophysics","103","536723","0.0-7.0-5.0-0.0","5","4","5","5","3","3","3","2","4","5","4","0","-2","0","0","-1","0","1","0","5","4","5","5","4","3","4","4","4","5","4","6","7","7","4","5","4","6","6","4","3","2","5","5","4","4","5","3","3","1","3","2","6","6","3","3","3","3","3","5","2","2","3","3","3","3","2","5","3","4","3","2","2","2","1","2","2","3","2","3","776797303246950402","韦","279","Female","[""好她"",""坏我"",""坏她"",""好我""]","[""强她"",""弱我"",""弱她"",""强我""]","","","","","","","","3","","","","","","","","","SRET","SRET_math_calculate","","key","3","16.72484615384601","683","380","","","","","12/4= ?","3","1","","","","","","","",""
"2172","","6","psychophysics","104","538899","0.0-7.0-5.0-0.1","5","4","5","5","3","3","3","2","4","5","4","0","-2","0","0","-1","0","1","0","5","4","5","5","4","3","4","4","4","5","4","6","7","7","4","5","4","6","6","4","3","2","5","5","4","4","5","3","3","1","3","2","6","6","3","3","3","3","3","5","2","2","3","3","3","3","2","5","3","4","3","2","2","2","1","2","2","3","2","3","776797303246950402","韦","279","Female","[""好她"",""坏我"",""坏她"",""好我""]","[""强她"",""弱我"",""弱她"",""强我""]","","","","","","","","6","","","","","","","","","SRET","SRET_math_calculate","","key","6","16.855507812500036","683","380","","","","","9-3= ?","6","1","","","","","","","",""
"1902","","9","psychophysics","105","540804","0.0-7.0-5.0-0.2","5","4","5","5","3","3","3","2","4","5","4","0","-2","0","0","-1","0","1","0","5","4","5","5","4","3","4","4","4","5","4","6","7","7","4","5","4","6","6","4","3","2","5","5","4","4","5","3","3","1","3","2","6","6","3","3","3","3","3","5","2","2","3","3","3","3","2","5","3","4","3","2","2","2","1","2","2","3","2","3","776797303246950402","韦","279","Female","[""好她"",""坏我"",""坏她"",""好我""]","[""强她"",""弱我"",""弱她"",""强我""]","","","","","","","","9","","","","","","","","","SRET","SRET_math_calculate","","key","9","16.724752212389355","683","380","","","","","4+5= ?","9","1","","","","","","","",""
"3044","","8","psychophysics","106","543851","0.0-7.0-5.0-0.3","5","4","5","5","3","3","3","2","4","5","4","0","-2","0","0","-1","0","1","0","5","4","5","5","4","3","4","4","4","5","4","6","7","7","4","5","4","6","6","4","3","2","5","5","4","4","5","3","3","1","3","2","6","6","3","3","3","3","3","5","2","2","3","3","3","3","2","5","3","4","3","2","2","2","1","2","2","3","2","3","776797303246950402","韦","279","Female","[""好她"",""坏我"",""坏她"",""好我""]","[""强她"",""弱我"",""弱她"",""强我""]","","","","","","","","8","","","","","","","","","SRET","SRET_math_calculate","","key","8","16.72486740331492","683","380","","","","","13-5= ?","8","1","","","","","","","",""
"1803","","5","psychophysics","107","545660","0.0-7.0-5.0-0.4","5","4","5","5","3","3","3","2","4","5","4","0","-2","0","0","-1","0","1","0","5","4","5","5","4","3","4","4","4","5","4","6","7","7","4","5","4","6","6","4","3","2","5","5","4","4","5","3","3","1","3","2","6","6","3","3","3","3","3","5","2","2","3","3","3","3","2","5","3","4","3","2","2","2","1","2","2","3","2","3","776797303246950402","韦","279","Female","[""好她"",""坏我"",""坏她"",""好我""]","[""强她"",""弱我"",""弱她"",""强我""]","","","","","","","","5","","","","","","","","","SRET","SRET_math_calculate","","key","5","16.72484112149605","683","380","","","","","2+3= ?","5","1","","","","","","","",""
"2100","","0","psychophysics","108","547763","0.0-7.0-5.0-0.5","5","4","5","5","3","3","3","2","4","5","4","0","-2","0","0","-1","0","1","0","5","4","5","5","4","3","4","4","4","5","4","6","7","7","4","5","4","6","6","4","3","2","5","5","4","4","5","3","3","1","3","2","6","6","3","3","3","3","3","5","2","2","3","3","3","3","2","5","3","4","3","2","2","2","1","2","2","3","2","3","776797303246950402","韦","279","Female","[""好她"",""坏我"",""坏她"",""好我""]","[""强她"",""弱我"",""弱她"",""强我""]","","","","","","","","0","","","","","","","","","SRET","SRET_math_calculate","","key","0","16.724911999999545","683","380","","","","","6*0= ?","0","1","","","","","","","",""
"3192","","3","psychophysics","109","550958","0.0-7.0-5.0-0.6","5","4","5","5","3","3","3","2","4","5","4","0","-2","0","0","-1","0","1","0","5","4","5","5","4","3","4","4","4","5","4","6","7","7","4","5","4","6","6","4","3","2","5","5","4","4","5","3","3","1","3","2","6","6","3","3","3","3","3","5","2","2","3","3","3","3","2","5","3","4","3","2","2","2","1","2","2","3","2","3","776797303246950402","韦","279","Female","[""好她"",""坏我"",""坏她"",""好我""]","[""强她"",""弱我"",""弱她"",""强我""]","","","","","","","","3","","","","","","","","","SRET","SRET_math_calculate","","key","3","16.724873684210653","683","380","","","","","21/7=  ?","3","1","","","","","","","",""
"2137","","8","psychophysics","110","553099","0.0-7.0-5.0-0.7","5","4","5","5","3","3","3","2","4","5","4","0","-2","0","0","-1","0","1","0","5","4","5","5","4","3","4","4","4","5","4","6","7","7","4","5","4","6","6","4","3","2","5","5","4","4","5","3","3","1","3","2","6","6","3","3","3","3","3","5","2","2","3","3","3","3","2","5","3","4","3","2","2","2","1","2","2","3","2","3","776797303246950402","韦","279","Female","[""好她"",""坏我"",""坏她"",""好我""]","[""强她"",""弱我"",""弱她"",""强我""]","","","","","","","","8","","","","","","","","","SRET","SRET_math_calculate","","key","8","16.8576666666666","683","380","","","","","8*1= ?","8","1","","","","","","","",""
"1820","","6","psychophysics","111","554923","0.0-7.0-5.0-0.8","5","4","5","5","3","3","3","2","4","5","4","0","-2","0","0","-1","0","1","0","5","4","5","5","4","3","4","4","4","5","4","6","7","7","4","5","4","6","6","4","3","2","5","5","4","4","5","3","3","1","3","2","6","6","3","3","3","3","3","5","2","2","3","3","3","3","2","5","3","4","3","2","2","2","1","2","2","3","2","3","776797303246950402","韦","279","Female","[""好她"",""坏我"",""坏她"",""好我""]","[""强她"",""弱我"",""弱她"",""强我""]","","","","","","","","6","","","","","","","","","SRET","SRET_math_calculate","","key","6","16.88089719626217","683","380","","","","","5+1= ?","6","1","","","","","","","",""
"2141","","7","psychophysics","112","557068","0.0-7.0-5.0-0.9","5","4","5","5","3","3","3","2","4","5","4","0","-2","0","0","-1","0","1","0","5","4","5","5","4","3","4","4","4","5","4","6","7","7","4","5","4","6","6","4","3","2","5","5","4","4","5","3","3","1","3","2","6","6","3","3","3","3","3","5","2","2","3","3","3","3","2","5","3","4","3","2","2","2","1","2","2","3","2","3","776797303246950402","韦","279","Female","[""好她"",""坏我"",""坏她"",""好我""]","[""强她"",""弱我"",""弱她"",""强我""]","","","","","","","","7","","","","","","","","","SRET","SRET_math_calculate","","key","7","16.725078740157187","683","380","","","","","7*1=  ?","7","1","","","","","","","",""
"1951","","1","psychophysics","113","559059","0.0-7.0-5.0-0.10","5","4","5","5","3","3","3","2","4","5","4","0","-2","0","0","-1","0","1","0","5","4","5","5","4","3","4","4","4","5","4","6","7","7","4","5","4","6","6","4","3","2","5","5","4","4","5","3","3","1","3","2","6","6","3","3","3","3","3","5","2","2","3","3","3","3","2","5","3","4","3","2","2","2","1","2","2","3","2","3","776797303246950402","韦","279","Female","[""好她"",""坏我"",""坏她"",""好我""]","[""强她"",""弱我"",""弱她"",""强我""]","","","","","","","","1","","","","","","","","","SRET","SRET_math_calculate","","key","1","16.867692307692465","683","380","","","","","4/4= ?","1","1","","","","","","","",""
"2396","","5","psychophysics","114","561475","0.0-7.0-5.0-0.11","5","4","5","5","3","3","3","2","4","5","4","0","-2","0","0","-1","0","1","0","5","4","5","5","4","3","4","4","4","5","4","6","7","7","4","5","4","6","6","4","3","2","5","5","4","4","5","3","3","1","3","2","6","6","3","3","3","3","3","5","2","2","3","3","3","3","2","5","3","4","3","2","2","2","1","2","2","3","2","3","776797303246950402","韦","279","Female","[""好她"",""坏我"",""坏她"",""好我""]","[""强她"",""弱我"",""弱她"",""强我""]","","","","","","","","5","","","","","","","","","SRET","SRET_math_calculate","","key","5","16.960338028169133","683","380","","","","","16-11= ?","5","1","","","","","","","",""
"2237","","2","psychophysics","115","563716","0.0-7.0-5.0-0.12","5","4","5","5","3","3","3","2","4","5","4","0","-2","0","0","-1","0","1","0","5","4","5","5","4","3","4","4","4","5","4","6","7","7","4","5","4","6","6","4","3","2","5","5","4","4","5","3","3","1","3","2","6","6","3","3","3","3","3","5","2","2","3","3","3","3","2","5","3","4","3","2","2","2","1","2","2","3","2","3","776797303246950402","韦","279","Female","[""好她"",""坏我"",""坏她"",""好我""]","[""强她"",""弱我"",""弱她"",""强我""]","","","","","","","","2","","","","","","","","","SRET","SRET_math_calculate","","key","2","16.851515151514445","683","380","","","","","90/45= ?","2","1","","","","","","","",""
"2411","","5","psychophysics","116","566131","0.0-7.0-5.0-0.13","5","4","5","5","3","3","3","2","4","5","4","0","-2","0","0","-1","0","1","0","5","4","5","5","4","3","4","4","4","5","4","6","7","7","4","5","4","6","6","4","3","2","5","5","4","4","5","3","3","1","3","2","6","6","3","3","3","3","3","5","2","2","3","3","3","3","2","5","3","4","3","2","2","2","1","2","2","3","2","3","776797303246950402","韦","279","Female","[""好她"",""坏我"",""坏她"",""好我""]","[""强她"",""弱我"",""弱她"",""强我""]","","","","","","","","5","","","","","","","","","SRET","SRET_math_calculate","","key","5","16.96206382978691","683","380","","","","","17-12= ? ","5","1","","","","","","","",""
"2074","","2","psychophysics","117","568247","0.0-7.0-5.0-0.14","5","4","5","5","3","3","3","2","4","5","4","0","-2","0","0","-1","0","1","0","5","4","5","5","4","3","4","4","4","5","4","6","7","7","4","5","4","6","6","4","3","2","5","5","4","4","5","3","3","1","3","2","6","6","3","3","3","3","3","5","2","2","3","3","3","3","2","5","3","4","3","2","2","2","1","2","2","3","2","3","776797303246950402","韦","279","Female","[""好她"",""坏我"",""坏她"",""好我""]","[""强她"",""弱我"",""弱她"",""强我""]","","","","","","","","2","","","","","","","","","SRET","SRET_math_calculate","","key","2","16.994572580645553","683","380","","","","","18/9= ?","2","1","","","","","","","",""
"1855","","5","psychophysics","118","570107","0.0-7.0-5.0-0.15","5","4","5","5","3","3","3","2","4","5","4","0","-2","0","0","-1","0","1","0","5","4","5","5","4","3","4","4","4","5","4","6","7","7","4","5","4","6","6","4","3","2","5","5","4","4","5","3","3","1","3","2","6","6","3","3","3","3","3","5","2","2","3","3","3","3","2","5","3","4","3","2","2","2","1","2","2","3","2","3","776797303246950402","韦","279","Female","[""好她"",""坏我"",""坏她"",""好我""]","[""强她"",""弱我"",""弱她"",""强我""]","","","","","","","","5","","","","","","","","","SRET","SRET_math_calculate","","key","5","16.724672727272","683","380","","","","","4+1= ?","5","1","","","","","","","",""
"1876","","6","psychophysics","119","571987","0.0-7.0-5.0-0.16","5","4","5","5","3","3","3","2","4","5","4","0","-2","0","0","-1","0","1","0","5","4","5","5","4","3","4","4","4","5","4","6","7","7","4","5","4","6","6","4","3","2","5","5","4","4","5","3","3","1","3","2","6","6","3","3","3","3","3","5","2","2","3","3","3","3","2","5","3","4","3","2","2","2","1","2","2","3","2","3","776797303246950402","韦","279","Female","[""好她"",""坏我"",""坏她"",""好我""]","[""强她"",""弱我"",""弱她"",""强我""]","","","","","","","","6","","","","","","","","","SRET","SRET_math_calculate","","key","6","16.72474774774709","683","380","","","","","2*3= ?","6","1","","","","","","","",""
"3878","","9","psychophysics","120","575875","0.0-7.0-5.0-0.17","5","4","5","5","3","3","3","2","4","5","4","0","-2","0","0","-1","0","1","0","5","4","5","5","4","3","4","4","4","5","4","6","7","7","4","5","4","6","6","4","3","2","5","5","4","4","5","3","3","1","3","2","6","6","3","3","3","3","3","5","2","2","3","3","3","3","2","5","3","4","3","2","2","2","1","2","2","3","2","3","776797303246950402","韦","279","Female","[""好她"",""坏我"",""坏她"",""好我""]","[""强她"",""弱我"",""弱她"",""强我""]","","","","","","","","9","","","","","","","","","SRET","SRET_math_calculate","","key","9","16.724862068965287","683","380","","","","","32-23= ?","9","1","","","","","","","",""
"2076","","0","psychophysics","121","577955","0.0-7.0-5.0-0.18","5","4","5","5","3","3","3","2","4","5","4","0","-2","0","0","-1","0","1","0","5","4","5","5","4","3","4","4","4","5","4","6","7","7","4","5","4","6","6","4","3","2","5","5","4","4","5","3","3","1","3","2","6","6","3","3","3","3","3","5","2","2","3","3","3","3","2","5","3","4","3","2","2","2","1","2","2","3","2","3","776797303246950402","韦","279","Female","[""好她"",""坏我"",""坏她"",""好我""]","[""强她"",""弱我"",""弱她"",""强我""]","","","","","","","","0","","","","","","","","","SRET","SRET_math_calculate","","key","0","16.86192622950747","683","380","","","","","9-9= ?","0","1","","","","","","","",""
"2133","","4","psychophysics","122","580092","0.0-7.0-5.0-0.19","5","4","5","5","3","3","3","2","4","5","4","0","-2","0","0","-1","0","1","0","5","4","5","5","4","3","4","4","4","5","4","6","7","7","4","5","4","6","6","4","3","2","5","5","4","4","5","3","3","1","3","2","6","6","3","3","3","3","3","5","2","2","3","3","3","3","2","5","3","4","3","2","2","2","1","2","2","3","2","3","776797303246950402","韦","279","Female","[""好她"",""坏我"",""坏她"",""好我""]","[""强她"",""弱我"",""弱她"",""强我""]","","","","","","","","4","","","","","","","","","SRET","SRET_math_calculate","","key","4","16.85768253968323","683","380","","","","","4*1= ?","4","1","","","","","","","",""
"1859","","4","psychophysics","123","581955","0.0-7.0-5.0-0.20","5","4","5","5","3","3","3","2","4","5","4","0","-2","0","0","-1","0","1","0","5","4","5","5","4","3","4","4","4","5","4","6","7","7","4","5","4","6","6","4","3","2","5","5","4","4","5","3","3","1","3","2","6","6","3","3","3","3","3","5","2","2","3","3","3","3","2","5","3","4","3","2","2","2","1","2","2","3","2","3","776797303246950402","韦","279","Female","[""好她"",""坏我"",""坏她"",""好我""]","[""强她"",""弱我"",""弱她"",""强我""]","","","","","","","","4","","","","","","","","","SRET","SRET_math_calculate","","key","4","16.724854545455045","683","380","","","","","8-5= ?","3","0","","","","","","","",""
"3254","","3","psychophysics","124","585251","0.0-7.0-5.0-0.21","5","4","5","5","3","3","3","2","4","5","4","0","-2","0","0","-1","0","1","0","5","4","5","5","4","3","4","4","4","5","4","6","7","7","4","5","4","6","6","4","3","2","5","5","4","4","5","3","3","1","3","2","6","6","3","3","3","3","3","5","2","2","3","3","3","3","2","5","3","4","3","2","2","2","1","2","2","3","2","3","776797303246950402","韦","279","Female","[""好她"",""坏我"",""坏她"",""好我""]","[""强她"",""弱我"",""弱她"",""强我""]","","","","","","","","3","","","","","","","","","SRET","SRET_math_calculate","","key","3","16.81061538461572","683","380","","","","","11-8= ?","3","1","","","","","","","",""
"2075","","2","psychophysics","125","587363","0.0-7.0-5.0-0.22","5","4","5","5","3","3","3","2","4","5","4","0","-2","0","0","-1","0","1","0","5","4","5","5","4","3","4","4","4","5","4","6","7","7","4","5","4","6","6","4","3","2","5","5","4","4","5","3","3","1","3","2","6","6","3","3","3","3","3","5","2","2","3","3","3","3","2","5","3","4","3","2","2","2","1","2","2","3","2","3","776797303246950402","韦","279","Female","[""好她"",""坏我"",""坏她"",""好我""]","[""强她"",""弱我"",""弱她"",""强我""]","","","","","","","","2","","","","","","","","","SRET","SRET_math_calculate","","key","2","16.85860000000056","683","380","","","","","5-3= ?","2","1","","","","","","","",""
"1859","","4","psychophysics","126","589227","0.0-7.0-5.0-0.23","5","4","5","5","3","3","3","2","4","5","4","0","-2","0","0","-1","0","1","0","5","4","5","5","4","3","4","4","4","5","4","6","7","7","4","5","4","6","6","4","3","2","5","5","4","4","5","3","3","1","3","2","6","6","3","3","3","3","3","5","2","2","3","3","3","3","2","5","3","4","3","2","2","2","1","2","2","3","2","3","776797303246950402","韦","279","Female","[""好她"",""坏我"",""坏她"",""好我""]","[""强她"",""弱我"",""弱她"",""强我""]","","","","","","","","4","","","","","","","","","SRET","SRET_math_calculate","","key","4","17.35595283018895","683","380","","","","","3+1= ?","4","1","","","","","","","",""
"2281","","5","psychophysics","127","591510","0.0-7.0-5.0-0.24","5","4","5","5","3","3","3","2","4","5","4","0","-2","0","0","-1","0","1","0","5","4","5","5","4","3","4","4","4","5","4","6","7","7","4","5","4","6","6","4","3","2","5","5","4","4","5","3","3","1","3","2","6","6","3","3","3","3","3","5","2","2","3","3","3","3","2","5","3","4","3","2","2","2","1","2","2","3","2","3","776797303246950402","韦","279","Female","[""好她"",""坏我"",""坏她"",""好我""]","[""强她"",""弱我"",""弱她"",""强我""]","","","","","","","","5","","","","","","","","","SRET","SRET_math_calculate","","key","5","16.724874999999884","683","380","","","","","5/1= ?","5","1","","","","","","","",""
"2105","","7","psychophysics","128","593620","0.0-7.0-5.0-0.25","5","4","5","5","3","3","3","2","4","5","4","0","-2","0","0","-1","0","1","0","5","4","5","5","4","3","4","4","4","5","4","6","7","7","4","5","4","6","6","4","3","2","5","5","4","4","5","3","3","1","3","2","6","6","3","3","3","3","3","5","2","2","3","3","3","3","2","5","3","4","3","2","2","2","1","2","2","3","2","3","776797303246950402","韦","279","Female","[""好她"",""坏我"",""坏她"",""好我""]","[""强她"",""弱我"",""弱她"",""强我""]","","","","","","","","7","","","","","","","","","SRET","SRET_math_calculate","","key","7","16.724743999999948","683","380","","","","","1+6= ?","7","1","","","","","","","",""
"1891","","6","psychophysics","129","595515","0.0-7.0-5.0-0.26","5","4","5","5","3","3","3","2","4","5","4","0","-2","0","0","-1","0","1","0","5","4","5","5","4","3","4","4","4","5","4","6","7","7","4","5","4","6","6","4","3","2","5","5","4","4","5","3","3","1","3","2","6","6","3","3","3","3","3","5","2","2","3","3","3","3","2","5","3","4","3","2","2","2","1","2","2","3","2","3","776797303246950402","韦","279","Female","[""好她"",""坏我"",""坏她"",""好我""]","[""强她"",""弱我"",""弱她"",""强我""]","","","","","","","","6","","","","","","","","","SRET","SRET_math_calculate","","key","6","16.72480357142818","683","380","","","","","8-2= ?","6","1","","","","","","","",""
"1998","","8","psychophysics","130","597516","0.0-7.0-5.0-0.27","5","4","5","5","3","3","3","2","4","5","4","0","-2","0","0","-1","0","1","0","5","4","5","5","4","3","4","4","4","5","4","6","7","7","4","5","4","6","6","4","3","2","5","5","4","4","5","3","3","1","3","2","6","6","3","3","3","3","3","5","2","2","3","3","3","3","2","5","3","4","3","2","2","2","1","2","2","3","2","3","776797303246950402","韦","279","Female","[""好她"",""坏我"",""坏她"",""好我""]","[""强她"",""弱我"",""弱她"",""强我""]","","","","","","","","8","","","","","","","","","SRET","SRET_math_calculate","","key","8","16.72483193277315","683","380","","","","","4+4= ?","8","1","","","","","","","",""
"1753","","9","psychophysics","131","599273","0.0-7.0-5.0-0.28","5","4","5","5","3","3","3","2","4","5","4","0","-2","0","0","-1","0","1","0","5","4","5","5","4","3","4","4","4","5","4","6","7","7","4","5","4","6","6","4","3","2","5","5","4","4","5","3","3","1","3","2","6","6","3","3","3","3","3","5","2","2","3","3","3","3","2","5","3","4","3","2","2","2","1","2","2","3","2","3","776797303246950402","韦","279","Female","[""好她"",""坏我"",""坏她"",""好我""]","[""强她"",""弱我"",""弱她"",""强我""]","","","","","","","","9","","","","","","","","","SRET","SRET_math_calculate","","key","9","16.72476699029195","683","380","","","","","1*9= ?","9","1","","","","","","","",""
"2083","","2","psychophysics","132","601397","0.0-7.0-5.0-0.29","5","4","5","5","3","3","3","2","4","5","4","0","-2","0","0","-1","0","1","0","5","4","5","5","4","3","4","4","4","5","4","6","7","7","4","5","4","6","6","4","3","2","5","5","4","4","5","3","3","1","3","2","6","6","3","3","3","3","3","5","2","2","3","3","3","3","2","5","3","4","3","2","2","2","1","2","2","3","2","3","776797303246950402","韦","279","Female","[""好她"",""坏我"",""坏她"",""好我""]","[""强她"",""弱我"",""弱她"",""强我""]","","","","","","","","2","","","","","","","","","SRET","SRET_math_calculate","","key","2","16.724874015748096","683","380","","","","","8-6= ?","2","1","","","","","","","",""
"1858","","3","psychophysics","133","603260","0.0-7.0-5.0-0.30","5","4","5","5","3","3","3","2","4","5","4","0","-2","0","0","-1","0","1","0","5","4","5","5","4","3","4","4","4","5","4","6","7","7","4","5","4","6","6","4","3","2","5","5","4","4","5","3","3","1","3","2","6","6","3","3","3","3","3","5","2","2","3","3","3","3","2","5","3","4","3","2","2","2","1","2","2","3","2","3","776797303246950402","韦","279","Female","[""好她"",""坏我"",""坏她"",""好我""]","[""强她"",""弱我"",""弱她"",""强我""]","","","","","","","","3","","","","","","","","","SRET","SRET_math_calculate","","key","3","16.72489090909102","683","380","","","","","1+2= ?","3","1","","","","","","","",""
"1933","","6","psychophysics","134","605196","0.0-7.0-5.0-0.31","5","4","5","5","3","3","3","2","4","5","4","0","-2","0","0","-1","0","1","0","5","4","5","5","4","3","4","4","4","5","4","6","7","7","4","5","4","6","6","4","3","2","5","5","4","4","5","3","3","1","3","2","6","6","3","3","3","3","3","5","2","2","3","3","3","3","2","5","3","4","3","2","2","2","1","2","2","3","2","3","776797303246950402","韦","279","Female","[""好她"",""坏我"",""坏她"",""好我""]","[""强她"",""弱我"",""弱她"",""强我""]","","","","","","","","6","","","","","","","","","SRET","SRET_math_calculate","","key","6","16.72482608695636","683","380","","","","","3+3= ?","6","1","","","","","","","",""
"1837","","2","psychophysics","135","607035","0.0-7.0-5.0-0.32","5","4","5","5","3","3","3","2","4","5","4","0","-2","0","0","-1","0","1","0","5","4","5","5","4","3","4","4","4","5","4","6","7","7","4","5","4","6","6","4","3","2","5","5","4","4","5","3","3","1","3","2","6","6","3","3","3","3","3","5","2","2","3","3","3","3","2","5","3","4","3","2","2","2","1","2","2","3","2","3","776797303246950402","韦","279","Female","[""好她"",""坏我"",""坏她"",""好我""]","[""强她"",""弱我"",""弱她"",""强我""]","","","","","","","","2","","","","","","","","","SRET","SRET_math_calculate","","key","2","16.724807339450216","683","380","","","","","8/4= ?","2","1","","","","","","","",""
"1934","","8","psychophysics","136","608973","0.0-7.0-5.0-0.33","5","4","5","5","3","3","3","2","4","5","4","0","-2","0","0","-1","0","1","0","5","4","5","5","4","3","4","4","4","5","4","6","7","7","4","5","4","6","6","4","3","2","5","5","4","4","5","3","3","1","3","2","6","6","3","3","3","3","3","5","2","2","3","3","3","3","2","5","3","4","3","2","2","2","1","2","2","3","2","3","776797303246950402","韦","279","Female","[""好她"",""坏我"",""坏她"",""好我""]","[""强她"",""弱我"",""弱她"",""强我""]","","","","","","","","8","","","","","","","","","SRET","SRET_math_calculate","","key","8","16.87156140350884","683","380","","","","","1+7= ?","8","1","","","","","","","",""
"3659","","9","psychophysics","137","612636","0.0-7.0-5.0-0.34","5","4","5","5","3","3","3","2","4","5","4","0","-2","0","0","-1","0","1","0","5","4","5","5","4","3","4","4","4","5","4","6","7","7","4","5","4","6","6","4","3","2","5","5","4","4","5","3","3","1","3","2","6","6","3","3","3","3","3","5","2","2","3","3","3","3","2","5","3","4","3","2","2","2","1","2","2","3","2","3","776797303246950402","韦","279","Female","[""好她"",""坏我"",""坏她"",""好我""]","[""强她"",""弱我"",""弱她"",""强我""]","","","","","","","","9","","","","","","","","","SRET","SRET_math_calculate","","key","9","16.80191244239638","683","380","","","","","43-34= ?","9","1","","","","","","","",""
"2188","","9","psychophysics","138","614829","0.0-7.0-5.0-0.35","5","4","5","5","3","3","3","2","4","5","4","0","-2","0","0","-1","0","1","0","5","4","5","5","4","3","4","4","4","5","4","6","7","7","4","5","4","6","6","4","3","2","5","5","4","4","5","3","3","1","3","2","6","6","3","3","3","3","3","5","2","2","3","3","3","3","2","5","3","4","3","2","2","2","1","2","2","3","2","3","776797303246950402","韦","279","Female","[""好她"",""坏我"",""坏她"",""好我""]","[""强她"",""弱我"",""弱她"",""强我""]","","","","","","","","9","","","","","","","","","SRET","SRET_math_calculate","","key","9","16.724746153846635","683","380","","","","","2+7= ?","9","1","","","","","","","",""
"2020","","0","psychophysics","139","616852","0.0-7.0-5.0-0.36","5","4","5","5","3","3","3","2","4","5","4","0","-2","0","0","-1","0","1","0","5","4","5","5","4","3","4","4","4","5","4","6","7","7","4","5","4","6","6","4","3","2","5","5","4","4","5","3","3","1","3","2","6","6","3","3","3","3","3","5","2","2","3","3","3","3","2","5","3","4","3","2","2","2","1","2","2","3","2","3","776797303246950402","韦","279","Female","[""好她"",""坏我"",""坏她"",""好我""]","[""强她"",""弱我"",""弱她"",""强我""]","","","","","","","","0","","","","","","","","","SRET","SRET_math_calculate","","key","0","16.724791666667443","683","380","","","","","22-22= ?","0","1","","","","","","","",""
"2716","","9","psychophysics","140","619571","0.0-7.0-5.0-0.37","5","4","5","5","3","3","3","2","4","5","4","0","-2","0","0","-1","0","1","0","5","4","5","5","4","3","4","4","4","5","4","6","7","7","4","5","4","6","6","4","3","2","5","5","4","4","5","3","3","1","3","2","6","6","3","3","3","3","3","5","2","2","3","3","3","3","2","5","3","4","3","2","2","2","1","2","2","3","2","3","776797303246950402","韦","279","Female","[""好她"",""坏我"",""坏她"",""好我""]","[""强她"",""弱我"",""弱她"",""强我""]","","","","","","","","9","","","","","","","","","SRET","SRET_math_calculate","","key","9","17.042468354430145","683","380","","","","","81/9= ?","9","1","","","","","","","",""
"1879","","9","psychophysics","141","621459","0.0-7.0-5.0-0.38","5","4","5","5","3","3","3","2","4","5","4","0","-2","0","0","-1","0","1","0","5","4","5","5","4","3","4","4","4","5","4","6","7","7","4","5","4","6","6","4","3","2","5","5","4","4","5","3","3","1","3","2","6","6","3","3","3","3","3","5","2","2","3","3","3","3","2","5","3","4","3","2","2","2","1","2","2","3","2","3","776797303246950402","韦","279","Female","[""好她"",""坏我"",""坏她"",""好我""]","[""强她"",""弱我"",""弱她"",""强我""]","","","","","","","","9","","","","","","","","","SRET","SRET_math_calculate","","key","9","16.724857142857218","683","380","","","","","3+6= ?","9","1","","","","","","","",""
