"rt","stimulus","response","trial_type","trial_index","time_elapsed","internal_node_id","swb_1","swb_2","swb_3","swb_4","swb_5","LOT_1","LOT_2","LOT_3","LOT_4","LOT_5","LOT_6","IPC_1","IPC_2","IPC_3","IPC_4","IPC_5","IPC_6","IPC_7","IPC_8","MorIden_1","MorIden_2","MorIden_3","MorIden_4","MorIden_5","MorIden_6","MorIden_7","MorIden_8","MorIden_9","MorIden_10","moralSeImag_1","moralSeImag_2","moralSeImag_3","moralSeImag_4","moralSeImag_5","moralSeImag_6","moralSeImag_7","moralSeImag_8","moralSeImag_9","sde_1","sde_2","sde_3","sde_4","sde_5","sde_6","sde_7","sde_8","sde_9","sde_10","trap2","sde_11","sde_12","sde_13","sde_14","sde_15","sde_16","sde_17","sde_18","sde_19","sde_20","IM_1","IM_2","IM_3","IM_4","IM_5","IM_6","IM_7","IM_8","IM_9","IM_10","IM_11","IM_12","IM_13","IM_14","IM_15","IM_16","IM_17","IM_18","IM_19","IM_20","subj_idx","friend_name","ParticipantID","Sex","Word","Word2","value","success","timeout","failed_images","failed_audio","failed_video","user_agent","responses","item_order","radio_event_ids","radio_event_times","key_event_times","mouse_event_times","straightlining","zigzagging","honeypot","view_history","response_type","key_press","avg_frame_time","center_x","center_y","correct_response","correct","identity","Image","word","condition","task_id","screen_id","time_stamp","person","valence","domain","math","status","duration","question_order","trap2_item"
"7315","
   <p><div style='color:white; font-size: 25px'>您好，欢迎参加本次实验。</div></p>
   <p><div style='color:white; font-size: 25px'>为充分保障您的权利，请确保您已经知晓并同意《参与实验同意书》以及《数据公开知情同意书》。</div></p>
   <p><div style='color:white; font-size: 25px'>如果您未见过上述内容，请咨询实验员。</div></p>
   <p style='color:white; font-size: 25px'>如果您选择继续实验，则表示您已经清楚两份知情同意书的内容并同意。</p>
   <p><div style = ""color: pink;font-size:30px;"">请确保您记得day0的实验编号，您将在本次实验输入该编号，若您忘记，请咨询实验员后作答。</div></p>
   <p><div style = ""color:lightblue;font-size:25px;"">请您尽可能认真地作答，我们将依据您在各问卷和按键任务中的作答质量发放报酬。</div></p>
   <p> <div style = ""color: green""><按空格键至下页></div> </p>
   "," ","html-keyboard-response","0","7319","0.0-0.0","7","7","7","7","7","4","4","4","5","5","5","1","0","1","2","0","2","2","2","5","5","5","5","5","4","4","5","5","5","5","5","5","5","7","7","7","5","5","5","1","1","7","5","1","7","7","7","7","1","7","1","7","2","4","5","5","6","6","3","3","7","2","1","1","7","1","7","1","7","1","1","1","1","1","1","1","7","1","7","746306344851869697","李","534","Male","[""坏我"",""好我"",""好他"",""坏他""]","[""弱我"",""强我"",""强他"",""弱他""]","","","","","","","","","","","","","","","","","","","","","","","","","","","","","","","","","","","","","","",""
"","","","call-function","1","7320","0.0-1.0-0.0","7","7","7","7","7","4","4","4","5","5","5","1","0","1","2","0","2","2","2","5","5","5","5","5","4","4","5","5","5","5","5","5","5","7","7","7","5","5","5","1","1","7","5","1","7","7","7","7","1","7","1","7","2","4","5","5","6","6","3","3","7","2","1","1","7","1","7","1","7","1","1","1","1","1","1","1","7","1","7","746306344851869697","李","534","Male","[""坏我"",""好我"",""好他"",""坏他""]","[""弱我"",""强我"",""强他"",""弱他""]","","","","","","","","","","","","","","","","","","","","","","","","","","","","","","","","","","","","","","",""
"18280","","[{""name"":""friend_name"",""value"":""李""},{""name"":""ParticipantID"",""value"":""534""}]","survey-html-form","2","25601","0.0-1.0-1.0","7","7","7","7","7","4","4","4","5","5","5","1","0","1","2","0","2","2","2","5","5","5","5","5","4","4","5","5","5","5","5","5","5","7","7","7","5","5","5","1","1","7","5","1","7","7","7","7","1","7","1","7","2","4","5","5","6","6","3","3","7","2","1","1","7","1","7","1","7","1","1","1","1","1","1","1","7","1","7","746306344851869697","李","534","Male","[""坏我"",""好我"",""好他"",""坏他""]","[""弱我"",""强我"",""强他"",""弱他""]","","","","","","","","","","","","","","","","","","","","","","","","","","","","","","","","","","","","","","",""
"","","","preload","3","28394","0.0-2.0","7","7","7","7","7","4","4","4","5","5","5","1","0","1","2","0","2","2","2","5","5","5","5","5","4","4","5","5","5","5","5","5","5","7","7","7","5","5","5","1","1","7","5","1","7","7","7","7","1","7","1","7","2","4","5","5","6","6","3","3","7","2","1","1","7","1","7","1","7","1","1","1","1","1","1","1","7","1","7","746306344851869697","李","534","Male","[""坏我"",""好我"",""好他"",""坏他""]","[""弱我"",""强我"",""强他"",""弱他""]","","true","false","[]","[]","[]","","","","","","","","","","","","","","","","","","","","","","","","","","","","","","","","",""
"","","","fullscreen","4","40284","0.0-3.0","7","7","7","7","7","4","4","4","5","5","5","1","0","1","2","0","2","2","2","5","5","5","5","5","4","4","5","5","5","5","5","5","5","7","7","7","5","5","5","1","1","7","5","1","7","7","7","7","1","7","1","7","2","4","5","5","6","6","3","3","7","2","1","1","7","1","7","1","7","1","1","1","1","1","1","1","7","1","7","746306344851869697","李","534","Male","[""坏我"",""好我"",""好他"",""坏他""]","[""弱我"",""强我"",""强他"",""弱他""]","","true","","","","","{}","","","","","","","","","","","","","","","","","","","","","","","","","","","","","","","",""
"7585.600000008941","","{""Q01"":""7"",""Q02"":""7"",""Q03"":""7"",""Q04"":""7"",""Q05"":""7""}","survey-template","5","47872","0.0-4.0","7","7","7","7","7","4","4","4","5","5","5","1","0","1","2","0","2","2","2","5","5","5","5","5","4","4","5","5","5","5","5","5","5","7","7","7","5","5","5","1","1","7","5","1","7","7","7","7","1","7","1","7","2","4","5","5","6","6","3","3","7","2","1","1","7","1","7","1","7","1","1","1","1","1","1","1","7","1","7","746306344851869697","李","534","Male","[""坏我"",""好我"",""好他"",""坏他""]","[""弱我"",""强我"",""强他"",""弱他""]","","","","","","","","{""Q01"":""7"",""Q02"":""7"",""Q03"":""7"",""Q04"":""7"",""Q05"":""7""}","[0,1,2,3,4]","[""Q01"",""Q02"",""Q03"",""Q05"",""Q04""]","[2685.2000000029802,3477.2000000029802,4144.5,6607.5,6978.5]","[]","[2685.2000000029802,3477.2000000029802,4144.5,5084.70000000298,6607.5,6978.5,7584.600000008941]","1","0","0","","","","","","","","","","","","","","","","","","","","","","",""
"16548.80000001192","","{""Q01"":""4"",""Q02"":""4"",""Q03"":""4"",""Q04"":""5"",""Q05"":""5"",""Q06"":""5""}","survey-template","6","64425","0.0-5.0","7","7","7","7","7","4","4","4","5","5","5","1","0","1","2","0","2","2","2","5","5","5","5","5","4","4","5","5","5","5","5","5","5","7","7","7","5","5","5","1","1","7","5","1","7","7","7","7","1","7","1","7","2","4","5","5","6","6","3","3","7","2","1","1","7","1","7","1","7","1","1","1","1","1","1","1","7","1","7","746306344851869697","李","534","Male","[""坏我"",""好我"",""好他"",""坏他""]","[""弱我"",""强我"",""强他"",""弱他""]","","","","","","","","{""Q01"":""4"",""Q02"":""4"",""Q03"":""4"",""Q04"":""5"",""Q05"":""5"",""Q06"":""5""}","[0,1,2,3,4,5]","[""Q01"",""Q02"",""Q03"",""Q04"",""Q05"",""Q06""]","[3606.4000000059605,7670.300000011921,8790,11328.60000000894,12727.20000000298,15708.300000011921]","[]","[3606.4000000059605,7670.300000011921,8790,11328.60000000894,12727.20000000298,14784.10000000894,15708.300000011921,16548]","0.3333333333333333","0.2","0","","","","","","","","","","","","","","","","","","","","","","",""
"16271.09999999404","","{""Q01"":""1"",""Q02"":""0"",""Q03"":""1"",""Q04"":""2"",""Q05"":""0"",""Q06"":""2"",""Q07"":""2"",""Q08"":""2""}","survey-template","7","80699","0.0-6.0","7","7","7","7","7","4","4","4","5","5","5","1","0","1","2","0","2","2","2","5","5","5","5","5","4","4","5","5","5","5","5","5","5","7","7","7","5","5","5","1","1","7","5","1","7","7","7","7","1","7","1","7","2","4","5","5","6","6","3","3","7","2","1","1","7","1","7","1","7","1","1","1","1","1","1","1","7","1","7","746306344851869697","李","534","Male","[""坏我"",""好我"",""好他"",""坏他""]","[""弱我"",""强我"",""强他"",""弱他""]","","","","","","","","{""Q01"":""1"",""Q02"":""0"",""Q03"":""1"",""Q04"":""2"",""Q05"":""0"",""Q06"":""2"",""Q07"":""2"",""Q08"":""2""}","[0,1,2,3,4,5,6,7]","[""Q01"",""Q02"",""Q03"",""Q04"",""Q05"",""Q06"",""Q07"",""Q08""]","[2480.7000000029802,5176.29999999702,8534.59999999404,10388.20000000298,11716,13542.5,14528,15523.90000000596]","[]","[2480.7000000029802,5176.29999999702,6870.79999999702,8097.70000000298,8534.59999999404,10388.20000000298,11716,13542.5,14528,15523.90000000596,16270.20000000298]","0.5","0.42857142857142855","0","","","","","","","","","","","","","","","","","","","","","","",""
"17679","","","instructions","8","98380","0.0-7.0","7","7","7","7","7","4","4","4","5","5","5","1","0","1","2","0","2","2","2","5","5","5","5","5","4","4","5","5","5","5","5","5","5","7","7","7","5","5","5","1","1","7","5","1","7","7","7","7","1","7","1","7","2","4","5","5","6","6","3","3","7","2","1","1","7","1","7","1","7","1","1","1","1","1","1","1","7","1","7","746306344851869697","李","534","Male","[""坏我"",""好我"",""好他"",""坏他""]","[""弱我"",""强我"",""强他"",""弱他""]","","","","","","","","","","","","","","","","","[{""page_index"":0,""viewing_time"":17679}]","","","","","","","","","","","","","","","","","","","","","",""
"97935","","","instructions","9","196316","0.0-8.0-1.0-0.0","7","7","7","7","7","4","4","4","5","5","5","1","0","1","2","0","2","2","2","5","5","5","5","5","4","4","5","5","5","5","5","5","5","7","7","7","5","5","5","1","1","7","5","1","7","7","7","7","1","7","1","7","2","4","5","5","6","6","3","3","7","2","1","1","7","1","7","1","7","1","1","1","1","1","1","1","7","1","7","746306344851869697","李","534","Male","[""坏我"",""好我"",""好他"",""坏他""]","[""弱我"",""强我"",""强他"",""弱他""]","","","","","","","","","","","","","","","","","[{""page_index"":0,""viewing_time"":10001},{""page_index"":1,""viewing_time"":82893},{""page_index"":2,""viewing_time"":2773},{""page_index"":3,""viewing_time"":2268}]","","","","","","","","","","","","","","","","","","","","","",""
"564","","f","psychophysics","10","197884","0.0-8.0-1.0-1.0-0.0-0.0","7","7","7","7","7","4","4","4","5","5","5","1","0","1","2","0","2","2","2","5","5","5","5","5","4","4","5","5","5","5","5","5","5","7","7","7","5","5","5","1","1","7","5","1","7","7","7","7","1","7","1","7","2","4","5","5","6","6","3","3","7","2","1","1","7","1","7","1","7","1","1","1","1","1","1","1","7","1","7","746306344851869697","李","534","Male","[""坏我"",""好我"",""好他"",""坏他""]","[""弱我"",""强我"",""强他"",""弱他""]","","","","","","","","match","","","","","","","","","","key","f","16.676344086021444","768","428","f","true","match","img/triangle.png","强我","强我","prac_ALT2_ability","practice_ability","","","","","","","","",""
"null","<span style='color:GreenYellow; font-size: 70px;'>正确! </span>","null","html-keyboard-response","11","198385","0.0-8.0-1.0-1.0-0.0-1.0","7","7","7","7","7","4","4","4","5","5","5","1","0","1","2","0","2","2","2","5","5","5","5","5","4","4","5","5","5","5","5","5","5","7","7","7","5","5","5","1","1","7","5","1","7","7","7","7","1","7","1","7","2","4","5","5","6","6","3","3","7","2","1","1","7","1","7","1","7","1","1","1","1","1","1","1","7","1","7","746306344851869697","李","534","Male","[""坏我"",""好我"",""好他"",""坏他""]","[""弱我"",""强我"",""强他"",""弱他""]","","","","","","","","","","","","","","","","","","","","","","","","","","","","","","feedback_test","","","","","","","","",""
"815","","j","psychophysics","12","200205","0.0-8.0-1.0-1.0-0.0-0.1","7","7","7","7","7","4","4","4","5","5","5","1","0","1","2","0","2","2","2","5","5","5","5","5","4","4","5","5","5","5","5","5","5","7","7","7","5","5","5","1","1","7","5","1","7","7","7","7","1","7","1","7","2","4","5","5","6","6","3","3","7","2","1","1","7","1","7","1","7","1","1","1","1","1","1","1","7","1","7","746306344851869697","李","534","Male","[""坏我"",""好我"",""好他"",""坏他""]","[""弱我"",""强我"",""强他"",""弱他""]","","","","","","","","nonmatch","","","","","","","","","","key","j","16.671296296296298","768","428","j","true","nonmatch","img/pentagon.png","强我","弱他","prac_ALT2_ability","practice_ability","","","","","","","","",""
"null","<span style='color:GreenYellow; font-size: 70px;'>正确! </span>","null","html-keyboard-response","13","200709","0.0-8.0-1.0-1.0-0.0-1.1","7","7","7","7","7","4","4","4","5","5","5","1","0","1","2","0","2","2","2","5","5","5","5","5","4","4","5","5","5","5","5","5","5","7","7","7","5","5","5","1","1","7","5","1","7","7","7","7","1","7","1","7","2","4","5","5","6","6","3","3","7","2","1","1","7","1","7","1","7","1","1","1","1","1","1","1","7","1","7","746306344851869697","李","534","Male","[""坏我"",""好我"",""好他"",""坏他""]","[""弱我"",""强我"",""强他"",""弱他""]","","","","","","","","","","","","","","","","","","","","","","","","","","","","","","feedback_test","","","","","","","","",""
"679","","j","psychophysics","14","202390","0.0-8.0-1.0-1.0-0.0-0.2","7","7","7","7","7","4","4","4","5","5","5","1","0","1","2","0","2","2","2","5","5","5","5","5","4","4","5","5","5","5","5","5","5","7","7","7","5","5","5","1","1","7","5","1","7","7","7","7","1","7","1","7","2","4","5","5","6","6","3","3","7","2","1","1","7","1","7","1","7","1","1","1","1","1","1","1","7","1","7","746306344851869697","李","534","Male","[""坏我"",""好我"",""好他"",""坏他""]","[""弱我"",""强我"",""强他"",""弱他""]","","","","","","","","nonmatch","","","","","","","","","","key","j","16.67676767676768","768","428","f","false","match","img/square.png","强他","强他","prac_ALT2_ability","practice_ability","","","","","","","","",""
"null","<span style='color:red; font-size: 70px;'>错误! </span>","null","html-keyboard-response","15","202893","0.0-8.0-1.0-1.0-0.0-1.2","7","7","7","7","7","4","4","4","5","5","5","1","0","1","2","0","2","2","2","5","5","5","5","5","4","4","5","5","5","5","5","5","5","7","7","7","5","5","5","1","1","7","5","1","7","7","7","7","1","7","1","7","2","4","5","5","6","6","3","3","7","2","1","1","7","1","7","1","7","1","1","1","1","1","1","1","7","1","7","746306344851869697","李","534","Male","[""坏我"",""好我"",""好他"",""坏他""]","[""弱我"",""强我"",""强他"",""弱他""]","","","","","","","","","","","","","","","","","","","","","","","","","","","","","","feedback_test","","","","","","","","",""
"873","","f","psychophysics","16","204770","0.0-8.0-1.0-1.0-0.0-0.3","7","7","7","7","7","4","4","4","5","5","5","1","0","1","2","0","2","2","2","5","5","5","5","5","4","4","5","5","5","5","5","5","5","7","7","7","5","5","5","1","1","7","5","1","7","7","7","7","1","7","1","7","2","4","5","5","6","6","3","3","7","2","1","1","7","1","7","1","7","1","1","1","1","1","1","1","7","1","7","746306344851869697","李","534","Male","[""坏我"",""好我"",""好他"",""坏他""]","[""弱我"",""强我"",""强他"",""弱他""]","","","","","","","","match","","","","","","","","","","key","f","16.672072072072126","768","428","j","false","nonmatch","img/circle.png","强他","弱我","prac_ALT2_ability","practice_ability","","","","","","","","",""
"null","<span style='color:red; font-size: 70px;'>错误! </span>","null","html-keyboard-response","17","205273","0.0-8.0-1.0-1.0-0.0-1.3","7","7","7","7","7","4","4","4","5","5","5","1","0","1","2","0","2","2","2","5","5","5","5","5","4","4","5","5","5","5","5","5","5","7","7","7","5","5","5","1","1","7","5","1","7","7","7","7","1","7","1","7","2","4","5","5","6","6","3","3","7","2","1","1","7","1","7","1","7","1","1","1","1","1","1","1","7","1","7","746306344851869697","李","534","Male","[""坏我"",""好我"",""好他"",""坏他""]","[""弱我"",""强我"",""强他"",""弱他""]","","","","","","","","","","","","","","","","","","","","","","","","","","","","","","feedback_test","","","","","","","","",""
"null","","null","psychophysics","18","207479","0.0-8.0-1.0-1.0-0.0-0.4","7","7","7","7","7","4","4","4","5","5","5","1","0","1","2","0","2","2","2","5","5","5","5","5","4","4","5","5","5","5","5","5","5","7","7","7","5","5","5","1","1","7","5","1","7","7","7","7","1","7","1","7","2","4","5","5","6","6","3","3","7","2","1","1","7","1","7","1","7","1","1","1","1","1","1","1","7","1","7","746306344851869697","李","534","Male","[""坏我"",""好我"",""好他"",""坏他""]","[""弱我"",""强我"",""强他"",""弱他""]","","","","","","","","null","","","","","","","","","","key","null","16.671755725190838","768","428","f","false","match","img/square.png","强他","强他","prac_ALT2_ability","practice_ability","","","","","","","","",""
"null","<span class='add_' style='color:yellow; font-size: 70px;'> 太慢! </span>","null","html-keyboard-response","19","207983","0.0-8.0-1.0-1.0-0.0-1.4","7","7","7","7","7","4","4","4","5","5","5","1","0","1","2","0","2","2","2","5","5","5","5","5","4","4","5","5","5","5","5","5","5","7","7","7","5","5","5","1","1","7","5","1","7","7","7","7","1","7","1","7","2","4","5","5","6","6","3","3","7","2","1","1","7","1","7","1","7","1","1","1","1","1","1","1","7","1","7","746306344851869697","李","534","Male","[""坏我"",""好我"",""好他"",""坏他""]","[""弱我"",""强我"",""强他"",""弱他""]","","","","","","","","","","","","","","","","","","","","","","","","","","","","","","feedback_test","","","","","","","","",""
"701","","j","psychophysics","20","209689","0.0-8.0-1.0-1.0-0.0-0.5","7","7","7","7","7","4","4","4","5","5","5","1","0","1","2","0","2","2","2","5","5","5","5","5","4","4","5","5","5","5","5","5","5","7","7","7","5","5","5","1","1","7","5","1","7","7","7","7","1","7","1","7","2","4","5","5","6","6","3","3","7","2","1","1","7","1","7","1","7","1","1","1","1","1","1","1","7","1","7","746306344851869697","李","534","Male","[""坏我"",""好我"",""好他"",""坏他""]","[""弱我"",""强我"",""强他"",""弱他""]","","","","","","","","nonmatch","","","","","","","","","","key","j","16.673267326732674","768","428","f","false","match","img/circle.png","弱我","弱我","prac_ALT2_ability","practice_ability","","","","","","","","",""
"null","<span style='color:red; font-size: 70px;'>错误! </span>","null","html-keyboard-response","21","210192","0.0-8.0-1.0-1.0-0.0-1.5","7","7","7","7","7","4","4","4","5","5","5","1","0","1","2","0","2","2","2","5","5","5","5","5","4","4","5","5","5","5","5","5","5","7","7","7","5","5","5","1","1","7","5","1","7","7","7","7","1","7","1","7","2","4","5","5","6","6","3","3","7","2","1","1","7","1","7","1","7","1","1","1","1","1","1","1","7","1","7","746306344851869697","李","534","Male","[""坏我"",""好我"",""好他"",""坏他""]","[""弱我"",""强我"",""强他"",""弱他""]","","","","","","","","","","","","","","","","","","","","","","","","","","","","","","feedback_test","","","","","","","","",""
"956","","f","psychophysics","22","212149","0.0-8.0-1.0-1.0-0.0-0.6","7","7","7","7","7","4","4","4","5","5","5","1","0","1","2","0","2","2","2","5","5","5","5","5","4","4","5","5","5","5","5","5","5","7","7","7","5","5","5","1","1","7","5","1","7","7","7","7","1","7","1","7","2","4","5","5","6","6","3","3","7","2","1","1","7","1","7","1","7","1","1","1","1","1","1","1","7","1","7","746306344851869697","李","534","Male","[""坏我"",""好我"",""好他"",""坏他""]","[""弱我"",""强我"",""强他"",""弱他""]","","","","","","","","match","","","","","","","","","","key","f","16.673275862069016","768","428","f","true","match","img/square.png","强他","强他","prac_ALT2_ability","practice_ability","","","","","","","","",""
"null","<span style='color:GreenYellow; font-size: 70px;'>正确! </span>","null","html-keyboard-response","23","212655","0.0-8.0-1.0-1.0-0.0-1.6","7","7","7","7","7","4","4","4","5","5","5","1","0","1","2","0","2","2","2","5","5","5","5","5","4","4","5","5","5","5","5","5","5","7","7","7","5","5","5","1","1","7","5","1","7","7","7","7","1","7","1","7","2","4","5","5","6","6","3","3","7","2","1","1","7","1","7","1","7","1","1","1","1","1","1","1","7","1","7","746306344851869697","李","534","Male","[""坏我"",""好我"",""好他"",""坏他""]","[""弱我"",""强我"",""强他"",""弱他""]","","","","","","","","","","","","","","","","","","","","","","","","","","","","","","feedback_test","","","","","","","","",""
"1127","","f","psychophysics","24","214784","0.0-8.0-1.0-1.0-0.0-0.7","7","7","7","7","7","4","4","4","5","5","5","1","0","1","2","0","2","2","2","5","5","5","5","5","4","4","5","5","5","5","5","5","5","7","7","7","5","5","5","1","1","7","5","1","7","7","7","7","1","7","1","7","2","4","5","5","6","6","3","3","7","2","1","1","7","1","7","1","7","1","1","1","1","1","1","1","7","1","7","746306344851869697","李","534","Male","[""坏我"",""好我"",""好他"",""坏他""]","[""弱我"",""强我"",""强他"",""弱他""]","","","","","","","","match","","","","","","","","","","key","f","16.66825396825383","768","428","f","true","match","img/pentagon.png","弱他","弱他","prac_ALT2_ability","practice_ability","","","","","","","","",""
"null","<span style='color:GreenYellow; font-size: 70px;'>正确! </span>","null","html-keyboard-response","25","215288","0.0-8.0-1.0-1.0-0.0-1.7","7","7","7","7","7","4","4","4","5","5","5","1","0","1","2","0","2","2","2","5","5","5","5","5","4","4","5","5","5","5","5","5","5","7","7","7","5","5","5","1","1","7","5","1","7","7","7","7","1","7","1","7","2","4","5","5","6","6","3","3","7","2","1","1","7","1","7","1","7","1","1","1","1","1","1","1","7","1","7","746306344851869697","李","534","Male","[""坏我"",""好我"",""好他"",""坏他""]","[""弱我"",""强我"",""强他"",""弱他""]","","","","","","","","","","","","","","","","","","","","","","","","","","","","","","feedback_test","","","","","","","","",""
"954","","j","psychophysics","26","217245","0.0-8.0-1.0-1.0-0.0-0.8","7","7","7","7","7","4","4","4","5","5","5","1","0","1","2","0","2","2","2","5","5","5","5","5","4","4","5","5","5","5","5","5","5","7","7","7","5","5","5","1","1","7","5","1","7","7","7","7","1","7","1","7","2","4","5","5","6","6","3","3","7","2","1","1","7","1","7","1","7","1","1","1","1","1","1","1","7","1","7","746306344851869697","李","534","Male","[""坏我"",""好我"",""好他"",""坏他""]","[""弱我"",""强我"",""强他"",""弱他""]","","","","","","","","nonmatch","","","","","","","","","","key","j","16.674137931034583","768","428","j","true","nonmatch","img/pentagon.png","强他","弱他","prac_ALT2_ability","practice_ability","","","","","","","","",""
"null","<span style='color:GreenYellow; font-size: 70px;'>正确! </span>","null","html-keyboard-response","27","217748","0.0-8.0-1.0-1.0-0.0-1.8","7","7","7","7","7","4","4","4","5","5","5","1","0","1","2","0","2","2","2","5","5","5","5","5","4","4","5","5","5","5","5","5","5","7","7","7","5","5","5","1","1","7","5","1","7","7","7","7","1","7","1","7","2","4","5","5","6","6","3","3","7","2","1","1","7","1","7","1","7","1","1","1","1","1","1","1","7","1","7","746306344851869697","李","534","Male","[""坏我"",""好我"",""好他"",""坏他""]","[""弱我"",""强我"",""强他"",""弱他""]","","","","","","","","","","","","","","","","","","","","","","","","","","","","","","feedback_test","","","","","","","","",""
"955","","j","psychophysics","28","219707","0.0-8.0-1.0-1.0-0.0-0.9","7","7","7","7","7","4","4","4","5","5","5","1","0","1","2","0","2","2","2","5","5","5","5","5","4","4","5","5","5","5","5","5","5","7","7","7","5","5","5","1","1","7","5","1","7","7","7","7","1","7","1","7","2","4","5","5","6","6","3","3","7","2","1","1","7","1","7","1","7","1","1","1","1","1","1","1","7","1","7","746306344851869697","李","534","Male","[""坏我"",""好我"",""好他"",""坏他""]","[""弱我"",""强我"",""强他"",""弱他""]","","","","","","","","nonmatch","","","","","","","","","","key","j","16.673275862068763","768","428","j","true","nonmatch","img/square.png","弱他","强他","prac_ALT2_ability","practice_ability","","","","","","","","",""
"null","<span style='color:GreenYellow; font-size: 70px;'>正确! </span>","null","html-keyboard-response","29","220209","0.0-8.0-1.0-1.0-0.0-1.9","7","7","7","7","7","4","4","4","5","5","5","1","0","1","2","0","2","2","2","5","5","5","5","5","4","4","5","5","5","5","5","5","5","7","7","7","5","5","5","1","1","7","5","1","7","7","7","7","1","7","1","7","2","4","5","5","6","6","3","3","7","2","1","1","7","1","7","1","7","1","1","1","1","1","1","1","7","1","7","746306344851869697","李","534","Male","[""坏我"",""好我"",""好他"",""坏他""]","[""弱我"",""强我"",""强他"",""弱他""]","","","","","","","","","","","","","","","","","","","","","","","","","","","","","","feedback_test","","","","","","","","",""
"817","","j","psychophysics","30","222027","0.0-8.0-1.0-1.0-0.0-0.10","7","7","7","7","7","4","4","4","5","5","5","1","0","1","2","0","2","2","2","5","5","5","5","5","4","4","5","5","5","5","5","5","5","7","7","7","5","5","5","1","1","7","5","1","7","7","7","7","1","7","1","7","2","4","5","5","6","6","3","3","7","2","1","1","7","1","7","1","7","1","1","1","1","1","1","1","7","1","7","746306344851869697","李","534","Male","[""坏我"",""好我"",""好他"",""坏他""]","[""弱我"",""强我"",""强他"",""弱他""]","","","","","","","","nonmatch","","","","","","","","","","key","j","16.674074074074237","768","428","j","true","nonmatch","img/triangle.png","弱我","强我","prac_ALT2_ability","practice_ability","","","","","","","","",""
"null","<span style='color:GreenYellow; font-size: 70px;'>正确! </span>","null","html-keyboard-response","31","222532","0.0-8.0-1.0-1.0-0.0-1.10","7","7","7","7","7","4","4","4","5","5","5","1","0","1","2","0","2","2","2","5","5","5","5","5","4","4","5","5","5","5","5","5","5","7","7","7","5","5","5","1","1","7","5","1","7","7","7","7","1","7","1","7","2","4","5","5","6","6","3","3","7","2","1","1","7","1","7","1","7","1","1","1","1","1","1","1","7","1","7","746306344851869697","李","534","Male","[""坏我"",""好我"",""好他"",""坏他""]","[""弱我"",""强我"",""强他"",""弱他""]","","","","","","","","","","","","","","","","","","","","","","","","","","","","","","feedback_test","","","","","","","","",""
"697","","j","psychophysics","32","224236","0.0-8.0-1.0-1.0-0.0-0.11","7","7","7","7","7","4","4","4","5","5","5","1","0","1","2","0","2","2","2","5","5","5","5","5","4","4","5","5","5","5","5","5","5","7","7","7","5","5","5","1","1","7","5","1","7","7","7","7","1","7","1","7","2","4","5","5","6","6","3","3","7","2","1","1","7","1","7","1","7","1","1","1","1","1","1","1","7","1","7","746306344851869697","李","534","Male","[""坏我"",""好我"",""好他"",""坏他""]","[""弱我"",""强我"",""强他"",""弱他""]","","","","","","","","nonmatch","","","","","","","","","","key","j","16.719801980198135","768","428","j","true","nonmatch","img/triangle.png","强他","强我","prac_ALT2_ability","practice_ability","","","","","","","","",""
"null","<span style='color:GreenYellow; font-size: 70px;'>正确! </span>","null","html-keyboard-response","33","224741","0.0-8.0-1.0-1.0-0.0-1.11","7","7","7","7","7","4","4","4","5","5","5","1","0","1","2","0","2","2","2","5","5","5","5","5","4","4","5","5","5","5","5","5","5","7","7","7","5","5","5","1","1","7","5","1","7","7","7","7","1","7","1","7","2","4","5","5","6","6","3","3","7","2","1","1","7","1","7","1","7","1","1","1","1","1","1","1","7","1","7","746306344851869697","李","534","Male","[""坏我"",""好我"",""好他"",""坏他""]","[""弱我"",""强我"",""强他"",""弱他""]","","","","","","","","","","","","","","","","","","","","","","","","","","","","","","feedback_test","","","","","","","","",""
"782","","j","psychophysics","34","226526","0.0-8.0-1.0-1.0-0.0-0.12","7","7","7","7","7","4","4","4","5","5","5","1","0","1","2","0","2","2","2","5","5","5","5","5","4","4","5","5","5","5","5","5","5","7","7","7","5","5","5","1","1","7","5","1","7","7","7","7","1","7","1","7","2","4","5","5","6","6","3","3","7","2","1","1","7","1","7","1","7","1","1","1","1","1","1","1","7","1","7","746306344851869697","李","534","Male","[""坏我"",""好我"",""好他"",""坏他""]","[""弱我"",""强我"",""强他"",""弱他""]","","","","","","","","nonmatch","","","","","","","","","","key","j","16.670754716981186","768","428","j","true","nonmatch","img/square.png","强我","强他","prac_ALT2_ability","practice_ability","","","","","","","","",""
"null","<span style='color:GreenYellow; font-size: 70px;'>正确! </span>","null","html-keyboard-response","35","227030","0.0-8.0-1.0-1.0-0.0-1.12","7","7","7","7","7","4","4","4","5","5","5","1","0","1","2","0","2","2","2","5","5","5","5","5","4","4","5","5","5","5","5","5","5","7","7","7","5","5","5","1","1","7","5","1","7","7","7","7","1","7","1","7","2","4","5","5","6","6","3","3","7","2","1","1","7","1","7","1","7","1","1","1","1","1","1","1","7","1","7","746306344851869697","李","534","Male","[""坏我"",""好我"",""好他"",""坏他""]","[""弱我"",""强我"",""强他"",""弱他""]","","","","","","","","","","","","","","","","","","","","","","","","","","","","","","feedback_test","","","","","","","","",""
"655","","j","psychophysics","36","228689","0.0-8.0-1.0-1.0-0.0-0.13","7","7","7","7","7","4","4","4","5","5","5","1","0","1","2","0","2","2","2","5","5","5","5","5","4","4","5","5","5","5","5","5","5","7","7","7","5","5","5","1","1","7","5","1","7","7","7","7","1","7","1","7","2","4","5","5","6","6","3","3","7","2","1","1","7","1","7","1","7","1","1","1","1","1","1","1","7","1","7","746306344851869697","李","534","Male","[""坏我"",""好我"",""好他"",""坏他""]","[""弱我"",""强我"",""强他"",""弱他""]","","","","","","","","nonmatch","","","","","","","","","","key","j","16.668367346938776","768","428","j","true","nonmatch","img/triangle.png","弱他","强我","prac_ALT2_ability","practice_ability","","","","","","","","",""
"null","<span style='color:GreenYellow; font-size: 70px;'>正确! </span>","null","html-keyboard-response","37","229190","0.0-8.0-1.0-1.0-0.0-1.13","7","7","7","7","7","4","4","4","5","5","5","1","0","1","2","0","2","2","2","5","5","5","5","5","4","4","5","5","5","5","5","5","5","7","7","7","5","5","5","1","1","7","5","1","7","7","7","7","1","7","1","7","2","4","5","5","6","6","3","3","7","2","1","1","7","1","7","1","7","1","1","1","1","1","1","1","7","1","7","746306344851869697","李","534","Male","[""坏我"",""好我"",""好他"",""坏他""]","[""弱我"",""强我"",""强他"",""弱他""]","","","","","","","","","","","","","","","","","","","","","","","","","","","","","","feedback_test","","","","","","","","",""
"755","","j","psychophysics","38","230947","0.0-8.0-1.0-1.0-0.0-0.14","7","7","7","7","7","4","4","4","5","5","5","1","0","1","2","0","2","2","2","5","5","5","5","5","4","4","5","5","5","5","5","5","5","7","7","7","5","5","5","1","1","7","5","1","7","7","7","7","1","7","1","7","2","4","5","5","6","6","3","3","7","2","1","1","7","1","7","1","7","1","1","1","1","1","1","1","7","1","7","746306344851869697","李","534","Male","[""坏我"",""好我"",""好他"",""坏他""]","[""弱我"",""强我"",""强他"",""弱他""]","","","","","","","","nonmatch","","","","","","","","","","key","j","16.67403846153852","768","428","j","true","nonmatch","img/pentagon.png","弱我","弱他","prac_ALT2_ability","practice_ability","","","","","","","","",""
"null","<span style='color:GreenYellow; font-size: 70px;'>正确! </span>","null","html-keyboard-response","39","231451","0.0-8.0-1.0-1.0-0.0-1.14","7","7","7","7","7","4","4","4","5","5","5","1","0","1","2","0","2","2","2","5","5","5","5","5","4","4","5","5","5","5","5","5","5","7","7","7","5","5","5","1","1","7","5","1","7","7","7","7","1","7","1","7","2","4","5","5","6","6","3","3","7","2","1","1","7","1","7","1","7","1","1","1","1","1","1","1","7","1","7","746306344851869697","李","534","Male","[""坏我"",""好我"",""好他"",""坏他""]","[""弱我"",""强我"",""强他"",""弱他""]","","","","","","","","","","","","","","","","","","","","","","","","","","","","","","feedback_test","","","","","","","","",""
"749","","f","psychophysics","40","233202","0.0-8.0-1.0-1.0-0.0-0.15","7","7","7","7","7","4","4","4","5","5","5","1","0","1","2","0","2","2","2","5","5","5","5","5","4","4","5","5","5","5","5","5","5","7","7","7","5","5","5","1","1","7","5","1","7","7","7","7","1","7","1","7","2","4","5","5","6","6","3","3","7","2","1","1","7","1","7","1","7","1","1","1","1","1","1","1","7","1","7","746306344851869697","李","534","Male","[""坏我"",""好我"",""好他"",""坏他""]","[""弱我"",""强我"",""强他"",""弱他""]","","","","","","","","match","","","","","","","","","","key","f","16.673076923076923","768","428","f","true","match","img/triangle.png","强我","强我","prac_ALT2_ability","practice_ability","","","","","","","","",""
"null","<span style='color:GreenYellow; font-size: 70px;'>正确! </span>","null","html-keyboard-response","41","233704","0.0-8.0-1.0-1.0-0.0-1.15","7","7","7","7","7","4","4","4","5","5","5","1","0","1","2","0","2","2","2","5","5","5","5","5","4","4","5","5","5","5","5","5","5","7","7","7","5","5","5","1","1","7","5","1","7","7","7","7","1","7","1","7","2","4","5","5","6","6","3","3","7","2","1","1","7","1","7","1","7","1","1","1","1","1","1","1","7","1","7","746306344851869697","李","534","Male","[""坏我"",""好我"",""好他"",""坏他""]","[""弱我"",""强我"",""强他"",""弱他""]","","","","","","","","","","","","","","","","","","","","","","","","","","","","","","feedback_test","","","","","","","","",""
"505","","f","psychophysics","42","235209","0.0-8.0-1.0-1.0-0.0-0.16","7","7","7","7","7","4","4","4","5","5","5","1","0","1","2","0","2","2","2","5","5","5","5","5","4","4","5","5","5","5","5","5","5","7","7","7","5","5","5","1","1","7","5","1","7","7","7","7","1","7","1","7","2","4","5","5","6","6","3","3","7","2","1","1","7","1","7","1","7","1","1","1","1","1","1","1","7","1","7","746306344851869697","李","534","Male","[""坏我"",""好我"",""好他"",""坏他""]","[""弱我"",""强我"",""强他"",""弱他""]","","","","","","","","match","","","","","","","","","","key","f","16.77777777777778","768","428","j","false","nonmatch","img/circle.png","强我","弱我","prac_ALT2_ability","practice_ability","","","","","","","","",""
"null","<span style='color:red; font-size: 70px;'>错误! </span>","null","html-keyboard-response","43","235719","0.0-8.0-1.0-1.0-0.0-1.16","7","7","7","7","7","4","4","4","5","5","5","1","0","1","2","0","2","2","2","5","5","5","5","5","4","4","5","5","5","5","5","5","5","7","7","7","5","5","5","1","1","7","5","1","7","7","7","7","1","7","1","7","2","4","5","5","6","6","3","3","7","2","1","1","7","1","7","1","7","1","1","1","1","1","1","1","7","1","7","746306344851869697","李","534","Male","[""坏我"",""好我"",""好他"",""坏他""]","[""弱我"",""强我"",""强他"",""弱他""]","","","","","","","","","","","","","","","","","","","","","","","","","","","","","","feedback_test","","","","","","","","",""
"726","","j","psychophysics","44","237448","0.0-8.0-1.0-1.0-0.0-0.17","7","7","7","7","7","4","4","4","5","5","5","1","0","1","2","0","2","2","2","5","5","5","5","5","4","4","5","5","5","5","5","5","5","7","7","7","5","5","5","1","1","7","5","1","7","7","7","7","1","7","1","7","2","4","5","5","6","6","3","3","7","2","1","1","7","1","7","1","7","1","1","1","1","1","1","1","7","1","7","746306344851869697","李","534","Male","[""坏我"",""好我"",""好他"",""坏他""]","[""弱我"",""强我"",""强他"",""弱他""]","","","","","","","","nonmatch","","","","","","","","","","key","j","16.66990291262136","768","428","j","true","nonmatch","img/circle.png","弱他","弱我","prac_ALT2_ability","practice_ability","","","","","","","","",""
"null","<span style='color:GreenYellow; font-size: 70px;'>正确! </span>","null","html-keyboard-response","45","237950","0.0-8.0-1.0-1.0-0.0-1.17","7","7","7","7","7","4","4","4","5","5","5","1","0","1","2","0","2","2","2","5","5","5","5","5","4","4","5","5","5","5","5","5","5","7","7","7","5","5","5","1","1","7","5","1","7","7","7","7","1","7","1","7","2","4","5","5","6","6","3","3","7","2","1","1","7","1","7","1","7","1","1","1","1","1","1","1","7","1","7","746306344851869697","李","534","Male","[""坏我"",""好我"",""好他"",""坏他""]","[""弱我"",""强我"",""强他"",""弱他""]","","","","","","","","","","","","","","","","","","","","","","","","","","","","","","feedback_test","","","","","","","","",""
"574","","f","psychophysics","46","239528","0.0-8.0-1.0-1.0-0.0-0.18","7","7","7","7","7","4","4","4","5","5","5","1","0","1","2","0","2","2","2","5","5","5","5","5","4","4","5","5","5","5","5","5","5","7","7","7","5","5","5","1","1","7","5","1","7","7","7","7","1","7","1","7","2","4","5","5","6","6","3","3","7","2","1","1","7","1","7","1","7","1","1","1","1","1","1","1","7","1","7","746306344851869697","李","534","Male","[""坏我"",""好我"",""好他"",""坏他""]","[""弱我"",""强我"",""强他"",""弱他""]","","","","","","","","match","","","","","","","","","","key","f","16.673404255319024","768","428","f","true","match","img/circle.png","弱我","弱我","prac_ALT2_ability","practice_ability","","","","","","","","",""
"null","<span style='color:GreenYellow; font-size: 70px;'>正确! </span>","null","html-keyboard-response","47","240029","0.0-8.0-1.0-1.0-0.0-1.18","7","7","7","7","7","4","4","4","5","5","5","1","0","1","2","0","2","2","2","5","5","5","5","5","4","4","5","5","5","5","5","5","5","7","7","7","5","5","5","1","1","7","5","1","7","7","7","7","1","7","1","7","2","4","5","5","6","6","3","3","7","2","1","1","7","1","7","1","7","1","1","1","1","1","1","1","7","1","7","746306344851869697","李","534","Male","[""坏我"",""好我"",""好他"",""坏他""]","[""弱我"",""强我"",""强他"",""弱他""]","","","","","","","","","","","","","","","","","","","","","","","","","","","","","","feedback_test","","","","","","","","",""
"675","","j","psychophysics","48","241706","0.0-8.0-1.0-1.0-0.0-0.19","7","7","7","7","7","4","4","4","5","5","5","1","0","1","2","0","2","2","2","5","5","5","5","5","4","4","5","5","5","5","5","5","5","7","7","7","5","5","5","1","1","7","5","1","7","7","7","7","1","7","1","7","2","4","5","5","6","6","3","3","7","2","1","1","7","1","7","1","7","1","1","1","1","1","1","1","7","1","7","746306344851869697","李","534","Male","[""坏我"",""好我"",""好他"",""坏他""]","[""弱我"",""强我"",""强他"",""弱他""]","","","","","","","","nonmatch","","","","","","","","","","key","j","16.653535353535176","768","428","f","false","match","img/pentagon.png","弱他","弱他","prac_ALT2_ability","practice_ability","","","","","","","","",""
"null","<span style='color:red; font-size: 70px;'>错误! </span>","null","html-keyboard-response","49","242207","0.0-8.0-1.0-1.0-0.0-1.19","7","7","7","7","7","4","4","4","5","5","5","1","0","1","2","0","2","2","2","5","5","5","5","5","4","4","5","5","5","5","5","5","5","7","7","7","5","5","5","1","1","7","5","1","7","7","7","7","1","7","1","7","2","4","5","5","6","6","3","3","7","2","1","1","7","1","7","1","7","1","1","1","1","1","1","1","7","1","7","746306344851869697","李","534","Male","[""坏我"",""好我"",""好他"",""坏他""]","[""弱我"",""强我"",""强他"",""弱他""]","","","","","","","","","","","","","","","","","","","","","","","","","","","","","","feedback_test","","","","","","","","",""
"916","","j","psychophysics","50","244127","0.0-8.0-1.0-1.0-0.0-0.20","7","7","7","7","7","4","4","4","5","5","5","1","0","1","2","0","2","2","2","5","5","5","5","5","4","4","5","5","5","5","5","5","5","7","7","7","5","5","5","1","1","7","5","1","7","7","7","7","1","7","1","7","2","4","5","5","6","6","3","3","7","2","1","1","7","1","7","1","7","1","1","1","1","1","1","1","7","1","7","746306344851869697","李","534","Male","[""坏我"",""好我"",""好他"",""坏他""]","[""弱我"",""强我"",""强他"",""弱他""]","","","","","","","","nonmatch","","","","","","","","","","key","j","16.674561403508722","768","428","j","true","nonmatch","img/square.png","弱我","强他","prac_ALT2_ability","practice_ability","","","","","","","","",""
"null","<span style='color:GreenYellow; font-size: 70px;'>正确! </span>","null","html-keyboard-response","51","244629","0.0-8.0-1.0-1.0-0.0-1.20","7","7","7","7","7","4","4","4","5","5","5","1","0","1","2","0","2","2","2","5","5","5","5","5","4","4","5","5","5","5","5","5","5","7","7","7","5","5","5","1","1","7","5","1","7","7","7","7","1","7","1","7","2","4","5","5","6","6","3","3","7","2","1","1","7","1","7","1","7","1","1","1","1","1","1","1","7","1","7","746306344851869697","李","534","Male","[""坏我"",""好我"",""好他"",""坏他""]","[""弱我"",""强我"",""强他"",""弱他""]","","","","","","","","","","","","","","","","","","","","","","","","","","","","","","feedback_test","","","","","","","","",""
"935","","f","psychophysics","52","246569","0.0-8.0-1.0-1.0-0.0-0.21","7","7","7","7","7","4","4","4","5","5","5","1","0","1","2","0","2","2","2","5","5","5","5","5","4","4","5","5","5","5","5","5","5","7","7","7","5","5","5","1","1","7","5","1","7","7","7","7","1","7","1","7","2","4","5","5","6","6","3","3","7","2","1","1","7","1","7","1","7","1","1","1","1","1","1","1","7","1","7","746306344851869697","李","534","Male","[""坏我"",""好我"",""好他"",""坏他""]","[""弱我"",""强我"",""强他"",""弱他""]","","","","","","","","match","","","","","","","","","","key","f","16.67391304347826","768","428","f","true","match","img/pentagon.png","弱他","弱他","prac_ALT2_ability","practice_ability","","","","","","","","",""
"null","<span style='color:GreenYellow; font-size: 70px;'>正确! </span>","null","html-keyboard-response","53","247069","0.0-8.0-1.0-1.0-0.0-1.21","7","7","7","7","7","4","4","4","5","5","5","1","0","1","2","0","2","2","2","5","5","5","5","5","4","4","5","5","5","5","5","5","5","7","7","7","5","5","5","1","1","7","5","1","7","7","7","7","1","7","1","7","2","4","5","5","6","6","3","3","7","2","1","1","7","1","7","1","7","1","1","1","1","1","1","1","7","1","7","746306344851869697","李","534","Male","[""坏我"",""好我"",""好他"",""坏他""]","[""弱我"",""强我"",""强他"",""弱他""]","","","","","","","","","","","","","","","","","","","","","","","","","","","","","","feedback_test","","","","","","","","",""
"611","","f","psychophysics","54","248683","0.0-8.0-1.0-1.0-0.0-0.22","7","7","7","7","7","4","4","4","5","5","5","1","0","1","2","0","2","2","2","5","5","5","5","5","4","4","5","5","5","5","5","5","5","7","7","7","5","5","5","1","1","7","5","1","7","7","7","7","1","7","1","7","2","4","5","5","6","6","3","3","7","2","1","1","7","1","7","1","7","1","1","1","1","1","1","1","7","1","7","746306344851869697","李","534","Male","[""坏我"",""好我"",""好他"",""坏他""]","[""弱我"",""强我"",""强他"",""弱他""]","","","","","","","","match","","","","","","","","","","key","f","16.672916666666726","768","428","f","true","match","img/circle.png","弱我","弱我","prac_ALT2_ability","practice_ability","","","","","","","","",""
"null","<span style='color:GreenYellow; font-size: 70px;'>正确! </span>","null","html-keyboard-response","55","249185","0.0-8.0-1.0-1.0-0.0-1.22","7","7","7","7","7","4","4","4","5","5","5","1","0","1","2","0","2","2","2","5","5","5","5","5","4","4","5","5","5","5","5","5","5","7","7","7","5","5","5","1","1","7","5","1","7","7","7","7","1","7","1","7","2","4","5","5","6","6","3","3","7","2","1","1","7","1","7","1","7","1","1","1","1","1","1","1","7","1","7","746306344851869697","李","534","Male","[""坏我"",""好我"",""好他"",""坏他""]","[""弱我"",""强我"",""强他"",""弱他""]","","","","","","","","","","","","","","","","","","","","","","","","","","","","","","feedback_test","","","","","","","","",""
"669","","f","psychophysics","56","250858","0.0-8.0-1.0-1.0-0.0-0.23","7","7","7","7","7","4","4","4","5","5","5","1","0","1","2","0","2","2","2","5","5","5","5","5","4","4","5","5","5","5","5","5","5","7","7","7","5","5","5","1","1","7","5","1","7","7","7","7","1","7","1","7","2","4","5","5","6","6","3","3","7","2","1","1","7","1","7","1","7","1","1","1","1","1","1","1","7","1","7","746306344851869697","李","534","Male","[""坏我"",""好我"",""好他"",""坏他""]","[""弱我"",""强我"",""强他"",""弱他""]","","","","","","","","match","","","","","","","","","","key","f","16.675757575757515","768","428","f","true","match","img/triangle.png","强我","强我","prac_ALT2_ability","practice_ability","","","","","","","","",""
"null","<span style='color:GreenYellow; font-size: 70px;'>正确! </span>","null","html-keyboard-response","57","251359","0.0-8.0-1.0-1.0-0.0-1.23","7","7","7","7","7","4","4","4","5","5","5","1","0","1","2","0","2","2","2","5","5","5","5","5","4","4","5","5","5","5","5","5","5","7","7","7","5","5","5","1","1","7","5","1","7","7","7","7","1","7","1","7","2","4","5","5","6","6","3","3","7","2","1","1","7","1","7","1","7","1","1","1","1","1","1","1","7","1","7","746306344851869697","李","534","Male","[""坏我"",""好我"",""好他"",""坏他""]","[""弱我"",""强我"",""强他"",""弱他""]","","","","","","","","","","","","","","","","","","","","","","","","","","","","","","feedback_test","","","","","","","","",""
"543","","f","psychophysics","58","252906","0.0-8.0-1.0-1.0-0.0-0.24","7","7","7","7","7","4","4","4","5","5","5","1","0","1","2","0","2","2","2","5","5","5","5","5","4","4","5","5","5","5","5","5","5","7","7","7","5","5","5","1","1","7","5","1","7","7","7","7","1","7","1","7","2","4","5","5","6","6","3","3","7","2","1","1","7","1","7","1","7","1","1","1","1","1","1","1","7","1","7","746306344851869697","李","534","Male","[""坏我"",""好我"",""好他"",""坏他""]","[""弱我"",""强我"",""强他"",""弱他""]","","","","","","","","match","","","","","","","","","","key","f","16.671739130434972","768","428","f","true","match","img/circle.png","弱我","弱我","prac_ALT2_ability","practice_ability","","","","","","","","",""
"null","<span style='color:GreenYellow; font-size: 70px;'>正确! </span>","null","html-keyboard-response","59","253409","0.0-8.0-1.0-1.0-0.0-1.24","7","7","7","7","7","4","4","4","5","5","5","1","0","1","2","0","2","2","2","5","5","5","5","5","4","4","5","5","5","5","5","5","5","7","7","7","5","5","5","1","1","7","5","1","7","7","7","7","1","7","1","7","2","4","5","5","6","6","3","3","7","2","1","1","7","1","7","1","7","1","1","1","1","1","1","1","7","1","7","746306344851869697","李","534","Male","[""坏我"",""好我"",""好他"",""坏他""]","[""弱我"",""强我"",""强他"",""弱他""]","","","","","","","","","","","","","","","","","","","","","","","","","","","","","","feedback_test","","","","","","","","",""
"580","","j","psychophysics","60","254991","0.0-8.0-1.0-1.0-0.0-0.25","7","7","7","7","7","4","4","4","5","5","5","1","0","1","2","0","2","2","2","5","5","5","5","5","4","4","5","5","5","5","5","5","5","7","7","7","5","5","5","1","1","7","5","1","7","7","7","7","1","7","1","7","2","4","5","5","6","6","3","3","7","2","1","1","7","1","7","1","7","1","1","1","1","1","1","1","7","1","7","746306344851869697","李","534","Male","[""坏我"",""好我"",""好他"",""坏他""]","[""弱我"",""强我"",""强他"",""弱他""]","","","","","","","","nonmatch","","","","","","","","","","key","j","16.67446808510632","768","428","j","true","nonmatch","img/triangle.png","弱他","强我","prac_ALT2_ability","practice_ability","","","","","","","","",""
"null","<span style='color:GreenYellow; font-size: 70px;'>正确! </span>","null","html-keyboard-response","61","255495","0.0-8.0-1.0-1.0-0.0-1.25","7","7","7","7","7","4","4","4","5","5","5","1","0","1","2","0","2","2","2","5","5","5","5","5","4","4","5","5","5","5","5","5","5","7","7","7","5","5","5","1","1","7","5","1","7","7","7","7","1","7","1","7","2","4","5","5","6","6","3","3","7","2","1","1","7","1","7","1","7","1","1","1","1","1","1","1","7","1","7","746306344851869697","李","534","Male","[""坏我"",""好我"",""好他"",""坏他""]","[""弱我"",""强我"",""强他"",""弱他""]","","","","","","","","","","","","","","","","","","","","","","","","","","","","","","feedback_test","","","","","","","","",""
"690","","j","psychophysics","62","257189","0.0-8.0-1.0-1.0-0.0-0.26","7","7","7","7","7","4","4","4","5","5","5","1","0","1","2","0","2","2","2","5","5","5","5","5","4","4","5","5","5","5","5","5","5","7","7","7","5","5","5","1","1","7","5","1","7","7","7","7","1","7","1","7","2","4","5","5","6","6","3","3","7","2","1","1","7","1","7","1","7","1","1","1","1","1","1","1","7","1","7","746306344851869697","李","534","Male","[""坏我"",""好我"",""好他"",""坏他""]","[""弱我"",""强我"",""强他"",""弱他""]","","","","","","","","nonmatch","","","","","","","","","","key","j","16.785148514851368","768","428","j","true","nonmatch","img/square.png","弱我","强他","prac_ALT2_ability","practice_ability","","","","","","","","",""
"null","<span style='color:GreenYellow; font-size: 70px;'>正确! </span>","null","html-keyboard-response","63","257692","0.0-8.0-1.0-1.0-0.0-1.26","7","7","7","7","7","4","4","4","5","5","5","1","0","1","2","0","2","2","2","5","5","5","5","5","4","4","5","5","5","5","5","5","5","7","7","7","5","5","5","1","1","7","5","1","7","7","7","7","1","7","1","7","2","4","5","5","6","6","3","3","7","2","1","1","7","1","7","1","7","1","1","1","1","1","1","1","7","1","7","746306344851869697","李","534","Male","[""坏我"",""好我"",""好他"",""坏他""]","[""弱我"",""强我"",""强他"",""弱他""]","","","","","","","","","","","","","","","","","","","","","","","","","","","","","","feedback_test","","","","","","","","",""
"650","","j","psychophysics","64","259346","0.0-8.0-1.0-1.0-0.0-0.27","7","7","7","7","7","4","4","4","5","5","5","1","0","1","2","0","2","2","2","5","5","5","5","5","4","4","5","5","5","5","5","5","5","7","7","7","5","5","5","1","1","7","5","1","7","7","7","7","1","7","1","7","2","4","5","5","6","6","3","3","7","2","1","1","7","1","7","1","7","1","1","1","1","1","1","1","7","1","7","746306344851869697","李","534","Male","[""坏我"",""好我"",""好他"",""坏他""]","[""弱我"",""强我"",""强他"",""弱他""]","","","","","","","","nonmatch","","","","","","","","","","key","j","16.672448979591778","768","428","j","true","nonmatch","img/circle.png","弱他","弱我","prac_ALT2_ability","practice_ability","","","","","","","","",""
"null","<span style='color:GreenYellow; font-size: 70px;'>正确! </span>","null","html-keyboard-response","65","259849","0.0-8.0-1.0-1.0-0.0-1.27","7","7","7","7","7","4","4","4","5","5","5","1","0","1","2","0","2","2","2","5","5","5","5","5","4","4","5","5","5","5","5","5","5","7","7","7","5","5","5","1","1","7","5","1","7","7","7","7","1","7","1","7","2","4","5","5","6","6","3","3","7","2","1","1","7","1","7","1","7","1","1","1","1","1","1","1","7","1","7","746306344851869697","李","534","Male","[""坏我"",""好我"",""好他"",""坏他""]","[""弱我"",""强我"",""强他"",""弱他""]","","","","","","","","","","","","","","","","","","","","","","","","","","","","","","feedback_test","","","","","","","","",""
"607","","j","psychophysics","66","261458","0.0-8.0-1.0-1.0-0.0-0.28","7","7","7","7","7","4","4","4","5","5","5","1","0","1","2","0","2","2","2","5","5","5","5","5","4","4","5","5","5","5","5","5","5","7","7","7","5","5","5","1","1","7","5","1","7","7","7","7","1","7","1","7","2","4","5","5","6","6","3","3","7","2","1","1","7","1","7","1","7","1","1","1","1","1","1","1","7","1","7","746306344851869697","李","534","Male","[""坏我"",""好我"",""好他"",""坏他""]","[""弱我"",""强我"",""强他"",""弱他""]","","","","","","","","nonmatch","","","","","","","","","","key","j","16.675789473684333","768","428","j","true","nonmatch","img/square.png","弱他","强他","prac_ALT2_ability","practice_ability","","","","","","","","",""
"null","<span style='color:GreenYellow; font-size: 70px;'>正确! </span>","null","html-keyboard-response","67","261971","0.0-8.0-1.0-1.0-0.0-1.28","7","7","7","7","7","4","4","4","5","5","5","1","0","1","2","0","2","2","2","5","5","5","5","5","4","4","5","5","5","5","5","5","5","7","7","7","5","5","5","1","1","7","5","1","7","7","7","7","1","7","1","7","2","4","5","5","6","6","3","3","7","2","1","1","7","1","7","1","7","1","1","1","1","1","1","1","7","1","7","746306344851869697","李","534","Male","[""坏我"",""好我"",""好他"",""坏他""]","[""弱我"",""强我"",""强他"",""弱他""]","","","","","","","","","","","","","","","","","","","","","","","","","","","","","","feedback_test","","","","","","","","",""
"705","","j","psychophysics","68","263681","0.0-8.0-1.0-1.0-0.0-0.29","7","7","7","7","7","4","4","4","5","5","5","1","0","1","2","0","2","2","2","5","5","5","5","5","4","4","5","5","5","5","5","5","5","7","7","7","5","5","5","1","1","7","5","1","7","7","7","7","1","7","1","7","2","4","5","5","6","6","3","3","7","2","1","1","7","1","7","1","7","1","1","1","1","1","1","1","7","1","7","746306344851869697","李","534","Male","[""坏我"",""好我"",""好他"",""坏他""]","[""弱我"",""强我"",""强他"",""弱他""]","","","","","","","","nonmatch","","","","","","","","","","key","j","16.674257425742343","768","428","j","true","nonmatch","img/pentagon.png","强他","弱他","prac_ALT2_ability","practice_ability","","","","","","","","",""
"null","<span style='color:GreenYellow; font-size: 70px;'>正确! </span>","null","html-keyboard-response","69","264184","0.0-8.0-1.0-1.0-0.0-1.29","7","7","7","7","7","4","4","4","5","5","5","1","0","1","2","0","2","2","2","5","5","5","5","5","4","4","5","5","5","5","5","5","5","7","7","7","5","5","5","1","1","7","5","1","7","7","7","7","1","7","1","7","2","4","5","5","6","6","3","3","7","2","1","1","7","1","7","1","7","1","1","1","1","1","1","1","7","1","7","746306344851869697","李","534","Male","[""坏我"",""好我"",""好他"",""坏他""]","[""弱我"",""强我"",""强他"",""弱他""]","","","","","","","","","","","","","","","","","","","","","","","","","","","","","","feedback_test","","","","","","","","",""
"592","","f","psychophysics","70","265777","0.0-8.0-1.0-1.0-0.0-0.30","7","7","7","7","7","4","4","4","5","5","5","1","0","1","2","0","2","2","2","5","5","5","5","5","4","4","5","5","5","5","5","5","5","7","7","7","5","5","5","1","1","7","5","1","7","7","7","7","1","7","1","7","2","4","5","5","6","6","3","3","7","2","1","1","7","1","7","1","7","1","1","1","1","1","1","1","7","1","7","746306344851869697","李","534","Male","[""坏我"",""好我"",""好他"",""坏他""]","[""弱我"",""强我"",""强他"",""弱他""]","","","","","","","","match","","","","","","","","","","key","f","16.67446808510601","768","428","f","true","match","img/triangle.png","强我","强我","prac_ALT2_ability","practice_ability","","","","","","","","",""
"null","<span style='color:GreenYellow; font-size: 70px;'>正确! </span>","null","html-keyboard-response","71","266282","0.0-8.0-1.0-1.0-0.0-1.30","7","7","7","7","7","4","4","4","5","5","5","1","0","1","2","0","2","2","2","5","5","5","5","5","4","4","5","5","5","5","5","5","5","7","7","7","5","5","5","1","1","7","5","1","7","7","7","7","1","7","1","7","2","4","5","5","6","6","3","3","7","2","1","1","7","1","7","1","7","1","1","1","1","1","1","1","7","1","7","746306344851869697","李","534","Male","[""坏我"",""好我"",""好他"",""坏他""]","[""弱我"",""强我"",""强他"",""弱他""]","","","","","","","","","","","","","","","","","","","","","","","","","","","","","","feedback_test","","","","","","","","",""
"638","","j","psychophysics","72","267924","0.0-8.0-1.0-1.0-0.0-0.31","7","7","7","7","7","4","4","4","5","5","5","1","0","1","2","0","2","2","2","5","5","5","5","5","4","4","5","5","5","5","5","5","5","7","7","7","5","5","5","1","1","7","5","1","7","7","7","7","1","7","1","7","2","4","5","5","6","6","3","3","7","2","1","1","7","1","7","1","7","1","1","1","1","1","1","1","7","1","7","746306344851869697","李","534","Male","[""坏我"",""好我"",""好他"",""坏他""]","[""弱我"",""强我"",""强他"",""弱他""]","","","","","","","","nonmatch","","","","","","","","","","key","j","16.53298969072177","768","428","j","true","nonmatch","img/circle.png","强他","弱我","prac_ALT2_ability","practice_ability","","","","","","","","",""
"null","<span style='color:GreenYellow; font-size: 70px;'>正确! </span>","null","html-keyboard-response","73","268428","0.0-8.0-1.0-1.0-0.0-1.31","7","7","7","7","7","4","4","4","5","5","5","1","0","1","2","0","2","2","2","5","5","5","5","5","4","4","5","5","5","5","5","5","5","7","7","7","5","5","5","1","1","7","5","1","7","7","7","7","1","7","1","7","2","4","5","5","6","6","3","3","7","2","1","1","7","1","7","1","7","1","1","1","1","1","1","1","7","1","7","746306344851869697","李","534","Male","[""坏我"",""好我"",""好他"",""坏他""]","[""弱我"",""强我"",""强他"",""弱他""]","","","","","","","","","","","","","","","","","","","","","","","","","","","","","","feedback_test","","","","","","","","",""
"662","","j","psychophysics","74","270092","0.0-8.0-1.0-1.0-0.0-0.32","7","7","7","7","7","4","4","4","5","5","5","1","0","1","2","0","2","2","2","5","5","5","5","5","4","4","5","5","5","5","5","5","5","7","7","7","5","5","5","1","1","7","5","1","7","7","7","7","1","7","1","7","2","4","5","5","6","6","3","3","7","2","1","1","7","1","7","1","7","1","1","1","1","1","1","1","7","1","7","746306344851869697","李","534","Male","[""坏我"",""好我"",""好他"",""坏他""]","[""弱我"",""强我"",""强他"",""弱他""]","","","","","","","","nonmatch","","","","","","","","","","key","j","16.672727272727627","768","428","f","false","match","img/pentagon.png","弱他","弱他","prac_ALT2_ability","practice_ability","","","","","","","","",""
"null","<span style='color:red; font-size: 70px;'>错误! </span>","null","html-keyboard-response","75","270597","0.0-8.0-1.0-1.0-0.0-1.32","7","7","7","7","7","4","4","4","5","5","5","1","0","1","2","0","2","2","2","5","5","5","5","5","4","4","5","5","5","5","5","5","5","7","7","7","5","5","5","1","1","7","5","1","7","7","7","7","1","7","1","7","2","4","5","5","6","6","3","3","7","2","1","1","7","1","7","1","7","1","1","1","1","1","1","1","7","1","7","746306344851869697","李","534","Male","[""坏我"",""好我"",""好他"",""坏他""]","[""弱我"",""强我"",""强他"",""弱他""]","","","","","","","","","","","","","","","","","","","","","","","","","","","","","","feedback_test","","","","","","","","",""
"628","","j","psychophysics","76","272226","0.0-8.0-1.0-1.0-0.0-0.33","7","7","7","7","7","4","4","4","5","5","5","1","0","1","2","0","2","2","2","5","5","5","5","5","4","4","5","5","5","5","5","5","5","7","7","7","5","5","5","1","1","7","5","1","7","7","7","7","1","7","1","7","2","4","5","5","6","6","3","3","7","2","1","1","7","1","7","1","7","1","1","1","1","1","1","1","7","1","7","746306344851869697","李","534","Male","[""坏我"",""好我"",""好他"",""坏他""]","[""弱我"",""强我"",""强他"",""弱他""]","","","","","","","","nonmatch","","","","","","","","","","key","j","16.67319587628854","768","428","j","true","nonmatch","img/pentagon.png","强我","弱他","prac_ALT2_ability","practice_ability","","","","","","","","",""
"null","<span style='color:GreenYellow; font-size: 70px;'>正确! </span>","null","html-keyboard-response","77","272737","0.0-8.0-1.0-1.0-0.0-1.33","7","7","7","7","7","4","4","4","5","5","5","1","0","1","2","0","2","2","2","5","5","5","5","5","4","4","5","5","5","5","5","5","5","7","7","7","5","5","5","1","1","7","5","1","7","7","7","7","1","7","1","7","2","4","5","5","6","6","3","3","7","2","1","1","7","1","7","1","7","1","1","1","1","1","1","1","7","1","7","746306344851869697","李","534","Male","[""坏我"",""好我"",""好他"",""坏他""]","[""弱我"",""强我"",""强他"",""弱他""]","","","","","","","","","","","","","","","","","","","","","","","","","","","","","","feedback_test","","","","","","","","",""
"691","","j","psychophysics","78","274431","0.0-8.0-1.0-1.0-0.0-0.34","7","7","7","7","7","4","4","4","5","5","5","1","0","1","2","0","2","2","2","5","5","5","5","5","4","4","5","5","5","5","5","5","5","7","7","7","5","5","5","1","1","7","5","1","7","7","7","7","1","7","1","7","2","4","5","5","6","6","3","3","7","2","1","1","7","1","7","1","7","1","1","1","1","1","1","1","7","1","7","746306344851869697","李","534","Male","[""坏我"",""好我"",""好他"",""坏他""]","[""弱我"",""强我"",""强他"",""弱他""]","","","","","","","","nonmatch","","","","","","","","","","key","j","16.67600000000035","768","428","j","true","nonmatch","img/pentagon.png","弱我","弱他","prac_ALT2_ability","practice_ability","","","","","","","","",""
"null","<span style='color:GreenYellow; font-size: 70px;'>正确! </span>","null","html-keyboard-response","79","274933","0.0-8.0-1.0-1.0-0.0-1.34","7","7","7","7","7","4","4","4","5","5","5","1","0","1","2","0","2","2","2","5","5","5","5","5","4","4","5","5","5","5","5","5","5","7","7","7","5","5","5","1","1","7","5","1","7","7","7","7","1","7","1","7","2","4","5","5","6","6","3","3","7","2","1","1","7","1","7","1","7","1","1","1","1","1","1","1","7","1","7","746306344851869697","李","534","Male","[""坏我"",""好我"",""好他"",""坏他""]","[""弱我"",""强我"",""强他"",""弱他""]","","","","","","","","","","","","","","","","","","","","","","","","","","","","","","feedback_test","","","","","","","","",""
"735","","j","psychophysics","80","276671","0.0-8.0-1.0-1.0-0.0-0.35","7","7","7","7","7","4","4","4","5","5","5","1","0","1","2","0","2","2","2","5","5","5","5","5","4","4","5","5","5","5","5","5","5","7","7","7","5","5","5","1","1","7","5","1","7","7","7","7","1","7","1","7","2","4","5","5","6","6","3","3","7","2","1","1","7","1","7","1","7","1","1","1","1","1","1","1","7","1","7","746306344851869697","李","534","Male","[""坏我"",""好我"",""好他"",""坏他""]","[""弱我"",""强我"",""强他"",""弱他""]","","","","","","","","nonmatch","","","","","","","","","","key","j","16.67184466019429","768","428","j","true","nonmatch","img/square.png","强我","强他","prac_ALT2_ability","practice_ability","","","","","","","","",""
"null","<span style='color:GreenYellow; font-size: 70px;'>正确! </span>","null","html-keyboard-response","81","277173","0.0-8.0-1.0-1.0-0.0-1.35","7","7","7","7","7","4","4","4","5","5","5","1","0","1","2","0","2","2","2","5","5","5","5","5","4","4","5","5","5","5","5","5","5","7","7","7","5","5","5","1","1","7","5","1","7","7","7","7","1","7","1","7","2","4","5","5","6","6","3","3","7","2","1","1","7","1","7","1","7","1","1","1","1","1","1","1","7","1","7","746306344851869697","李","534","Male","[""坏我"",""好我"",""好他"",""坏他""]","[""弱我"",""强我"",""强他"",""弱他""]","","","","","","","","","","","","","","","","","","","","","","","","","","","","","","feedback_test","","","","","","","","",""
"764","","f","psychophysics","82","278941","0.0-8.0-1.0-1.0-0.0-0.36","7","7","7","7","7","4","4","4","5","5","5","1","0","1","2","0","2","2","2","5","5","5","5","5","4","4","5","5","5","5","5","5","5","7","7","7","5","5","5","1","1","7","5","1","7","7","7","7","1","7","1","7","2","4","5","5","6","6","3","3","7","2","1","1","7","1","7","1","7","1","1","1","1","1","1","1","7","1","7","746306344851869697","李","534","Male","[""坏我"",""好我"",""好他"",""坏他""]","[""弱我"",""强我"",""强他"",""弱他""]","","","","","","","","match","","","","","","","","","","key","f","16.67238095238073","768","428","f","true","match","img/square.png","强他","强他","prac_ALT2_ability","practice_ability","","","","","","","","",""
"null","<span style='color:GreenYellow; font-size: 70px;'>正确! </span>","null","html-keyboard-response","83","279443","0.0-8.0-1.0-1.0-0.0-1.36","7","7","7","7","7","4","4","4","5","5","5","1","0","1","2","0","2","2","2","5","5","5","5","5","4","4","5","5","5","5","5","5","5","7","7","7","5","5","5","1","1","7","5","1","7","7","7","7","1","7","1","7","2","4","5","5","6","6","3","3","7","2","1","1","7","1","7","1","7","1","1","1","1","1","1","1","7","1","7","746306344851869697","李","534","Male","[""坏我"",""好我"",""好他"",""坏他""]","[""弱我"",""强我"",""强他"",""弱他""]","","","","","","","","","","","","","","","","","","","","","","","","","","","","","","feedback_test","","","","","","","","",""
"673","","f","psychophysics","84","281118","0.0-8.0-1.0-1.0-0.0-0.37","7","7","7","7","7","4","4","4","5","5","5","1","0","1","2","0","2","2","2","5","5","5","5","5","4","4","5","5","5","5","5","5","5","7","7","7","5","5","5","1","1","7","5","1","7","7","7","7","1","7","1","7","2","4","5","5","6","6","3","3","7","2","1","1","7","1","7","1","7","1","1","1","1","1","1","1","7","1","7","746306344851869697","李","534","Male","[""坏我"",""好我"",""好他"",""坏他""]","[""弱我"",""强我"",""强他"",""弱他""]","","","","","","","","match","","","","","","","","","","key","f","16.674000000000234","768","428","f","true","match","img/square.png","强他","强他","prac_ALT2_ability","practice_ability","","","","","","","","",""
"null","<span style='color:GreenYellow; font-size: 70px;'>正确! </span>","null","html-keyboard-response","85","281620","0.0-8.0-1.0-1.0-0.0-1.37","7","7","7","7","7","4","4","4","5","5","5","1","0","1","2","0","2","2","2","5","5","5","5","5","4","4","5","5","5","5","5","5","5","7","7","7","5","5","5","1","1","7","5","1","7","7","7","7","1","7","1","7","2","4","5","5","6","6","3","3","7","2","1","1","7","1","7","1","7","1","1","1","1","1","1","1","7","1","7","746306344851869697","李","534","Male","[""坏我"",""好我"",""好他"",""坏他""]","[""弱我"",""强我"",""强他"",""弱他""]","","","","","","","","","","","","","","","","","","","","","","","","","","","","","","feedback_test","","","","","","","","",""
"598","","j","psychophysics","86","283218","0.0-8.0-1.0-1.0-0.0-0.38","7","7","7","7","7","4","4","4","5","5","5","1","0","1","2","0","2","2","2","5","5","5","5","5","4","4","5","5","5","5","5","5","5","7","7","7","5","5","5","1","1","7","5","1","7","7","7","7","1","7","1","7","2","4","5","5","6","6","3","3","7","2","1","1","7","1","7","1","7","1","1","1","1","1","1","1","7","1","7","746306344851869697","李","534","Male","[""坏我"",""好我"",""好他"",""坏他""]","[""弱我"",""强我"",""强他"",""弱他""]","","","","","","","","nonmatch","","","","","","","","","","key","j","16.672631578947","768","428","j","true","nonmatch","img/triangle.png","强他","强我","prac_ALT2_ability","practice_ability","","","","","","","","",""
"null","<span style='color:GreenYellow; font-size: 70px;'>正确! </span>","null","html-keyboard-response","87","283720","0.0-8.0-1.0-1.0-0.0-1.38","7","7","7","7","7","4","4","4","5","5","5","1","0","1","2","0","2","2","2","5","5","5","5","5","4","4","5","5","5","5","5","5","5","7","7","7","5","5","5","1","1","7","5","1","7","7","7","7","1","7","1","7","2","4","5","5","6","6","3","3","7","2","1","1","7","1","7","1","7","1","1","1","1","1","1","1","7","1","7","746306344851869697","李","534","Male","[""坏我"",""好我"",""好他"",""坏他""]","[""弱我"",""强我"",""强他"",""弱他""]","","","","","","","","","","","","","","","","","","","","","","","","","","","","","","feedback_test","","","","","","","","",""
"594","","f","psychophysics","88","285315","0.0-8.0-1.0-1.0-0.0-0.39","7","7","7","7","7","4","4","4","5","5","5","1","0","1","2","0","2","2","2","5","5","5","5","5","4","4","5","5","5","5","5","5","5","7","7","7","5","5","5","1","1","7","5","1","7","7","7","7","1","7","1","7","2","4","5","5","6","6","3","3","7","2","1","1","7","1","7","1","7","1","1","1","1","1","1","1","7","1","7","746306344851869697","李","534","Male","[""坏我"",""好我"",""好他"",""坏他""]","[""弱我"",""强我"",""强他"",""弱他""]","","","","","","","","match","","","","","","","","","","key","f","16.674468085106632","768","428","f","true","match","img/triangle.png","强我","强我","prac_ALT2_ability","practice_ability","","","","","","","","",""
"null","<span style='color:GreenYellow; font-size: 70px;'>正确! </span>","null","html-keyboard-response","89","285820","0.0-8.0-1.0-1.0-0.0-1.39","7","7","7","7","7","4","4","4","5","5","5","1","0","1","2","0","2","2","2","5","5","5","5","5","4","4","5","5","5","5","5","5","5","7","7","7","5","5","5","1","1","7","5","1","7","7","7","7","1","7","1","7","2","4","5","5","6","6","3","3","7","2","1","1","7","1","7","1","7","1","1","1","1","1","1","1","7","1","7","746306344851869697","李","534","Male","[""坏我"",""好我"",""好他"",""坏他""]","[""弱我"",""强我"",""强他"",""弱他""]","","","","","","","","","","","","","","","","","","","","","","","","","","","","","","feedback_test","","","","","","","","",""
"594","","f","psychophysics","90","287416","0.0-8.0-1.0-1.0-0.0-0.40","7","7","7","7","7","4","4","4","5","5","5","1","0","1","2","0","2","2","2","5","5","5","5","5","4","4","5","5","5","5","5","5","5","7","7","7","5","5","5","1","1","7","5","1","7","7","7","7","1","7","1","7","2","4","5","5","6","6","3","3","7","2","1","1","7","1","7","1","7","1","1","1","1","1","1","1","7","1","7","746306344851869697","李","534","Male","[""坏我"",""好我"",""好他"",""坏他""]","[""弱我"",""强我"",""强他"",""弱他""]","","","","","","","","match","","","","","","","","","","key","f","16.673684210526314","768","428","j","false","nonmatch","img/triangle.png","弱我","强我","prac_ALT2_ability","practice_ability","","","","","","","","",""
"null","<span style='color:red; font-size: 70px;'>错误! </span>","null","html-keyboard-response","91","287919","0.0-8.0-1.0-1.0-0.0-1.40","7","7","7","7","7","4","4","4","5","5","5","1","0","1","2","0","2","2","2","5","5","5","5","5","4","4","5","5","5","5","5","5","5","7","7","7","5","5","5","1","1","7","5","1","7","7","7","7","1","7","1","7","2","4","5","5","6","6","3","3","7","2","1","1","7","1","7","1","7","1","1","1","1","1","1","1","7","1","7","746306344851869697","李","534","Male","[""坏我"",""好我"",""好他"",""坏他""]","[""弱我"",""强我"",""强他"",""弱他""]","","","","","","","","","","","","","","","","","","","","","","","","","","","","","","feedback_test","","","","","","","","",""
"766","","f","psychophysics","92","289689","0.0-8.0-1.0-1.0-0.0-0.41","7","7","7","7","7","4","4","4","5","5","5","1","0","1","2","0","2","2","2","5","5","5","5","5","4","4","5","5","5","5","5","5","5","7","7","7","5","5","5","1","1","7","5","1","7","7","7","7","1","7","1","7","2","4","5","5","6","6","3","3","7","2","1","1","7","1","7","1","7","1","1","1","1","1","1","1","7","1","7","746306344851869697","李","534","Male","[""坏我"",""好我"",""好他"",""坏他""]","[""弱我"",""强我"",""强他"",""弱他""]","","","","","","","","match","","","","","","","","","","key","f","16.676190476190477","768","428","f","true","match","img/pentagon.png","弱他","弱他","prac_ALT2_ability","practice_ability","","","","","","","","",""
"null","<span style='color:GreenYellow; font-size: 70px;'>正确! </span>","null","html-keyboard-response","93","290192","0.0-8.0-1.0-1.0-0.0-1.41","7","7","7","7","7","4","4","4","5","5","5","1","0","1","2","0","2","2","2","5","5","5","5","5","4","4","5","5","5","5","5","5","5","7","7","7","5","5","5","1","1","7","5","1","7","7","7","7","1","7","1","7","2","4","5","5","6","6","3","3","7","2","1","1","7","1","7","1","7","1","1","1","1","1","1","1","7","1","7","746306344851869697","李","534","Male","[""坏我"",""好我"",""好他"",""坏他""]","[""弱我"",""强我"",""强他"",""弱他""]","","","","","","","","","","","","","","","","","","","","","","","","","","","","","","feedback_test","","","","","","","","",""
"625","","f","psychophysics","94","291820","0.0-8.0-1.0-1.0-0.0-0.42","7","7","7","7","7","4","4","4","5","5","5","1","0","1","2","0","2","2","2","5","5","5","5","5","4","4","5","5","5","5","5","5","5","7","7","7","5","5","5","1","1","7","5","1","7","7","7","7","1","7","1","7","2","4","5","5","6","6","3","3","7","2","1","1","7","1","7","1","7","1","1","1","1","1","1","1","7","1","7","746306344851869697","李","534","Male","[""坏我"",""好我"",""好他"",""坏他""]","[""弱我"",""强我"",""强他"",""弱他""]","","","","","","","","match","","","","","","","","","","key","f","16.67422680412395","768","428","f","true","match","img/circle.png","弱我","弱我","prac_ALT2_ability","practice_ability","","","","","","","","",""
"null","<span style='color:GreenYellow; font-size: 70px;'>正确! </span>","null","html-keyboard-response","95","292322","0.0-8.0-1.0-1.0-0.0-1.42","7","7","7","7","7","4","4","4","5","5","5","1","0","1","2","0","2","2","2","5","5","5","5","5","4","4","5","5","5","5","5","5","5","7","7","7","5","5","5","1","1","7","5","1","7","7","7","7","1","7","1","7","2","4","5","5","6","6","3","3","7","2","1","1","7","1","7","1","7","1","1","1","1","1","1","1","7","1","7","746306344851869697","李","534","Male","[""坏我"",""好我"",""好他"",""坏他""]","[""弱我"",""强我"",""强他"",""弱他""]","","","","","","","","","","","","","","","","","","","","","","","","","","","","","","feedback_test","","","","","","","","",""
"580","","f","psychophysics","96","293903","0.0-8.0-1.0-1.0-0.0-0.43","7","7","7","7","7","4","4","4","5","5","5","1","0","1","2","0","2","2","2","5","5","5","5","5","4","4","5","5","5","5","5","5","5","7","7","7","5","5","5","1","1","7","5","1","7","7","7","7","1","7","1","7","2","4","5","5","6","6","3","3","7","2","1","1","7","1","7","1","7","1","1","1","1","1","1","1","7","1","7","746306344851869697","李","534","Male","[""坏我"",""好我"",""好他"",""坏他""]","[""弱我"",""强我"",""强他"",""弱他""]","","","","","","","","match","","","","","","","","","","key","f","16.673118279570268","768","428","f","true","match","img/triangle.png","强我","强我","prac_ALT2_ability","practice_ability","","","","","","","","",""
"null","<span style='color:GreenYellow; font-size: 70px;'>正确! </span>","null","html-keyboard-response","97","294406","0.0-8.0-1.0-1.0-0.0-1.43","7","7","7","7","7","4","4","4","5","5","5","1","0","1","2","0","2","2","2","5","5","5","5","5","4","4","5","5","5","5","5","5","5","7","7","7","5","5","5","1","1","7","5","1","7","7","7","7","1","7","1","7","2","4","5","5","6","6","3","3","7","2","1","1","7","1","7","1","7","1","1","1","1","1","1","1","7","1","7","746306344851869697","李","534","Male","[""坏我"",""好我"",""好他"",""坏他""]","[""弱我"",""强我"",""强他"",""弱他""]","","","","","","","","","","","","","","","","","","","","","","","","","","","","","","feedback_test","","","","","","","","",""
"558","","f","psychophysics","98","295967","0.0-8.0-1.0-1.0-0.0-0.44","7","7","7","7","7","4","4","4","5","5","5","1","0","1","2","0","2","2","2","5","5","5","5","5","4","4","5","5","5","5","5","5","5","7","7","7","5","5","5","1","1","7","5","1","7","7","7","7","1","7","1","7","2","4","5","5","6","6","3","3","7","2","1","1","7","1","7","1","7","1","1","1","1","1","1","1","7","1","7","746306344851869697","李","534","Male","[""坏我"",""好我"",""好他"",""坏他""]","[""弱我"",""强我"",""强他"",""弱他""]","","","","","","","","match","","","","","","","","","","key","f","16.672043010752688","768","428","j","false","nonmatch","img/circle.png","强我","弱我","prac_ALT2_ability","practice_ability","","","","","","","","",""
"null","<span style='color:red; font-size: 70px;'>错误! </span>","null","html-keyboard-response","99","296472","0.0-8.0-1.0-1.0-0.0-1.44","7","7","7","7","7","4","4","4","5","5","5","1","0","1","2","0","2","2","2","5","5","5","5","5","4","4","5","5","5","5","5","5","5","7","7","7","5","5","5","1","1","7","5","1","7","7","7","7","1","7","1","7","2","4","5","5","6","6","3","3","7","2","1","1","7","1","7","1","7","1","1","1","1","1","1","1","7","1","7","746306344851869697","李","534","Male","[""坏我"",""好我"",""好他"",""坏他""]","[""弱我"",""强我"",""强他"",""弱他""]","","","","","","","","","","","","","","","","","","","","","","","","","","","","","","feedback_test","","","","","","","","",""
"613","","f","psychophysics","100","298087","0.0-8.0-1.0-1.0-0.0-0.45","7","7","7","7","7","4","4","4","5","5","5","1","0","1","2","0","2","2","2","5","5","5","5","5","4","4","5","5","5","5","5","5","5","7","7","7","5","5","5","1","1","7","5","1","7","7","7","7","1","7","1","7","2","4","5","5","6","6","3","3","7","2","1","1","7","1","7","1","7","1","1","1","1","1","1","1","7","1","7","746306344851869697","李","534","Male","[""坏我"",""好我"",""好他"",""坏他""]","[""弱我"",""强我"",""强他"",""弱他""]","","","","","","","","match","","","","","","","","","","key","f","16.678125000000364","768","428","f","true","match","img/square.png","强他","强他","prac_ALT2_ability","practice_ability","","","","","","","","",""
"null","<span style='color:GreenYellow; font-size: 70px;'>正确! </span>","null","html-keyboard-response","101","298588","0.0-8.0-1.0-1.0-0.0-1.45","7","7","7","7","7","4","4","4","5","5","5","1","0","1","2","0","2","2","2","5","5","5","5","5","4","4","5","5","5","5","5","5","5","7","7","7","5","5","5","1","1","7","5","1","7","7","7","7","1","7","1","7","2","4","5","5","6","6","3","3","7","2","1","1","7","1","7","1","7","1","1","1","1","1","1","1","7","1","7","746306344851869697","李","534","Male","[""坏我"",""好我"",""好他"",""坏他""]","[""弱我"",""强我"",""强他"",""弱他""]","","","","","","","","","","","","","","","","","","","","","","","","","","","","","","feedback_test","","","","","","","","",""
"690","","f","psychophysics","102","300279","0.0-8.0-1.0-1.0-0.0-0.46","7","7","7","7","7","4","4","4","5","5","5","1","0","1","2","0","2","2","2","5","5","5","5","5","4","4","5","5","5","5","5","5","5","7","7","7","5","5","5","1","1","7","5","1","7","7","7","7","1","7","1","7","2","4","5","5","6","6","3","3","7","2","1","1","7","1","7","1","7","1","1","1","1","1","1","1","7","1","7","746306344851869697","李","534","Male","[""坏我"",""好我"",""好他"",""坏他""]","[""弱我"",""强我"",""强他"",""弱他""]","","","","","","","","match","","","","","","","","","","key","f","16.672999999999885","768","428","f","true","match","img/pentagon.png","弱他","弱他","prac_ALT2_ability","practice_ability","","","","","","","","",""
"null","<span style='color:GreenYellow; font-size: 70px;'>正确! </span>","null","html-keyboard-response","103","300781","0.0-8.0-1.0-1.0-0.0-1.46","7","7","7","7","7","4","4","4","5","5","5","1","0","1","2","0","2","2","2","5","5","5","5","5","4","4","5","5","5","5","5","5","5","7","7","7","5","5","5","1","1","7","5","1","7","7","7","7","1","7","1","7","2","4","5","5","6","6","3","3","7","2","1","1","7","1","7","1","7","1","1","1","1","1","1","1","7","1","7","746306344851869697","李","534","Male","[""坏我"",""好我"",""好他"",""坏他""]","[""弱我"",""强我"",""强他"",""弱他""]","","","","","","","","","","","","","","","","","","","","","","","","","","","","","","feedback_test","","","","","","","","",""
"533","","f","psychophysics","104","302316","0.0-8.0-1.0-1.0-0.0-0.47","7","7","7","7","7","4","4","4","5","5","5","1","0","1","2","0","2","2","2","5","5","5","5","5","4","4","5","5","5","5","5","5","5","7","7","7","5","5","5","1","1","7","5","1","7","7","7","7","1","7","1","7","2","4","5","5","6","6","3","3","7","2","1","1","7","1","7","1","7","1","1","1","1","1","1","1","7","1","7","746306344851869697","李","534","Male","[""坏我"",""好我"",""好他"",""坏他""]","[""弱我"",""强我"",""强他"",""弱他""]","","","","","","","","match","","","","","","","","","","key","f","16.6725274725276","768","428","f","true","match","img/circle.png","弱我","弱我","prac_ALT2_ability","practice_ability","","","","","","","","",""
"null","<span style='color:GreenYellow; font-size: 70px;'>正确! </span>","null","html-keyboard-response","105","302825","0.0-8.0-1.0-1.0-0.0-1.47","7","7","7","7","7","4","4","4","5","5","5","1","0","1","2","0","2","2","2","5","5","5","5","5","4","4","5","5","5","5","5","5","5","7","7","7","5","5","5","1","1","7","5","1","7","7","7","7","1","7","1","7","2","4","5","5","6","6","3","3","7","2","1","1","7","1","7","1","7","1","1","1","1","1","1","1","7","1","7","746306344851869697","李","534","Male","[""坏我"",""好我"",""好他"",""坏他""]","[""弱我"",""强我"",""强他"",""弱他""]","","","","","","","","","","","","","","","","","","","","","","","","","","","","","","feedback_test","","","","","","","","",""
"8934","<style>.context{color:white; font-size: 35px; line-height:40px}</style>                          <div><p class='context'>您正确回答了81% 的试次。</p><p class='context'>您的平均反应时为712毫秒。</p><p class='context'>恭喜您完成练习。按空格键进入正式实验。</p><p class='footer' style='color:white;font-size: 35px; line-height:40px;'>请在进入正式实验实验之前将您的<span style='color: lightgreen;'>食指</span>放在电脑键盘的相应键位上进行按键。</p>"," ","html-keyboard-response","106","311762","0.0-8.0-1.0-2.0","7","7","7","7","7","4","4","4","5","5","5","1","0","1","2","0","2","2","2","5","5","5","5","5","4","4","5","5","5","5","5","5","5","7","7","7","5","5","5","1","1","7","5","1","7","7","7","7","1","7","1","7","2","4","5","5","6","6","3","3","7","2","1","1","7","1","7","1","7","1","1","1","1","1","1","1","7","1","7","746306344851869697","李","534","Male","[""坏我"",""好我"",""好他"",""坏他""]","[""弱我"",""强我"",""强他"",""弱他""]","","","","","","","","","","","","","","","","","","","","","","","","","","","","","","","","","","","","","","",""
"1661","
  <p style='color: white; font-size: 22px'>请您将手指放在按键上，准备进入正式的匹配任务。</p>
  <p> <div style = ""color: green""><按空格键进入下一阶段的匹配任务></div></p>
  "," ","html-keyboard-response","107","313426","0.0-8.0-1.0-3.0","7","7","7","7","7","4","4","4","5","5","5","1","0","1","2","0","2","2","2","5","5","5","5","5","4","4","5","5","5","5","5","5","5","7","7","7","5","5","5","1","1","7","5","1","7","7","7","7","1","7","1","7","2","4","5","5","6","6","3","3","7","2","1","1","7","1","7","1","7","1","1","1","1","1","1","1","7","1","7","746306344851869697","李","534","Male","[""坏我"",""好我"",""好他"",""坏他""]","[""弱我"",""强我"",""强他"",""弱他""]","","","","","","","","","","","","","","","","","","","","","","","","","","","","","","","","","","","","","","",""
"705","","j","psychophysics","108","315134","0.0-8.0-1.0-4.0-0.0-0.0","7","7","7","7","7","4","4","4","5","5","5","1","0","1","2","0","2","2","2","5","5","5","5","5","4","4","5","5","5","5","5","5","5","7","7","7","5","5","5","1","1","7","5","1","7","7","7","7","1","7","1","7","2","4","5","5","6","6","3","3","7","2","1","1","7","1","7","1","7","1","1","1","1","1","1","1","7","1","7","746306344851869697","李","534","Male","[""坏我"",""好我"",""好他"",""坏他""]","[""弱我"",""强我"",""强他"",""弱他""]","","","","","","","","nonmatch","","","","","","","","","","key","j","16.674257425742343","768","428","j","true","nonmatch","img/pentagon.png","弱我","弱他","ALT2","ability","","","","","","","","",""
"null","<span style='color:GreenYellow; font-size: 70px;'>正确! </span>","null","html-keyboard-response","109","315637","0.0-8.0-1.0-4.0-0.0-1.0","7","7","7","7","7","4","4","4","5","5","5","1","0","1","2","0","2","2","2","5","5","5","5","5","4","4","5","5","5","5","5","5","5","7","7","7","5","5","5","1","1","7","5","1","7","7","7","7","1","7","1","7","2","4","5","5","6","6","3","3","7","2","1","1","7","1","7","1","7","1","1","1","1","1","1","1","7","1","7","746306344851869697","李","534","Male","[""坏我"",""好我"",""好他"",""坏他""]","[""弱我"",""强我"",""强他"",""弱他""]","","","","","","","","","","","","","","","","","","","","","","","","","","","","","","feedback_test","","","","","","","","",""
"563","","f","psychophysics","110","317203","0.0-8.0-1.0-4.0-0.0-0.1","7","7","7","7","7","4","4","4","5","5","5","1","0","1","2","0","2","2","2","5","5","5","5","5","4","4","5","5","5","5","5","5","5","7","7","7","5","5","5","1","1","7","5","1","7","7","7","7","1","7","1","7","2","4","5","5","6","6","3","3","7","2","1","1","7","1","7","1","7","1","1","1","1","1","1","1","7","1","7","746306344851869697","李","534","Male","[""坏我"",""好我"",""好他"",""坏他""]","[""弱我"",""强我"",""强他"",""弱他""]","","","","","","","","match","","","","","","","","","","key","f","16.67065217391317","768","428","f","true","match","img/triangle.png","强我","强我","ALT2","ability","","","","","","","","",""
"null","<span style='color:GreenYellow; font-size: 70px;'>正确! </span>","null","html-keyboard-response","111","317705","0.0-8.0-1.0-4.0-0.0-1.1","7","7","7","7","7","4","4","4","5","5","5","1","0","1","2","0","2","2","2","5","5","5","5","5","4","4","5","5","5","5","5","5","5","7","7","7","5","5","5","1","1","7","5","1","7","7","7","7","1","7","1","7","2","4","5","5","6","6","3","3","7","2","1","1","7","1","7","1","7","1","1","1","1","1","1","1","7","1","7","746306344851869697","李","534","Male","[""坏我"",""好我"",""好他"",""坏他""]","[""弱我"",""强我"",""强他"",""弱他""]","","","","","","","","","","","","","","","","","","","","","","","","","","","","","","feedback_test","","","","","","","","",""
"529","","f","psychophysics","112","319236","0.0-8.0-1.0-4.0-0.0-0.2","7","7","7","7","7","4","4","4","5","5","5","1","0","1","2","0","2","2","2","5","5","5","5","5","4","4","5","5","5","5","5","5","5","7","7","7","5","5","5","1","1","7","5","1","7","7","7","7","1","7","1","7","2","4","5","5","6","6","3","3","7","2","1","1","7","1","7","1","7","1","1","1","1","1","1","1","7","1","7","746306344851869697","李","534","Male","[""坏我"",""好我"",""好他"",""坏他""]","[""弱我"",""强我"",""强他"",""弱他""]","","","","","","","","match","","","","","","","","","","key","f","16.67111111111137","768","428","f","true","match","img/circle.png","弱我","弱我","ALT2","ability","","","","","","","","",""
"null","<span style='color:GreenYellow; font-size: 70px;'>正确! </span>","null","html-keyboard-response","113","319736","0.0-8.0-1.0-4.0-0.0-1.2","7","7","7","7","7","4","4","4","5","5","5","1","0","1","2","0","2","2","2","5","5","5","5","5","4","4","5","5","5","5","5","5","5","7","7","7","5","5","5","1","1","7","5","1","7","7","7","7","1","7","1","7","2","4","5","5","6","6","3","3","7","2","1","1","7","1","7","1","7","1","1","1","1","1","1","1","7","1","7","746306344851869697","李","534","Male","[""坏我"",""好我"",""好他"",""坏他""]","[""弱我"",""强我"",""强他"",""弱他""]","","","","","","","","","","","","","","","","","","","","","","","","","","","","","","feedback_test","","","","","","","","",""
"753","","j","psychophysics","114","321493","0.0-8.0-1.0-4.0-0.0-0.3","7","7","7","7","7","4","4","4","5","5","5","1","0","1","2","0","2","2","2","5","5","5","5","5","4","4","5","5","5","5","5","5","5","7","7","7","5","5","5","1","1","7","5","1","7","7","7","7","1","7","1","7","2","4","5","5","6","6","3","3","7","2","1","1","7","1","7","1","7","1","1","1","1","1","1","1","7","1","7","746306344851869697","李","534","Male","[""坏我"",""好我"",""好他"",""坏他""]","[""弱我"",""强我"",""强他"",""弱他""]","","","","","","","","nonmatch","","","","","","","","","","key","j","16.67211538461561","768","428","j","true","nonmatch","img/square.png","弱我","强他","ALT2","ability","","","","","","","","",""
"null","<span style='color:GreenYellow; font-size: 70px;'>正确! </span>","null","html-keyboard-response","115","321995","0.0-8.0-1.0-4.0-0.0-1.3","7","7","7","7","7","4","4","4","5","5","5","1","0","1","2","0","2","2","2","5","5","5","5","5","4","4","5","5","5","5","5","5","5","7","7","7","5","5","5","1","1","7","5","1","7","7","7","7","1","7","1","7","2","4","5","5","6","6","3","3","7","2","1","1","7","1","7","1","7","1","1","1","1","1","1","1","7","1","7","746306344851869697","李","534","Male","[""坏我"",""好我"",""好他"",""坏他""]","[""弱我"",""强我"",""强他"",""弱他""]","","","","","","","","","","","","","","","","","","","","","","","","","","","","","","feedback_test","","","","","","","","",""
"885","","j","psychophysics","116","323882","0.0-8.0-1.0-4.0-0.0-0.4","7","7","7","7","7","4","4","4","5","5","5","1","0","1","2","0","2","2","2","5","5","5","5","5","4","4","5","5","5","5","5","5","5","7","7","7","5","5","5","1","1","7","5","1","7","7","7","7","1","7","1","7","2","4","5","5","6","6","3","3","7","2","1","1","7","1","7","1","7","1","1","1","1","1","1","1","7","1","7","746306344851869697","李","534","Male","[""坏我"",""好我"",""好他"",""坏他""]","[""弱我"",""强我"",""强他"",""弱他""]","","","","","","","","nonmatch","","","","","","","","","","key","j","16.673214285713975","768","428","j","true","nonmatch","img/square.png","强我","强他","ALT2","ability","","","","","","","","",""
"null","<span style='color:GreenYellow; font-size: 70px;'>正确! </span>","null","html-keyboard-response","117","324387","0.0-8.0-1.0-4.0-0.0-1.4","7","7","7","7","7","4","4","4","5","5","5","1","0","1","2","0","2","2","2","5","5","5","5","5","4","4","5","5","5","5","5","5","5","7","7","7","5","5","5","1","1","7","5","1","7","7","7","7","1","7","1","7","2","4","5","5","6","6","3","3","7","2","1","1","7","1","7","1","7","1","1","1","1","1","1","1","7","1","7","746306344851869697","李","534","Male","[""坏我"",""好我"",""好他"",""坏他""]","[""弱我"",""强我"",""强他"",""弱他""]","","","","","","","","","","","","","","","","","","","","","","","","","","","","","","feedback_test","","","","","","","","",""
"657","","j","psychophysics","118","326048","0.0-8.0-1.0-4.0-0.0-0.5","7","7","7","7","7","4","4","4","5","5","5","1","0","1","2","0","2","2","2","5","5","5","5","5","4","4","5","5","5","5","5","5","5","7","7","7","5","5","5","1","1","7","5","1","7","7","7","7","1","7","1","7","2","4","5","5","6","6","3","3","7","2","1","1","7","1","7","1","7","1","1","1","1","1","1","1","7","1","7","746306344851869697","李","534","Male","[""坏我"",""好我"",""好他"",""坏他""]","[""弱我"",""强我"",""强他"",""弱他""]","","","","","","","","nonmatch","","","","","","","","","","key","j","16.67448979591813","768","428","j","true","nonmatch","img/triangle.png","弱他","强我","ALT2","ability","","","","","","","","",""
"null","<span style='color:GreenYellow; font-size: 70px;'>正确! </span>","null","html-keyboard-response","119","326551","0.0-8.0-1.0-4.0-0.0-1.5","7","7","7","7","7","4","4","4","5","5","5","1","0","1","2","0","2","2","2","5","5","5","5","5","4","4","5","5","5","5","5","5","5","7","7","7","5","5","5","1","1","7","5","1","7","7","7","7","1","7","1","7","2","4","5","5","6","6","3","3","7","2","1","1","7","1","7","1","7","1","1","1","1","1","1","1","7","1","7","746306344851869697","李","534","Male","[""坏我"",""好我"",""好他"",""坏他""]","[""弱我"",""强我"",""强他"",""弱他""]","","","","","","","","","","","","","","","","","","","","","","","","","","","","","","feedback_test","","","","","","","","",""
"666","","j","psychophysics","120","328219","0.0-8.0-1.0-4.0-0.0-0.6","7","7","7","7","7","4","4","4","5","5","5","1","0","1","2","0","2","2","2","5","5","5","5","5","4","4","5","5","5","5","5","5","5","7","7","7","5","5","5","1","1","7","5","1","7","7","7","7","1","7","1","7","2","4","5","5","6","6","3","3","7","2","1","1","7","1","7","1","7","1","1","1","1","1","1","1","7","1","7","746306344851869697","李","534","Male","[""坏我"",""好我"",""好他"",""坏他""]","[""弱我"",""强我"",""强他"",""弱他""]","","","","","","","","nonmatch","","","","","","","","","","key","j","16.67575757575781","768","428","j","true","nonmatch","img/circle.png","弱他","弱我","ALT2","ability","","","","","","","","",""
"null","<span style='color:GreenYellow; font-size: 70px;'>正确! </span>","null","html-keyboard-response","121","328721","0.0-8.0-1.0-4.0-0.0-1.6","7","7","7","7","7","4","4","4","5","5","5","1","0","1","2","0","2","2","2","5","5","5","5","5","4","4","5","5","5","5","5","5","5","7","7","7","5","5","5","1","1","7","5","1","7","7","7","7","1","7","1","7","2","4","5","5","6","6","3","3","7","2","1","1","7","1","7","1","7","1","1","1","1","1","1","1","7","1","7","746306344851869697","李","534","Male","[""坏我"",""好我"",""好他"",""坏他""]","[""弱我"",""强我"",""强他"",""弱他""]","","","","","","","","","","","","","","","","","","","","","","","","","","","","","","feedback_test","","","","","","","","",""
"761","","f","psychophysics","122","330484","0.0-8.0-1.0-4.0-0.0-0.7","7","7","7","7","7","4","4","4","5","5","5","1","0","1","2","0","2","2","2","5","5","5","5","5","4","4","5","5","5","5","5","5","5","7","7","7","5","5","5","1","1","7","5","1","7","7","7","7","1","7","1","7","2","4","5","5","6","6","3","3","7","2","1","1","7","1","7","1","7","1","1","1","1","1","1","1","7","1","7","746306344851869697","李","534","Male","[""坏我"",""好我"",""好他"",""坏他""]","[""弱我"",""强我"",""强他"",""弱他""]","","","","","","","","match","","","","","","","","","","key","f","16.65288461538428","768","428","f","true","match","img/pentagon.png","弱他","弱他","ALT2","ability","","","","","","","","",""
"null","<span style='color:GreenYellow; font-size: 70px;'>正确! </span>","null","html-keyboard-response","123","330986","0.0-8.0-1.0-4.0-0.0-1.7","7","7","7","7","7","4","4","4","5","5","5","1","0","1","2","0","2","2","2","5","5","5","5","5","4","4","5","5","5","5","5","5","5","7","7","7","5","5","5","1","1","7","5","1","7","7","7","7","1","7","1","7","2","4","5","5","6","6","3","3","7","2","1","1","7","1","7","1","7","1","1","1","1","1","1","1","7","1","7","746306344851869697","李","534","Male","[""坏我"",""好我"",""好他"",""坏他""]","[""弱我"",""强我"",""强他"",""弱他""]","","","","","","","","","","","","","","","","","","","","","","","","","","","","","","feedback_test","","","","","","","","",""
"null","","null","psychophysics","124","333189","0.0-8.0-1.0-4.0-0.0-0.8","7","7","7","7","7","4","4","4","5","5","5","1","0","1","2","0","2","2","2","5","5","5","5","5","4","4","5","5","5","5","5","5","5","7","7","7","5","5","5","1","1","7","5","1","7","7","7","7","1","7","1","7","2","4","5","5","6","6","3","3","7","2","1","1","7","1","7","1","7","1","1","1","1","1","1","1","7","1","7","746306344851869697","李","534","Male","[""坏我"",""好我"",""好他"",""坏他""]","[""弱我"",""强我"",""强他"",""弱他""]","","","","","","","","null","","","","","","","","","","key","null","16.670992366412392","768","428","j","false","nonmatch","img/pentagon.png","强我","弱他","ALT2","ability","","","","","","","","",""
"null","<span class='add_' style='color:yellow; font-size: 70px;'> 太慢! </span>","null","html-keyboard-response","125","333692","0.0-8.0-1.0-4.0-0.0-1.8","7","7","7","7","7","4","4","4","5","5","5","1","0","1","2","0","2","2","2","5","5","5","5","5","4","4","5","5","5","5","5","5","5","7","7","7","5","5","5","1","1","7","5","1","7","7","7","7","1","7","1","7","2","4","5","5","6","6","3","3","7","2","1","1","7","1","7","1","7","1","1","1","1","1","1","1","7","1","7","746306344851869697","李","534","Male","[""坏我"",""好我"",""好他"",""坏他""]","[""弱我"",""强我"",""强他"",""弱他""]","","","","","","","","","","","","","","","","","","","","","","","","","","","","","","feedback_test","","","","","","","","",""
"614","","f","psychophysics","126","335311","0.0-8.0-1.0-4.0-0.0-0.9","7","7","7","7","7","4","4","4","5","5","5","1","0","1","2","0","2","2","2","5","5","5","5","5","4","4","5","5","5","5","5","5","5","7","7","7","5","5","5","1","1","7","5","1","7","7","7","7","1","7","1","7","2","4","5","5","6","6","3","3","7","2","1","1","7","1","7","1","7","1","1","1","1","1","1","1","7","1","7","746306344851869697","李","534","Male","[""坏我"",""好我"",""好他"",""坏他""]","[""弱我"",""强我"",""强他"",""弱他""]","","","","","","","","match","","","","","","","","","","key","f","16.669791666666544","768","428","f","true","match","img/triangle.png","强我","强我","ALT2","ability","","","","","","","","",""
"null","<span style='color:GreenYellow; font-size: 70px;'>正确! </span>","null","html-keyboard-response","127","335813","0.0-8.0-1.0-4.0-0.0-1.9","7","7","7","7","7","4","4","4","5","5","5","1","0","1","2","0","2","2","2","5","5","5","5","5","4","4","5","5","5","5","5","5","5","7","7","7","5","5","5","1","1","7","5","1","7","7","7","7","1","7","1","7","2","4","5","5","6","6","3","3","7","2","1","1","7","1","7","1","7","1","1","1","1","1","1","1","7","1","7","746306344851869697","李","534","Male","[""坏我"",""好我"",""好他"",""坏他""]","[""弱我"",""强我"",""强他"",""弱他""]","","","","","","","","","","","","","","","","","","","","","","","","","","","","","","feedback_test","","","","","","","","",""
"712","","f","psychophysics","128","337529","0.0-8.0-1.0-4.0-0.0-0.10","7","7","7","7","7","4","4","4","5","5","5","1","0","1","2","0","2","2","2","5","5","5","5","5","4","4","5","5","5","5","5","5","5","7","7","7","5","5","5","1","1","7","5","1","7","7","7","7","1","7","1","7","2","4","5","5","6","6","3","3","7","2","1","1","7","1","7","1","7","1","1","1","1","1","1","1","7","1","7","746306344851869697","李","534","Male","[""坏我"",""好我"",""好他"",""坏他""]","[""弱我"",""强我"",""强他"",""弱他""]","","","","","","","","match","","","","","","","","","","key","f","16.65643564356424","768","428","f","true","match","img/pentagon.png","弱他","弱他","ALT2","ability","","","","","","","","",""
"null","<span style='color:GreenYellow; font-size: 70px;'>正确! </span>","null","html-keyboard-response","129","338030","0.0-8.0-1.0-4.0-0.0-1.10","7","7","7","7","7","4","4","4","5","5","5","1","0","1","2","0","2","2","2","5","5","5","5","5","4","4","5","5","5","5","5","5","5","7","7","7","5","5","5","1","1","7","5","1","7","7","7","7","1","7","1","7","2","4","5","5","6","6","3","3","7","2","1","1","7","1","7","1","7","1","1","1","1","1","1","1","7","1","7","746306344851869697","李","534","Male","[""坏我"",""好我"",""好他"",""坏他""]","[""弱我"",""强我"",""强他"",""弱他""]","","","","","","","","","","","","","","","","","","","","","","","","","","","","","","feedback_test","","","","","","","","",""
"688","","j","psychophysics","130","339731","0.0-8.0-1.0-4.0-0.0-0.11","7","7","7","7","7","4","4","4","5","5","5","1","0","1","2","0","2","2","2","5","5","5","5","5","4","4","5","5","5","5","5","5","5","7","7","7","5","5","5","1","1","7","5","1","7","7","7","7","1","7","1","7","2","4","5","5","6","6","3","3","7","2","1","1","7","1","7","1","7","1","1","1","1","1","1","1","7","1","7","746306344851869697","李","534","Male","[""坏我"",""好我"",""好他"",""坏他""]","[""弱我"",""强我"",""强他"",""弱他""]","","","","","","","","nonmatch","","","","","","","","","","key","j","16.670297029703086","768","428","j","true","nonmatch","img/triangle.png","强他","强我","ALT2","ability","","","","","","","","",""
"null","<span style='color:GreenYellow; font-size: 70px;'>正确! </span>","null","html-keyboard-response","131","340233","0.0-8.0-1.0-4.0-0.0-1.11","7","7","7","7","7","4","4","4","5","5","5","1","0","1","2","0","2","2","2","5","5","5","5","5","4","4","5","5","5","5","5","5","5","7","7","7","5","5","5","1","1","7","5","1","7","7","7","7","1","7","1","7","2","4","5","5","6","6","3","3","7","2","1","1","7","1","7","1","7","1","1","1","1","1","1","1","7","1","7","746306344851869697","李","534","Male","[""坏我"",""好我"",""好他"",""坏他""]","[""弱我"",""强我"",""强他"",""弱他""]","","","","","","","","","","","","","","","","","","","","","","","","","","","","","","feedback_test","","","","","","","","",""
"592","","f","psychophysics","132","341826","0.0-8.0-1.0-4.0-0.0-0.12","7","7","7","7","7","4","4","4","5","5","5","1","0","1","2","0","2","2","2","5","5","5","5","5","4","4","5","5","5","5","5","5","5","7","7","7","5","5","5","1","1","7","5","1","7","7","7","7","1","7","1","7","2","4","5","5","6","6","3","3","7","2","1","1","7","1","7","1","7","1","1","1","1","1","1","1","7","1","7","746306344851869697","李","534","Male","[""坏我"",""好我"",""好他"",""坏他""]","[""弱我"",""强我"",""强他"",""弱他""]","","","","","","","","match","","","","","","","","","","key","f","16.669148936170462","768","428","f","true","match","img/square.png","强他","强他","ALT2","ability","","","","","","","","",""
"null","<span style='color:GreenYellow; font-size: 70px;'>正确! </span>","null","html-keyboard-response","133","342330","0.0-8.0-1.0-4.0-0.0-1.12","7","7","7","7","7","4","4","4","5","5","5","1","0","1","2","0","2","2","2","5","5","5","5","5","4","4","5","5","5","5","5","5","5","7","7","7","5","5","5","1","1","7","5","1","7","7","7","7","1","7","1","7","2","4","5","5","6","6","3","3","7","2","1","1","7","1","7","1","7","1","1","1","1","1","1","1","7","1","7","746306344851869697","李","534","Male","[""坏我"",""好我"",""好他"",""坏他""]","[""弱我"",""强我"",""强他"",""弱他""]","","","","","","","","","","","","","","","","","","","","","","","","","","","","","","feedback_test","","","","","","","","",""
"509","","f","psychophysics","134","343841","0.0-8.0-1.0-4.0-0.0-0.13","7","7","7","7","7","4","4","4","5","5","5","1","0","1","2","0","2","2","2","5","5","5","5","5","4","4","5","5","5","5","5","5","5","7","7","7","5","5","5","1","1","7","5","1","7","7","7","7","1","7","1","7","2","4","5","5","6","6","3","3","7","2","1","1","7","1","7","1","7","1","1","1","1","1","1","1","7","1","7","746306344851869697","李","534","Male","[""坏我"",""好我"",""好他"",""坏他""]","[""弱我"",""强我"",""强他"",""弱他""]","","","","","","","","match","","","","","","","","","","key","f","16.553333333333203","768","428","f","true","match","img/circle.png","弱我","弱我","ALT2","ability","","","","","","","","",""
"null","<span style='color:GreenYellow; font-size: 70px;'>正确! </span>","null","html-keyboard-response","135","344344","0.0-8.0-1.0-4.0-0.0-1.13","7","7","7","7","7","4","4","4","5","5","5","1","0","1","2","0","2","2","2","5","5","5","5","5","4","4","5","5","5","5","5","5","5","7","7","7","5","5","5","1","1","7","5","1","7","7","7","7","1","7","1","7","2","4","5","5","6","6","3","3","7","2","1","1","7","1","7","1","7","1","1","1","1","1","1","1","7","1","7","746306344851869697","李","534","Male","[""坏我"",""好我"",""好他"",""坏他""]","[""弱我"",""强我"",""强他"",""弱他""]","","","","","","","","","","","","","","","","","","","","","","","","","","","","","","feedback_test","","","","","","","","",""
"763","","j","psychophysics","136","346110","0.0-8.0-1.0-4.0-0.0-0.14","7","7","7","7","7","4","4","4","5","5","5","1","0","1","2","0","2","2","2","5","5","5","5","5","4","4","5","5","5","5","5","5","5","7","7","7","5","5","5","1","1","7","5","1","7","7","7","7","1","7","1","7","2","4","5","5","6","6","3","3","7","2","1","1","7","1","7","1","7","1","1","1","1","1","1","1","7","1","7","746306344851869697","李","534","Male","[""坏我"",""好我"",""好他"",""坏他""]","[""弱我"",""强我"",""强他"",""弱他""]","","","","","","","","nonmatch","","","","","","","","","","key","j","16.674285714285602","768","428","j","true","nonmatch","img/square.png","弱他","强他","ALT2","ability","","","","","","","","",""
"null","<span style='color:GreenYellow; font-size: 70px;'>正确! </span>","null","html-keyboard-response","137","346614","0.0-8.0-1.0-4.0-0.0-1.14","7","7","7","7","7","4","4","4","5","5","5","1","0","1","2","0","2","2","2","5","5","5","5","5","4","4","5","5","5","5","5","5","5","7","7","7","5","5","5","1","1","7","5","1","7","7","7","7","1","7","1","7","2","4","5","5","6","6","3","3","7","2","1","1","7","1","7","1","7","1","1","1","1","1","1","1","7","1","7","746306344851869697","李","534","Male","[""坏我"",""好我"",""好他"",""坏他""]","[""弱我"",""强我"",""强他"",""弱他""]","","","","","","","","","","","","","","","","","","","","","","","","","","","","","","feedback_test","","","","","","","","",""
"547","","f","psychophysics","138","348162","0.0-8.0-1.0-4.0-0.0-0.15","7","7","7","7","7","4","4","4","5","5","5","1","0","1","2","0","2","2","2","5","5","5","5","5","4","4","5","5","5","5","5","5","5","7","7","7","5","5","5","1","1","7","5","1","7","7","7","7","1","7","1","7","2","4","5","5","6","6","3","3","7","2","1","1","7","1","7","1","7","1","1","1","1","1","1","1","7","1","7","746306344851869697","李","534","Male","[""坏我"",""好我"",""好他"",""坏他""]","[""弱我"",""强我"",""强他"",""弱他""]","","","","","","","","match","","","","","","","","","","key","f","16.67499999999975","768","428","f","true","match","img/square.png","强他","强他","ALT2","ability","","","","","","","","",""
