"rt","stimulus","response","trial_type","trial_index","time_elapsed","internal_node_id","swb_1","swb_2","swb_3","swb_4","swb_5","LOT_1","LOT_2","LOT_3","LOT_4","LOT_5","LOT_6","IPC_1","IPC_2","IPC_3","IPC_4","IPC_5","IPC_6","IPC_7","IPC_8","MorIden_1","MorIden_2","MorIden_3","MorIden_4","MorIden_5","MorIden_6","MorIden_7","MorIden_8","MorIden_9","MorIden_10","moralSeImag_1","moralSeImag_2","moralSeImag_3","moralSeImag_4","moralSeImag_5","moralSeImag_6","moralSeImag_7","moralSeImag_8","moralSeImag_9","sde_1","sde_2","sde_3","sde_4","sde_5","sde_6","sde_7","sde_8","sde_9","sde_10","trap2","sde_11","sde_12","sde_13","sde_14","sde_15","sde_16","sde_17","sde_18","sde_19","sde_20","IM_1","IM_2","IM_3","IM_4","IM_5","IM_6","IM_7","IM_8","IM_9","IM_10","IM_11","IM_12","IM_13","IM_14","IM_15","IM_16","IM_17","IM_18","IM_19","IM_20","subj_idx","friend_name","ParticipantID","Sex","Word","Word2","value","success","timeout","failed_images","failed_audio","failed_video","user_agent","responses","item_order","radio_event_ids","radio_event_times","key_event_times","mouse_event_times","straightlining","zigzagging","honeypot","task_id","screen_id","time_stamp","response_type","key_press","avg_frame_time","center_x","center_y","person","word","valence","domain","math","correct_response","correct","status","view_history","identity","duration","Image","condition","question_order","trap2_item"
"14920","
   <p><div style='color:white; font-size: 25px'>您好，欢迎参加本次实验。</div></p>
   <p><div style='color:white; font-size: 25px'>为充分保障您的权利，请确保您已经知晓并同意《参与实验同意书》以及《数据公开知情同意书》。</div></p>
   <p><div style='color:white; font-size: 25px'>如果您未见过上述内容，请咨询实验员。</div></p>
   <p style='color:white; font-size: 25px'>如果您选择继续实验，则表示您已经清楚两份知情同意书的内容并同意。</p>
   <p><div style = ""color: pink;font-size:30px;"">请确保您记得day0的实验编号，您将在本次实验输入该编号，若您忘记，请咨询实验员后作答。</div></p>
   <p><div style = ""color:lightblue;font-size:25px;"">请您尽可能认真地作答，我们将依据您在各问卷和按键任务中的作答质量发放报酬。</div></p>
   <p> <div style = ""color: green""><按空格键至下页></div> </p>
   "," ","html-keyboard-response","0","14925","0.0-0.0","5","4","5","2","1","5","3","4","5","5","4","0","-1","1","1","0","0","1","2","4","3","5","4","2","4","5","4","5","4","4","7","7","7","6","6","6","5","8","6","3","2","4","5","5","6","6","5","3","1","3","3","5","2","4","3","4","5","2","5","3","3","2","1","3","5","2","3","3","6","6","3","7","3","3","3","2","5","3","3","769979838697312258","吴","587","Female","[""坏我"",""坏她"",""好她"",""好我""]","[""弱我"",""弱她"",""强她"",""强我""]","","","","","","","","","","","","","","","","","","","","","","","","","","","","","","","","","","","","","","",""
"","","","call-function","1","14928","0.0-1.0-0.0","5","4","5","2","1","5","3","4","5","5","4","0","-1","1","1","0","0","1","2","4","3","5","4","2","4","5","4","5","4","4","7","7","7","6","6","6","5","8","6","3","2","4","5","5","6","6","5","3","1","3","3","5","2","4","3","4","5","2","5","3","3","2","1","3","5","2","3","3","6","6","3","7","3","3","3","2","5","3","3","769979838697312258","吴","587","Female","[""坏我"",""坏她"",""好她"",""好我""]","[""弱我"",""弱她"",""强她"",""强我""]","","","","","","","","","","","","","","","","","","","","","","","","","","","","","","","","","","","","","","",""
"19065","","[{""name"":""Sex"",""value"":""1""},{""name"":""friend_name"",""value"":""吴""},{""name"":""ParticipantID"",""value"":""587""}]","survey-html-form","2","33994","0.0-1.0-1.0","5","4","5","2","1","5","3","4","5","5","4","0","-1","1","1","0","0","1","2","4","3","5","4","2","4","5","4","5","4","4","7","7","7","6","6","6","5","8","6","3","2","4","5","5","6","6","5","3","1","3","3","5","2","4","3","4","5","2","5","3","3","2","1","3","5","2","3","3","6","6","3","7","3","3","3","2","5","3","3","769979838697312258","吴","587","Female","[""坏我"",""坏她"",""好她"",""好我""]","[""弱我"",""弱她"",""强她"",""强我""]","","","","","","","","","","","","","","","","","","","","","","","","","","","","","","","","","","","","","","",""
"","","","preload","3","34431","0.0-2.0","5","4","5","2","1","5","3","4","5","5","4","0","-1","1","1","0","0","1","2","4","3","5","4","2","4","5","4","5","4","4","7","7","7","6","6","6","5","8","6","3","2","4","5","5","6","6","5","3","1","3","3","5","2","4","3","4","5","2","5","3","3","2","1","3","5","2","3","3","6","6","3","7","3","3","3","2","5","3","3","769979838697312258","吴","587","Female","[""坏我"",""坏她"",""好她"",""好我""]","[""弱我"",""弱她"",""强她"",""强我""]","","true","false","[]","[]","[]","","","","","","","","","","","","","","","","","","","","","","","","","","","","","","","","",""
"","","","fullscreen","4","39167","0.0-3.0","5","4","5","2","1","5","3","4","5","5","4","0","-1","1","1","0","0","1","2","4","3","5","4","2","4","5","4","5","4","4","7","7","7","6","6","6","5","8","6","3","2","4","5","5","6","6","5","3","1","3","3","5","2","4","3","4","5","2","5","3","3","2","1","3","5","2","3","3","6","6","3","7","3","3","3","2","5","3","3","769979838697312258","吴","587","Female","[""坏我"",""坏她"",""好她"",""好我""]","[""弱我"",""弱她"",""强她"",""强我""]","","true","","","","","{}","","","","","","","","","","","","","","","","","","","","","","","","","","","","","","","",""
"16825.399999976158","","{""Q01"":""5"",""Q02"":""4"",""Q03"":""5"",""Q04"":""2"",""Q05"":""1""}","survey-template","5","55995","0.0-4.0","5","4","5","2","1","5","3","4","5","5","4","0","-1","1","1","0","0","1","2","4","3","5","4","2","4","5","4","5","4","4","7","7","7","6","6","6","5","8","6","3","2","4","5","5","6","6","5","3","1","3","3","5","2","4","3","4","5","2","5","3","3","2","1","3","5","2","3","3","6","6","3","7","3","3","3","2","5","3","3","769979838697312258","吴","587","Female","[""坏我"",""坏她"",""好她"",""好我""]","[""弱我"",""弱她"",""强她"",""强我""]","","","","","","","","{""Q01"":""5"",""Q02"":""4"",""Q03"":""5"",""Q04"":""2"",""Q05"":""1""}","[0,1,2,3,4]","[""Q01"",""Q02"",""Q03"",""Q04"",""Q05""]","[7774.199999988079,9671.799999952316,11946.099999964237,13512.699999988079,15053.799999952316]","[]","[7774.199999988079,9671.799999952316,11946.099999964237,13512.699999988079,15053.799999952316,16824.099999964237]","0.4","0.75","0","","","","","","","","","","","","","","","","","","","","","","",""
"21520.099999964237","","{""Q01"":""5"",""Q02"":""3"",""Q03"":""4"",""Q04"":""5"",""Q05"":""5"",""Q06"":""4""}","survey-template","6","77521","0.0-5.0","5","4","5","2","1","5","3","4","5","5","4","0","-1","1","1","0","0","1","2","4","3","5","4","2","4","5","4","5","4","4","7","7","7","6","6","6","5","8","6","3","2","4","5","5","6","6","5","3","1","3","3","5","2","4","3","4","5","2","5","3","3","2","1","3","5","2","3","3","6","6","3","7","3","3","3","2","5","3","3","769979838697312258","吴","587","Female","[""坏我"",""坏她"",""好她"",""好我""]","[""弱我"",""弱她"",""强她"",""强我""]","","","","","","","","{""Q01"":""5"",""Q02"":""3"",""Q03"":""4"",""Q04"":""5"",""Q05"":""5"",""Q06"":""4""}","[0,1,2,3,4,5]","[""Q01"",""Q02"",""Q02"",""Q03"",""Q04"",""Q05"",""Q06""]","[2594.599999964237,10937.099999964237,12367.800000011921,13099.399999976158,15953.599999964237,16859.099999964237,19157.19999998808]","[]","[2594.599999964237,10937.099999964237,12367.800000011921,13099.399999976158,15953.599999964237,16859.099999964237,19157.19999998808,21519.30000001192]","0.3333333333333333","0.2","0","","","","","","","","","","","","","","","","","","","","","","",""
"20150.099999964237","","{""Q01"":""0"",""Q02"":""-1"",""Q03"":""1"",""Q04"":""1"",""Q05"":""0"",""Q06"":""0"",""Q07"":""1"",""Q08"":""2""}","survey-template","7","97675","0.0-6.0","5","4","5","2","1","5","3","4","5","5","4","0","-1","1","1","0","0","1","2","4","3","5","4","2","4","5","4","5","4","4","7","7","7","6","6","6","5","8","6","3","2","4","5","5","6","6","5","3","1","3","3","5","2","4","3","4","5","2","5","3","3","2","1","3","5","2","3","3","6","6","3","7","3","3","3","2","5","3","3","769979838697312258","吴","587","Female","[""坏我"",""坏她"",""好她"",""好我""]","[""弱我"",""弱她"",""强她"",""强我""]","","","","","","","","{""Q01"":""0"",""Q02"":""-1"",""Q03"":""1"",""Q04"":""1"",""Q05"":""0"",""Q06"":""0"",""Q07"":""1"",""Q08"":""2""}","[0,1,2,3,4,5,6,7]","[""Q01"",""Q02"",""Q03"",""Q04"",""Q05"",""Q06"",""Q07"",""Q08""]","[5132,7905.399999976158,9583.5,11615,13549,14689,17551.099999964237,19472.69999998808]","[]","[5132,7905.399999976158,9583.5,11615,13549,14689,17551.099999964237,19472.69999998808,20148.69999998808]","0.375","0.5714285714285714","0","","","","","","","","","","","","","","","","","","","","","","",""
"21937","
    <p><div style='color:white;font-size:35px; line-height:20px;'>词汇评估任务</div></p><br>
    <p><div style='color:white;font-size:25px; line-height:20px;'>请再次回忆该亲密的朋友，你们至少2年前就认识了，并且最近2年经常见面。</div></p>
    <p><div style='color:white;font-size:25px; line-height:20px;'>在本实验中，您将会看到一些形容词。</div></p>
    <p><div style='color:yellow;font-size:25px; line-height:20px;'>您的任务是判断这些形容词是否符合对您自己或您的朋友的描述。</div></p><p style='font-size:35px'>符合按<span style=""color:lightgreen""> j 键</span>，不符合按<span style=""color:red""> f 键</span></p>","0","html-button-response","8","119616","0.0-7.0-0.0","5","4","5","2","1","5","3","4","5","5","4","0","-1","1","1","0","0","1","2","4","3","5","4","2","4","5","4","5","4","4","7","7","7","6","6","6","5","8","6","3","2","4","5","5","6","6","5","3","1","3","3","5","2","4","3","4","5","2","5","3","3","2","1","3","5","2","3","3","6","6","3","7","3","3","3","2","5","3","3","769979838697312258","吴","587","Female","[""坏我"",""坏她"",""好她"",""好我""]","[""弱我"",""弱她"",""强她"",""强我""]","","","","","","","","","","","","","","","","","SRET_EW","EW_instructions","Tue Dec 19 2023 19:14:35 GMT+0800 (GMT+08:00)","","","","","","","","","","","","","","","","","","","",""
"1992","","f","psychophysics","9","122617","0.0-7.0-1.0-0.0","5","4","5","2","1","5","3","4","5","5","4","0","-1","1","1","0","0","1","2","4","3","5","4","2","4","5","4","5","4","4","7","7","7","6","6","6","5","8","6","3","2","4","5","5","6","6","5","3","1","3","3","5","2","4","3","4","5","2","5","3","3","2","1","3","5","2","3","3","6","6","3","7","3","3","3","2","5","3","3","769979838697312258","吴","587","Female","[""坏我"",""坏她"",""好她"",""好我""]","[""弱我"",""弱她"",""强她"",""强我""]","","","","","","","","no","","","","","","","","","SRET_EW","EW_practice","","key","f","16.56833333333335","640","356","自己","严谨","Positive","ability","","","","","","","","","","",""
"1391","","j","psychophysics","10","125010","0.0-7.0-1.0-0.1","5","4","5","2","1","5","3","4","5","5","4","0","-1","1","1","0","0","1","2","4","3","5","4","2","4","5","4","5","4","4","7","7","7","6","6","6","5","8","6","3","2","4","5","5","6","6","5","3","1","3","3","5","2","4","3","4","5","2","5","3","3","2","1","3","5","2","3","3","6","6","3","7","3","3","3","2","5","3","3","769979838697312258","吴","587","Female","[""坏我"",""坏她"",""好她"",""好我""]","[""弱我"",""弱她"",""强她"",""强我""]","","","","","","","","yes","","","","","","","","","SRET_EW","EW_practice","","key","j","16.665734265734244","640","356","朋友","徇私","Negative","morality","","","","","","","","","","",""
"null","","null","psychophysics","11","128016","0.0-7.0-1.0-0.2","5","4","5","2","1","5","3","4","5","5","4","0","-1","1","1","0","0","1","2","4","3","5","4","2","4","5","4","5","4","4","7","7","7","6","6","6","5","8","6","3","2","4","5","5","6","6","5","3","1","3","3","5","2","4","3","4","5","2","5","3","3","2","1","3","5","2","3","3","6","6","3","7","3","3","3","2","5","3","3","769979838697312258","吴","587","Female","[""坏我"",""坏她"",""好她"",""好我""]","[""弱我"",""弱她"",""强她"",""强我""]","","","","","","","","","","","","","","","","","SRET_EW","EW_practice","","key","null","16.664804469273744","640","356","朋友","忠实","Positive","morality","","","","","","","","","","",""
"938","","f","psychophysics","12","129957","0.0-7.0-1.0-0.3","5","4","5","2","1","5","3","4","5","5","4","0","-1","1","1","0","0","1","2","4","3","5","4","2","4","5","4","5","4","4","7","7","7","6","6","6","5","8","6","3","2","4","5","5","6","6","5","3","1","3","3","5","2","4","3","4","5","2","5","3","3","2","1","3","5","2","3","3","6","6","3","7","3","3","3","2","5","3","3","769979838697312258","吴","587","Female","[""坏我"",""坏她"",""好她"",""好我""]","[""弱我"",""弱她"",""强她"",""强我""]","","","","","","","","no","","","","","","","","","SRET_EW","EW_practice","","key","f","16.663793103448278","640","356","自己","刻板","Negative","ability","","","","","","","","","","",""
"13252","
    <p><div style='color:white;font-size:35px; line-height:20px;'>请您再次阅读实验要求</div></p><br>
    <p><div style='color:white;font-size:25px; line-height:20px;'>请回忆某一个亲密的朋友，你们至少2年前就认识了，并且最近2年经常见面。</div></p>
    <p><div style='color:white;font-size:25px; line-height:20px;'>在本实验中，您将会看到一些形容词。</div></p>
    <p><div style='color:yellow;font-size:25px; line-height:20px;'>您的任务是判断这些形容词是否符合对您自己或您的朋友的描述。</div></p>
    <p><div class='footer' style='font-size:25px; line-height:20px;'>如果对本实验还有不清楚之处，请立即向实验员咨询。</p><p style='font-size:25px; line-height:20px;'>如果您明白了规则：</p><p style='font-size:22px; line-height:20px;'>请按 继续 进入正式实验</p>
    </div>
    <p style='font-size:35px'>符合按<span style=""color:lightgreen""> j 键</span>，不符合按<span style=""color:red""> f 键</span></p>","0","html-button-response","13","143210","0.0-7.0-2.0","5","4","5","2","1","5","3","4","5","5","4","0","-1","1","1","0","0","1","2","4","3","5","4","2","4","5","4","5","4","4","7","7","7","6","6","6","5","8","6","3","2","4","5","5","6","6","5","3","1","3","3","5","2","4","3","4","5","2","5","3","3","2","1","3","5","2","3","3","6","6","3","7","3","3","3","2","5","3","3","769979838697312258","吴","587","Female","[""坏我"",""坏她"",""好她"",""好我""]","[""弱我"",""弱她"",""强她"",""强我""]","","","","","","","","","","","","","","","","","SRET_EW","prac_instructions","Tue Dec 19 2023 19:14:35 GMT+0800 (GMT+08:00)","","","","","","","","","","","","","","","","","","","",""
"601","","f","psychophysics","14","144821","0.0-7.0-3.0-0.0","5","4","5","2","1","5","3","4","5","5","4","0","-1","1","1","0","0","1","2","4","3","5","4","2","4","5","4","5","4","4","7","7","7","6","6","6","5","8","6","3","2","4","5","5","6","6","5","3","1","3","3","5","2","4","3","4","5","2","5","3","3","2","1","3","5","2","3","3","6","6","3","7","3","3","3","2","5","3","3","769979838697312258","吴","587","Female","[""坏我"",""坏她"",""好她"",""好我""]","[""弱我"",""弱她"",""强她"",""强我""]","","","","","","","","no","","","","","","","","","SRET","EW_formal","","key","f","16.65979381443299","640","356","朋友","迷糊","Negative","ability","","","","","","","","","","",""
"597","","j","psychophysics","15","146422","0.0-7.0-3.0-0.1","5","4","5","2","1","5","3","4","5","5","4","0","-1","1","1","0","0","1","2","4","3","5","4","2","4","5","4","5","4","4","7","7","7","6","6","6","5","8","6","3","2","4","5","5","6","6","5","3","1","3","3","5","2","4","3","4","5","2","5","3","3","2","1","3","5","2","3","3","6","6","3","7","3","3","3","2","5","3","3","769979838697312258","吴","587","Female","[""坏我"",""坏她"",""好她"",""好我""]","[""弱我"",""弱她"",""强她"",""强我""]","","","","","","","","yes","","","","","","","","","SRET","EW_formal","","key","j","16.66736842105257","640","356","自己","坚贞","Positive","morality","","","","","","","","","","",""
"735","","j","psychophysics","16","148159","0.0-7.0-3.0-0.2","5","4","5","2","1","5","3","4","5","5","4","0","-1","1","1","0","0","1","2","4","3","5","4","2","4","5","4","5","4","4","7","7","7","6","6","6","5","8","6","3","2","4","5","5","6","6","5","3","1","3","3","5","2","4","3","4","5","2","5","3","3","2","1","3","5","2","3","3","6","6","3","7","3","3","3","2","5","3","3","769979838697312258","吴","587","Female","[""坏我"",""坏她"",""好她"",""好我""]","[""弱我"",""弱她"",""强她"",""强我""]","","","","","","","","yes","","","","","","","","","SRET","EW_formal","","key","j","16.664077669902856","640","356","朋友","务实","Positive","ability","","","","","","","","","","",""
"1261","","f","psychophysics","17","150423","0.0-7.0-3.0-0.3","5","4","5","2","1","5","3","4","5","5","4","0","-1","1","1","0","0","1","2","4","3","5","4","2","4","5","4","5","4","4","7","7","7","6","6","6","5","8","6","3","2","4","5","5","6","6","5","3","1","3","3","5","2","4","3","4","5","2","5","3","3","2","1","3","5","2","3","3","6","6","3","7","3","3","3","2","5","3","3","769979838697312258","吴","587","Female","[""坏我"",""坏她"",""好她"",""好我""]","[""弱我"",""弱她"",""强她"",""强我""]","","","","","","","","no","","","","","","","","","SRET","EW_formal","","key","f","16.665925925925883","640","356","自己","说谎","Negative","morality","","","","","","","","","","",""
"863","","j","psychophysics","18","152288","0.0-7.0-3.0-0.4","5","4","5","2","1","5","3","4","5","5","4","0","-1","1","1","0","0","1","2","4","3","5","4","2","4","5","4","5","4","4","7","7","7","6","6","6","5","8","6","3","2","4","5","5","6","6","5","3","1","3","3","5","2","4","3","4","5","2","5","3","3","2","1","3","5","2","3","3","6","6","3","7","3","3","3","2","5","3","3","769979838697312258","吴","587","Female","[""坏我"",""坏她"",""好她"",""好我""]","[""弱我"",""弱她"",""强她"",""强我""]","","","","","","","","yes","","","","","","","","","SRET","EW_formal","","key","j","16.66396396396407","640","356","朋友","果决","Positive","ability","","","","","","","","","","",""
"934","","f","psychophysics","19","154225","0.0-7.0-3.0-0.5","5","4","5","2","1","5","3","4","5","5","4","0","-1","1","1","0","0","1","2","4","3","5","4","2","4","5","4","5","4","4","7","7","7","6","6","6","5","8","6","3","2","4","5","5","6","6","5","3","1","3","3","5","2","4","3","4","5","2","5","3","3","2","1","3","5","2","3","3","6","6","3","7","3","3","3","2","5","3","3","769979838697312258","吴","587","Female","[""坏我"",""坏她"",""好她"",""好我""]","[""弱我"",""弱她"",""强她"",""强我""]","","","","","","","","no","","","","","","","","","SRET","EW_formal","","key","f","16.66521739130435","640","356","朋友","奸险","Negative","morality","","","","","","","","","","",""
"882","","j","psychophysics","20","156108","0.0-7.0-3.0-0.6","5","4","5","2","1","5","3","4","5","5","4","0","-1","1","1","0","0","1","2","4","3","5","4","2","4","5","4","5","4","4","7","7","7","6","6","6","5","8","6","3","2","4","5","5","6","6","5","3","1","3","3","5","2","4","3","4","5","2","5","3","3","2","1","3","5","2","3","3","6","6","3","7","3","3","3","2","5","3","3","769979838697312258","吴","587","Female","[""坏我"",""坏她"",""好她"",""好我""]","[""弱我"",""弱她"",""强她"",""强我""]","","","","","","","","yes","","","","","","","","","SRET","EW_formal","","key","j","16.66607142857148","640","356","自己","慷慨","Positive","morality","","","","","","","","","","",""
"1144","","f","psychophysics","21","158255","0.0-7.0-3.0-0.7","5","4","5","2","1","5","3","4","5","5","4","0","-1","1","1","0","0","1","2","4","3","5","4","2","4","5","4","5","4","4","7","7","7","6","6","6","5","8","6","3","2","4","5","5","6","6","5","3","1","3","3","5","2","4","3","4","5","2","5","3","3","2","1","3","5","2","3","3","6","6","3","7","3","3","3","2","5","3","3","769979838697312258","吴","587","Female","[""坏我"",""坏她"",""好她"",""好我""]","[""弱我"",""弱她"",""强她"",""强我""]","","","","","","","","no","","","","","","","","","SRET","EW_formal","","key","f","16.66562500000009","640","356","自己","不孝","Negative","morality","","","","","","","","","","",""
"743","","j","psychophysics","22","160000","0.0-7.0-3.0-0.8","5","4","5","2","1","5","3","4","5","5","4","0","-1","1","1","0","0","1","2","4","3","5","4","2","4","5","4","5","4","4","7","7","7","6","6","6","5","8","6","3","2","4","5","5","6","6","5","3","1","3","3","5","2","4","3","4","5","2","5","3","3","2","1","3","5","2","3","3","6","6","3","7","3","3","3","2","5","3","3","769979838697312258","吴","587","Female","[""坏我"",""坏她"",""好她"",""好我""]","[""弱我"",""弱她"",""强她"",""强我""]","","","","","","","","yes","","","","","","","","","SRET","EW_formal","","key","j","16.666019417475503","640","356","朋友","守时","Positive","morality","","","","","","","","","","",""
"922","","f","psychophysics","23","161924","0.0-7.0-3.0-0.9","5","4","5","2","1","5","3","4","5","5","4","0","-1","1","1","0","0","1","2","4","3","5","4","2","4","5","4","5","4","4","7","7","7","6","6","6","5","8","6","3","2","4","5","5","6","6","5","3","1","3","3","5","2","4","3","4","5","2","5","3","3","2","1","3","5","2","3","3","6","6","3","7","3","3","3","2","5","3","3","769979838697312258","吴","587","Female","[""坏我"",""坏她"",""好她"",""好我""]","[""弱我"",""弱她"",""强她"",""强我""]","","","","","","","","no","","","","","","","","","SRET","EW_formal","","key","f","16.66608695652179","640","356","自己","逞强","Negative","ability","","","","","","","","","","",""
"910","","f","psychophysics","24","163836","0.0-7.0-3.0-0.10","5","4","5","2","1","5","3","4","5","5","4","0","-1","1","1","0","0","1","2","4","3","5","4","2","4","5","4","5","4","4","7","7","7","6","6","6","5","8","6","3","2","4","5","5","6","6","5","3","1","3","3","5","2","4","3","4","5","2","5","3","3","2","1","3","5","2","3","3","6","6","3","7","3","3","3","2","5","3","3","769979838697312258","吴","587","Female","[""坏我"",""坏她"",""好她"",""好我""]","[""弱我"",""弱她"",""强她"",""强我""]","","","","","","","","no","","","","","","","","","SRET","EW_formal","","key","f","16.66140350877188","640","356","朋友","自私","Negative","morality","","","","","","","","","","",""
"1195","","f","psychophysics","25","166034","0.0-7.0-3.0-0.11","5","4","5","2","1","5","3","4","5","5","4","0","-1","1","1","0","0","1","2","4","3","5","4","2","4","5","4","5","4","4","7","7","7","6","6","6","5","8","6","3","2","4","5","5","6","6","5","3","1","3","3","5","2","4","3","4","5","2","5","3","3","2","1","3","5","2","3","3","6","6","3","7","3","3","3","2","5","3","3","769979838697312258","吴","587","Female","[""坏我"",""坏她"",""好她"",""好我""]","[""弱我"",""弱她"",""强她"",""强我""]","","","","","","","","no","","","","","","","","","SRET","EW_formal","","key","f","16.664615384615562","640","356","自己","新手","Negative","ability","","","","","","","","","","",""
"1136","","f","psychophysics","26","168174","0.0-7.0-3.0-0.12","5","4","5","2","1","5","3","4","5","5","4","0","-1","1","1","0","0","1","2","4","3","5","4","2","4","5","4","5","4","4","7","7","7","6","6","6","5","8","6","3","2","4","5","5","6","6","5","3","1","3","3","5","2","4","3","4","5","2","5","3","3","2","1","3","5","2","3","3","6","6","3","7","3","3","3","2","5","3","3","769979838697312258","吴","587","Female","[""坏我"",""坏她"",""好她"",""好我""]","[""弱我"",""弱她"",""强她"",""强我""]","","","","","","","","no","","","","","","","","","SRET","EW_formal","","key","f","16.664843750000045","640","356","自己","庸碌","Negative","ability","","","","","","","","","","",""
"891","","j","psychophysics","27","170068","0.0-7.0-3.0-0.13","5","4","5","2","1","5","3","4","5","5","4","0","-1","1","1","0","0","1","2","4","3","5","4","2","4","5","4","5","4","4","7","7","7","6","6","6","5","8","6","3","2","4","5","5","6","6","5","3","1","3","3","5","2","4","3","4","5","2","5","3","3","2","1","3","5","2","3","3","6","6","3","7","3","3","3","2","5","3","3","769979838697312258","吴","587","Female","[""坏我"",""坏她"",""好她"",""好我""]","[""弱我"",""弱她"",""强她"",""强我""]","","","","","","","","yes","","","","","","","","","SRET","EW_formal","","key","j","16.66548672566382","640","356","朋友","好心","Positive","morality","","","","","","","","","","",""
"859","","j","psychophysics","28","171929","0.0-7.0-3.0-0.14","5","4","5","2","1","5","3","4","5","5","4","0","-1","1","1","0","0","1","2","4","3","5","4","2","4","5","4","5","4","4","7","7","7","6","6","6","5","8","6","3","2","4","5","5","6","6","5","3","1","3","3","5","2","4","3","4","5","2","5","3","3","2","1","3","5","2","3","3","6","6","3","7","3","3","3","2","5","3","3","769979838697312258","吴","587","Female","[""坏我"",""坏她"",""好她"",""好我""]","[""弱我"",""弱她"",""强她"",""强我""]","","","","","","","","yes","","","","","","","","","SRET","EW_formal","","key","j","16.66545454545465","640","356","朋友","依靠","Negative","ability","","","","","","","","","","",""
"864","","j","psychophysics","29","173794","0.0-7.0-3.0-0.15","5","4","5","2","1","5","3","4","5","5","4","0","-1","1","1","0","0","1","2","4","3","5","4","2","4","5","4","5","4","4","7","7","7","6","6","6","5","8","6","3","2","4","5","5","6","6","5","3","1","3","3","5","2","4","3","4","5","2","5","3","3","2","1","3","5","2","3","3","6","6","3","7","3","3","3","2","5","3","3","769979838697312258","吴","587","Female","[""坏我"",""坏她"",""好她"",""好我""]","[""弱我"",""弱她"",""强她"",""强我""]","","","","","","","","yes","","","","","","","","","SRET","EW_formal","","key","j","16.66486486486476","640","356","自己","娴熟","Positive","ability","","","","","","","","","","",""
"1026","","f","psychophysics","30","175822","0.0-7.0-3.0-0.16","5","4","5","2","1","5","3","4","5","5","4","0","-1","1","1","0","0","1","2","4","3","5","4","2","4","5","4","5","4","4","7","7","7","6","6","6","5","8","6","3","2","4","5","5","6","6","5","3","1","3","3","5","2","4","3","4","5","2","5","3","3","2","1","3","5","2","3","3","6","6","3","7","3","3","3","2","5","3","3","769979838697312258","吴","587","Female","[""坏我"",""坏她"",""好她"",""好我""]","[""弱我"",""弱她"",""强她"",""强我""]","","","","","","","","no","","","","","","","","","SRET","EW_formal","","key","f","16.666115702479388","640","356","朋友","粗心","Negative","ability","","","","","","","","","","",""
"679","","f","psychophysics","31","177503","0.0-7.0-3.0-0.17","5","4","5","2","1","5","3","4","5","5","4","0","-1","1","1","0","0","1","2","4","3","5","4","2","4","5","4","5","4","4","7","7","7","6","6","6","5","8","6","3","2","4","5","5","6","6","5","3","1","3","3","5","2","4","3","4","5","2","5","3","3","2","1","3","5","2","3","3","6","6","3","7","3","3","3","2","5","3","3","769979838697312258","吴","587","Female","[""坏我"",""坏她"",""好她"",""好我""]","[""弱我"",""弱她"",""强她"",""强我""]","","","","","","","","no","","","","","","","","","SRET","EW_formal","","key","f","16.667999999999882","640","356","自己","迟钝","Negative","ability","","","","","","","","","","",""
"870","","j","psychophysics","32","179375","0.0-7.0-3.0-0.18","5","4","5","2","1","5","3","4","5","5","4","0","-1","1","1","0","0","1","2","4","3","5","4","2","4","5","4","5","4","4","7","7","7","6","6","6","5","8","6","3","2","4","5","5","6","6","5","3","1","3","3","5","2","4","3","4","5","2","5","3","3","2","1","3","5","2","3","3","6","6","3","7","3","3","3","2","5","3","3","769979838697312258","吴","587","Female","[""坏我"",""坏她"",""好她"",""好我""]","[""弱我"",""弱她"",""强她"",""强我""]","","","","","","","","yes","","","","","","","","","SRET","EW_formal","","key","j","16.66486486486476","640","356","朋友","肯干","Positive","ability","","","","","","","","","","",""
"1431","","f","psychophysics","33","181809","0.0-7.0-3.0-0.19","5","4","5","2","1","5","3","4","5","5","4","0","-1","1","1","0","0","1","2","4","3","5","4","2","4","5","4","5","4","4","7","7","7","6","6","6","5","8","6","3","2","4","5","5","6","6","5","3","1","3","3","5","2","4","3","4","5","2","5","3","3","2","1","3","5","2","3","3","6","6","3","7","3","3","3","2","5","3","3","769979838697312258","吴","587","Female","[""坏我"",""坏她"",""好她"",""好我""]","[""弱我"",""弱她"",""强她"",""强我""]","","","","","","","","no","","","","","","","","","SRET","EW_formal","","key","f","16.664827586206858","640","356","朋友","慈悲","Positive","morality","","","","","","","","","","",""
"889","","j","psychophysics","34","183700","0.0-7.0-3.0-0.20","5","4","5","2","1","5","3","4","5","5","4","0","-1","1","1","0","0","1","2","4","3","5","4","2","4","5","4","5","4","4","7","7","7","6","6","6","5","8","6","3","2","4","5","5","6","6","5","3","1","3","3","5","2","4","3","4","5","2","5","3","3","2","1","3","5","2","3","3","6","6","3","7","3","3","3","2","5","3","3","769979838697312258","吴","587","Female","[""坏我"",""坏她"",""好她"",""好我""]","[""弱我"",""弱她"",""强她"",""强我""]","","","","","","","","yes","","","","","","","","","SRET","EW_formal","","key","j","16.664601769911556","640","356","自己","正气","Positive","morality","","","","","","","","","","",""
"768","","f","psychophysics","35","185471","0.0-7.0-3.0-0.21","5","4","5","2","1","5","3","4","5","5","4","0","-1","1","1","0","0","1","2","4","3","5","4","2","4","5","4","5","4","4","7","7","7","6","6","6","5","8","6","3","2","4","5","5","6","6","5","3","1","3","3","5","2","4","3","4","5","2","5","3","3","2","1","3","5","2","3","3","6","6","3","7","3","3","3","2","5","3","3","769979838697312258","吴","587","Female","[""坏我"",""坏她"",""好她"",""好我""]","[""弱我"",""弱她"",""强她"",""强我""]","","","","","","","","no","","","","","","","","","SRET","EW_formal","","key","f","16.6676190476191","640","356","朋友","蛇蝎","Negative","morality","","","","","","","","","","",""
"843","","j","psychophysics","36","187317","0.0-7.0-3.0-0.22","5","4","5","2","1","5","3","4","5","5","4","0","-1","1","1","0","0","1","2","4","3","5","4","2","4","5","4","5","4","4","7","7","7","6","6","6","5","8","6","3","2","4","5","5","6","6","5","3","1","3","3","5","2","4","3","4","5","2","5","3","3","2","1","3","5","2","3","3","6","6","3","7","3","3","3","2","5","3","3","769979838697312258","吴","587","Female","[""坏我"",""坏她"",""好她"",""好我""]","[""弱我"",""弱她"",""强她"",""强我""]","","","","","","","","yes","","","","","","","","","SRET","EW_formal","","key","j","16.667272727272675","640","356","朋友","博学","Positive","ability","","","","","","","","","","",""
"822","","f","psychophysics","37","189141","0.0-7.0-3.0-0.23","5","4","5","2","1","5","3","4","5","5","4","0","-1","1","1","0","0","1","2","4","3","5","4","2","4","5","4","5","4","4","7","7","7","6","6","6","5","8","6","3","2","4","5","5","6","6","5","3","1","3","3","5","2","4","3","4","5","2","5","3","3","2","1","3","5","2","3","3","6","6","3","7","3","3","3","2","5","3","3","769979838697312258","吴","587","Female","[""坏我"",""坏她"",""好她"",""好我""]","[""弱我"",""弱她"",""强她"",""强我""]","","","","","","","","no","","","","","","","","","SRET","EW_formal","","key","f","16.663888888888728","640","356","自己","犹豫","Negative","ability","","","","","","","","","","",""
"599","","j","psychophysics","38","190743","0.0-7.0-3.0-0.24","5","4","5","2","1","5","3","4","5","5","4","0","-1","1","1","0","0","1","2","4","3","5","4","2","4","5","4","5","4","4","7","7","7","6","6","6","5","8","6","3","2","4","5","5","6","6","5","3","1","3","3","5","2","4","3","4","5","2","5","3","3","2","1","3","5","2","3","3","6","6","3","7","3","3","3","2","5","3","3","769979838697312258","吴","587","Female","[""坏我"",""坏她"",""好她"",""好我""]","[""弱我"",""弱她"",""强她"",""强我""]","","","","","","","","yes","","","","","","","","","SRET","EW_formal","","key","j","16.665263157894554","640","356","自己","上进","Positive","ability","","","","","","","","","","",""
"682","","f","psychophysics","39","192427","0.0-7.0-3.0-0.25","5","4","5","2","1","5","3","4","5","5","4","0","-1","1","1","0","0","1","2","4","3","5","4","2","4","5","4","5","4","4","7","7","7","6","6","6","5","8","6","3","2","4","5","5","6","6","5","3","1","3","3","5","2","4","3","4","5","2","5","3","3","2","1","3","5","2","3","3","6","6","3","7","3","3","3","2","5","3","3","769979838697312258","吴","587","Female","[""坏我"",""坏她"",""好她"",""好我""]","[""弱我"",""弱她"",""强她"",""强我""]","","","","","","","","no","","","","","","","","","SRET","EW_formal","","key","f","16.666999999999824","640","356","朋友","笨蛋","Negative","ability","","","","","","","","","","",""
"775","","f","psychophysics","40","194204","0.0-7.0-3.0-0.26","5","4","5","2","1","5","3","4","5","5","4","0","-1","1","1","0","0","1","2","4","3","5","4","2","4","5","4","5","4","4","7","7","7","6","6","6","5","8","6","3","2","4","5","5","6","6","5","3","1","3","3","5","2","4","3","4","5","2","5","3","3","2","1","3","5","2","3","3","6","6","3","7","3","3","3","2","5","3","3","769979838697312258","吴","587","Female","[""坏我"",""坏她"",""好她"",""好我""]","[""弱我"",""弱她"",""强她"",""强我""]","","","","","","","","no","","","","","","","","","SRET","EW_formal","","key","f","16.66509433962264","640","356","朋友","虚伪","Negative","morality","","","","","","","","","","",""
"859","","j","psychophysics","41","196065","0.0-7.0-3.0-0.27","5","4","5","2","1","5","3","4","5","5","4","0","-1","1","1","0","0","1","2","4","3","5","4","2","4","5","4","5","4","4","7","7","7","6","6","6","5","8","6","3","2","4","5","5","6","6","5","3","1","3","3","5","2","4","3","4","5","2","5","3","3","2","1","3","5","2","3","3","6","6","3","7","3","3","3","2","5","3","3","769979838697312258","吴","587","Female","[""坏我"",""坏她"",""好她"",""好我""]","[""弱我"",""弱她"",""强她"",""强我""]","","","","","","","","yes","","","","","","","","","SRET","EW_formal","","key","j","16.665765765765713","640","356","自己","思辨","Positive","ability","","","","","","","","","","",""
"727","","f","psychophysics","42","197794","0.0-7.0-3.0-0.28","5","4","5","2","1","5","3","4","5","5","4","0","-1","1","1","0","0","1","2","4","3","5","4","2","4","5","4","5","4","4","7","7","7","6","6","6","5","8","6","3","2","4","5","5","6","6","5","3","1","3","3","5","2","4","3","4","5","2","5","3","3","2","1","3","5","2","3","3","6","6","3","7","3","3","3","2","5","3","3","769979838697312258","吴","587","Female","[""坏我"",""坏她"",""好她"",""好我""]","[""弱我"",""弱她"",""强她"",""强我""]","","","","","","","","no","","","","","","","","","SRET","EW_formal","","key","f","16.665686274509746","640","356","自己","歹毒","Negative","morality","","","","","","","","","","",""
"619","","j","psychophysics","43","199415","0.0-7.0-3.0-0.29","5","4","5","2","1","5","3","4","5","5","4","0","-1","1","1","0","0","1","2","4","3","5","4","2","4","5","4","5","4","4","7","7","7","6","6","6","5","8","6","3","2","4","5","5","6","6","5","3","1","3","3","5","2","4","3","4","5","2","5","3","3","2","1","3","5","2","3","3","6","6","3","7","3","3","3","2","5","3","3","769979838697312258","吴","587","Female","[""坏我"",""坏她"",""好她"",""好我""]","[""弱我"",""弱她"",""强她"",""强我""]","","","","","","","","yes","","","","","","","","","SRET","EW_formal","","key","j","16.663917525773137","640","356","朋友","仁爱","Positive","morality","","","","","","","","","","",""
"700","","f","psychophysics","44","201117","0.0-7.0-3.0-0.30","5","4","5","2","1","5","3","4","5","5","4","0","-1","1","1","0","0","1","2","4","3","5","4","2","4","5","4","5","4","4","7","7","7","6","6","6","5","8","6","3","2","4","5","5","6","6","5","3","1","3","3","5","2","4","3","4","5","2","5","3","3","2","1","3","5","2","3","3","6","6","3","7","3","3","3","2","5","3","3","769979838697312258","吴","587","Female","[""坏我"",""坏她"",""好她"",""好我""]","[""弱我"",""弱她"",""强她"",""强我""]","","","","","","","","no","","","","","","","","","SRET","EW_formal","","key","f","16.66633663366354","640","356","自己","外行","Negative","ability","","","","","","","","","","",""
"700","","f","psychophysics","45","202818","0.0-7.0-3.0-0.31","5","4","5","2","1","5","3","4","5","5","4","0","-1","1","1","0","0","1","2","4","3","5","4","2","4","5","4","5","4","4","7","7","7","6","6","6","5","8","6","3","2","4","5","5","6","6","5","3","1","3","3","5","2","4","3","4","5","2","5","3","3","2","1","3","5","2","3","3","6","6","3","7","3","3","3","2","5","3","3","769979838697312258","吴","587","Female","[""坏我"",""坏她"",""好她"",""好我""]","[""弱我"",""弱她"",""强她"",""强我""]","","","","","","","","no","","","","","","","","","SRET","EW_formal","","key","f","16.66633663366354","640","356","自己","无为","Negative","ability","","","","","","","","","","",""
"831","","f","psychophysics","46","204651","0.0-7.0-3.0-0.32","5","4","5","2","1","5","3","4","5","5","4","0","-1","1","1","0","0","1","2","4","3","5","4","2","4","5","4","5","4","4","7","7","7","6","6","6","5","8","6","3","2","4","5","5","6","6","5","3","1","3","3","5","2","4","3","4","5","2","5","3","3","2","1","3","5","2","3","3","6","6","3","7","3","3","3","2","5","3","3","769979838697312258","吴","587","Female","[""坏我"",""坏她"",""好她"",""好我""]","[""弱我"",""弱她"",""强她"",""强我""]","","","","","","","","no","","","","","","","","","SRET","EW_formal","","key","f","16.665137614678898","640","356","自己","无知","Negative","ability","","","","","","","","","","",""
"691","","j","psychophysics","47","206344","0.0-7.0-3.0-0.33","5","4","5","2","1","5","3","4","5","5","4","0","-1","1","1","0","0","1","2","4","3","5","4","2","4","5","4","5","4","4","7","7","7","6","6","6","5","8","6","3","2","4","5","5","6","6","5","3","1","3","3","5","2","4","3","4","5","2","5","3","3","2","1","3","5","2","3","3","6","6","3","7","3","3","3","2","5","3","3","769979838697312258","吴","587","Female","[""坏我"",""坏她"",""好她"",""好我""]","[""弱我"",""弱她"",""强她"",""强我""]","","","","","","","","yes","","","","","","","","","SRET","EW_formal","","key","j","16.664000000000232","640","356","朋友","聪明","Positive","ability","","","","","","","","","","",""
"649","","j","psychophysics","48","207996","0.0-7.0-3.0-0.34","5","4","5","2","1","5","3","4","5","5","4","0","-1","1","1","0","0","1","2","4","3","5","4","2","4","5","4","5","4","4","7","7","7","6","6","6","5","8","6","3","2","4","5","5","6","6","5","3","1","3","3","5","2","4","3","4","5","2","5","3","3","2","1","3","5","2","3","3","6","6","3","7","3","3","3","2","5","3","3","769979838697312258","吴","587","Female","[""坏我"",""坏她"",""好她"",""好我""]","[""弱我"",""弱她"",""强她"",""强我""]","","","","","","","","yes","","","","","","","","","SRET","EW_formal","","key","j","16.66565656565651","640","356","自己","宽容","Positive","morality","","","","","","","","","","",""
"645","","j","psychophysics","49","209643","0.0-7.0-3.0-0.35","5","4","5","2","1","5","3","4","5","5","4","0","-1","1","1","0","0","1","2","4","3","5","4","2","4","5","4","5","4","4","7","7","7","6","6","6","5","8","6","3","2","4","5","5","6","6","5","3","1","3","3","5","2","4","3","4","5","2","5","3","3","2","1","3","5","2","3","3","6","6","3","7","3","3","3","2","5","3","3","769979838697312258","吴","587","Female","[""坏我"",""坏她"",""好她"",""好我""]","[""弱我"",""弱她"",""强她"",""强我""]","","","","","","","","yes","","","","","","","","","SRET","EW_formal","","key","j","16.664948453608247","640","356","自己","敏捷","Positive","ability","","","","","","","","","","",""
"652","","j","psychophysics","50","211297","0.0-7.0-3.0-0.36","5","4","5","2","1","5","3","4","5","5","4","0","-1","1","1","0","0","1","2","4","3","5","4","2","4","5","4","5","4","4","7","7","7","6","6","6","5","8","6","3","2","4","5","5","6","6","5","3","1","3","3","5","2","4","3","4","5","2","5","3","3","2","1","3","5","2","3","3","6","6","3","7","3","3","3","2","5","3","3","769979838697312258","吴","587","Female","[""坏我"",""坏她"",""好她"",""好我""]","[""弱我"",""弱她"",""强她"",""强我""]","","","","","","","","yes","","","","","","","","","SRET","EW_formal","","key","j","16.6656565656568","640","356","自己","自律","Positive","ability","","","","","","","","","","",""
"641","","j","psychophysics","51","212941","0.0-7.0-3.0-0.37","5","4","5","2","1","5","3","4","5","5","4","0","-1","1","1","0","0","1","2","4","3","5","4","2","4","5","4","5","4","4","7","7","7","6","6","6","5","8","6","3","2","4","5","5","6","6","5","3","1","3","3","5","2","4","3","4","5","2","5","3","3","2","1","3","5","2","3","3","6","6","3","7","3","3","3","2","5","3","3","769979838697312258","吴","587","Female","[""坏我"",""坏她"",""好她"",""好我""]","[""弱我"",""弱她"",""强她"",""强我""]","","","","","","","","yes","","","","","","","","","SRET","EW_formal","","key","j","16.663917525773137","640","356","自己","果断","Positive","ability","","","","","","","","","","",""
"690","","j","psychophysics","52","214633","0.0-7.0-3.0-0.38","5","4","5","2","1","5","3","4","5","5","4","0","-1","1","1","0","0","1","2","4","3","5","4","2","4","5","4","5","4","4","7","7","7","6","6","6","5","8","6","3","2","4","5","5","6","6","5","3","1","3","3","5","2","4","3","4","5","2","5","3","3","2","1","3","5","2","3","3","6","6","3","7","3","3","3","2","5","3","3","769979838697312258","吴","587","Female","[""坏我"",""坏她"",""好她"",""好我""]","[""弱我"",""弱她"",""强她"",""强我""]","","","","","","","","yes","","","","","","","","","SRET","EW_formal","","key","j","16.664356435643622","640","356","朋友","智慧","Positive","ability","","","","","","","","","","",""
"790","","j","psychophysics","53","216425","0.0-7.0-3.0-0.39","5","4","5","2","1","5","3","4","5","5","4","0","-1","1","1","0","0","1","2","4","3","5","4","2","4","5","4","5","4","4","7","7","7","6","6","6","5","8","6","3","2","4","5","5","6","6","5","3","1","3","3","5","2","4","3","4","5","2","5","3","3","2","1","3","5","2","3","3","6","6","3","7","3","3","3","2","5","3","3","769979838697312258","吴","587","Female","[""坏我"",""坏她"",""好她"",""好我""]","[""弱我"",""弱她"",""强她"",""强我""]","","","","","","","","yes","","","","","","","","","SRET","EW_formal","","key","j","16.666037735848835","640","356","自己","利落","Positive","ability","","","","","","","","","","",""
"615","","j","psychophysics","54","218041","0.0-7.0-3.0-0.40","5","4","5","2","1","5","3","4","5","5","4","0","-1","1","1","0","0","1","2","4","3","5","4","2","4","5","4","5","4","4","7","7","7","6","6","6","5","8","6","3","2","4","5","5","6","6","5","3","1","3","3","5","2","4","3","4","5","2","5","3","3","2","1","3","5","2","3","3","6","6","3","7","3","3","3","2","5","3","3","769979838697312258","吴","587","Female","[""坏我"",""坏她"",""好她"",""好我""]","[""弱我"",""弱她"",""强她"",""强我""]","","","","","","","","yes","","","","","","","","","SRET","EW_formal","","key","j","16.666666666666668","640","356","自己","文明","Positive","morality","","","","","","","","","","",""
"619","","j","psychophysics","55","219661","0.0-7.0-3.0-0.41","5","4","5","2","1","5","3","4","5","5","4","0","-1","1","1","0","0","1","2","4","3","5","4","2","4","5","4","5","4","4","7","7","7","6","6","6","5","8","6","3","2","4","5","5","6","6","5","3","1","3","3","5","2","4","3","4","5","2","5","3","3","2","1","3","5","2","3","3","6","6","3","7","3","3","3","2","5","3","3","769979838697312258","吴","587","Female","[""坏我"",""坏她"",""好她"",""好我""]","[""弱我"",""弱她"",""强她"",""强我""]","","","","","","","","yes","","","","","","","","","SRET","EW_formal","","key","j","16.66701030927817","640","356","自己","礼貌","Positive","morality","","","","","","","","","","",""
"1141","","f","psychophysics","56","221805","0.0-7.0-3.0-0.42","5","4","5","2","1","5","3","4","5","5","4","0","-1","1","1","0","0","1","2","4","3","5","4","2","4","5","4","5","4","4","7","7","7","6","6","6","5","8","6","3","2","4","5","5","6","6","5","3","1","3","3","5","2","4","3","4","5","2","5","3","3","2","1","3","5","2","3","3","6","6","3","7","3","3","3","2","5","3","3","769979838697312258","吴","587","Female","[""坏我"",""坏她"",""好她"",""好我""]","[""弱我"",""弱她"",""强她"",""强我""]","","","","","","","","no","","","","","","","","","SRET","EW_formal","","key","f","16.665354330708663","640","356","朋友","差生","Negative","ability","","","","","","","","","","",""
"1515","","j","psychophysics","57","224322","0.0-7.0-3.0-0.43","5","4","5","2","1","5","3","4","5","5","4","0","-1","1","1","0","0","1","2","4","3","5","4","2","4","5","4","5","4","4","7","7","7","6","6","6","5","8","6","3","2","4","5","5","6","6","5","3","1","3","3","5","2","4","3","4","5","2","5","3","3","2","1","3","5","2","3","3","6","6","3","7","3","3","3","2","5","3","3","769979838697312258","吴","587","Female","[""坏我"",""坏她"",""好她"",""好我""]","[""弱我"",""弱她"",""强她"",""强我""]","","","","","","","","yes","","","","","","","","","SRET","EW_formal","","key","j","16.66599999999996","640","356","朋友","稳健","Positive","ability","","","","","","","","","","",""
"941","","f","psychophysics","58","226265","0.0-7.0-3.0-0.44","5","4","5","2","1","5","3","4","5","5","4","0","-1","1","1","0","0","1","2","4","3","5","4","2","4","5","4","5","4","4","7","7","7","6","6","6","5","8","6","3","2","4","5","5","6","6","5","3","1","3","3","5","2","4","3","4","5","2","5","3","3","2","1","3","5","2","3","3","6","6","3","7","3","3","3","2","5","3","3","769979838697312258","吴","587","Female","[""坏我"",""坏她"",""好她"",""好我""]","[""弱我"",""弱她"",""强她"",""强我""]","","","","","","","","no","","","","","","","","","SRET","EW_formal","","key","f","16.66551724137916","640","356","自己","刻薄","Negative","morality","","","","","","","","","","",""
"727","","f","psychophysics","59","227994","0.0-7.0-3.0-0.45","5","4","5","2","1","5","3","4","5","5","4","0","-1","1","1","0","0","1","2","4","3","5","4","2","4","5","4","5","4","4","7","7","7","6","6","6","5","8","6","3","2","4","5","5","6","6","5","3","1","3","3","5","2","4","3","4","5","2","5","3","3","2","1","3","5","2","3","3","6","6","3","7","3","3","3","2","5","3","3","769979838697312258","吴","587","Female","[""坏我"",""坏她"",""好她"",""好我""]","[""弱我"",""弱她"",""强她"",""强我""]","","","","","","","","no","","","","","","","","","SRET","EW_formal","","key","f","16.66504854368932","640","356","朋友","无耻","Negative","morality","","","","","","","","","","",""
"633","","f","psychophysics","60","229631","0.0-7.0-3.0-0.46","5","4","5","2","1","5","3","4","5","5","4","0","-1","1","1","0","0","1","2","4","3","5","4","2","4","5","4","5","4","4","7","7","7","6","6","6","5","8","6","3","2","4","5","5","6","6","5","3","1","3","3","5","2","4","3","4","5","2","5","3","3","2","1","3","5","2","3","3","6","6","3","7","3","3","3","2","5","3","3","769979838697312258","吴","587","Female","[""坏我"",""坏她"",""好她"",""好我""]","[""弱我"",""弱她"",""强她"",""强我""]","","","","","","","","no","","","","","","","","","SRET","EW_formal","","key","f","16.664948453608247","640","356","自己","淫乱","Negative","morality","","","","","","","","","","",""
"882","","j","psychophysics","61","231514","0.0-7.0-3.0-0.47","5","4","5","2","1","5","3","4","5","5","4","0","-1","1","1","0","0","1","2","4","3","5","4","2","4","5","4","5","4","4","7","7","7","6","6","6","5","8","6","3","2","4","5","5","6","6","5","3","1","3","3","5","2","4","3","4","5","2","5","3","3","2","1","3","5","2","3","3","6","6","3","7","3","3","3","2","5","3","3","769979838697312258","吴","587","Female","[""坏我"",""坏她"",""好她"",""好我""]","[""弱我"",""弱她"",""强她"",""强我""]","","","","","","","","yes","","","","","","","","","SRET","EW_formal","","key","j","16.66607142857122","640","356","朋友","厚道","Positive","morality","","","","","","","","","","",""
"595","","j","psychophysics","62","233112","0.0-7.0-3.0-0.48","5","4","5","2","1","5","3","4","5","5","4","0","-1","1","1","0","0","1","2","4","3","5","4","2","4","5","4","5","4","4","7","7","7","6","6","6","5","8","6","3","2","4","5","5","6","6","5","3","1","3","3","5","2","4","3","4","5","2","5","3","3","2","1","3","5","2","3","3","6","6","3","7","3","3","3","2","5","3","3","769979838697312258","吴","587","Female","[""坏我"",""坏她"",""好她"",""好我""]","[""弱我"",""弱她"",""强她"",""强我""]","","","","","","","","yes","","","","","","","","","SRET","EW_formal","","key","j","16.666315789473867","640","356","朋友","守信","Positive","morality","","","","","","","","","","",""
"836","","f","psychophysics","63","234949","0.0-7.0-3.0-0.49","5","4","5","2","1","5","3","4","5","5","4","0","-1","1","1","0","0","1","2","4","3","5","4","2","4","5","4","5","4","4","7","7","7","6","6","6","5","8","6","3","2","4","5","5","6","6","5","3","1","3","3","5","2","4","3","4","5","2","5","3","3","2","1","3","5","2","3","3","6","6","3","7","3","3","3","2","5","3","3","769979838697312258","吴","587","Female","[""坏我"",""坏她"",""好她"",""好我""]","[""弱我"",""弱她"",""强她"",""强我""]","","","","","","","","no","","","","","","","","","SRET","EW_formal","","key","f","16.666055045871612","640","356","朋友","屈才","Negative","ability","","","","","","","","","","",""
"992","","f","psychophysics","64","236943","0.0-7.0-3.0-0.50","5","4","5","2","1","5","3","4","5","5","4","0","-1","1","1","0","0","1","2","4","3","5","4","2","4","5","4","5","4","4","7","7","7","6","6","6","5","8","6","3","2","4","5","5","6","6","5","3","1","3","3","5","2","4","3","4","5","2","5","3","3","2","1","3","5","2","3","3","6","6","3","7","3","3","3","2","5","3","3","769979838697312258","吴","587","Female","[""坏我"",""坏她"",""好她"",""好我""]","[""弱我"",""弱她"",""强她"",""强我""]","","","","","","","","no","","","","","","","","","SRET","EW_formal","","key","f","16.666386554621752","640","356","朋友","拖拉","Negative","ability","","","","","","","","","","",""
"621","","f","psychophysics","65","238567","0.0-7.0-3.0-0.51","5","4","5","2","1","5","3","4","5","5","4","0","-1","1","1","0","0","1","2","4","3","5","4","2","4","5","4","5","4","4","7","7","7","6","6","6","5","8","6","3","2","4","5","5","6","6","5","3","1","3","3","5","2","4","3","4","5","2","5","3","3","2","1","3","5","2","3","3","6","6","3","7","3","3","3","2","5","3","3","769979838697312258","吴","587","Female","[""坏我"",""坏她"",""好她"",""好我""]","[""弱我"",""弱她"",""强她"",""强我""]","","","","","","","","no","","","","","","","","","SRET","EW_formal","","key","f","16.664583333333514","640","356","自己","拙笨","Negative","ability","","","","","","","","","","",""
"584","","f","psychophysics","66","240152","0.0-7.0-3.0-0.52","5","4","5","2","1","5","3","4","5","5","4","0","-1","1","1","0","0","1","2","4","3","5","4","2","4","5","4","5","4","4","7","7","7","6","6","6","5","8","6","3","2","4","5","5","6","6","5","3","1","3","3","5","2","4","3","4","5","2","5","3","3","2","1","3","5","2","3","3","6","6","3","7","3","3","3","2","5","3","3","769979838697312258","吴","587","Female","[""坏我"",""坏她"",""好她"",""好我""]","[""弱我"",""弱她"",""强她"",""强我""]","","","","","","","","no","","","","","","","","","SRET","EW_formal","","key","f","16.662765957446684","640","356","朋友","无私","Positive","morality","","","","","","","","","","",""
"1051","","f","psychophysics","67","242206","0.0-7.0-3.0-0.53","5","4","5","2","1","5","3","4","5","5","4","0","-1","1","1","0","0","1","2","4","3","5","4","2","4","5","4","5","4","4","7","7","7","6","6","6","5","8","6","3","2","4","5","5","6","6","5","3","1","3","3","5","2","4","3","4","5","2","5","3","3","2","1","3","5","2","3","3","6","6","3","7","3","3","3","2","5","3","3","769979838697312258","吴","587","Female","[""坏我"",""坏她"",""好她"",""好我""]","[""弱我"",""弱她"",""强她"",""强我""]","","","","","","","","no","","","","","","","","","SRET","EW_formal","","key","f","16.66393442622951","640","356","自己","偏私","Negative","morality","","","","","","","","","","",""
"624","","j","psychophysics","68","243833","0.0-7.0-3.0-0.54","5","4","5","2","1","5","3","4","5","5","4","0","-1","1","1","0","0","1","2","4","3","5","4","2","4","5","4","5","4","4","7","7","7","6","6","6","5","8","6","3","2","4","5","5","6","6","5","3","1","3","3","5","2","4","3","4","5","2","5","3","3","2","1","3","5","2","3","3","6","6","3","7","3","3","3","2","5","3","3","769979838697312258","吴","587","Female","[""坏我"",""坏她"",""好她"",""好我""]","[""弱我"",""弱她"",""强她"",""强我""]","","","","","","","","yes","","","","","","","","","SRET","EW_formal","","key","j","16.66701030927817","640","356","朋友","坚持","Positive","ability","","","","","","","","","","",""
"661","","j","psychophysics","69","245495","0.0-7.0-3.0-0.55","5","4","5","2","1","5","3","4","5","5","4","0","-1","1","1","0","0","1","2","4","3","5","4","2","4","5","4","5","4","4","7","7","7","6","6","6","5","8","6","3","2","4","5","5","6","6","5","3","1","3","3","5","2","4","3","4","5","2","5","3","3","2","1","3","5","2","3","3","6","6","3","7","3","3","3","2","5","3","3","769979838697312258","吴","587","Female","[""坏我"",""坏她"",""好她"",""好我""]","[""弱我"",""弱她"",""强她"",""强我""]","","","","","","","","yes","","","","","","","","","SRET","EW_formal","","key","j","16.66565656565651","640","356","自己","义气","Positive","morality","","","","","","","","","","",""
"832","","j","psychophysics","70","247329","0.0-7.0-3.0-0.56","5","4","5","2","1","5","3","4","5","5","4","0","-1","1","1","0","0","1","2","4","3","5","4","2","4","5","4","5","4","4","7","7","7","6","6","6","5","8","6","3","2","4","5","5","6","6","5","3","1","3","3","5","2","4","3","4","5","2","5","3","3","2","1","3","5","2","3","3","6","6","3","7","3","3","3","2","5","3","3","769979838697312258","吴","587","Female","[""坏我"",""坏她"",""好她"",""好我""]","[""弱我"",""弱她"",""强她"",""强我""]","","","","","","","","yes","","","","","","","","","SRET","EW_formal","","key","j","16.665137614678898","640","356","自己","坦荡","Positive","morality","","","","","","","","","","",""
"787","","j","psychophysics","71","249118","0.0-7.0-3.0-0.57","5","4","5","2","1","5","3","4","5","5","4","0","-1","1","1","0","0","1","2","4","3","5","4","2","4","5","4","5","4","4","7","7","7","6","6","6","5","8","6","3","2","4","5","5","6","6","5","3","1","3","3","5","2","4","3","4","5","2","5","3","3","2","1","3","5","2","3","3","6","6","3","7","3","3","3","2","5","3","3","769979838697312258","吴","587","Female","[""坏我"",""坏她"",""好她"",""好我""]","[""弱我"",""弱她"",""强她"",""强我""]","","","","","","","","yes","","","","","","","","","SRET","EW_formal","","key","j","16.664150943396173","640","356","自己","扎实","Positive","ability","","","","","","","","","","",""
"841","","f","psychophysics","72","250960","0.0-7.0-3.0-0.58","5","4","5","2","1","5","3","4","5","5","4","0","-1","1","1","0","0","1","2","4","3","5","4","2","4","5","4","5","4","4","7","7","7","6","6","6","5","8","6","3","2","4","5","5","6","6","5","3","1","3","3","5","2","4","3","4","5","2","5","3","3","2","1","3","5","2","3","3","6","6","3","7","3","3","3","2","5","3","3","769979838697312258","吴","587","Female","[""坏我"",""坏她"",""好她"",""好我""]","[""弱我"",""弱她"",""强她"",""强我""]","","","","","","","","no","","","","","","","","","SRET","EW_formal","","key","f","16.66545454545465","640","356","朋友","不良","Negative","morality","","","","","","","","","","",""
"920","","j","psychophysics","73","252883","0.0-7.0-3.0-0.59","5","4","5","2","1","5","3","4","5","5","4","0","-1","1","1","0","0","1","2","4","3","5","4","2","4","5","4","5","4","4","7","7","7","6","6","6","5","8","6","3","2","4","5","5","6","6","5","3","1","3","3","5","2","4","3","4","5","2","5","3","3","2","1","3","5","2","3","3","6","6","3","7","3","3","3","2","5","3","3","769979838697312258","吴","587","Female","[""坏我"",""坏她"",""好她"",""好我""]","[""弱我"",""弱她"",""强她"",""强我""]","","","","","","","","yes","","","","","","","","","SRET","EW_formal","","key","j","16.665789473684416","640","356","自己","干练","Positive","ability","","","","","","","","","","",""
"620","","j","psychophysics","74","254505","0.0-7.0-3.0-0.60","5","4","5","2","1","5","3","4","5","5","4","0","-1","1","1","0","0","1","2","4","3","5","4","2","4","5","4","5","4","4","7","7","7","6","6","6","5","8","6","3","2","4","5","5","6","6","5","3","1","3","3","5","2","4","3","4","5","2","5","3","3","2","1","3","5","2","3","3","6","6","3","7","3","3","3","2","5","3","3","769979838697312258","吴","587","Female","[""坏我"",""坏她"",""好她"",""好我""]","[""弱我"",""弱她"",""强她"",""强我""]","","","","","","","","yes","","","","","","","","","SRET","EW_formal","","key","j","16.664583333333212","640","356","朋友","守法","Positive","morality","","","","","","","","","","",""
"606","","f","psychophysics","75","256114","0.0-7.0-3.0-0.61","5","4","5","2","1","5","3","4","5","5","4","0","-1","1","1","0","0","1","2","4","3","5","4","2","4","5","4","5","4","4","7","7","7","6","6","6","5","8","6","3","2","4","5","5","6","6","5","3","1","3","3","5","2","4","3","4","5","2","5","3","3","2","1","3","5","2","3","3","6","6","3","7","3","3","3","2","5","3","3","769979838697312258","吴","587","Female","[""坏我"",""坏她"",""好她"",""好我""]","[""弱我"",""弱她"",""强她"",""强我""]","","","","","","","","no","","","","","","","","","SRET","EW_formal","","key","f","16.664583333333212","640","356","朋友","恶劣","Negative","morality","","","","","","","","","","",""
"1223","","f","psychophysics","76","258340","0.0-7.0-3.0-0.62","5","4","5","2","1","5","3","4","5","5","4","0","-1","1","1","0","0","1","2","4","3","5","4","2","4","5","4","5","4","4","7","7","7","6","6","6","5","8","6","3","2","4","5","5","6","6","5","3","1","3","3","5","2","4","3","4","5","2","5","3","3","2","1","3","5","2","3","3","6","6","3","7","3","3","3","2","5","3","3","769979838697312258","吴","587","Female","[""坏我"",""坏她"",""好她"",""好我""]","[""弱我"",""弱她"",""强她"",""强我""]","","","","","","","","no","","","","","","","","","SRET","EW_formal","","key","f","16.663909774436004","640","356","朋友","缺德","Negative","morality","","","","","","","","","","",""
"651","","j","psychophysics","77","259993","0.0-7.0-3.0-0.63","5","4","5","2","1","5","3","4","5","5","4","0","-1","1","1","0","0","1","2","4","3","5","4","2","4","5","4","5","4","4","7","7","7","6","6","6","5","8","6","3","2","4","5","5","6","6","5","3","1","3","3","5","2","4","3","4","5","2","5","3","3","2","1","3","5","2","3","3","6","6","3","7","3","3","3","2","5","3","3","769979838697312258","吴","587","Female","[""坏我"",""坏她"",""好她"",""好我""]","[""弱我"",""弱她"",""强她"",""强我""]","","","","","","","","yes","","","","","","","","","SRET","EW_formal","","key","j","16.6653061224488","640","356","朋友","高洁","Positive","morality","","","","","","","","","","",""
"633","","f","psychophysics","78","261628","0.0-7.0-3.0-0.64","5","4","5","2","1","5","3","4","5","5","4","0","-1","1","1","0","0","1","2","4","3","5","4","2","4","5","4","5","4","4","7","7","7","6","6","6","5","8","6","3","2","4","5","5","6","6","5","3","1","3","3","5","2","4","3","4","5","2","5","3","3","2","1","3","5","2","3","3","6","6","3","7","3","3","3","2","5","3","3","769979838697312258","吴","587","Female","[""坏我"",""坏她"",""好她"",""好我""]","[""弱我"",""弱她"",""强她"",""强我""]","","","","","","","","no","","","","","","","","","SRET","EW_formal","","key","f","16.66701030927847","640","356","自己","贪污","Negative","morality","","","","","","","","","","",""
"648","","j","psychophysics","79","263278","0.0-7.0-3.0-0.65","5","4","5","2","1","5","3","4","5","5","4","0","-1","1","1","0","0","1","2","4","3","5","4","2","4","5","4","5","4","4","7","7","7","6","6","6","5","8","6","3","2","4","5","5","6","6","5","3","1","3","3","5","2","4","3","4","5","2","5","3","3","2","1","3","5","2","3","3","6","6","3","7","3","3","3","2","5","3","3","769979838697312258","吴","587","Female","[""坏我"",""坏她"",""好她"",""好我""]","[""弱我"",""弱她"",""强她"",""强我""]","","","","","","","","yes","","","","","","","","","SRET","EW_formal","","key","j","16.66632653061272","640","356","朋友","独立","Positive","ability","","","","","","","","","","",""
"658","","f","psychophysics","80","264939","0.0-7.0-3.0-0.66","5","4","5","2","1","5","3","4","5","5","4","0","-1","1","1","0","0","1","2","4","3","5","4","2","4","5","4","5","4","4","7","7","7","6","6","6","5","8","6","3","2","4","5","5","6","6","5","3","1","3","3","5","2","4","3","4","5","2","5","3","3","2","1","3","5","2","3","3","6","6","3","7","3","3","3","2","5","3","3","769979838697312258","吴","587","Female","[""坏我"",""坏她"",""好她"",""好我""]","[""弱我"",""弱她"",""强她"",""强我""]","","","","","","","","no","","","","","","","","","SRET","EW_formal","","key","f","16.6656565656568","640","356","自己","龌龊","Negative","morality","","","","","","","","","","",""
"860","","j","psychophysics","81","266800","0.0-7.0-3.0-0.67","5","4","5","2","1","5","3","4","5","5","4","0","-1","1","1","0","0","1","2","4","3","5","4","2","4","5","4","5","4","4","7","7","7","6","6","6","5","8","6","3","2","4","5","5","6","6","5","3","1","3","3","5","2","4","3","4","5","2","5","3","3","2","1","3","5","2","3","3","6","6","3","7","3","3","3","2","5","3","3","769979838697312258","吴","587","Female","[""坏我"",""坏她"",""好她"",""好我""]","[""弱我"",""弱她"",""强她"",""强我""]","","","","","","","","yes","","","","","","","","","SRET","EW_formal","","key","j","16.663636363636364","640","356","朋友","精干","Positive","ability","","","","","","","","","","",""
"1016","","f","psychophysics","82","268817","0.0-7.0-3.0-0.68","5","4","5","2","1","5","3","4","5","5","4","0","-1","1","1","0","0","1","2","4","3","5","4","2","4","5","4","5","4","4","7","7","7","6","6","6","5","8","6","3","2","4","5","5","6","6","5","3","1","3","3","5","2","4","3","4","5","2","5","3","3","2","1","3","5","2","3","3","6","6","3","7","3","3","3","2","5","3","3","769979838697312258","吴","587","Female","[""坏我"",""坏她"",""好她"",""好我""]","[""弱我"",""弱她"",""强她"",""强我""]","","","","","","","","no","","","","","","","","","SRET","EW_formal","","key","f","16.664166666666762","640","356","朋友","远见","Positive","ability","","","","","","","","","","",""
"783","","f","psychophysics","83","270602","0.0-7.0-3.0-0.69","5","4","5","2","1","5","3","4","5","5","4","0","-1","1","1","0","0","1","2","4","3","5","4","2","4","5","4","5","4","4","7","7","7","6","6","6","5","8","6","3","2","4","5","5","6","6","5","3","1","3","3","5","2","4","3","4","5","2","5","3","3","2","1","3","5","2","3","3","6","6","3","7","3","3","3","2","5","3","3","769979838697312258","吴","587","Female","[""坏我"",""坏她"",""好她"",""好我""]","[""弱我"",""弱她"",""强她"",""强我""]","","","","","","","","no","","","","","","","","","SRET","EW_formal","","key","f","16.664150943396447","640","356","朋友","短视","Negative","ability","","","","","","","","","","",""
"651","","f","psychophysics","84","272257","0.0-7.0-3.0-0.70","5","4","5","2","1","5","3","4","5","5","4","0","-1","1","1","0","0","1","2","4","3","5","4","2","4","5","4","5","4","4","7","7","7","6","6","6","5","8","6","3","2","4","5","5","6","6","5","3","1","3","3","5","2","4","3","4","5","2","5","3","3","2","1","3","5","2","3","3","6","6","3","7","3","3","3","2","5","3","3","769979838697312258","吴","587","Female","[""坏我"",""坏她"",""好她"",""好我""]","[""弱我"",""弱她"",""强她"",""强我""]","","","","","","","","no","","","","","","","","","SRET","EW_formal","","key","f","16.667676767676532","640","356","朋友","奸诈","Negative","morality","","","","","","","","","","",""
"812","","j","psychophysics","85","274071","0.0-7.0-3.0-0.71","5","4","5","2","1","5","3","4","5","5","4","0","-1","1","1","0","0","1","2","4","3","5","4","2","4","5","4","5","4","4","7","7","7","6","6","6","5","8","6","3","2","4","5","5","6","6","5","3","1","3","3","5","2","4","3","4","5","2","5","3","3","2","1","3","5","2","3","3","6","6","3","7","3","3","3","2","5","3","3","769979838697312258","吴","587","Female","[""坏我"",""坏她"",""好她"",""好我""]","[""弱我"",""弱她"",""强她"",""强我""]","","","","","","","","yes","","","","","","","","","SRET","EW_formal","","key","j","16.663888888888998","640","356","自己","学霸","Positive","ability","","","","","","","","","","",""
"716","","f","psychophysics","86","275789","0.0-7.0-3.0-0.72","5","4","5","2","1","5","3","4","5","5","4","0","-1","1","1","0","0","1","2","4","3","5","4","2","4","5","4","5","4","4","7","7","7","6","6","6","5","8","6","3","2","4","5","5","6","6","5","3","1","3","3","5","2","4","3","4","5","2","5","3","3","2","1","3","5","2","3","3","6","6","3","7","3","3","3","2","5","3","3","769979838697312258","吴","587","Female","[""坏我"",""坏她"",""好她"",""好我""]","[""弱我"",""弱她"",""强她"",""强我""]","","","","","","","","no","","","","","","","","","SRET","EW_formal","","key","f","16.664705882352827","640","356","自己","下流","Negative","morality","","","","","","","","","","",""
"653","","f","psychophysics","87","277445","0.0-7.0-3.0-0.73","5","4","5","2","1","5","3","4","5","5","4","0","-1","1","1","0","0","1","2","4","3","5","4","2","4","5","4","5","4","4","7","7","7","6","6","6","5","8","6","3","2","4","5","5","6","6","5","3","1","3","3","5","2","4","3","4","5","2","5","3","3","2","1","3","5","2","3","3","6","6","3","7","3","3","3","2","5","3","3","769979838697312258","吴","587","Female","[""坏我"",""坏她"",""好她"",""好我""]","[""弱我"",""弱她"",""强她"",""强我""]","","","","","","","","no","","","","","","","","","SRET","EW_formal","","key","f","16.666326530612125","640","356","朋友","愚蠢","Negative","ability","","","","","","","","","","",""
"845","","f","psychophysics","88","279292","0.0-7.0-3.0-0.74","5","4","5","2","1","5","3","4","5","5","4","0","-1","1","1","0","0","1","2","4","3","5","4","2","4","5","4","5","4","4","7","7","7","6","6","6","5","8","6","3","2","4","5","5","6","6","5","3","1","3","3","5","2","4","3","4","5","2","5","3","3","2","1","3","5","2","3","3","6","6","3","7","3","3","3","2","5","3","3","769979838697312258","吴","587","Female","[""坏我"",""坏她"",""好她"",""好我""]","[""弱我"",""弱她"",""强她"",""强我""]","","","","","","","","no","","","","","","","","","SRET","EW_formal","","key","f","16.66545454545465","640","356","自己","怠惰","Negative","ability","","","","","","","","","","",""
"1135","","f","psychophysics","89","281430","0.0-7.0-3.0-0.75","5","4","5","2","1","5","3","4","5","5","4","0","-1","1","1","0","0","1","2","4","3","5","4","2","4","5","4","5","4","4","7","7","7","6","6","6","5","8","6","3","2","4","5","5","6","6","5","3","1","3","3","5","2","4","3","4","5","2","5","3","3","2","1","3","5","2","3","3","6","6","3","7","3","3","3","2","5","3","3","769979838697312258","吴","587","Female","[""坏我"",""坏她"",""好她"",""好我""]","[""弱我"",""弱她"",""强她"",""强我""]","","","","","","","","no","","","","","","","","","SRET","EW_formal","","key","f","16.664566929134043","640","356","朋友","昏庸","Negative","ability","","","","","","","","","","",""
"1255","","f","psychophysics","90","283686","0.0-7.0-3.0-0.76","5","4","5","2","1","5","3","4","5","5","4","0","-1","1","1","0","0","1","2","4","3","5","4","2","4","5","4","5","4","4","7","7","7","6","6","6","5","8","6","3","2","4","5","5","6","6","5","3","1","3","3","5","2","4","3","4","5","2","5","3","3","2","1","3","5","2","3","3","6","6","3","7","3","3","3","2","5","3","3","769979838697312258","吴","587","Female","[""坏我"",""坏她"",""好她"",""好我""]","[""弱我"",""弱她"",""强她"",""强我""]","","","","","","","","no","","","","","","","","","SRET","EW_formal","","key","f","16.665925925925666","640","356","朋友","利己","Negative","morality","","","","","","","","","","",""
"655","","f","psychophysics","91","285344","0.0-7.0-3.0-0.77","5","4","5","2","1","5","3","4","5","5","4","0","-1","1","1","0","0","1","2","4","3","5","4","2","4","5","4","5","4","4","7","7","7","6","6","6","5","8","6","3","2","4","5","5","6","6","5","3","1","3","3","5","2","4","3","4","5","2","5","3","3","2","1","3","5","2","3","3","6","6","3","7","3","3","3","2","5","3","3","769979838697312258","吴","587","Female","[""坏我"",""坏她"",""好她"",""好我""]","[""弱我"",""弱她"",""强她"",""强我""]","","","","","","","","no","","","","","","","","","SRET","EW_formal","","key","f","16.665306122448506","640","356","朋友","无能","Negative","ability","","","","","","","","","","",""
"1293","","j","psychophysics","92","287640","0.0-7.0-3.0-0.78","5","4","5","2","1","5","3","4","5","5","4","0","-1","1","1","0","0","1","2","4","3","5","4","2","4","5","4","5","4","4","7","7","7","6","6","6","5","8","6","3","2","4","5","5","6","6","5","3","1","3","3","5","2","4","3","4","5","2","5","3","3","2","1","3","5","2","3","3","6","6","3","7","3","3","3","2","5","3","3","769979838697312258","吴","587","Female","[""坏我"",""坏她"",""好她"",""好我""]","[""弱我"",""弱她"",""强她"",""强我""]","","","","","","","","yes","","","","","","","","","SRET","EW_formal","","key","j","16.664963503649464","640","356","朋友","敬业","Positive","morality","","","","","","","","","","",""
"1384","","j","psychophysics","93","290025","0.0-7.0-3.0-0.79","5","4","5","2","1","5","3","4","5","5","4","0","-1","1","1","0","0","1","2","4","3","5","4","2","4","5","4","5","4","4","7","7","7","6","6","6","5","8","6","3","2","4","5","5","6","6","5","3","1","3","3","5","2","4","3","4","5","2","5","3","3","2","1","3","5","2","3","3","6","6","3","7","3","3","3","2","5","3","3","769979838697312258","吴","587","Female","[""坏我"",""坏她"",""好她"",""好我""]","[""弱我"",""弱她"",""强她"",""强我""]","","","","","","","","yes","","","","","","","","","SRET","EW_formal","","key","j","16.666197183098838","640","356","自己","忠良","Positive","morality","","","","","","","","","","",""
"882","","f","psychophysics","94","291909","0.0-7.0-3.0-0.80","5","4","5","2","1","5","3","4","5","5","4","0","-1","1","1","0","0","1","2","4","3","5","4","2","4","5","4","5","4","4","7","7","7","6","6","6","5","8","6","3","2","4","5","5","6","6","5","3","1","3","3","5","2","4","3","4","5","2","5","3","3","2","1","3","5","2","3","3","6","6","3","7","3","3","3","2","5","3","3","769979838697312258","吴","587","Female","[""坏我"",""坏她"",""好她"",""好我""]","[""弱我"",""弱她"",""强她"",""强我""]","","","","","","","","no","","","","","","","","","SRET","EW_formal","","key","f","16.66696428571387","640","356","自己","拜金","Negative","morality","","","","","","","","","","",""
"687","","j","psychophysics","95","293598","0.0-7.0-3.0-0.81","5","4","5","2","1","5","3","4","5","5","4","0","-1","1","1","0","0","1","2","4","3","5","4","2","4","5","4","5","4","4","7","7","7","6","6","6","5","8","6","3","2","4","5","5","6","6","5","3","1","3","3","5","2","4","3","4","5","2","5","3","3","2","1","3","5","2","3","3","6","6","3","7","3","3","3","2","5","3","3","769979838697312258","吴","587","Female","[""坏我"",""坏她"",""好她"",""好我""]","[""弱我"",""弱她"",""强她"",""强我""]","","","","","","","","yes","","","","","","","","","SRET","EW_formal","","key","j","16.665999999999766","640","356","自己","爱国","Positive","morality","","","","","","","","","","",""
"804","","j","psychophysics","96","295402","0.0-7.0-3.0-0.82","5","4","5","2","1","5","3","4","5","5","4","0","-1","1","1","0","0","1","2","4","3","5","4","2","4","5","4","5","4","4","7","7","7","6","6","6","5","8","6","3","2","4","5","5","6","6","5","3","1","3","3","5","2","4","3","4","5","2","5","3","3","2","1","3","5","2","3","3","6","6","3","7","3","3","3","2","5","3","3","769979838697312258","吴","587","Female","[""坏我"",""坏她"",""好她"",""好我""]","[""弱我"",""弱她"",""强她"",""强我""]","","","","","","","","yes","","","","","","","","","SRET","EW_formal","","key","j","16.667592592592378","640","356","自己","淡泊","Positive","morality","","","","","","","","","","",""
"595","","f","psychophysics","97","297000","0.0-7.0-3.0-0.83","5","4","5","2","1","5","3","4","5","5","4","0","-1","1","1","0","0","1","2","4","3","5","4","2","4","5","4","5","4","4","7","7","7","6","6","6","5","8","6","3","2","4","5","5","6","6","5","3","1","3","3","5","2","4","3","4","5","2","5","3","3","2","1","3","5","2","3","3","6","6","3","7","3","3","3","2","5","3","3","769979838697312258","吴","587","Female","[""坏我"",""坏她"",""好她"",""好我""]","[""弱我"",""弱她"",""强她"",""强我""]","","","","","","","","no","","","","","","","","","SRET","EW_formal","","key","f","16.665957446808264","640","356","自己","低劣","Negative","morality","","","","","","","","","","",""
"626","","j","psychophysics","98","298628","0.0-7.0-3.0-0.84","5","4","5","2","1","5","3","4","5","5","4","0","-1","1","1","0","0","1","2","4","3","5","4","2","4","5","4","5","4","4","7","7","7","6","6","6","5","8","6","3","2","4","5","5","6","6","5","3","1","3","3","5","2","4","3","4","5","2","5","3","3","2","1","3","5","2","3","3","6","6","3","7","3","3","3","2","5","3","3","769979838697312258","吴","587","Female","[""坏我"",""坏她"",""好她"",""好我""]","[""弱我"",""弱她"",""强她"",""强我""]","","","","","","","","yes","","","","","","","","","SRET","EW_formal","","key","j","16.664948453608247","640","356","自己","主见","Positive","ability","","","","","","","","","","",""
"730","","f","psychophysics","99","300361","0.0-7.0-3.0-0.85","5","4","5","2","1","5","3","4","5","5","4","0","-1","1","1","0","0","1","2","4","3","5","4","2","4","5","4","5","4","4","7","7","7","6","6","6","5","8","6","3","2","4","5","5","6","6","5","3","1","3","3","5","2","4","3","4","5","2","5","3","3","2","1","3","5","2","3","3","6","6","3","7","3","3","3","2","5","3","3","769979838697312258","吴","587","Female","[""坏我"",""坏她"",""好她"",""好我""]","[""弱我"",""弱她"",""强她"",""强我""]","","","","","","","","no","","","","","","","","","SRET","EW_formal","","key","f","16.66504854368932","640","356","自己","缓慢","Negative","ability","","","","","","","","","","",""
"775","","f","psychophysics","100","302138","0.0-7.0-3.0-0.86","5","4","5","2","1","5","3","4","5","5","4","0","-1","1","1","0","0","1","2","4","3","5","4","2","4","5","4","5","4","4","7","7","7","6","6","6","5","8","6","3","2","4","5","5","6","6","5","3","1","3","3","5","2","4","3","4","5","2","5","3","3","2","1","3","5","2","3","3","6","6","3","7","3","3","3","2","5","3","3","769979838697312258","吴","587","Female","[""坏我"",""坏她"",""好她"",""好我""]","[""弱我"",""弱她"",""强她"",""强我""]","","","","","","","","no","","","","","","","","","SRET","EW_formal","","key","f","16.66509433962264","640","356","朋友","低俗","Negative","morality","","","","","","","","","","",""
"715","","j","psychophysics","101","303869","0.0-7.0-3.0-0.87","5","4","5","2","1","5","3","4","5","5","4","0","-1","1","1","0","0","1","2","4","3","5","4","2","4","5","4","5","4","4","7","7","7","6","6","6","5","8","6","3","2","4","5","5","6","6","5","3","1","3","3","5","2","4","3","4","5","2","5","3","3","2","1","3","5","2","3","3","6","6","3","7","3","3","3","2","5","3","3","769979838697312258","吴","587","Female","[""坏我"",""坏她"",""好她"",""好我""]","[""弱我"",""弱她"",""强她"",""强我""]","","","","","","","","yes","","","","","","","","","SRET","EW_formal","","key","j","16.66504854368932","640","356","朋友","素养","Positive","morality","","","","","","","","","","",""
"29182","
    <p><div style='color:white;font-size:35px; line-height:20px;'>计算任务</div></p><br>
    <p><div style='color:red;font-size:25px; line-height:20px;'>接下来，您将看到一些四则运算题，<b>请从键盘选择 0-9 进行反应。</b></div></p>
    <p><div style='color:red;font-size:25px; line-height:20px;'>请尽可能快地进行计算，计算的速度和正确率将影响报酬的发放。</div></p>
    <p><div class='footer' style='color:white;font-size:25px; line-height:20px;'>如果对本实验还有不清楚之处，请立即向实验员咨询。</p><p style='color:white;font-size:25px; line-height:20px;'>如果您明白了规则：</p><p style='color:white;font-size:22px; line-height:20px;'>请按 继续 进入练习</p>
    </div>
    ","0","html-button-response","102","333053","0.0-7.0-4.0","5","4","5","2","1","5","3","4","5","5","4","0","-1","1","1","0","0","1","2","4","3","5","4","2","4","5","4","5","4","4","7","7","7","6","6","6","5","8","6","3","2","4","5","5","6","6","5","3","1","3","3","5","2","4","3","4","5","2","5","3","3","2","1","3","5","2","3","3","6","6","3","7","3","3","3","2","5","3","3","769979838697312258","吴","587","Female","[""坏我"",""坏她"",""好她"",""好我""]","[""弱我"",""弱她"",""强她"",""强我""]","","","","","","","","","","","","","","","","","SRET_math","math_instructions","Tue Dec 19 2023 19:14:35 GMT+0800 (GMT+08:00)","","","","","","","","","","","","","","","","","","","",""
"2489","","2","psychophysics","103","335548","0.0-7.0-5.0-0.0","5","4","5","2","1","5","3","4","5","5","4","0","-1","1","1","0","0","1","2","4","3","5","4","2","4","5","4","5","4","4","7","7","7","6","6","6","5","8","6","3","2","4","5","5","6","6","5","3","1","3","3","5","2","4","3","4","5","2","5","3","3","2","1","3","5","2","3","3","6","6","3","7","3","3","3","2","5","3","3","769979838697312258","吴","587","Female","[""坏我"",""坏她"",""好她"",""好我""]","[""弱我"",""弱她"",""强她"",""强我""]","","","","","","","","2","","","","","","","","","SRET","SRET_math_calculate","","key","2","16.66199999999992","640","356","","","","","12/6= ?","2","1","","","","","","","",""
"2232","","8","psychophysics","104","337782","0.0-7.0-5.0-0.1","5","4","5","2","1","5","3","4","5","5","4","0","-1","1","1","0","0","1","2","4","3","5","4","2","4","5","4","5","4","4","7","7","7","6","6","6","5","8","6","3","2","4","5","5","6","6","5","3","1","3","3","5","2","4","3","4","5","2","5","3","3","2","1","3","5","2","3","3","6","6","3","7","3","3","3","2","5","3","3","769979838697312258","吴","587","Female","[""坏我"",""坏她"",""好她"",""好我""]","[""弱我"",""弱她"",""强她"",""强我""]","","","","","","","","8","","","","","","","","","SRET","SRET_math_calculate","","key","8","16.665413533834588","640","356","","","","","2+6= ?","8","1","","","","","","","",""
"2126","","6","psychophysics","105","339910","0.0-7.0-5.0-0.2","5","4","5","2","1","5","3","4","5","5","4","0","-1","1","1","0","0","1","2","4","3","5","4","2","4","5","4","5","4","4","7","7","7","6","6","6","5","8","6","3","2","4","5","5","6","6","5","3","1","3","3","5","2","4","3","4","5","2","5","3","3","2","1","3","5","2","3","3","6","6","3","7","3","3","3","2","5","3","3","769979838697312258","吴","587","Female","[""坏我"",""坏她"",""好她"",""好我""]","[""弱我"",""弱她"",""强她"",""强我""]","","","","","","","","6","","","","","","","","","SRET","SRET_math_calculate","","key","6","16.6658730158732","640","356","","","","","4+2= ?","6","1","","","","","","","",""
"1970","","7","psychophysics","106","341884","0.0-7.0-5.0-0.3","5","4","5","2","1","5","3","4","5","5","4","0","-1","1","1","0","0","1","2","4","3","5","4","2","4","5","4","5","4","4","7","7","7","6","6","6","5","8","6","3","2","4","5","5","6","6","5","3","1","3","3","5","2","4","3","4","5","2","5","3","3","2","1","3","5","2","3","3","6","6","3","7","3","3","3","2","5","3","3","769979838697312258","吴","587","Female","[""坏我"",""坏她"",""好她"",""好我""]","[""弱我"",""弱她"",""强她"",""强我""]","","","","","","","","7","","","","","","","","","SRET","SRET_math_calculate","","key","7","16.664406779661213","640","356","","","","","2+5= ?","7","1","","","","","","","",""
"2916","","1","psychophysics","107","344803","0.0-7.0-5.0-0.4","5","4","5","2","1","5","3","4","5","5","4","0","-1","1","1","0","0","1","2","4","3","5","4","2","4","5","4","5","4","4","7","7","7","6","6","6","5","8","6","3","2","4","5","5","6","6","5","3","1","3","3","5","2","4","3","4","5","2","5","3","3","2","1","3","5","2","3","3","6","6","3","7","3","3","3","2","5","3","3","769979838697312258","吴","587","Female","[""坏我"",""坏她"",""好她"",""好我""]","[""弱我"",""弱她"",""强她"",""强我""]","","","","","","","","1","","","","","","","","","SRET","SRET_math_calculate","","key","1","16.664942528735363","640","356","","","","","22/11= ?","2","0","","","","","","","",""
"371","","3","psychophysics","108","345175","0.0-7.0-5.0-0.5","5","4","5","2","1","5","3","4","5","5","4","0","-1","1","1","0","0","1","2","4","3","5","4","2","4","5","4","5","4","4","7","7","7","6","6","6","5","8","6","3","2","4","5","5","6","6","5","3","1","3","3","5","2","4","3","4","5","2","5","3","3","2","1","3","5","2","3","3","6","6","3","7","3","3","3","2","5","3","3","769979838697312258","吴","587","Female","[""坏我"",""坏她"",""好她"",""好我""]","[""弱我"",""弱她"",""强她"",""强我""]","","","","","","","","3","","","","","","","","","SRET","SRET_math_calculate","","key","3","16.671428571430233","640","356","","","","","13-6= ?","7","0","","","","","","","",""
"145","","1","psychophysics","109","345326","0.0-7.0-5.0-0.6","5","4","5","2","1","5","3","4","5","5","4","0","-1","1","1","0","0","1","2","4","3","5","4","2","4","5","4","5","4","4","7","7","7","6","6","6","5","8","6","3","2","4","5","5","6","6","5","3","1","3","3","5","2","4","3","4","5","2","5","3","3","2","1","3","5","2","3","3","6","6","3","7","3","3","3","2","5","3","3","769979838697312258","吴","587","Female","[""坏我"",""坏她"",""好她"",""好我""]","[""弱我"",""弱她"",""强她"",""强我""]","","","","","","","","1","","","","","","","","","SRET","SRET_math_calculate","","key","1","16.67500000000291","640","356","","","","","7*1=  ?","7","0","","","","","","","",""
"2203","","0","psychophysics","110","347534","0.0-7.0-5.0-0.7","5","4","5","2","1","5","3","4","5","5","4","0","-1","1","1","0","0","1","2","4","3","5","4","2","4","5","4","5","4","4","7","7","7","6","6","6","5","8","6","3","2","4","5","5","6","6","5","3","1","3","3","5","2","4","3","4","5","2","5","3","3","2","1","3","5","2","3","3","6","6","3","7","3","3","3","2","5","3","3","769979838697312258","吴","587","Female","[""坏我"",""坏她"",""好她"",""好我""]","[""弱我"",""弱她"",""强她"",""强我""]","","","","","","","","0","","","","","","","","","SRET","SRET_math_calculate","","key","0","16.665909090908826","640","356","","","","","22-22= ?","0","1","","","","","","","",""
"1996","","3","psychophysics","111","349532","0.0-7.0-5.0-0.8","5","4","5","2","1","5","3","4","5","5","4","0","-1","1","1","0","0","1","2","4","3","5","4","2","4","5","4","5","4","4","7","7","7","6","6","6","5","8","6","3","2","4","5","5","6","6","5","3","1","3","3","5","2","4","3","4","5","2","5","3","3","2","1","3","5","2","3","3","6","6","3","7","3","3","3","2","5","3","3","769979838697312258","吴","587","Female","[""坏我"",""坏她"",""好她"",""好我""]","[""弱我"",""弱她"",""强她"",""强我""]","","","","","","","","3","","","","","","","","","SRET","SRET_math_calculate","","key","3","16.665546218487492","640","356","","","","","1+2= ?","3","1","","","","","","","",""
"2018","","9","psychophysics","112","351553","0.0-7.0-5.0-0.9","5","4","5","2","1","5","3","4","5","5","4","0","-1","1","1","0","0","1","2","4","3","5","4","2","4","5","4","5","4","4","7","7","7","6","6","6","5","8","6","3","2","4","5","5","6","6","5","3","1","3","3","5","2","4","3","4","5","2","5","3","3","2","1","3","5","2","3","3","6","6","3","7","3","3","3","2","5","3","3","769979838697312258","吴","587","Female","[""坏我"",""坏她"",""好她"",""好我""]","[""弱我"",""弱她"",""强她"",""强我""]","","","","","","","","9","","","","","","","","","SRET","SRET_math_calculate","","key","9","16.664999999999903","640","356","","","","","5+4= ?","9","1","","","","","","","",""
"3189","","1","psychophysics","113","354745","0.0-7.0-5.0-0.10","5","4","5","2","1","5","3","4","5","5","4","0","-1","1","1","0","0","1","2","4","3","5","4","2","4","5","4","5","4","4","7","7","7","6","6","6","5","8","6","3","2","4","5","5","6","6","5","3","1","3","3","5","2","4","3","4","5","2","5","3","3","2","1","3","5","2","3","3","6","6","3","7","3","3","3","2","5","3","3","769979838697312258","吴","587","Female","[""坏我"",""坏她"",""好她"",""好我""]","[""弱我"",""弱她"",""强她"",""强我""]","","","","","","","","1","","","","","","","","","SRET","SRET_math_calculate","","key","1","16.66544502617789","640","356","","","","","12/12= ?","1","1","","","","","","","",""
"3056","","5","psychophysics","114","357805","0.0-7.0-5.0-0.11","5","4","5","2","1","5","3","4","5","5","4","0","-1","1","1","0","0","1","2","4","3","5","4","2","4","5","4","5","4","4","7","7","7","6","6","6","5","8","6","3","2","4","5","5","6","6","5","3","1","3","3","5","2","4","3","4","5","2","5","3","3","2","1","3","5","2","3","3","6","6","3","7","3","3","3","2","5","3","3","769979838697312258","吴","587","Female","[""坏我"",""坏她"",""好她"",""好我""]","[""弱我"",""弱她"",""强她"",""强我""]","","","","","","","","5","","","","","","","","","SRET","SRET_math_calculate","","key","5","16.664835164835164","640","356","","","","","16-11= ?","5","1","","","","","","","",""
"2822","","5","psychophysics","115","360629","0.0-7.0-5.0-0.12","5","4","5","2","1","5","3","4","5","5","4","0","-1","1","1","0","0","1","2","4","3","5","4","2","4","5","4","5","4","4","7","7","7","6","6","6","5","8","6","3","2","4","5","5","6","6","5","3","1","3","3","5","2","4","3","4","5","2","5","3","3","2","1","3","5","2","3","3","6","6","3","7","3","3","3","2","5","3","3","769979838697312258","吴","587","Female","[""坏我"",""坏她"",""好她"",""好我""]","[""弱我"",""弱她"",""强她"",""强我""]","","","","","","","","5","","","","","","","","","SRET","SRET_math_calculate","","key","5","16.666272189348973","640","356","","","","","5/1= ?","5","1","","","","","","","",""
"2332","","9","psychophysics","116","362963","0.0-7.0-5.0-0.13","5","4","5","2","1","5","3","4","5","5","4","0","-1","1","1","0","0","1","2","4","3","5","4","2","4","5","4","5","4","4","7","7","7","6","6","6","5","8","6","3","2","4","5","5","6","6","5","3","1","3","3","5","2","4","3","4","5","2","5","3","3","2","1","3","5","2","3","3","6","6","3","7","3","3","3","2","5","3","3","769979838697312258","吴","587","Female","[""坏我"",""坏她"",""好她"",""好我""]","[""弱我"",""弱她"",""强她"",""强我""]","","","","","","","","9","","","","","","","","","SRET","SRET_math_calculate","","key","9","16.665467625899282","640","356","","","","","3*3= ?","9","1","","","","","","","",""
"2044","","0","psychophysics","117","365010","0.0-7.0-5.0-0.14","5","4","5","2","1","5","3","4","5","5","4","0","-1","1","1","0","0","1","2","4","3","5","4","2","4","5","4","5","4","4","7","7","7","6","6","6","5","8","6","3","2","4","5","5","6","6","5","3","1","3","3","5","2","4","3","4","5","2","5","3","3","2","1","3","5","2","3","3","6","6","3","7","3","3","3","2","5","3","3","769979838697312258","吴","587","Female","[""坏我"",""坏她"",""好她"",""好我""]","[""弱我"",""弱她"",""强她"",""强我""]","","","","","","","","0","","","","","","","","","SRET","SRET_math_calculate","","key","0","16.6655737704919","640","356","","","","","1-1= ?","0","1","","","","","","","",""
"2646","","7","psychophysics","118","367659","0.0-7.0-5.0-0.15","5","4","5","2","1","5","3","4","5","5","4","0","-1","1","1","0","0","1","2","4","3","5","4","2","4","5","4","5","4","4","7","7","7","6","6","6","5","8","6","3","2","4","5","5","6","6","5","3","1","3","3","5","2","4","3","4","5","2","5","3","3","2","1","3","5","2","3","3","6","6","3","7","3","3","3","2","5","3","3","769979838697312258","吴","587","Female","[""坏我"",""坏她"",""好她"",""好我""]","[""弱我"",""弱她"",""强她"",""强我""]","","","","","","","","7","","","","","","","","","SRET","SRET_math_calculate","","key","7","16.6658227848102","640","356","","","","","11-4= ?","7","1","","","","","","","",""
"2450","","3","psychophysics","119","370113","0.0-7.0-5.0-0.16","5","4","5","2","1","5","3","4","5","5","4","0","-1","1","1","0","0","1","2","4","3","5","4","2","4","5","4","5","4","4","7","7","7","6","6","6","5","8","6","3","2","4","5","5","6","6","5","3","1","3","3","5","2","4","3","4","5","2","5","3","3","2","1","3","5","2","3","3","6","6","3","7","3","3","3","2","5","3","3","769979838697312258","吴","587","Female","[""坏我"",""坏她"",""好她"",""好我""]","[""弱我"",""弱她"",""强她"",""强我""]","","","","","","","","3","","","","","","","","","SRET","SRET_math_calculate","","key","3","16.665068493150525","640","356","","","","","9-6= ?","3","1","","","","","","","",""
"2232","","0","psychophysics","120","372347","0.0-7.0-5.0-0.17","5","4","5","2","1","5","3","4","5","5","4","0","-1","1","1","0","0","1","2","4","3","5","4","2","4","5","4","5","4","4","7","7","7","6","6","6","5","8","6","3","2","4","5","5","6","6","5","3","1","3","3","5","2","4","3","4","5","2","5","3","3","2","1","3","5","2","3","3","6","6","3","7","3","3","3","2","5","3","3","769979838697312258","吴","587","Female","[""坏我"",""坏她"",""好她"",""好我""]","[""弱我"",""弱她"",""强她"",""强我""]","","","","","","","","0","","","","","","","","","SRET","SRET_math_calculate","","key","0","16.663909774436004","640","356","","","","","5*0= ?","0","1","","","","","","","",""
"4292","","9","psychophysics","121","376641","0.0-7.0-5.0-0.18","5","4","5","2","1","5","3","4","5","5","4","0","-1","1","1","0","0","1","2","4","3","5","4","2","4","5","4","5","4","4","7","7","7","6","6","6","5","8","6","3","2","4","5","5","6","6","5","3","1","3","3","5","2","4","3","4","5","2","5","3","3","2","1","3","5","2","3","3","6","6","3","7","3","3","3","2","5","3","3","769979838697312258","吴","587","Female","[""坏我"",""坏她"",""好她"",""好我""]","[""弱我"",""弱她"",""强她"",""强我""]","","","","","","","","9","","","","","","","","","SRET","SRET_math_calculate","","key","9","16.6645914396889","640","356","","","","","43-34= ?","9","1","","","","","","","",""
"2421","","9","psychophysics","122","379066","0.0-7.0-5.0-0.19","5","4","5","2","1","5","3","4","5","5","4","0","-1","1","1","0","0","1","2","4","3","5","4","2","4","5","4","5","4","4","7","7","7","6","6","6","5","8","6","3","2","4","5","5","6","6","5","3","1","3","3","5","2","4","3","4","5","2","5","3","3","2","1","3","5","2","3","3","6","6","3","7","3","3","3","2","5","3","3","769979838697312258","吴","587","Female","[""坏我"",""坏她"",""好她"",""好我""]","[""弱我"",""弱她"",""强她"",""强我""]","","","","","","","","9","","","","","","","","","SRET","SRET_math_calculate","","key","9","16.664583333333415","640","356","","","","","81/9= ?","9","1","","","","","","","",""
"2092","","3","psychophysics","123","381159","0.0-7.0-5.0-0.20","5","4","5","2","1","5","3","4","5","5","4","0","-1","1","1","0","0","1","2","4","3","5","4","2","4","5","4","5","4","4","7","7","7","6","6","6","5","8","6","3","2","4","5","5","6","6","5","3","1","3","3","5","2","4","3","4","5","2","5","3","3","2","1","3","5","2","3","3","6","6","3","7","3","3","3","2","5","3","3","769979838697312258","吴","587","Female","[""坏我"",""坏她"",""好她"",""好我""]","[""弱我"",""弱她"",""强她"",""强我""]","","","","","","","","3","","","","","","","","","SRET","SRET_math_calculate","","key","3","16.664","640","356","","","","","3*1= ?","3","1","","","","","","","",""
"1975","","8","psychophysics","124","383137","0.0-7.0-5.0-0.21","5","4","5","2","1","5","3","4","5","5","4","0","-1","1","1","0","0","1","2","4","3","5","4","2","4","5","4","5","4","4","7","7","7","6","6","6","5","8","6","3","2","4","5","5","6","6","5","3","1","3","3","5","2","4","3","4","5","2","5","3","3","2","1","3","5","2","3","3","6","6","3","7","3","3","3","2","5","3","3","769979838697312258","吴","587","Female","[""坏我"",""坏她"",""好她"",""好我""]","[""弱我"",""弱她"",""强她"",""强我""]","","","","","","","","8","","","","","","","","","SRET","SRET_math_calculate","","key","8","16.664957264957167","640","356","","","","","5+3= ?","8","1","","","","","","","",""
"4373","","8","psychophysics","125","387511","0.0-7.0-5.0-0.22","5","4","5","2","1","5","3","4","5","5","4","0","-1","1","1","0","0","1","2","4","3","5","4","2","4","5","4","5","4","4","7","7","7","6","6","6","5","8","6","3","2","4","5","5","6","6","5","3","1","3","3","5","2","4","3","4","5","2","5","3","3","2","1","3","5","2","3","3","6","6","3","7","3","3","3","2","5","3","3","769979838697312258","吴","587","Female","[""坏我"",""坏她"",""好她"",""好我""]","[""弱我"",""弱她"",""强她"",""强我""]","","","","","","","","8","","","","","","","","","SRET","SRET_math_calculate","","key","8","16.66488549618325","640","356","","","","","11-3= ?","8","1","","","","","","","",""
"2154","","5","psychophysics","126","389668","0.0-7.0-5.0-0.23","5","4","5","2","1","5","3","4","5","5","4","0","-1","1","1","0","0","1","2","4","3","5","4","2","4","5","4","5","4","4","7","7","7","6","6","6","5","8","6","3","2","4","5","5","6","6","5","3","1","3","3","5","2","4","3","4","5","2","5","3","3","2","1","3","5","2","3","3","6","6","3","7","3","3","3","2","5","3","3","769979838697312258","吴","587","Female","[""坏我"",""坏她"",""好她"",""好我""]","[""弱我"",""弱她"",""强她"",""强我""]","","","","","","","","5","","","","","","","","","SRET","SRET_math_calculate","","key","5","16.664843749999818","640","356","","","","","8-3= ? ","5","1","","","","","","","",""
"1967","","7","psychophysics","127","391640","0.0-7.0-5.0-0.24","5","4","5","2","1","5","3","4","5","5","4","0","-1","1","1","0","0","1","2","4","3","5","4","2","4","5","4","5","4","4","7","7","7","6","6","6","5","8","6","3","2","4","5","5","6","6","5","3","1","3","3","5","2","4","3","4","5","2","5","3","3","2","1","3","5","2","3","3","6","6","3","7","3","3","3","2","5","3","3","769979838697312258","吴","587","Female","[""坏我"",""坏她"",""好她"",""好我""]","[""弱我"",""弱她"",""强她"",""强我""]","","","","","","","","7","","","","","","","","","SRET","SRET_math_calculate","","key","7","16.663559322034292","640","356","","","","","5+2= ?","7","1","","","","","","","",""
"2106","","9","psychophysics","128","393749","0.0-7.0-5.0-0.25","5","4","5","2","1","5","3","4","5","5","4","0","-1","1","1","0","0","1","2","4","3","5","4","2","4","5","4","5","4","4","7","7","7","6","6","6","5","8","6","3","2","4","5","5","6","6","5","3","1","3","3","5","2","4","3","4","5","2","5","3","3","2","1","3","5","2","3","3","6","6","3","7","3","3","3","2","5","3","3","769979838697312258","吴","587","Female","[""坏我"",""坏她"",""好她"",""好我""]","[""弱我"",""弱她"",""强她"",""强我""]","","","","","","","","9","","","","","","","","","SRET","SRET_math_calculate","","key","9","16.664","640","356","","","","","8+1= ?","9","1","","","","","","","",""
"2368","","4","psychophysics","129","396118","0.0-7.0-5.0-0.26","5","4","5","2","1","5","3","4","5","5","4","0","-1","1","1","0","0","1","2","4","3","5","4","2","4","5","4","5","4","4","7","7","7","6","6","6","5","8","6","3","2","4","5","5","6","6","5","3","1","3","3","5","2","4","3","4","5","2","5","3","3","2","1","3","5","2","3","3","6","6","3","7","3","3","3","2","5","3","3","769979838697312258","吴","587","Female","[""坏我"",""坏她"",""好她"",""好我""]","[""弱我"",""弱她"",""强她"",""强我""]","","","","","","","","4","","","","","","","","","SRET","SRET_math_calculate","","key","4","16.667375886524656","640","356","","","","","4*1= ?","4","1","","","","","","","",""
"2199","","1","psychophysics","130","398323","0.0-7.0-5.0-0.27","5","4","5","2","1","5","3","4","5","5","4","0","-1","1","1","0","0","1","2","4","3","5","4","2","4","5","4","5","4","4","7","7","7","6","6","6","5","8","6","3","2","4","5","5","6","6","5","3","1","3","3","5","2","4","3","4","5","2","5","3","3","2","1","3","5","2","3","3","6","6","3","7","3","3","3","2","5","3","3","769979838697312258","吴","587","Female","[""坏我"",""坏她"",""好她"",""好我""]","[""弱我"",""弱她"",""强她"",""强我""]","","","","","","","","1","","","","","","","","","SRET","SRET_math_calculate","","key","1","16.666666666666668","640","356","","","","","4/4= ?","1","1","","","","","","","",""
"2137","","2","psychophysics","131","400463","0.0-7.0-5.0-0.28","5","4","5","2","1","5","3","4","5","5","4","0","-1","1","1","0","0","1","2","4","3","5","4","2","4","5","4","5","4","4","7","7","7","6","6","6","5","8","6","3","2","4","5","5","6","6","5","3","1","3","3","5","2","4","3","4","5","2","5","3","3","2","1","3","5","2","3","3","6","6","3","7","3","3","3","2","5","3","3","769979838697312258","吴","587","Female","[""坏我"",""坏她"",""好她"",""好我""]","[""弱我"",""弱她"",""强她"",""强我""]","","","","","","","","2","","","","","","","","","SRET","SRET_math_calculate","","key","2","16.665354330708663","640","356","","","","","8/4= ?","2","1","","","","","","","",""
"1916","","9","psychophysics","132","402381","0.0-7.0-5.0-0.29","5","4","5","2","1","5","3","4","5","5","4","0","-1","1","1","0","0","1","2","4","3","5","4","2","4","5","4","5","4","4","7","7","7","6","6","6","5","8","6","3","2","4","5","5","6","6","5","3","1","3","3","5","2","4","3","4","5","2","5","3","3","2","1","3","5","2","3","3","6","6","3","7","3","3","3","2","5","3","3","769979838697312258","吴","587","Female","[""坏我"",""坏她"",""好她"",""好我""]","[""弱我"",""弱她"",""强她"",""强我""]","","","","","","","","9","","","","","","","","","SRET","SRET_math_calculate","","key","9","16.66491228070216","640","356","","","","","1+8= ?","9","1","","","","","","","",""
"7408","","9","psychophysics","133","409791","0.0-7.0-5.0-0.30","5","4","5","2","1","5","3","4","5","5","4","0","-1","1","1","0","0","1","2","4","3","5","4","2","4","5","4","5","4","4","7","7","7","6","6","6","5","8","6","3","2","4","5","5","6","6","5","3","1","3","3","5","2","4","3","4","5","2","5","3","3","2","1","3","5","2","3","3","6","6","3","7","3","3","3","2","5","3","3","769979838697312258","吴","587","Female","[""坏我"",""坏她"",""好她"",""好我""]","[""弱我"",""弱她"",""强她"",""强我""]","","","","","","","","9","","","","","","","","","SRET","SRET_math_calculate","","key","9","16.66463963963972","640","356","","","","","32-23= ?","9","1","","","","","","","",""
"1888","","9","psychophysics","134","411681","0.0-7.0-5.0-0.31","5","4","5","2","1","5","3","4","5","5","4","0","-1","1","1","0","0","1","2","4","3","5","4","2","4","5","4","5","4","4","7","7","7","6","6","6","5","8","6","3","2","4","5","5","6","6","5","3","1","3","3","5","2","4","3","4","5","2","5","3","3","2","1","3","5","2","3","3","6","6","3","7","3","3","3","2","5","3","3","769979838697312258","吴","587","Female","[""坏我"",""坏她"",""好她"",""好我""]","[""弱我"",""弱她"",""强她"",""强我""]","","","","","","","","9","","","","","","","","","SRET","SRET_math_calculate","","key","9","16.66696428571439","640","356","","","","","6+3= ?","9","1","","","","","","","",""
"2394","","3","psychophysics","135","414078","0.0-7.0-5.0-0.32","5","4","5","2","1","5","3","4","5","5","4","0","-1","1","1","0","0","1","2","4","3","5","4","2","4","5","4","5","4","4","7","7","7","6","6","6","5","8","6","3","2","4","5","5","6","6","5","3","1","3","3","5","2","4","3","4","5","2","5","3","3","2","1","3","5","2","3","3","6","6","3","7","3","3","3","2","5","3","3","769979838697312258","吴","587","Female","[""坏我"",""坏她"",""好她"",""好我""]","[""弱我"",""弱她"",""强她"",""强我""]","","","","","","","","3","","","","","","","","","SRET","SRET_math_calculate","","key","3","16.665034965035208","640","356","","","","","9/3= ?","3","1","","","","","","","",""
"2618","","5","psychophysics","136","416697","0.0-7.0-5.0-0.33","5","4","5","2","1","5","3","4","5","5","4","0","-1","1","1","0","0","1","2","4","3","5","4","2","4","5","4","5","4","4","7","7","7","6","6","6","5","8","6","3","2","4","5","5","6","6","5","3","1","3","3","5","2","4","3","4","5","2","5","3","3","2","1","3","5","2","3","3","6","6","3","7","3","3","3","2","5","3","3","769979838697312258","吴","587","Female","[""坏我"",""坏她"",""好她"",""好我""]","[""弱我"",""弱她"",""强她"",""强我""]","","","","","","","","5","","","","","","","","","SRET","SRET_math_calculate","","key","5","16.664743589743665","640","356","","","","","12-7= ?","5","1","","","","","","","",""
"1992","","9","psychophysics","137","418692","0.0-7.0-5.0-0.34","5","4","5","2","1","5","3","4","5","5","4","0","-1","1","1","0","0","1","2","4","3","5","4","2","4","5","4","5","4","4","7","7","7","6","6","6","5","8","6","3","2","4","5","5","6","6","5","3","1","3","3","5","2","4","3","4","5","2","5","3","3","2","1","3","5","2","3","3","6","6","3","7","3","3","3","2","5","3","3","769979838697312258","吴","587","Female","[""坏我"",""坏她"",""好她"",""好我""]","[""弱我"",""弱她"",""强她"",""强我""]","","","","","","","","9","","","","","","","","","SRET","SRET_math_calculate","","key","9","16.664705882353235","640","356","","","","","7+2= ?","9","1","","","","","","","",""
"2141","","5","psychophysics","138","420836","0.0-7.0-5.0-0.35","5","4","5","2","1","5","3","4","5","5","4","0","-1","1","1","0","0","1","2","4","3","5","4","2","4","5","4","5","4","4","7","7","7","6","6","6","5","8","6","3","2","4","5","5","6","6","5","3","1","3","3","5","2","4","3","4","5","2","5","3","3","2","1","3","5","2","3","3","6","6","3","7","3","3","3","2","5","3","3","769979838697312258","吴","587","Female","[""坏我"",""坏她"",""好她"",""好我""]","[""弱我"",""弱她"",""强她"",""强我""]","","","","","","","","5","","","","","","","","","SRET","SRET_math_calculate","","key","5","16.664843749999818","640","356","","","","","4+1= ?","5","1","","","","","","","",""
"2234","","8","psychophysics","139","423073","0.0-7.0-5.0-0.36","5","4","5","2","1","5","3","4","5","5","4","0","-1","1","1","0","0","1","2","4","3","5","4","2","4","5","4","5","4","4","7","7","7","6","6","6","5","8","6","3","2","4","5","5","6","6","5","3","1","3","3","5","2","4","3","4","5","2","5","3","3","2","1","3","5","2","3","3","6","6","3","7","3","3","3","2","5","3","3","769979838697312258","吴","587","Female","[""坏我"",""坏她"",""好她"",""好我""]","[""弱我"",""弱她"",""强她"",""强我""]","","","","","","","","8","","","","","","","","","SRET","SRET_math_calculate","","key","8","16.664661654135077","640","356","","","","","9-1= ?","8","1","","","","","","","",""
"2369","","2","psychophysics","140","425445","0.0-7.0-5.0-0.37","5","4","5","2","1","5","3","4","5","5","4","0","-1","1","1","0","0","1","2","4","3","5","4","2","4","5","4","5","4","4","7","7","7","6","6","6","5","8","6","3","2","4","5","5","6","6","5","3","1","3","3","5","2","4","3","4","5","2","5","3","3","2","1","3","5","2","3","3","6","6","3","7","3","3","3","2","5","3","3","769979838697312258","吴","587","Female","[""坏我"",""坏她"",""好她"",""好我""]","[""弱我"",""弱她"",""强她"",""强我""]","","","","","","","","2","","","","","","","","","SRET","SRET_math_calculate","","key","2","16.664539007091868","640","356","","","","","19-17= ?","2","1","","","","","","","",""
"2444","","6","psychophysics","141","427891","0.0-7.0-5.0-0.38","5","4","5","2","1","5","3","4","5","5","4","0","-1","1","1","0","0","1","2","4","3","5","4","2","4","5","4","5","4","4","7","7","7","6","6","6","5","8","6","3","2","4","5","5","6","6","5","3","1","3","3","5","2","4","3","4","5","2","5","3","3","2","1","3","5","2","3","3","6","6","3","7","3","3","3","2","5","3","3","769979838697312258","吴","587","Female","[""坏我"",""坏她"",""好她"",""好我""]","[""弱我"",""弱她"",""强她"",""强我""]","","","","","","","","6","","","","","","","","","SRET","SRET_math_calculate","","key","6","16.665068493150923","640","356","","","","","11-5= ?","6","1","","","","","","","",""
"2247","","5","psychophysics","142","430141","0.0-7.0-5.0-0.39","5","4","5","2","1","5","3","4","5","5","4","0","-1","1","1","0","0","1","2","4","3","5","4","2","4","5","4","5","4","4","7","7","7","6","6","6","5","8","6","3","2","4","5","5","6","6","5","3","1","3","3","5","2","4","3","4","5","2","5","3","3","2","1","3","5","2","3","3","6","6","3","7","3","3","3","2","5","3","3","769979838697312258","吴","587","Female","[""坏我"",""坏她"",""好她"",""好我""]","[""弱我"",""弱她"",""强她"",""强我""]","","","","","","","","5","","","","","","","","","SRET","SRET_math_calculate","","key","5","16.665671641791132","640","356","","","","","3+2= ?","5","1","","","","","","","",""
