"rt","stimulus","response","trial_type","trial_index","time_elapsed","internal_node_id","swb_1","swb_2","swb_3","swb_4","swb_5","LOT_1","LOT_2","LOT_3","LOT_4","LOT_5","LOT_6","IPC_1","IPC_2","IPC_3","IPC_4","IPC_5","IPC_6","IPC_7","IPC_8","MorIden_1","MorIden_2","MorIden_3","MorIden_4","MorIden_5","MorIden_6","MorIden_7","MorIden_8","MorIden_9","MorIden_10","moralSeImag_1","moralSeImag_2","moralSeImag_3","moralSeImag_4","moralSeImag_5","moralSeImag_6","moralSeImag_7","moralSeImag_8","moralSeImag_9","sde_1","sde_2","sde_3","sde_4","sde_5","sde_6","sde_7","sde_8","sde_9","sde_10","trap2","sde_11","sde_12","sde_13","sde_14","sde_15","sde_16","sde_17","sde_18","sde_19","sde_20","IM_1","IM_2","IM_3","IM_4","IM_5","IM_6","IM_7","IM_8","IM_9","IM_10","IM_11","IM_12","IM_13","IM_14","IM_15","IM_16","IM_17","IM_18","IM_19","IM_20","subj_idx","friend_name","ParticipantID","Sex","Word","Word2","value","success","timeout","failed_images","failed_audio","failed_video","user_agent","responses","item_order","radio_event_ids","radio_event_times","key_event_times","mouse_event_times","straightlining","zigzagging","honeypot","view_history","response_type","key_press","avg_frame_time","center_x","center_y","correct_response","correct","identity","Image","word","condition","task_id","screen_id","time_stamp","person","valence","domain","math","status","duration","question_order","trap2_item"
"1866","
   <p><div style='color:white; font-size: 25px'>您好，欢迎参加本次实验。</div></p>
   <p><div style='color:white; font-size: 25px'>为充分保障您的权利，请确保您已经知晓并同意《参与实验同意书》以及《数据公开知情同意书》。</div></p>
   <p><div style='color:white; font-size: 25px'>如果您未见过上述内容，请咨询实验员。</div></p>
   <p style='color:white; font-size: 25px'>如果您选择继续实验，则表示您已经清楚两份知情同意书的内容并同意。</p>
   <p><div style = ""color: pink;font-size:30px;"">请确保您记得day0的实验编号，您将在本次实验输入该编号，若您忘记，请咨询实验员后作答。</div></p>
   <p><div style = ""color:lightblue;font-size:25px;"">请您尽可能认真地作答，我们将依据您在各问卷和按键任务中的作答质量发放报酬。</div></p>
   <p> <div style = ""color: green""><按空格键至下页></div> </p>
   "," ","html-keyboard-response","0","1871","0.0-0.0","7","5","6","7","5","4","4","4","5","4","5","0","-2","1","0","2","1","0","2","4","5","5","5","4","4","5","5","4","5","8","6","8","7","6","9","6","8","7","6","6","5","7","5","6","6","7","5","7","1","5","6","1","6","6","5","7","7","5","6","3","7","2","5","6","6","5","6","7","6","7","7","5","1","6","6","7","7","6","5","634031410327322624","刘","221","Male","[""好我"",""坏他"",""好他"",""坏我""]","[""强我"",""弱他"",""强他"",""弱我""]","","","","","","","","","","","","","","","","","","","","","","","","","","","","","","","","","","","","","","",""
"","","","call-function","1","1872","0.0-1.0-0.0","7","5","6","7","5","4","4","4","5","4","5","0","-2","1","0","2","1","0","2","4","5","5","5","4","4","5","5","4","5","8","6","8","7","6","9","6","8","7","6","6","5","7","5","6","6","7","5","7","1","5","6","1","6","6","5","7","7","5","6","3","7","2","5","6","6","5","6","7","6","7","7","5","1","6","6","7","7","6","5","634031410327322624","刘","221","Male","[""好我"",""坏他"",""好他"",""坏我""]","[""强我"",""弱他"",""强他"",""弱我""]","","","","","","","","","","","","","","","","","","","","","","","","","","","","","","","","","","","","","","",""
"26411","","[{""name"":""Sex"",""value"":""0""},{""name"":""friend_name"",""value"":""刘""},{""name"":""ParticipantID"",""value"":""221""}]","survey-html-form","2","28291","0.0-1.0-1.0","7","5","6","7","5","4","4","4","5","4","5","0","-2","1","0","2","1","0","2","4","5","5","5","4","4","5","5","4","5","8","6","8","7","6","9","6","8","7","6","6","5","7","5","6","6","7","5","7","1","5","6","1","6","6","5","7","7","5","6","3","7","2","5","6","6","5","6","7","6","7","7","5","1","6","6","7","7","6","5","634031410327322624","刘","221","Male","[""好我"",""坏他"",""好他"",""坏我""]","[""强我"",""弱他"",""强他"",""弱我""]","","","","","","","","","","","","","","","","","","","","","","","","","","","","","","","","","","","","","","",""
"","","","preload","3","28776","0.0-2.0","7","5","6","7","5","4","4","4","5","4","5","0","-2","1","0","2","1","0","2","4","5","5","5","4","4","5","5","4","5","8","6","8","7","6","9","6","8","7","6","6","5","7","5","6","6","7","5","7","1","5","6","1","6","6","5","7","7","5","6","3","7","2","5","6","6","5","6","7","6","7","7","5","1","6","6","7","7","6","5","634031410327322624","刘","221","Male","[""好我"",""坏他"",""好他"",""坏我""]","[""强我"",""弱他"",""强他"",""弱我""]","","true","false","[]","[]","[]","","","","","","","","","","","","","","","","","","","","","","","","","","","","","","","","",""
"","","","fullscreen","4","29936","0.0-3.0","7","5","6","7","5","4","4","4","5","4","5","0","-2","1","0","2","1","0","2","4","5","5","5","4","4","5","5","4","5","8","6","8","7","6","9","6","8","7","6","6","5","7","5","6","6","7","5","7","1","5","6","1","6","6","5","7","7","5","6","3","7","2","5","6","6","5","6","7","6","7","7","5","1","6","6","7","7","6","5","634031410327322624","刘","221","Male","[""好我"",""坏他"",""好他"",""坏我""]","[""强我"",""弱他"",""强他"",""弱我""]","","true","","","","","{}","","","","","","","","","","","","","","","","","","","","","","","","","","","","","","","",""
"31801.10000000149","","{""Q01"":""7"",""Q02"":""5"",""Q03"":""6"",""Q04"":""7"",""Q05"":""5""}","survey-template","5","61743","0.0-4.0","7","5","6","7","5","4","4","4","5","4","5","0","-2","1","0","2","1","0","2","4","5","5","5","4","4","5","5","4","5","8","6","8","7","6","9","6","8","7","6","6","5","7","5","6","6","7","5","7","1","5","6","1","6","6","5","7","7","5","6","3","7","2","5","6","6","5","6","7","6","7","7","5","1","6","6","7","7","6","5","634031410327322624","刘","221","Male","[""好我"",""坏他"",""好他"",""坏我""]","[""强我"",""弱他"",""强他"",""弱我""]","","","","","","","","{""Q01"":""7"",""Q02"":""5"",""Q03"":""6"",""Q04"":""7"",""Q05"":""5""}","[0,1,2,3,4]","[""Q01"",""Q02"",""Q03"",""Q04"",""Q05""]","[6085.70000000298,19741.39999999851,20732.29999999702,22255.60000000149,23135.89999999851]","[]","[5675.89999999851,6085.70000000298,19741.39999999851,20732.29999999702,22255.60000000149,23135.89999999851,31798]","0.4","0.5","0","","","","","","","","","","","","","","","","","","","","","","",""
"54790.59999999404","","{""Q01"":""4"",""Q02"":""4"",""Q03"":""4"",""Q04"":""5"",""Q05"":""4"",""Q06"":""5""}","survey-template","6","116541","0.0-5.0","7","5","6","7","5","4","4","4","5","4","5","0","-2","1","0","2","1","0","2","4","5","5","5","4","4","5","5","4","5","8","6","8","7","6","9","6","8","7","6","6","5","7","5","6","6","7","5","7","1","5","6","1","6","6","5","7","7","5","6","3","7","2","5","6","6","5","6","7","6","7","7","5","1","6","6","7","7","6","5","634031410327322624","刘","221","Male","[""好我"",""坏他"",""好他"",""坏我""]","[""强我"",""弱他"",""强他"",""弱我""]","","","","","","","","{""Q01"":""4"",""Q02"":""4"",""Q03"":""4"",""Q04"":""5"",""Q05"":""4"",""Q06"":""5""}","[0,1,2,3,4,5]","[""Q01"",""Q02"",""Q03"",""Q04"",""Q05"",""Q06"",""Q06""]","[3325.5,5131.19999999553,7642.89999999851,9317.09999999404,10244.79999999702,11836.89999999851,12081]","[]","[3325.5,5131.19999999553,7248.79999999702,7642.89999999851,9317.09999999404,10244.79999999702,11836.89999999851,12081,40479.5,54786.89999999851]","0.3333333333333333","0.2","0","","","","","","","","","","","","","","","","","","","","","","",""
"47222.20000000298","","{""Q01"":""0"",""Q02"":""-2"",""Q03"":""1"",""Q04"":""0"",""Q05"":""2"",""Q06"":""1"",""Q07"":""0"",""Q08"":""2""}","survey-template","7","163771","0.0-6.0","7","5","6","7","5","4","4","4","5","4","5","0","-2","1","0","2","1","0","2","4","5","5","5","4","4","5","5","4","5","8","6","8","7","6","9","6","8","7","6","6","5","7","5","6","6","7","5","7","1","5","6","1","6","6","5","7","7","5","6","3","7","2","5","6","6","5","6","7","6","7","7","5","1","6","6","7","7","6","5","634031410327322624","刘","221","Male","[""好我"",""坏他"",""好他"",""坏我""]","[""强我"",""弱他"",""强他"",""弱我""]","","","","","","","","{""Q01"":""0"",""Q02"":""-2"",""Q03"":""1"",""Q04"":""0"",""Q05"":""2"",""Q06"":""1"",""Q07"":""0"",""Q08"":""2""}","[0,1,2,3,4,5,6,7]","[""Q01"",""Q02"",""Q03"",""Q04"",""Q05"",""Q06"",""Q07"",""Q08""]","[4712.9000000059605,6503.20000000298,9231.5,13690.90000000596,15042.60000000149,16842.5,19810.5,20648.60000000149]","[]","[4712.9000000059605,6158.9000000059605,6503.20000000298,7789.10000000149,8294.5,9231.5,13160.90000000596,13690.90000000596,15042.60000000149,16842.5,18640.80000000447,19810.5,20648.60000000149,47219.60000000149]","0.375","0.42857142857142855","0","","","","","","","","","","","","","","","","","","","","","","",""
"51580","","","instructions","8","215354","0.0-7.0","7","5","6","7","5","4","4","4","5","4","5","0","-2","1","0","2","1","0","2","4","5","5","5","4","4","5","5","4","5","8","6","8","7","6","9","6","8","7","6","6","5","7","5","6","6","7","5","7","1","5","6","1","6","6","5","7","7","5","6","3","7","2","5","6","6","5","6","7","6","7","7","5","1","6","6","7","7","6","5","634031410327322624","刘","221","Male","[""好我"",""坏他"",""好他"",""坏我""]","[""强我"",""弱他"",""强他"",""弱我""]","","","","","","","","","","","","","","","","","[{""page_index"":0,""viewing_time"":51578}]","","","","","","","","","","","","","","","","","","","","","",""
"291536","","","instructions","9","506891","0.0-8.0-0.0-0.0","7","5","6","7","5","4","4","4","5","4","5","0","-2","1","0","2","1","0","2","4","5","5","5","4","4","5","5","4","5","8","6","8","7","6","9","6","8","7","6","6","5","7","5","6","6","7","5","7","1","5","6","1","6","6","5","7","7","5","6","3","7","2","5","6","6","5","6","7","6","7","7","5","1","6","6","7","7","6","5","634031410327322624","刘","221","Male","[""好我"",""坏他"",""好他"",""坏我""]","[""强我"",""弱他"",""强他"",""弱我""]","","","","","","","","","","","","","","","","","[{""page_index"":0,""viewing_time"":3006},{""page_index"":1,""viewing_time"":96612},{""page_index"":2,""viewing_time"":2034},{""page_index"":1,""viewing_time"":188175},{""page_index"":2,""viewing_time"":1030},{""page_index"":3,""viewing_time"":678}]","","","","","","","","","","","","","","","","","","","","","",""
"1123","","j","psychophysics","10","509020","0.0-8.0-0.0-1.0-0.0-0.0","7","5","6","7","5","4","4","4","5","4","5","0","-2","1","0","2","1","0","2","4","5","5","5","4","4","5","5","4","5","8","6","8","7","6","9","6","8","7","6","6","5","7","5","6","6","7","5","7","1","5","6","1","6","6","5","7","7","5","6","3","7","2","5","6","6","5","6","7","6","7","7","5","1","6","6","7","7","6","5","634031410327322624","刘","221","Male","[""好我"",""坏他"",""好他"",""坏我""]","[""强我"",""弱他"",""强他"",""弱我""]","","","","","","","","match","","","","","","","","","","key","j","16.6532755905513","799.9999682108573","445.8333156175091","j","true","match","img/ellipse.png","坏他","坏他","prac_ALT2_moral","practice_moral","","","","","","","","",""
"null","<span style='color:GreenYellow; font-size: 70px;'>正确! </span>","null","html-keyboard-response","11","509522","0.0-8.0-0.0-1.0-0.0-1.0","7","5","6","7","5","4","4","4","5","4","5","0","-2","1","0","2","1","0","2","4","5","5","5","4","4","5","5","4","5","8","6","8","7","6","9","6","8","7","6","6","5","7","5","6","6","7","5","7","1","5","6","1","6","6","5","7","7","5","6","3","7","2","5","6","6","5","6","7","6","7","7","5","1","6","6","7","7","6","5","634031410327322624","刘","221","Male","[""好我"",""坏他"",""好他"",""坏我""]","[""强我"",""弱他"",""强他"",""弱我""]","","","","","","","","","","","","","","","","","","","","","","","","","","","","","","feedback_test","","","","","","","","",""
"1094","","f","psychophysics","12","511619","0.0-8.0-0.0-1.0-0.0-0.1","7","5","6","7","5","4","4","4","5","4","5","0","-2","1","0","2","1","0","2","4","5","5","5","4","4","5","5","4","5","8","6","8","7","6","9","6","8","7","6","6","5","7","5","6","6","7","5","7","1","5","6","1","6","6","5","7","7","5","6","3","7","2","5","6","6","5","6","7","6","7","7","5","1","6","6","7","7","6","5","634031410327322624","刘","221","Male","[""好我"",""坏他"",""好他"",""坏我""]","[""强我"",""弱他"",""强他"",""弱我""]","","","","","","","","nonmatch","","","","","","","","","","key","f","16.65334400000004","799.9999682108573","445.8333156175091","f","true","nonmatch","img/triangle.png","好他","坏我","prac_ALT2_moral","practice_moral","","","","","","","","",""
"null","<span style='color:GreenYellow; font-size: 70px;'>正确! </span>","null","html-keyboard-response","13","512120","0.0-8.0-0.0-1.0-0.0-1.1","7","5","6","7","5","4","4","4","5","4","5","0","-2","1","0","2","1","0","2","4","5","5","5","4","4","5","5","4","5","8","6","8","7","6","9","6","8","7","6","6","5","7","5","6","6","7","5","7","1","5","6","1","6","6","5","7","7","5","6","3","7","2","5","6","6","5","6","7","6","7","7","5","1","6","6","7","7","6","5","634031410327322624","刘","221","Male","[""好我"",""坏他"",""好他"",""坏我""]","[""强我"",""弱他"",""强他"",""弱我""]","","","","","","","","","","","","","","","","","","","","","","","","","","","","","","feedback_test","","","","","","","","",""
"1092","","f","psychophysics","14","514214","0.0-8.0-0.0-1.0-0.0-0.2","7","5","6","7","5","4","4","4","5","4","5","0","-2","1","0","2","1","0","2","4","5","5","5","4","4","5","5","4","5","8","6","8","7","6","9","6","8","7","6","6","5","7","5","6","6","7","5","7","1","5","6","1","6","6","5","7","7","5","6","3","7","2","5","6","6","5","6","7","6","7","7","5","1","6","6","7","7","6","5","634031410327322624","刘","221","Male","[""好我"",""坏他"",""好他"",""坏我""]","[""强我"",""弱他"",""强他"",""弱我""]","","","","","","","","nonmatch","","","","","","","","","","key","f","16.653151999999768","799.9999682108573","445.8333156175091","f","true","nonmatch","img/ellipse.png","好我","坏他","prac_ALT2_moral","practice_moral","","","","","","","","",""
"null","<span style='color:GreenYellow; font-size: 70px;'>正确! </span>","null","html-keyboard-response","15","514717","0.0-8.0-0.0-1.0-0.0-1.2","7","5","6","7","5","4","4","4","5","4","5","0","-2","1","0","2","1","0","2","4","5","5","5","4","4","5","5","4","5","8","6","8","7","6","9","6","8","7","6","6","5","7","5","6","6","7","5","7","1","5","6","1","6","6","5","7","7","5","6","3","7","2","5","6","6","5","6","7","6","7","7","5","1","6","6","7","7","6","5","634031410327322624","刘","221","Male","[""好我"",""坏他"",""好他"",""坏我""]","[""强我"",""弱他"",""强他"",""弱我""]","","","","","","","","","","","","","","","","","","","","","","","","","","","","","","feedback_test","","","","","","","","",""
"992","","j","psychophysics","16","516714","0.0-8.0-0.0-1.0-0.0-0.3","7","5","6","7","5","4","4","4","5","4","5","0","-2","1","0","2","1","0","2","4","5","5","5","4","4","5","5","4","5","8","6","8","7","6","9","6","8","7","6","6","5","7","5","6","6","7","5","7","1","5","6","1","6","6","5","7","7","5","6","3","7","2","5","6","6","5","6","7","6","7","7","5","1","6","6","7","7","6","5","634031410327322624","刘","221","Male","[""好我"",""坏他"",""好他"",""坏我""]","[""强我"",""弱他"",""强他"",""弱我""]","","","","","","","","match","","","","","","","","","","key","j","16.653310924369798","799.9999682108573","445.8333156175091","j","true","match","img/square.png","好我","好我","prac_ALT2_moral","practice_moral","","","","","","","","",""
"null","<span style='color:GreenYellow; font-size: 70px;'>正确! </span>","null","html-keyboard-response","17","517215","0.0-8.0-0.0-1.0-0.0-1.3","7","5","6","7","5","4","4","4","5","4","5","0","-2","1","0","2","1","0","2","4","5","5","5","4","4","5","5","4","5","8","6","8","7","6","9","6","8","7","6","6","5","7","5","6","6","7","5","7","1","5","6","1","6","6","5","7","7","5","6","3","7","2","5","6","6","5","6","7","6","7","7","5","1","6","6","7","7","6","5","634031410327322624","刘","221","Male","[""好我"",""坏他"",""好他"",""坏我""]","[""强我"",""弱他"",""强他"",""弱我""]","","","","","","","","","","","","","","","","","","","","","","","","","","","","","","feedback_test","","","","","","","","",""
"884","","f","psychophysics","18","519101","0.0-8.0-0.0-1.0-0.0-0.4","7","5","6","7","5","4","4","4","5","4","5","0","-2","1","0","2","1","0","2","4","5","5","5","4","4","5","5","4","5","8","6","8","7","6","9","6","8","7","6","6","5","7","5","6","6","7","5","7","1","5","6","1","6","6","5","7","7","5","6","3","7","2","5","6","6","5","6","7","6","7","7","5","1","6","6","7","7","6","5","634031410327322624","刘","221","Male","[""好我"",""坏他"",""好他"",""坏我""]","[""强我"",""弱他"",""强他"",""弱我""]","","","","","","","","nonmatch","","","","","","","","","","key","f","16.653633928571384","799.9999682108573","445.8333156175091","f","true","nonmatch","img/hexagon.png","好我","好他","prac_ALT2_moral","practice_moral","","","","","","","","",""
"null","<span style='color:GreenYellow; font-size: 70px;'>正确! </span>","null","html-keyboard-response","19","519603","0.0-8.0-0.0-1.0-0.0-1.4","7","5","6","7","5","4","4","4","5","4","5","0","-2","1","0","2","1","0","2","4","5","5","5","4","4","5","5","4","5","8","6","8","7","6","9","6","8","7","6","6","5","7","5","6","6","7","5","7","1","5","6","1","6","6","5","7","7","5","6","3","7","2","5","6","6","5","6","7","6","7","7","5","1","6","6","7","7","6","5","634031410327322624","刘","221","Male","[""好我"",""坏他"",""好他"",""坏我""]","[""强我"",""弱他"",""强他"",""弱我""]","","","","","","","","","","","","","","","","","","","","","","","","","","","","","","feedback_test","","","","","","","","",""
"898","","j","psychophysics","20","521503","0.0-8.0-0.0-1.0-0.0-0.5","7","5","6","7","5","4","4","4","5","4","5","0","-2","1","0","2","1","0","2","4","5","5","5","4","4","5","5","4","5","8","6","8","7","6","9","6","8","7","6","6","5","7","5","6","6","7","5","7","1","5","6","1","6","6","5","7","7","5","6","3","7","2","5","6","6","5","6","7","6","7","7","5","1","6","6","7","7","6","5","634031410327322624","刘","221","Male","[""好我"",""坏他"",""好他"",""坏我""]","[""强我"",""弱他"",""强他"",""弱我""]","","","","","","","","match","","","","","","","","","","key","j","16.653566371680924","799.9999682108573","445.8333156175091","j","true","match","img/square.png","好我","好我","prac_ALT2_moral","practice_moral","","","","","","","","",""
"null","<span style='color:GreenYellow; font-size: 70px;'>正确! </span>","null","html-keyboard-response","21","522004","0.0-8.0-0.0-1.0-0.0-1.5","7","5","6","7","5","4","4","4","5","4","5","0","-2","1","0","2","1","0","2","4","5","5","5","4","4","5","5","4","5","8","6","8","7","6","9","6","8","7","6","6","5","7","5","6","6","7","5","7","1","5","6","1","6","6","5","7","7","5","6","3","7","2","5","6","6","5","6","7","6","7","7","5","1","6","6","7","7","6","5","634031410327322624","刘","221","Male","[""好我"",""坏他"",""好他"",""坏我""]","[""强我"",""弱他"",""强他"",""弱我""]","","","","","","","","","","","","","","","","","","","","","","","","","","","","","","feedback_test","","","","","","","","",""
"1019","","f","psychophysics","22","524025","0.0-8.0-0.0-1.0-0.0-0.6","7","5","6","7","5","4","4","4","5","4","5","0","-2","1","0","2","1","0","2","4","5","5","5","4","4","5","5","4","5","8","6","8","7","6","9","6","8","7","6","6","5","7","5","6","6","7","5","7","1","5","6","1","6","6","5","7","7","5","6","3","7","2","5","6","6","5","6","7","6","7","7","5","1","6","6","7","7","6","5","634031410327322624","刘","221","Male","[""好我"",""坏他"",""好他"",""坏我""]","[""强我"",""弱他"",""强他"",""弱我""]","","","","","","","","nonmatch","","","","","","","","","","key","f","16.653533333333325","799.9999682108573","445.8333156175091","f","true","nonmatch","img/hexagon.png","坏我","好他","prac_ALT2_moral","practice_moral","","","","","","","","",""
"null","<span style='color:GreenYellow; font-size: 70px;'>正确! </span>","null","html-keyboard-response","23","524527","0.0-8.0-0.0-1.0-0.0-1.6","7","5","6","7","5","4","4","4","5","4","5","0","-2","1","0","2","1","0","2","4","5","5","5","4","4","5","5","4","5","8","6","8","7","6","9","6","8","7","6","6","5","7","5","6","6","7","5","7","1","5","6","1","6","6","5","7","7","5","6","3","7","2","5","6","6","5","6","7","6","7","7","5","1","6","6","7","7","6","5","634031410327322624","刘","221","Male","[""好我"",""坏他"",""好他"",""坏我""]","[""强我"",""弱他"",""强他"",""弱我""]","","","","","","","","","","","","","","","","","","","","","","","","","","","","","","feedback_test","","","","","","","","",""
"null","","null","psychophysics","24","526731","0.0-8.0-0.0-1.0-0.0-0.7","7","5","6","7","5","4","4","4","5","4","5","0","-2","1","0","2","1","0","2","4","5","5","5","4","4","5","5","4","5","8","6","8","7","6","9","6","8","7","6","6","5","7","5","6","6","7","5","7","1","5","6","1","6","6","5","7","7","5","6","3","7","2","5","6","6","5","6","7","6","7","7","5","1","6","6","7","7","6","5","634031410327322624","刘","221","Male","[""好我"",""坏他"",""好他"",""坏我""]","[""强我"",""弱他"",""强他"",""弱我""]","","","","","","","","null","","","","","","","","","","key","null","16.65319847328258","799.9999682108573","445.8333156175091","j","false","match","img/ellipse.png","坏他","坏他","prac_ALT2_moral","practice_moral","","","","","","","","",""
"null","<span class='add_' style='color:yellow; font-size: 70px;'> 太慢! </span>","null","html-keyboard-response","25","527232","0.0-8.0-0.0-1.0-0.0-1.7","7","5","6","7","5","4","4","4","5","4","5","0","-2","1","0","2","1","0","2","4","5","5","5","4","4","5","5","4","5","8","6","8","7","6","9","6","8","7","6","6","5","7","5","6","6","7","5","7","1","5","6","1","6","6","5","7","7","5","6","3","7","2","5","6","6","5","6","7","6","7","7","5","1","6","6","7","7","6","5","634031410327322624","刘","221","Male","[""好我"",""坏他"",""好他"",""坏我""]","[""强我"",""弱他"",""强他"",""弱我""]","","","","","","","","","","","","","","","","","","","","","","","","","","","","","","feedback_test","","","","","","","","",""
"902","","f","psychophysics","26","529136","0.0-8.0-0.0-1.0-0.0-0.8","7","5","6","7","5","4","4","4","5","4","5","0","-2","1","0","2","1","0","2","4","5","5","5","4","4","5","5","4","5","8","6","8","7","6","9","6","8","7","6","6","5","7","5","6","6","7","5","7","1","5","6","1","6","6","5","7","7","5","6","3","7","2","5","6","6","5","6","7","6","7","7","5","1","6","6","7","7","6","5","634031410327322624","刘","221","Male","[""好我"",""坏他"",""好他"",""坏我""]","[""强我"",""弱他"",""强他"",""弱我""]","","","","","","","","nonmatch","","","","","","","","","","key","f","16.65312389380595","799.9999682108573","445.8333156175091","f","true","nonmatch","img/square.png","坏他","好我","prac_ALT2_moral","practice_moral","","","","","","","","",""
"null","<span style='color:GreenYellow; font-size: 70px;'>正确! </span>","null","html-keyboard-response","27","529638","0.0-8.0-0.0-1.0-0.0-1.8","7","5","6","7","5","4","4","4","5","4","5","0","-2","1","0","2","1","0","2","4","5","5","5","4","4","5","5","4","5","8","6","8","7","6","9","6","8","7","6","6","5","7","5","6","6","7","5","7","1","5","6","1","6","6","5","7","7","5","6","3","7","2","5","6","6","5","6","7","6","7","7","5","1","6","6","7","7","6","5","634031410327322624","刘","221","Male","[""好我"",""坏他"",""好他"",""坏我""]","[""强我"",""弱他"",""强他"",""弱我""]","","","","","","","","","","","","","","","","","","","","","","","","","","","","","","feedback_test","","","","","","","","",""
"927","","f","psychophysics","28","531568","0.0-8.0-0.0-1.0-0.0-0.9","7","5","6","7","5","4","4","4","5","4","5","0","-2","1","0","2","1","0","2","4","5","5","5","4","4","5","5","4","5","8","6","8","7","6","9","6","8","7","6","6","5","7","5","6","6","7","5","7","1","5","6","1","6","6","5","7","7","5","6","3","7","2","5","6","6","5","6","7","6","7","7","5","1","6","6","7","7","6","5","634031410327322624","刘","221","Male","[""好我"",""坏他"",""好他"",""坏我""]","[""强我"",""弱他"",""强他"",""弱我""]","","","","","","","","nonmatch","","","","","","","","","","key","f","16.653400000000534","799.9999682108573","445.8333156175091","j","false","match","img/hexagon.png","好他","好他","prac_ALT2_moral","practice_moral","","","","","","","","",""
"null","<span style='color:red; font-size: 70px;'>错误! </span>","null","html-keyboard-response","29","532069","0.0-8.0-0.0-1.0-0.0-1.9","7","5","6","7","5","4","4","4","5","4","5","0","-2","1","0","2","1","0","2","4","5","5","5","4","4","5","5","4","5","8","6","8","7","6","9","6","8","7","6","6","5","7","5","6","6","7","5","7","1","5","6","1","6","6","5","7","7","5","6","3","7","2","5","6","6","5","6","7","6","7","7","5","1","6","6","7","7","6","5","634031410327322624","刘","221","Male","[""好我"",""坏他"",""好他"",""坏我""]","[""强我"",""弱他"",""强他"",""弱我""]","","","","","","","","","","","","","","","","","","","","","","","","","","","","","","feedback_test","","","","","","","","",""
"1081","","j","psychophysics","30","534153","0.0-8.0-0.0-1.0-0.0-0.10","7","5","6","7","5","4","4","4","5","4","5","0","-2","1","0","2","1","0","2","4","5","5","5","4","4","5","5","4","5","8","6","8","7","6","9","6","8","7","6","6","5","7","5","6","6","7","5","7","1","5","6","1","6","6","5","7","7","5","6","3","7","2","5","6","6","5","6","7","6","7","7","5","1","6","6","7","7","6","5","634031410327322624","刘","221","Male","[""好我"",""坏他"",""好他"",""坏我""]","[""强我"",""弱他"",""强他"",""弱我""]","","","","","","","","match","","","","","","","","","","key","j","16.649088709677134","799.9999682108573","445.8333156175091","j","true","match","img/triangle.png","坏我","坏我","prac_ALT2_moral","practice_moral","","","","","","","","",""
"null","<span style='color:GreenYellow; font-size: 70px;'>正确! </span>","null","html-keyboard-response","31","534654","0.0-8.0-0.0-1.0-0.0-1.10","7","5","6","7","5","4","4","4","5","4","5","0","-2","1","0","2","1","0","2","4","5","5","5","4","4","5","5","4","5","8","6","8","7","6","9","6","8","7","6","6","5","7","5","6","6","7","5","7","1","5","6","1","6","6","5","7","7","5","6","3","7","2","5","6","6","5","6","7","6","7","7","5","1","6","6","7","7","6","5","634031410327322624","刘","221","Male","[""好我"",""坏他"",""好他"",""坏我""]","[""强我"",""弱他"",""强他"",""弱我""]","","","","","","","","","","","","","","","","","","","","","","","","","","","","","","feedback_test","","","","","","","","",""
"905","","f","psychophysics","32","536562","0.0-8.0-0.0-1.0-0.0-0.11","7","5","6","7","5","4","4","4","5","4","5","0","-2","1","0","2","1","0","2","4","5","5","5","4","4","5","5","4","5","8","6","8","7","6","9","6","8","7","6","6","5","7","5","6","6","7","5","7","1","5","6","1","6","6","5","7","7","5","6","3","7","2","5","6","6","5","6","7","6","7","7","5","1","6","6","7","7","6","5","634031410327322624","刘","221","Male","[""好我"",""坏他"",""好他"",""坏我""]","[""强我"",""弱他"",""强他"",""弱我""]","","","","","","","","nonmatch","","","","","","","","","","key","f","16.653675438597258","799.9999682108573","445.8333156175091","f","true","nonmatch","img/triangle.png","好我","坏我","prac_ALT2_moral","practice_moral","","","","","","","","",""
"null","<span style='color:GreenYellow; font-size: 70px;'>正确! </span>","null","html-keyboard-response","33","537065","0.0-8.0-0.0-1.0-0.0-1.11","7","5","6","7","5","4","4","4","5","4","5","0","-2","1","0","2","1","0","2","4","5","5","5","4","4","5","5","4","5","8","6","8","7","6","9","6","8","7","6","6","5","7","5","6","6","7","5","7","1","5","6","1","6","6","5","7","7","5","6","3","7","2","5","6","6","5","6","7","6","7","7","5","1","6","6","7","7","6","5","634031410327322624","刘","221","Male","[""好我"",""坏他"",""好他"",""坏我""]","[""强我"",""弱他"",""强他"",""弱我""]","","","","","","","","","","","","","","","","","","","","","","","","","","","","","","feedback_test","","","","","","","","",""
"908","","j","psychophysics","34","538975","0.0-8.0-0.0-1.0-0.0-0.12","7","5","6","7","5","4","4","4","5","4","5","0","-2","1","0","2","1","0","2","4","5","5","5","4","4","5","5","4","5","8","6","8","7","6","9","6","8","7","6","6","5","7","5","6","6","7","5","7","1","5","6","1","6","6","5","7","7","5","6","3","7","2","5","6","6","5","6","7","6","7","7","5","1","6","6","7","7","6","5","634031410327322624","刘","221","Male","[""好我"",""坏他"",""好他"",""坏我""]","[""强我"",""弱他"",""强他"",""弱我""]","","","","","","","","match","","","","","","","","","","key","j","16.65233333333367","799.9999682108573","445.8333156175091","f","false","nonmatch","img/hexagon.png","坏他","好他","prac_ALT2_moral","practice_moral","","","","","","","","",""
"null","<span style='color:red; font-size: 70px;'>错误! </span>","null","html-keyboard-response","35","539477","0.0-8.0-0.0-1.0-0.0-1.12","7","5","6","7","5","4","4","4","5","4","5","0","-2","1","0","2","1","0","2","4","5","5","5","4","4","5","5","4","5","8","6","8","7","6","9","6","8","7","6","6","5","7","5","6","6","7","5","7","1","5","6","1","6","6","5","7","7","5","6","3","7","2","5","6","6","5","6","7","6","7","7","5","1","6","6","7","7","6","5","634031410327322624","刘","221","Male","[""好我"",""坏他"",""好他"",""坏我""]","[""强我"",""弱他"",""强他"",""弱我""]","","","","","","","","","","","","","","","","","","","","","","","","","","","","","","feedback_test","","","","","","","","",""
"714","","j","psychophysics","36","541192","0.0-8.0-0.0-1.0-0.0-0.13","7","5","6","7","5","4","4","4","5","4","5","0","-2","1","0","2","1","0","2","4","5","5","5","4","4","5","5","4","5","8","6","8","7","6","9","6","8","7","6","6","5","7","5","6","6","7","5","7","1","5","6","1","6","6","5","7","7","5","6","3","7","2","5","6","6","5","6","7","6","7","7","5","1","6","6","7","7","6","5","634031410327322624","刘","221","Male","[""好我"",""坏他"",""好他"",""坏我""]","[""强我"",""弱他"",""强他"",""弱我""]","","","","","","","","match","","","","","","","","","","key","j","16.653245098039726","799.9999682108573","445.8333156175091","f","false","nonmatch","img/ellipse.png","好他","坏他","prac_ALT2_moral","practice_moral","","","","","","","","",""
"null","<span style='color:red; font-size: 70px;'>错误! </span>","null","html-keyboard-response","37","541693","0.0-8.0-0.0-1.0-0.0-1.13","7","5","6","7","5","4","4","4","5","4","5","0","-2","1","0","2","1","0","2","4","5","5","5","4","4","5","5","4","5","8","6","8","7","6","9","6","8","7","6","6","5","7","5","6","6","7","5","7","1","5","6","1","6","6","5","7","7","5","6","3","7","2","5","6","6","5","6","7","6","7","7","5","1","6","6","7","7","6","5","634031410327322624","刘","221","Male","[""好我"",""坏他"",""好他"",""坏我""]","[""强我"",""弱他"",""强他"",""弱我""]","","","","","","","","","","","","","","","","","","","","","","","","","","","","","","feedback_test","","","","","","","","",""
"983","","j","psychophysics","38","543681","0.0-8.0-0.0-1.0-0.0-0.14","7","5","6","7","5","4","4","4","5","4","5","0","-2","1","0","2","1","0","2","4","5","5","5","4","4","5","5","4","5","8","6","8","7","6","9","6","8","7","6","6","5","7","5","6","6","7","5","7","1","5","6","1","6","6","5","7","7","5","6","3","7","2","5","6","6","5","6","7","6","7","7","5","1","6","6","7","7","6","5","634031410327322624","刘","221","Male","[""好我"",""坏他"",""好他"",""坏我""]","[""强我"",""弱他"",""强他"",""弱我""]","","","","","","","","match","","","","","","","","","","key","j","16.650254237287978","799.9999682108573","445.8333156175091","j","true","match","img/square.png","好我","好我","prac_ALT2_moral","practice_moral","","","","","","","","",""
"null","<span style='color:GreenYellow; font-size: 70px;'>正确! </span>","null","html-keyboard-response","39","544184","0.0-8.0-0.0-1.0-0.0-1.14","7","5","6","7","5","4","4","4","5","4","5","0","-2","1","0","2","1","0","2","4","5","5","5","4","4","5","5","4","5","8","6","8","7","6","9","6","8","7","6","6","5","7","5","6","6","7","5","7","1","5","6","1","6","6","5","7","7","5","6","3","7","2","5","6","6","5","6","7","6","7","7","5","1","6","6","7","7","6","5","634031410327322624","刘","221","Male","[""好我"",""坏他"",""好他"",""坏我""]","[""强我"",""弱他"",""强他"",""弱我""]","","","","","","","","","","","","","","","","","","","","","","","","","","","","","","feedback_test","","","","","","","","",""
"995","","f","psychophysics","40","546181","0.0-8.0-0.0-1.0-0.0-0.15","7","5","6","7","5","4","4","4","5","4","5","0","-2","1","0","2","1","0","2","4","5","5","5","4","4","5","5","4","5","8","6","8","7","6","9","6","8","7","6","6","5","7","5","6","6","7","5","7","1","5","6","1","6","6","5","7","7","5","6","3","7","2","5","6","6","5","6","7","6","7","7","5","1","6","6","7","7","6","5","634031410327322624","刘","221","Male","[""好我"",""坏他"",""好他"",""坏我""]","[""强我"",""弱他"",""强他"",""弱我""]","","","","","","","","nonmatch","","","","","","","","","","key","f","16.64249152542285","799.9999682108573","445.8333156175091","j","false","match","img/triangle.png","坏我","坏我","prac_ALT2_moral","practice_moral","","","","","","","","",""
"null","<span style='color:red; font-size: 70px;'>错误! </span>","null","html-keyboard-response","41","546682","0.0-8.0-0.0-1.0-0.0-1.15","7","5","6","7","5","4","4","4","5","4","5","0","-2","1","0","2","1","0","2","4","5","5","5","4","4","5","5","4","5","8","6","8","7","6","9","6","8","7","6","6","5","7","5","6","6","7","5","7","1","5","6","1","6","6","5","7","7","5","6","3","7","2","5","6","6","5","6","7","6","7","7","5","1","6","6","7","7","6","5","634031410327322624","刘","221","Male","[""好我"",""坏他"",""好他"",""坏我""]","[""强我"",""弱他"",""强他"",""弱我""]","","","","","","","","","","","","","","","","","","","","","","","","","","","","","","feedback_test","","","","","","","","",""
"1131","","f","psychophysics","42","548814","0.0-8.0-0.0-1.0-0.0-0.16","7","5","6","7","5","4","4","4","5","4","5","0","-2","1","0","2","1","0","2","4","5","5","5","4","4","5","5","4","5","8","6","8","7","6","9","6","8","7","6","6","5","7","5","6","6","7","5","7","1","5","6","1","6","6","5","7","7","5","6","3","7","2","5","6","6","5","6","7","6","7","7","5","1","6","6","7","7","6","5","634031410327322624","刘","221","Male","[""好我"",""坏他"",""好他"",""坏我""]","[""强我"",""弱他"",""强他"",""弱我""]","","","","","","","","nonmatch","","","","","","","","","","key","f","16.64488095238099","799.9999682108573","445.8333156175091","f","true","nonmatch","img/ellipse.png","坏我","坏他","prac_ALT2_moral","practice_moral","","","","","","","","",""
"null","<span style='color:GreenYellow; font-size: 70px;'>正确! </span>","null","html-keyboard-response","43","549316","0.0-8.0-0.0-1.0-0.0-1.16","7","5","6","7","5","4","4","4","5","4","5","0","-2","1","0","2","1","0","2","4","5","5","5","4","4","5","5","4","5","8","6","8","7","6","9","6","8","7","6","6","5","7","5","6","6","7","5","7","1","5","6","1","6","6","5","7","7","5","6","3","7","2","5","6","6","5","6","7","6","7","7","5","1","6","6","7","7","6","5","634031410327322624","刘","221","Male","[""好我"",""坏他"",""好他"",""坏我""]","[""强我"",""弱他"",""强他"",""弱我""]","","","","","","","","","","","","","","","","","","","","","","","","","","","","","","feedback_test","","","","","","","","",""
"933","","f","psychophysics","44","551251","0.0-8.0-0.0-1.0-0.0-0.17","7","5","6","7","5","4","4","4","5","4","5","0","-2","1","0","2","1","0","2","4","5","5","5","4","4","5","5","4","5","8","6","8","7","6","9","6","8","7","6","6","5","7","5","6","6","7","5","7","1","5","6","1","6","6","5","7","7","5","6","3","7","2","5","6","6","5","6","7","6","7","7","5","1","6","6","7","7","6","5","634031410327322624","刘","221","Male","[""好我"",""坏他"",""好他"",""坏我""]","[""强我"",""弱他"",""强他"",""弱我""]","","","","","","","","nonmatch","","","","","","","","","","key","f","16.65353043478225","799.9999682108573","445.8333156175091","f","true","nonmatch","img/square.png","好他","好我","prac_ALT2_moral","practice_moral","","","","","","","","",""
"null","<span style='color:GreenYellow; font-size: 70px;'>正确! </span>","null","html-keyboard-response","45","551752","0.0-8.0-0.0-1.0-0.0-1.17","7","5","6","7","5","4","4","4","5","4","5","0","-2","1","0","2","1","0","2","4","5","5","5","4","4","5","5","4","5","8","6","8","7","6","9","6","8","7","6","6","5","7","5","6","6","7","5","7","1","5","6","1","6","6","5","7","7","5","6","3","7","2","5","6","6","5","6","7","6","7","7","5","1","6","6","7","7","6","5","634031410327322624","刘","221","Male","[""好我"",""坏他"",""好他"",""坏我""]","[""强我"",""弱他"",""强他"",""弱我""]","","","","","","","","","","","","","","","","","","","","","","","","","","","","","","feedback_test","","","","","","","","",""
"853","","j","psychophysics","46","553607","0.0-8.0-0.0-1.0-0.0-0.18","7","5","6","7","5","4","4","4","5","4","5","0","-2","1","0","2","1","0","2","4","5","5","5","4","4","5","5","4","5","8","6","8","7","6","9","6","8","7","6","6","5","7","5","6","6","7","5","7","1","5","6","1","6","6","5","7","7","5","6","3","7","2","5","6","6","5","6","7","6","7","7","5","1","6","6","7","7","6","5","634031410327322624","刘","221","Male","[""好我"",""坏他"",""好他"",""坏我""]","[""强我"",""弱他"",""强他"",""弱我""]","","","","","","","","match","","","","","","","","","","key","j","16.650627272727434","799.9999682108573","445.8333156175091","j","true","match","img/triangle.png","坏我","坏我","prac_ALT2_moral","practice_moral","","","","","","","","",""
"null","<span style='color:GreenYellow; font-size: 70px;'>正确! </span>","null","html-keyboard-response","47","554110","0.0-8.0-0.0-1.0-0.0-1.18","7","5","6","7","5","4","4","4","5","4","5","0","-2","1","0","2","1","0","2","4","5","5","5","4","4","5","5","4","5","8","6","8","7","6","9","6","8","7","6","6","5","7","5","6","6","7","5","7","1","5","6","1","6","6","5","7","7","5","6","3","7","2","5","6","6","5","6","7","6","7","7","5","1","6","6","7","7","6","5","634031410327322624","刘","221","Male","[""好我"",""坏他"",""好他"",""坏我""]","[""强我"",""弱他"",""强他"",""弱我""]","","","","","","","","","","","","","","","","","","","","","","","","","","","","","","feedback_test","","","","","","","","",""
"839","","f","psychophysics","48","555951","0.0-8.0-0.0-1.0-0.0-0.19","7","5","6","7","5","4","4","4","5","4","5","0","-2","1","0","2","1","0","2","4","5","5","5","4","4","5","5","4","5","8","6","8","7","6","9","6","8","7","6","6","5","7","5","6","6","7","5","7","1","5","6","1","6","6","5","7","7","5","6","3","7","2","5","6","6","5","6","7","6","7","7","5","1","6","6","7","7","6","5","634031410327322624","刘","221","Male","[""好我"",""坏他"",""好他"",""坏我""]","[""强我"",""弱他"",""强他"",""弱我""]","","","","","","","","nonmatch","","","","","","","","","","key","f","16.6533119266056","799.9999682108573","445.8333156175091","f","true","nonmatch","img/square.png","坏我","好我","prac_ALT2_moral","practice_moral","","","","","","","","",""
"null","<span style='color:GreenYellow; font-size: 70px;'>正确! </span>","null","html-keyboard-response","49","556454","0.0-8.0-0.0-1.0-0.0-1.19","7","5","6","7","5","4","4","4","5","4","5","0","-2","1","0","2","1","0","2","4","5","5","5","4","4","5","5","4","5","8","6","8","7","6","9","6","8","7","6","6","5","7","5","6","6","7","5","7","1","5","6","1","6","6","5","7","7","5","6","3","7","2","5","6","6","5","6","7","6","7","7","5","1","6","6","7","7","6","5","634031410327322624","刘","221","Male","[""好我"",""坏他"",""好他"",""坏我""]","[""强我"",""弱他"",""强他"",""弱我""]","","","","","","","","","","","","","","","","","","","","","","","","","","","","","","feedback_test","","","","","","","","",""
"1006","","f","psychophysics","50","558461","0.0-8.0-0.0-1.0-0.0-0.20","7","5","6","7","5","4","4","4","5","4","5","0","-2","1","0","2","1","0","2","4","5","5","5","4","4","5","5","4","5","8","6","8","7","6","9","6","8","7","6","6","5","7","5","6","6","7","5","7","1","5","6","1","6","6","5","7","7","5","6","3","7","2","5","6","6","5","6","7","6","7","7","5","1","6","6","7","7","6","5","634031410327322624","刘","221","Male","[""好我"",""坏他"",""好他"",""坏我""]","[""强我"",""弱他"",""强他"",""弱我""]","","","","","","","","nonmatch","","","","","","","","","","key","f","16.65331666666704","799.9999682108573","445.8333156175091","f","true","nonmatch","img/triangle.png","坏他","坏我","prac_ALT2_moral","practice_moral","","","","","","","","",""
"null","<span style='color:GreenYellow; font-size: 70px;'>正确! </span>","null","html-keyboard-response","51","558963","0.0-8.0-0.0-1.0-0.0-1.20","7","5","6","7","5","4","4","4","5","4","5","0","-2","1","0","2","1","0","2","4","5","5","5","4","4","5","5","4","5","8","6","8","7","6","9","6","8","7","6","6","5","7","5","6","6","7","5","7","1","5","6","1","6","6","5","7","7","5","6","3","7","2","5","6","6","5","6","7","6","7","7","5","1","6","6","7","7","6","5","634031410327322624","刘","221","Male","[""好我"",""坏他"",""好他"",""坏我""]","[""强我"",""弱他"",""强他"",""弱我""]","","","","","","","","","","","","","","","","","","","","","","","","","","","","","","feedback_test","","","","","","","","",""
"1130","","j","psychophysics","52","561094","0.0-8.0-0.0-1.0-0.0-0.21","7","5","6","7","5","4","4","4","5","4","5","0","-2","1","0","2","1","0","2","4","5","5","5","4","4","5","5","4","5","8","6","8","7","6","9","6","8","7","6","6","5","7","5","6","6","7","5","7","1","5","6","1","6","6","5","7","7","5","6","3","7","2","5","6","6","5","6","7","6","7","7","5","1","6","6","7","7","6","5","634031410327322624","刘","221","Male","[""好我"",""坏他"",""好他"",""坏我""]","[""强我"",""弱他"",""强他"",""弱我""]","","","","","","","","match","","","","","","","","","","key","j","16.653181102362417","799.9999682108573","445.8333156175091","j","true","match","img/hexagon.png","好他","好他","prac_ALT2_moral","practice_moral","","","","","","","","",""
"null","<span style='color:GreenYellow; font-size: 70px;'>正确! </span>","null","html-keyboard-response","53","561595","0.0-8.0-0.0-1.0-0.0-1.21","7","5","6","7","5","4","4","4","5","4","5","0","-2","1","0","2","1","0","2","4","5","5","5","4","4","5","5","4","5","8","6","8","7","6","9","6","8","7","6","6","5","7","5","6","6","7","5","7","1","5","6","1","6","6","5","7","7","5","6","3","7","2","5","6","6","5","6","7","6","7","7","5","1","6","6","7","7","6","5","634031410327322624","刘","221","Male","[""好我"",""坏他"",""好他"",""坏我""]","[""强我"",""弱他"",""强他"",""弱我""]","","","","","","","","","","","","","","","","","","","","","","","","","","","","","","feedback_test","","","","","","","","",""
"887","","j","psychophysics","54","563484","0.0-8.0-0.0-1.0-0.0-0.22","7","5","6","7","5","4","4","4","5","4","5","0","-2","1","0","2","1","0","2","4","5","5","5","4","4","5","5","4","5","8","6","8","7","6","9","6","8","7","6","6","5","7","5","6","6","7","5","7","1","5","6","1","6","6","5","7","7","5","6","3","7","2","5","6","6","5","6","7","6","7","7","5","1","6","6","7","7","6","5","634031410327322624","刘","221","Male","[""好我"",""坏他"",""好他"",""坏我""]","[""强我"",""弱他"",""强他"",""弱我""]","","","","","","","","match","","","","","","","","","","key","j","16.651473214285424","799.9999682108573","445.8333156175091","j","true","match","img/hexagon.png","好他","好他","prac_ALT2_moral","practice_moral","","","","","","","","",""
"null","<span style='color:GreenYellow; font-size: 70px;'>正确! </span>","null","html-keyboard-response","55","563986","0.0-8.0-0.0-1.0-0.0-1.22","7","5","6","7","5","4","4","4","5","4","5","0","-2","1","0","2","1","0","2","4","5","5","5","4","4","5","5","4","5","8","6","8","7","6","9","6","8","7","6","6","5","7","5","6","6","7","5","7","1","5","6","1","6","6","5","7","7","5","6","3","7","2","5","6","6","5","6","7","6","7","7","5","1","6","6","7","7","6","5","634031410327322624","刘","221","Male","[""好我"",""坏他"",""好他"",""坏我""]","[""强我"",""弱他"",""强他"",""弱我""]","","","","","","","","","","","","","","","","","","","","","","","","","","","","","","feedback_test","","","","","","","","",""
"642","","j","psychophysics","56","565630","0.0-8.0-0.0-1.0-0.0-0.23","7","5","6","7","5","4","4","4","5","4","5","0","-2","1","0","2","1","0","2","4","5","5","5","4","4","5","5","4","5","8","6","8","7","6","9","6","8","7","6","6","5","7","5","6","6","7","5","7","1","5","6","1","6","6","5","7","7","5","6","3","7","2","5","6","6","5","6","7","6","7","7","5","1","6","6","7","7","6","5","634031410327322624","刘","221","Male","[""好我"",""坏他"",""好他"",""坏我""]","[""强我"",""弱他"",""强他"",""弱我""]","","","","","","","","match","","","","","","","","","","key","j","16.653309278350957","799.9999682108573","445.8333156175091","j","true","match","img/ellipse.png","坏他","坏他","prac_ALT2_moral","practice_moral","","","","","","","","",""
"null","<span style='color:GreenYellow; font-size: 70px;'>正确! </span>","null","html-keyboard-response","57","566140","0.0-8.0-0.0-1.0-0.0-1.23","7","5","6","7","5","4","4","4","5","4","5","0","-2","1","0","2","1","0","2","4","5","5","5","4","4","5","5","4","5","8","6","8","7","6","9","6","8","7","6","6","5","7","5","6","6","7","5","7","1","5","6","1","6","6","5","7","7","5","6","3","7","2","5","6","6","5","6","7","6","7","7","5","1","6","6","7","7","6","5","634031410327322624","刘","221","Male","[""好我"",""坏他"",""好他"",""坏我""]","[""强我"",""弱他"",""强他"",""弱我""]","","","","","","","","","","","","","","","","","","","","","","","","","","","","","","feedback_test","","","","","","","","",""
"568","","j","psychophysics","58","567710","0.0-8.0-0.0-1.0-0.0-0.24","7","5","6","7","5","4","4","4","5","4","5","0","-2","1","0","2","1","0","2","4","5","5","5","4","4","5","5","4","5","8","6","8","7","6","9","6","8","7","6","6","5","7","5","6","6","7","5","7","1","5","6","1","6","6","5","7","7","5","6","3","7","2","5","6","6","5","6","7","6","7","7","5","1","6","6","7","7","6","5","634031410327322624","刘","221","Male","[""好我"",""坏他"",""好他"",""坏我""]","[""强我"",""弱他"",""强他"",""弱我""]","","","","","","","","match","","","","","","","","","","key","j","16.65358064516187","799.9999682108573","445.8333156175091","j","true","match","img/ellipse.png","坏他","坏他","prac_ALT2_moral","practice_moral","","","","","","","","",""
"null","<span style='color:GreenYellow; font-size: 70px;'>正确! </span>","null","html-keyboard-response","59","568212","0.0-8.0-0.0-1.0-0.0-1.24","7","5","6","7","5","4","4","4","5","4","5","0","-2","1","0","2","1","0","2","4","5","5","5","4","4","5","5","4","5","8","6","8","7","6","9","6","8","7","6","6","5","7","5","6","6","7","5","7","1","5","6","1","6","6","5","7","7","5","6","3","7","2","5","6","6","5","6","7","6","7","7","5","1","6","6","7","7","6","5","634031410327322624","刘","221","Male","[""好我"",""坏他"",""好他"",""坏我""]","[""强我"",""弱他"",""强他"",""弱我""]","","","","","","","","","","","","","","","","","","","","","","","","","","","","","","feedback_test","","","","","","","","",""
"671","","j","psychophysics","60","569885","0.0-8.0-0.0-1.0-0.0-0.25","7","5","6","7","5","4","4","4","5","4","5","0","-2","1","0","2","1","0","2","4","5","5","5","4","4","5","5","4","5","8","6","8","7","6","9","6","8","7","6","6","5","7","5","6","6","7","5","7","1","5","6","1","6","6","5","7","7","5","6","3","7","2","5","6","6","5","6","7","6","7","7","5","1","6","6","7","7","6","5","634031410327322624","刘","221","Male","[""好我"",""坏他"",""好他"",""坏我""]","[""强我"",""弱他"",""强他"",""弱我""]","","","","","","","","match","","","","","","","","","","key","j","16.653570000000762","799.9999682108573","445.8333156175091","j","true","match","img/square.png","好我","好我","prac_ALT2_moral","practice_moral","","","","","","","","",""
"null","<span style='color:GreenYellow; font-size: 70px;'>正确! </span>","null","html-keyboard-response","61","570386","0.0-8.0-0.0-1.0-0.0-1.25","7","5","6","7","5","4","4","4","5","4","5","0","-2","1","0","2","1","0","2","4","5","5","5","4","4","5","5","4","5","8","6","8","7","6","9","6","8","7","6","6","5","7","5","6","6","7","5","7","1","5","6","1","6","6","5","7","7","5","6","3","7","2","5","6","6","5","6","7","6","7","7","5","1","6","6","7","7","6","5","634031410327322624","刘","221","Male","[""好我"",""坏他"",""好他"",""坏我""]","[""强我"",""弱他"",""强他"",""弱我""]","","","","","","","","","","","","","","","","","","","","","","","","","","","","","","feedback_test","","","","","","","","",""
"1185","","f","psychophysics","62","572573","0.0-8.0-0.0-1.0-0.0-0.26","7","5","6","7","5","4","4","4","5","4","5","0","-2","1","0","2","1","0","2","4","5","5","5","4","4","5","5","4","5","8","6","8","7","6","9","6","8","7","6","6","5","7","5","6","6","7","5","7","1","5","6","1","6","6","5","7","7","5","6","3","7","2","5","6","6","5","6","7","6","7","7","5","1","6","6","7","7","6","5","634031410327322624","刘","221","Male","[""好我"",""坏他"",""好他"",""坏我""]","[""强我"",""弱他"",""强他"",""弱我""]","","","","","","","","nonmatch","","","","","","","","","","key","f","16.653269230768693","799.9999682108573","445.8333156175091","f","true","nonmatch","img/ellipse.png","好他","坏他","prac_ALT2_moral","practice_moral","","","","","","","","",""
"null","<span style='color:GreenYellow; font-size: 70px;'>正确! </span>","null","html-keyboard-response","63","573075","0.0-8.0-0.0-1.0-0.0-1.26","7","5","6","7","5","4","4","4","5","4","5","0","-2","1","0","2","1","0","2","4","5","5","5","4","4","5","5","4","5","8","6","8","7","6","9","6","8","7","6","6","5","7","5","6","6","7","5","7","1","5","6","1","6","6","5","7","7","5","6","3","7","2","5","6","6","5","6","7","6","7","7","5","1","6","6","7","7","6","5","634031410327322624","刘","221","Male","[""好我"",""坏他"",""好他"",""坏我""]","[""强我"",""弱他"",""强他"",""弱我""]","","","","","","","","","","","","","","","","","","","","","","","","","","","","","","feedback_test","","","","","","","","",""
"771","","f","psychophysics","64","574848","0.0-8.0-0.0-1.0-0.0-0.27","7","5","6","7","5","4","4","4","5","4","5","0","-2","1","0","2","1","0","2","4","5","5","5","4","4","5","5","4","5","8","6","8","7","6","9","6","8","7","6","6","5","7","5","6","6","7","5","7","1","5","6","1","6","6","5","7","7","5","6","3","7","2","5","6","6","5","6","7","6","7","7","5","1","6","6","7","7","6","5","634031410327322624","刘","221","Male","[""好我"",""坏他"",""好他"",""坏我""]","[""强我"",""弱他"",""强他"",""弱我""]","","","","","","","","nonmatch","","","","","","","","","","key","f","16.653698113207696","799.9999682108573","445.8333156175091","f","true","nonmatch","img/square.png","坏他","好我","prac_ALT2_moral","practice_moral","","","","","","","","",""
"null","<span style='color:GreenYellow; font-size: 70px;'>正确! </span>","null","html-keyboard-response","65","575351","0.0-8.0-0.0-1.0-0.0-1.27","7","5","6","7","5","4","4","4","5","4","5","0","-2","1","0","2","1","0","2","4","5","5","5","4","4","5","5","4","5","8","6","8","7","6","9","6","8","7","6","6","5","7","5","6","6","7","5","7","1","5","6","1","6","6","5","7","7","5","6","3","7","2","5","6","6","5","6","7","6","7","7","5","1","6","6","7","7","6","5","634031410327322624","刘","221","Male","[""好我"",""坏他"",""好他"",""坏我""]","[""强我"",""弱他"",""强他"",""弱我""]","","","","","","","","","","","","","","","","","","","","","","","","","","","","","","feedback_test","","","","","","","","",""
"721","","j","psychophysics","66","577073","0.0-8.0-0.0-1.0-0.0-0.28","7","5","6","7","5","4","4","4","5","4","5","0","-2","1","0","2","1","0","2","4","5","5","5","4","4","5","5","4","5","8","6","8","7","6","9","6","8","7","6","6","5","7","5","6","6","7","5","7","1","5","6","1","6","6","5","7","7","5","6","3","7","2","5","6","6","5","6","7","6","7","7","5","1","6","6","7","7","6","5","634031410327322624","刘","221","Male","[""好我"",""坏他"",""好他"",""坏我""]","[""强我"",""弱他"",""强他"",""弱我""]","","","","","","","","match","","","","","","","","","","key","j","16.651941176469656","799.9999682108573","445.8333156175091","j","true","match","img/square.png","好我","好我","prac_ALT2_moral","practice_moral","","","","","","","","",""
"null","<span style='color:GreenYellow; font-size: 70px;'>正确! </span>","null","html-keyboard-response","67","577575","0.0-8.0-0.0-1.0-0.0-1.28","7","5","6","7","5","4","4","4","5","4","5","0","-2","1","0","2","1","0","2","4","5","5","5","4","4","5","5","4","5","8","6","8","7","6","9","6","8","7","6","6","5","7","5","6","6","7","5","7","1","5","6","1","6","6","5","7","7","5","6","3","7","2","5","6","6","5","6","7","6","7","7","5","1","6","6","7","7","6","5","634031410327322624","刘","221","Male","[""好我"",""坏他"",""好他"",""坏我""]","[""强我"",""弱他"",""强他"",""弱我""]","","","","","","","","","","","","","","","","","","","","","","","","","","","","","","feedback_test","","","","","","","","",""
"901","","f","psychophysics","68","579478","0.0-8.0-0.0-1.0-0.0-0.29","7","5","6","7","5","4","4","4","5","4","5","0","-2","1","0","2","1","0","2","4","5","5","5","4","4","5","5","4","5","8","6","8","7","6","9","6","8","7","6","6","5","7","5","6","6","7","5","7","1","5","6","1","6","6","5","7","7","5","6","3","7","2","5","6","6","5","6","7","6","7","7","5","1","6","6","7","7","6","5","634031410327322624","刘","221","Male","[""好我"",""坏他"",""好他"",""坏我""]","[""强我"",""弱他"",""强他"",""弱我""]","","","","","","","","nonmatch","","","","","","","","","","key","f","16.652637168141784","799.9999682108573","445.8333156175091","f","true","nonmatch","img/ellipse.png","坏我","坏他","prac_ALT2_moral","practice_moral","","","","","","","","",""
"null","<span style='color:GreenYellow; font-size: 70px;'>正确! </span>","null","html-keyboard-response","69","579980","0.0-8.0-0.0-1.0-0.0-1.29","7","5","6","7","5","4","4","4","5","4","5","0","-2","1","0","2","1","0","2","4","5","5","5","4","4","5","5","4","5","8","6","8","7","6","9","6","8","7","6","6","5","7","5","6","6","7","5","7","1","5","6","1","6","6","5","7","7","5","6","3","7","2","5","6","6","5","6","7","6","7","7","5","1","6","6","7","7","6","5","634031410327322624","刘","221","Male","[""好我"",""坏他"",""好他"",""坏我""]","[""强我"",""弱他"",""强他"",""弱我""]","","","","","","","","","","","","","","","","","","","","","","","","","","","","","","feedback_test","","","","","","","","",""
"927","","j","psychophysics","70","581911","0.0-8.0-0.0-1.0-0.0-0.30","7","5","6","7","5","4","4","4","5","4","5","0","-2","1","0","2","1","0","2","4","5","5","5","4","4","5","5","4","5","8","6","8","7","6","9","6","8","7","6","6","5","7","5","6","6","7","5","7","1","5","6","1","6","6","5","7","7","5","6","3","7","2","5","6","6","5","6","7","6","7","7","5","1","6","6","7","7","6","5","634031410327322624","刘","221","Male","[""好我"",""坏他"",""好他"",""坏我""]","[""强我"",""弱他"",""强他"",""弱我""]","","","","","","","","match","","","","","","","","","","key","j","16.653373913043787","799.9999682108573","445.8333156175091","j","true","match","img/hexagon.png","好他","好他","prac_ALT2_moral","practice_moral","","","","","","","","",""
"null","<span style='color:GreenYellow; font-size: 70px;'>正确! </span>","null","html-keyboard-response","71","582411","0.0-8.0-0.0-1.0-0.0-1.30","7","5","6","7","5","4","4","4","5","4","5","0","-2","1","0","2","1","0","2","4","5","5","5","4","4","5","5","4","5","8","6","8","7","6","9","6","8","7","6","6","5","7","5","6","6","7","5","7","1","5","6","1","6","6","5","7","7","5","6","3","7","2","5","6","6","5","6","7","6","7","7","5","1","6","6","7","7","6","5","634031410327322624","刘","221","Male","[""好我"",""坏他"",""好他"",""坏我""]","[""强我"",""弱他"",""强他"",""弱我""]","","","","","","","","","","","","","","","","","","","","","","","","","","","","","","feedback_test","","","","","","","","",""
"827","","f","psychophysics","72","584240","0.0-8.0-0.0-1.0-0.0-0.31","7","5","6","7","5","4","4","4","5","4","5","0","-2","1","0","2","1","0","2","4","5","5","5","4","4","5","5","4","5","8","6","8","7","6","9","6","8","7","6","6","5","7","5","6","6","7","5","7","1","5","6","1","6","6","5","7","7","5","6","3","7","2","5","6","6","5","6","7","6","7","7","5","1","6","6","7","7","6","5","634031410327322624","刘","221","Male","[""好我"",""坏他"",""好他"",""坏我""]","[""强我"",""弱他"",""强他"",""弱我""]","","","","","","","","nonmatch","","","","","","","","","","key","f","16.65320183486259","799.9999682108573","445.8333156175091","f","true","nonmatch","img/ellipse.png","好我","坏他","prac_ALT2_moral","practice_moral","","","","","","","","",""
"null","<span style='color:GreenYellow; font-size: 70px;'>正确! </span>","null","html-keyboard-response","73","584742","0.0-8.0-0.0-1.0-0.0-1.31","7","5","6","7","5","4","4","4","5","4","5","0","-2","1","0","2","1","0","2","4","5","5","5","4","4","5","5","4","5","8","6","8","7","6","9","6","8","7","6","6","5","7","5","6","6","7","5","7","1","5","6","1","6","6","5","7","7","5","6","3","7","2","5","6","6","5","6","7","6","7","7","5","1","6","6","7","7","6","5","634031410327322624","刘","221","Male","[""好我"",""坏他"",""好他"",""坏我""]","[""强我"",""弱他"",""强他"",""弱我""]","","","","","","","","","","","","","","","","","","","","","","","","","","","","","","feedback_test","","","","","","","","",""
"929","","f","psychophysics","74","586672","0.0-8.0-0.0-1.0-0.0-0.32","7","5","6","7","5","4","4","4","5","4","5","0","-2","1","0","2","1","0","2","4","5","5","5","4","4","5","5","4","5","8","6","8","7","6","9","6","8","7","6","6","5","7","5","6","6","7","5","7","1","5","6","1","6","6","5","7","7","5","6","3","7","2","5","6","6","5","6","7","6","7","7","5","1","6","6","7","7","6","5","634031410327322624","刘","221","Male","[""好我"",""坏他"",""好他"",""坏我""]","[""强我"",""弱他"",""强他"",""弱我""]","","","","","","","","nonmatch","","","","","","","","","","key","f","16.653739130435227","799.9999682108573","445.8333156175091","f","true","nonmatch","img/triangle.png","好我","坏我","prac_ALT2_moral","practice_moral","","","","","","","","",""
"null","<span style='color:GreenYellow; font-size: 70px;'>正确! </span>","null","html-keyboard-response","75","587186","0.0-8.0-0.0-1.0-0.0-1.32","7","5","6","7","5","4","4","4","5","4","5","0","-2","1","0","2","1","0","2","4","5","5","5","4","4","5","5","4","5","8","6","8","7","6","9","6","8","7","6","6","5","7","5","6","6","7","5","7","1","5","6","1","6","6","5","7","7","5","6","3","7","2","5","6","6","5","6","7","6","7","7","5","1","6","6","7","7","6","5","634031410327322624","刘","221","Male","[""好我"",""坏他"",""好他"",""坏我""]","[""强我"",""弱他"",""强他"",""弱我""]","","","","","","","","","","","","","","","","","","","","","","","","","","","","","","feedback_test","","","","","","","","",""
"968","","j","psychophysics","76","589155","0.0-8.0-0.0-1.0-0.0-0.33","7","5","6","7","5","4","4","4","5","4","5","0","-2","1","0","2","1","0","2","4","5","5","5","4","4","5","5","4","5","8","6","8","7","6","9","6","8","7","6","6","5","7","5","6","6","7","5","7","1","5","6","1","6","6","5","7","7","5","6","3","7","2","5","6","6","5","6","7","6","7","7","5","1","6","6","7","7","6","5","634031410327322624","刘","221","Male","[""好我"",""坏他"",""好他"",""坏我""]","[""强我"",""弱他"",""强他"",""弱我""]","","","","","","","","match","","","","","","","","","","key","j","16.65358119658155","799.9999682108573","445.8333156175091","f","false","nonmatch","img/square.png","好他","好我","prac_ALT2_moral","practice_moral","","","","","","","","",""
"null","<span style='color:red; font-size: 70px;'>错误! </span>","null","html-keyboard-response","77","589656","0.0-8.0-0.0-1.0-0.0-1.33","7","5","6","7","5","4","4","4","5","4","5","0","-2","1","0","2","1","0","2","4","5","5","5","4","4","5","5","4","5","8","6","8","7","6","9","6","8","7","6","6","5","7","5","6","6","7","5","7","1","5","6","1","6","6","5","7","7","5","6","3","7","2","5","6","6","5","6","7","6","7","7","5","1","6","6","7","7","6","5","634031410327322624","刘","221","Male","[""好我"",""坏他"",""好他"",""坏我""]","[""强我"",""弱他"",""强他"",""弱我""]","","","","","","","","","","","","","","","","","","","","","","","","","","","","","","feedback_test","","","","","","","","",""
"null","","null","psychophysics","78","591858","0.0-8.0-0.0-1.0-0.0-0.34","7","5","6","7","5","4","4","4","5","4","5","0","-2","1","0","2","1","0","2","4","5","5","5","4","4","5","5","4","5","8","6","8","7","6","9","6","8","7","6","6","5","7","5","6","6","7","5","7","1","5","6","1","6","6","5","7","7","5","6","3","7","2","5","6","6","5","6","7","6","7","7","5","1","6","6","7","7","6","5","634031410327322624","刘","221","Male","[""好我"",""坏他"",""好他"",""坏我""]","[""强我"",""弱他"",""强他"",""弱我""]","","","","","","","","null","","","","","","","","","","key","null","16.65341221374097","799.9999682108573","445.8333156175091","j","false","match","img/triangle.png","坏我","坏我","prac_ALT2_moral","practice_moral","","","","","","","","",""
"null","<span class='add_' style='color:yellow; font-size: 70px;'> 太慢! </span>","null","html-keyboard-response","79","592360","0.0-8.0-0.0-1.0-0.0-1.34","7","5","6","7","5","4","4","4","5","4","5","0","-2","1","0","2","1","0","2","4","5","5","5","4","4","5","5","4","5","8","6","8","7","6","9","6","8","7","6","6","5","7","5","6","6","7","5","7","1","5","6","1","6","6","5","7","7","5","6","3","7","2","5","6","6","5","6","7","6","7","7","5","1","6","6","7","7","6","5","634031410327322624","刘","221","Male","[""好我"",""坏他"",""好他"",""坏我""]","[""强我"",""弱他"",""强他"",""弱我""]","","","","","","","","","","","","","","","","","","","","","","","","","","","","","","feedback_test","","","","","","","","",""
"567","","j","psychophysics","80","593930","0.0-8.0-0.0-1.0-0.0-0.35","7","5","6","7","5","4","4","4","5","4","5","0","-2","1","0","2","1","0","2","4","5","5","5","4","4","5","5","4","5","8","6","8","7","6","9","6","8","7","6","6","5","7","5","6","6","7","5","7","1","5","6","1","6","6","5","7","7","5","6","3","7","2","5","6","6","5","6","7","6","7","7","5","1","6","6","7","7","6","5","634031410327322624","刘","221","Male","[""好我"",""坏他"",""好他"",""坏我""]","[""强我"",""弱他"",""强他"",""弱我""]","","","","","","","","match","","","","","","","","","","key","j","16.654691489361365","799.9999682108573","445.8333156175091","j","true","match","img/triangle.png","坏我","坏我","prac_ALT2_moral","practice_moral","","","","","","","","",""
"null","<span style='color:GreenYellow; font-size: 70px;'>正确! </span>","null","html-keyboard-response","81","594432","0.0-8.0-0.0-1.0-0.0-1.35","7","5","6","7","5","4","4","4","5","4","5","0","-2","1","0","2","1","0","2","4","5","5","5","4","4","5","5","4","5","8","6","8","7","6","9","6","8","7","6","6","5","7","5","6","6","7","5","7","1","5","6","1","6","6","5","7","7","5","6","3","7","2","5","6","6","5","6","7","6","7","7","5","1","6","6","7","7","6","5","634031410327322624","刘","221","Male","[""好我"",""坏他"",""好他"",""坏我""]","[""强我"",""弱他"",""强他"",""弱我""]","","","","","","","","","","","","","","","","","","","","","","","","","","","","","","feedback_test","","","","","","","","",""
"1134","","j","psychophysics","82","596569","0.0-8.0-0.0-1.0-0.0-0.36","7","5","6","7","5","4","4","4","5","4","5","0","-2","1","0","2","1","0","2","4","5","5","5","4","4","5","5","4","5","8","6","8","7","6","9","6","8","7","6","6","5","7","5","6","6","7","5","7","1","5","6","1","6","6","5","7","7","5","6","3","7","2","5","6","6","5","6","7","6","7","7","5","1","6","6","7","7","6","5","634031410327322624","刘","221","Male","[""好我"",""坏他"",""好他"",""坏我""]","[""强我"",""弱他"",""强他"",""弱我""]","","","","","","","","match","","","","","","","","","","key","j","16.653622047244166","799.9999682108573","445.8333156175091","j","true","match","img/ellipse.png","坏他","坏他","prac_ALT2_moral","practice_moral","","","","","","","","",""
"null","<span style='color:GreenYellow; font-size: 70px;'>正确! </span>","null","html-keyboard-response","83","597070","0.0-8.0-0.0-1.0-0.0-1.36","7","5","6","7","5","4","4","4","5","4","5","0","-2","1","0","2","1","0","2","4","5","5","5","4","4","5","5","4","5","8","6","8","7","6","9","6","8","7","6","6","5","7","5","6","6","7","5","7","1","5","6","1","6","6","5","7","7","5","6","3","7","2","5","6","6","5","6","7","6","7","7","5","1","6","6","7","7","6","5","634031410327322624","刘","221","Male","[""好我"",""坏他"",""好他"",""坏我""]","[""强我"",""弱他"",""强他"",""弱我""]","","","","","","","","","","","","","","","","","","","","","","","","","","","","","","feedback_test","","","","","","","","",""
"645","","j","psychophysics","84","598717","0.0-8.0-0.0-1.0-0.0-0.37","7","5","6","7","5","4","4","4","5","4","5","0","-2","1","0","2","1","0","2","4","5","5","5","4","4","5","5","4","5","8","6","8","7","6","9","6","8","7","6","6","5","7","5","6","6","7","5","7","1","5","6","1","6","6","5","7","7","5","6","3","7","2","5","6","6","5","6","7","6","7","7","5","1","6","6","7","7","6","5","634031410327322624","刘","221","Male","[""好我"",""坏他"",""好他"",""坏我""]","[""强我"",""弱他"",""强他"",""弱我""]","","","","","","","","match","","","","","","","","","","key","j","16.652897959183047","799.9999682108573","445.8333156175091","j","true","match","img/triangle.png","坏我","坏我","prac_ALT2_moral","practice_moral","","","","","","","","",""
"null","<span style='color:GreenYellow; font-size: 70px;'>正确! </span>","null","html-keyboard-response","85","599217","0.0-8.0-0.0-1.0-0.0-1.37","7","5","6","7","5","4","4","4","5","4","5","0","-2","1","0","2","1","0","2","4","5","5","5","4","4","5","5","4","5","8","6","8","7","6","9","6","8","7","6","6","5","7","5","6","6","7","5","7","1","5","6","1","6","6","5","7","7","5","6","3","7","2","5","6","6","5","6","7","6","7","7","5","1","6","6","7","7","6","5","634031410327322624","刘","221","Male","[""好我"",""坏他"",""好他"",""坏我""]","[""强我"",""弱他"",""强他"",""弱我""]","","","","","","","","","","","","","","","","","","","","","","","","","","","","","","feedback_test","","","","","","","","",""
"1128","","f","psychophysics","86","601348","0.0-8.0-0.0-1.0-0.0-0.38","7","5","6","7","5","4","4","4","5","4","5","0","-2","1","0","2","1","0","2","4","5","5","5","4","4","5","5","4","5","8","6","8","7","6","9","6","8","7","6","6","5","7","5","6","6","7","5","7","1","5","6","1","6","6","5","7","7","5","6","3","7","2","5","6","6","5","6","7","6","7","7","5","1","6","6","7","7","6","5","634031410327322624","刘","221","Male","[""好我"",""坏他"",""好他"",""坏我""]","[""强我"",""弱他"",""强他"",""弱我""]","","","","","","","","nonmatch","","","","","","","","","","key","f","16.65100787401632","799.9999682108573","445.8333156175091","f","true","nonmatch","img/hexagon.png","好我","好他","prac_ALT2_moral","practice_moral","","","","","","","","",""
"null","<span style='color:GreenYellow; font-size: 70px;'>正确! </span>","null","html-keyboard-response","87","601849","0.0-8.0-0.0-1.0-0.0-1.38","7","5","6","7","5","4","4","4","5","4","5","0","-2","1","0","2","1","0","2","4","5","5","5","4","4","5","5","4","5","8","6","8","7","6","9","6","8","7","6","6","5","7","5","6","6","7","5","7","1","5","6","1","6","6","5","7","7","5","6","3","7","2","5","6","6","5","6","7","6","7","7","5","1","6","6","7","7","6","5","634031410327322624","刘","221","Male","[""好我"",""坏他"",""好他"",""坏我""]","[""强我"",""弱他"",""强他"",""弱我""]","","","","","","","","","","","","","","","","","","","","","","","","","","","","","","feedback_test","","","","","","","","",""
"1073","","f","psychophysics","88","603923","0.0-8.0-0.0-1.0-0.0-0.39","7","5","6","7","5","4","4","4","5","4","5","0","-2","1","0","2","1","0","2","4","5","5","5","4","4","5","5","4","5","8","6","8","7","6","9","6","8","7","6","6","5","7","5","6","6","7","5","7","1","5","6","1","6","6","5","7","7","5","6","3","7","2","5","6","6","5","6","7","6","7","7","5","1","6","6","7","7","6","5","634031410327322624","刘","221","Male","[""好我"",""坏他"",""好他"",""坏我""]","[""强我"",""弱他"",""强他"",""弱我""]","","","","","","","","nonmatch","","","","","","","","","","key","f","16.649790322579886","799.9999682108573","445.8333156175091","f","true","nonmatch","img/triangle.png","好他","坏我","prac_ALT2_moral","practice_moral","","","","","","","","",""
"null","<span style='color:GreenYellow; font-size: 70px;'>正确! </span>","null","html-keyboard-response","89","604424","0.0-8.0-0.0-1.0-0.0-1.39","7","5","6","7","5","4","4","4","5","4","5","0","-2","1","0","2","1","0","2","4","5","5","5","4","4","5","5","4","5","8","6","8","7","6","9","6","8","7","6","6","5","7","5","6","6","7","5","7","1","5","6","1","6","6","5","7","7","5","6","3","7","2","5","6","6","5","6","7","6","7","7","5","1","6","6","7","7","6","5","634031410327322624","刘","221","Male","[""好我"",""坏他"",""好他"",""坏我""]","[""强我"",""弱他"",""强他"",""弱我""]","","","","","","","","","","","","","","","","","","","","","","","","","","","","","","feedback_test","","","","","","","","",""
"973","","f","psychophysics","90","606398","0.0-8.0-0.0-1.0-0.0-0.40","7","5","6","7","5","4","4","4","5","4","5","0","-2","1","0","2","1","0","2","4","5","5","5","4","4","5","5","4","5","8","6","8","7","6","9","6","8","7","6","6","5","7","5","6","6","7","5","7","1","5","6","1","6","6","5","7","7","5","6","3","7","2","5","6","6","5","6","7","6","7","7","5","1","6","6","7","7","6","5","634031410327322624","刘","221","Male","[""好我"",""坏他"",""好他"",""坏我""]","[""强我"",""弱他"",""强他"",""弱我""]","","","","","","","","nonmatch","","","","","","","","","","key","f","16.65245299145249","799.9999682108573","445.8333156175091","f","true","nonmatch","img/triangle.png","坏他","坏我","prac_ALT2_moral","practice_moral","","","","","","","","",""
"null","<span style='color:GreenYellow; font-size: 70px;'>正确! </span>","null","html-keyboard-response","91","606899","0.0-8.0-0.0-1.0-0.0-1.40","7","5","6","7","5","4","4","4","5","4","5","0","-2","1","0","2","1","0","2","4","5","5","5","4","4","5","5","4","5","8","6","8","7","6","9","6","8","7","6","6","5","7","5","6","6","7","5","7","1","5","6","1","6","6","5","7","7","5","6","3","7","2","5","6","6","5","6","7","6","7","7","5","1","6","6","7","7","6","5","634031410327322624","刘","221","Male","[""好我"",""坏他"",""好他"",""坏我""]","[""强我"",""弱他"",""强他"",""弱我""]","","","","","","","","","","","","","","","","","","","","","","","","","","","","","","feedback_test","","","","","","","","",""
"909","","j","psychophysics","92","608810","0.0-8.0-0.0-1.0-0.0-0.41","7","5","6","7","5","4","4","4","5","4","5","0","-2","1","0","2","1","0","2","4","5","5","5","4","4","5","5","4","5","8","6","8","7","6","9","6","8","7","6","6","5","7","5","6","6","7","5","7","1","5","6","1","6","6","5","7","7","5","6","3","7","2","5","6","6","5","6","7","6","7","7","5","1","6","6","7","7","6","5","634031410327322624","刘","221","Male","[""好我"",""坏他"",""好他"",""坏我""]","[""强我"",""弱他"",""强他"",""弱我""]","","","","","","","","match","","","","","","","","","","key","j","16.653798245613487","799.9999682108573","445.8333156175091","j","true","match","img/hexagon.png","好他","好他","prac_ALT2_moral","practice_moral","","","","","","","","",""
"null","<span style='color:GreenYellow; font-size: 70px;'>正确! </span>","null","html-keyboard-response","93","609311","0.0-8.0-0.0-1.0-0.0-1.41","7","5","6","7","5","4","4","4","5","4","5","0","-2","1","0","2","1","0","2","4","5","5","5","4","4","5","5","4","5","8","6","8","7","6","9","6","8","7","6","6","5","7","5","6","6","7","5","7","1","5","6","1","6","6","5","7","7","5","6","3","7","2","5","6","6","5","6","7","6","7","7","5","1","6","6","7","7","6","5","634031410327322624","刘","221","Male","[""好我"",""坏他"",""好他"",""坏我""]","[""强我"",""弱他"",""强他"",""弱我""]","","","","","","","","","","","","","","","","","","","","","","","","","","","","","","feedback_test","","","","","","","","",""
"1053","","f","psychophysics","94","611369","0.0-8.0-0.0-1.0-0.0-0.42","7","5","6","7","5","4","4","4","5","4","5","0","-2","1","0","2","1","0","2","4","5","5","5","4","4","5","5","4","5","8","6","8","7","6","9","6","8","7","6","6","5","7","5","6","6","7","5","7","1","5","6","1","6","6","5","7","7","5","6","3","7","2","5","6","6","5","6","7","6","7","7","5","1","6","6","7","7","6","5","634031410327322624","刘","221","Male","[""好我"",""坏他"",""好他"",""坏我""]","[""强我"",""弱他"",""强他"",""弱我""]","","","","","","","","nonmatch","","","","","","","","","","key","f","16.653365853658073","799.9999682108573","445.8333156175091","f","true","nonmatch","img/hexagon.png","坏他","好他","prac_ALT2_moral","practice_moral","","","","","","","","",""
"null","<span style='color:GreenYellow; font-size: 70px;'>正确! </span>","null","html-keyboard-response","95","611871","0.0-8.0-0.0-1.0-0.0-1.42","7","5","6","7","5","4","4","4","5","4","5","0","-2","1","0","2","1","0","2","4","5","5","5","4","4","5","5","4","5","8","6","8","7","6","9","6","8","7","6","6","5","7","5","6","6","7","5","7","1","5","6","1","6","6","5","7","7","5","6","3","7","2","5","6","6","5","6","7","6","7","7","5","1","6","6","7","7","6","5","634031410327322624","刘","221","Male","[""好我"",""坏他"",""好他"",""坏我""]","[""强我"",""弱他"",""强他"",""弱我""]","","","","","","","","","","","","","","","","","","","","","","","","","","","","","","feedback_test","","","","","","","","",""
"1107","","f","psychophysics","96","613979","0.0-8.0-0.0-1.0-0.0-0.43","7","5","6","7","5","4","4","4","5","4","5","0","-2","1","0","2","1","0","2","4","5","5","5","4","4","5","5","4","5","8","6","8","7","6","9","6","8","7","6","6","5","7","5","6","6","7","5","7","1","5","6","1","6","6","5","7","7","5","6","3","7","2","5","6","6","5","6","7","6","7","7","5","1","6","6","7","7","6","5","634031410327322624","刘","221","Male","[""好我"",""坏他"",""好他"",""坏我""]","[""强我"",""弱他"",""强他"",""弱我""]","","","","","","","","nonmatch","","","","","","","","","","key","f","16.653222222223004","799.9999682108573","445.8333156175091","j","false","match","img/ellipse.png","坏他","坏他","prac_ALT2_moral","practice_moral","","","","","","","","",""
"null","<span style='color:red; font-size: 70px;'>错误! </span>","null","html-keyboard-response","97","614481","0.0-8.0-0.0-1.0-0.0-1.43","7","5","6","7","5","4","4","4","5","4","5","0","-2","1","0","2","1","0","2","4","5","5","5","4","4","5","5","4","5","8","6","8","7","6","9","6","8","7","6","6","5","7","5","6","6","7","5","7","1","5","6","1","6","6","5","7","7","5","6","3","7","2","5","6","6","5","6","7","6","7","7","5","1","6","6","7","7","6","5","634031410327322624","刘","221","Male","[""好我"",""坏他"",""好他"",""坏我""]","[""强我"",""弱他"",""强他"",""弱我""]","","","","","","","","","","","","","","","","","","","","","","","","","","","","","","feedback_test","","","","","","","","",""
"709","","j","psychophysics","98","616192","0.0-8.0-0.0-1.0-0.0-0.44","7","5","6","7","5","4","4","4","5","4","5","0","-2","1","0","2","1","0","2","4","5","5","5","4","4","5","5","4","5","8","6","8","7","6","9","6","8","7","6","6","5","7","5","6","6","7","5","7","1","5","6","1","6","6","5","7","7","5","6","3","7","2","5","6","6","5","6","7","6","7","7","5","1","6","6","7","7","6","5","634031410327322624","刘","221","Male","[""好我"",""坏他"",""好他"",""坏我""]","[""强我"",""弱他"",""强他"",""弱我""]","","","","","","","","match","","","","","","","","","","key","j","16.65314851485142","799.9999682108573","445.8333156175091","j","true","match","img/square.png","好我","好我","prac_ALT2_moral","practice_moral","","","","","","","","",""
"null","<span style='color:GreenYellow; font-size: 70px;'>正确! </span>","null","html-keyboard-response","99","616700","0.0-8.0-0.0-1.0-0.0-1.44","7","5","6","7","5","4","4","4","5","4","5","0","-2","1","0","2","1","0","2","4","5","5","5","4","4","5","5","4","5","8","6","8","7","6","9","6","8","7","6","6","5","7","5","6","6","7","5","7","1","5","6","1","6","6","5","7","7","5","6","3","7","2","5","6","6","5","6","7","6","7","7","5","1","6","6","7","7","6","5","634031410327322624","刘","221","Male","[""好我"",""坏他"",""好他"",""坏我""]","[""强我"",""弱他"",""强他"",""弱我""]","","","","","","","","","","","","","","","","","","","","","","","","","","","","","","feedback_test","","","","","","","","",""
"1167","","f","psychophysics","100","618869","0.0-8.0-0.0-1.0-0.0-0.45","7","5","6","7","5","4","4","4","5","4","5","0","-2","1","0","2","1","0","2","4","5","5","5","4","4","5","5","4","5","8","6","8","7","6","9","6","8","7","6","6","5","7","5","6","6","7","5","7","1","5","6","1","6","6","5","7","7","5","6","3","7","2","5","6","6","5","6","7","6","7","7","5","1","6","6","7","7","6","5","634031410327322624","刘","221","Male","[""好我"",""坏他"",""好他"",""坏我""]","[""强我"",""弱他"",""强他"",""弱我""]","","","","","","","","nonmatch","","","","","","","","","","key","f","16.653046511628038","799.9999682108573","445.8333156175091","f","true","nonmatch","img/square.png","坏我","好我","prac_ALT2_moral","practice_moral","","","","","","","","",""
"null","<span style='color:GreenYellow; font-size: 70px;'>正确! </span>","null","html-keyboard-response","101","619371","0.0-8.0-0.0-1.0-0.0-1.45","7","5","6","7","5","4","4","4","5","4","5","0","-2","1","0","2","1","0","2","4","5","5","5","4","4","5","5","4","5","8","6","8","7","6","9","6","8","7","6","6","5","7","5","6","6","7","5","7","1","5","6","1","6","6","5","7","7","5","6","3","7","2","5","6","6","5","6","7","6","7","7","5","1","6","6","7","7","6","5","634031410327322624","刘","221","Male","[""好我"",""坏他"",""好他"",""坏我""]","[""强我"",""弱他"",""强他"",""弱我""]","","","","","","","","","","","","","","","","","","","","","","","","","","","","","","feedback_test","","","","","","","","",""
"1157","","f","psychophysics","102","621528","0.0-8.0-0.0-1.0-0.0-0.46","7","5","6","7","5","4","4","4","5","4","5","0","-2","1","0","2","1","0","2","4","5","5","5","4","4","5","5","4","5","8","6","8","7","6","9","6","8","7","6","6","5","7","5","6","6","7","5","7","1","5","6","1","6","6","5","7","7","5","6","3","7","2","5","6","6","5","6","7","6","7","7","5","1","6","6","7","7","6","5","634031410327322624","刘","221","Male","[""好我"",""坏他"",""好他"",""坏我""]","[""强我"",""弱他"",""强他"",""弱我""]","","","","","","","","nonmatch","","","","","","","","","","key","f","16.653488372092482","799.9999682108573","445.8333156175091","f","true","nonmatch","img/hexagon.png","坏我","好他","prac_ALT2_moral","practice_moral","","","","","","","","",""
"null","<span style='color:GreenYellow; font-size: 70px;'>正确! </span>","null","html-keyboard-response","103","622030","0.0-8.0-0.0-1.0-0.0-1.46","7","5","6","7","5","4","4","4","5","4","5","0","-2","1","0","2","1","0","2","4","5","5","5","4","4","5","5","4","5","8","6","8","7","6","9","6","8","7","6","6","5","7","5","6","6","7","5","7","1","5","6","1","6","6","5","7","7","5","6","3","7","2","5","6","6","5","6","7","6","7","7","5","1","6","6","7","7","6","5","634031410327322624","刘","221","Male","[""好我"",""坏他"",""好他"",""坏我""]","[""强我"",""弱他"",""强他"",""弱我""]","","","","","","","","","","","","","","","","","","","","","","","","","","","","","","feedback_test","","","","","","","","",""
"963","","j","psychophysics","104","623995","0.0-8.0-0.0-1.0-0.0-0.47","7","5","6","7","5","4","4","4","5","4","5","0","-2","1","0","2","1","0","2","4","5","5","5","4","4","5","5","4","5","8","6","8","7","6","9","6","8","7","6","6","5","7","5","6","6","7","5","7","1","5","6","1","6","6","5","7","7","5","6","3","7","2","5","6","6","5","6","7","6","7","7","5","1","6","6","7","7","6","5","634031410327322624","刘","221","Male","[""好我"",""坏他"",""好他"",""坏我""]","[""强我"",""弱他"",""强他"",""弱我""]","","","","","","","","match","","","","","","","","","","key","j","16.65402564102521","799.9999682108573","445.8333156175091","j","true","match","img/hexagon.png","好他","好他","prac_ALT2_moral","practice_moral","","","","","","","","",""
"null","<span style='color:GreenYellow; font-size: 70px;'>正确! </span>","null","html-keyboard-response","105","624496","0.0-8.0-0.0-1.0-0.0-1.47","7","5","6","7","5","4","4","4","5","4","5","0","-2","1","0","2","1","0","2","4","5","5","5","4","4","5","5","4","5","8","6","8","7","6","9","6","8","7","6","6","5","7","5","6","6","7","5","7","1","5","6","1","6","6","5","7","7","5","6","3","7","2","5","6","6","5","6","7","6","7","7","5","1","6","6","7","7","6","5","634031410327322624","刘","221","Male","[""好我"",""坏他"",""好他"",""坏我""]","[""强我"",""弱他"",""强他"",""弱我""]","","","","","","","","","","","","","","","","","","","","","","","","","","","","","","feedback_test","","","","","","","","",""
"1158","<style>.context{color:white; font-size: 35px; line-height:40px}</style>                            <div><p class='context'>您正确回答了83% 的试次。</p><p class='context'>您的平均反应时为934毫秒。</p><p class='context'>恭喜您完成练习。按空格键进入正式实验。</p><p class='footer' style='font-size: 35px; line-height:40px;'>请在进入正式实验实验之前将您的<span style='color: lightgreen;'>食指</span>放在电脑键盘的相应键位上进行按键。</p>"," ","html-keyboard-response","106","625657","0.0-8.0-0.0-2.0","7","5","6","7","5","4","4","4","5","4","5","0","-2","1","0","2","1","0","2","4","5","5","5","4","4","5","5","4","5","8","6","8","7","6","9","6","8","7","6","6","5","7","5","6","6","7","5","7","1","5","6","1","6","6","5","7","7","5","6","3","7","2","5","6","6","5","6","7","6","7","7","5","1","6","6","7","7","6","5","634031410327322624","刘","221","Male","[""好我"",""坏他"",""好他"",""坏我""]","[""强我"",""弱他"",""强他"",""弱我""]","","","","","","","","","","","","","","","","","","","","","","","","","","","","","","","","","","","","","","",""
"466","
    <p style='color: white; font-size: 22px'>请您将手指放在按键上，准备进入正式的匹配任务。</p>
    <p> <div style = ""color: green""><按空格键进入下一阶段的匹配任务></div></p>
    "," ","html-keyboard-response","107","626126","0.0-8.0-0.0-3.0","7","5","6","7","5","4","4","4","5","4","5","0","-2","1","0","2","1","0","2","4","5","5","5","4","4","5","5","4","5","8","6","8","7","6","9","6","8","7","6","6","5","7","5","6","6","7","5","7","1","5","6","1","6","6","5","7","7","5","6","3","7","2","5","6","6","5","6","7","6","7","7","5","1","6","6","7","7","6","5","634031410327322624","刘","221","Male","[""好我"",""坏他"",""好他"",""坏我""]","[""强我"",""弱他"",""强他"",""弱我""]","","","","","","","","","","","","","","","","","","","","","","","","","","","","","","","","","","","","","","",""
"983","","f","psychophysics","108","628111","0.0-8.0-0.0-4.0-0.0-0.0","7","5","6","7","5","4","4","4","5","4","5","0","-2","1","0","2","1","0","2","4","5","5","5","4","4","5","5","4","5","8","6","8","7","6","9","6","8","7","6","6","5","7","5","6","6","7","5","7","1","5","6","1","6","6","5","7","7","5","6","3","7","2","5","6","6","5","6","7","6","7","7","5","1","6","6","7","7","6","5","634031410327322624","刘","221","Male","[""好我"",""坏他"",""好他"",""坏我""]","[""强我"",""弱他"",""强他"",""弱我""]","","","","","","","","nonmatch","","","","","","","","","","key","f","16.653025423729066","799.9999682108573","445.8333156175091","f","true","nonmatch","img/hexagon.png","好我","好他","ALT2","moral","","","","","","","","",""
"null","<span style='color:GreenYellow; font-size: 70px;'>正确! </span>","null","html-keyboard-response","109","628612","0.0-8.0-0.0-4.0-0.0-1.0","7","5","6","7","5","4","4","4","5","4","5","0","-2","1","0","2","1","0","2","4","5","5","5","4","4","5","5","4","5","8","6","8","7","6","9","6","8","7","6","6","5","7","5","6","6","7","5","7","1","5","6","1","6","6","5","7","7","5","6","3","7","2","5","6","6","5","6","7","6","7","7","5","1","6","6","7","7","6","5","634031410327322624","刘","221","Male","[""好我"",""坏他"",""好他"",""坏我""]","[""强我"",""弱他"",""强他"",""弱我""]","","","","","","","","","","","","","","","","","","","","","","","","","","","","","","feedback_test","","","","","","","","",""
"887","","f","psychophysics","110","630502","0.0-8.0-0.0-4.0-0.0-0.1","7","5","6","7","5","4","4","4","5","4","5","0","-2","1","0","2","1","0","2","4","5","5","5","4","4","5","5","4","5","8","6","8","7","6","9","6","8","7","6","6","5","7","5","6","6","7","5","7","1","5","6","1","6","6","5","7","7","5","6","3","7","2","5","6","6","5","6","7","6","7","7","5","1","6","6","7","7","6","5","634031410327322624","刘","221","Male","[""好我"",""坏他"",""好他"",""坏我""]","[""强我"",""弱他"",""强他"",""弱我""]","","","","","","","","nonmatch","","","","","","","","","","key","f","16.65359292035424","799.9999682108573","445.8333156175091","f","true","nonmatch","img/triangle.png","坏他","坏我","ALT2","moral","","","","","","","","",""
"null","<span style='color:GreenYellow; font-size: 70px;'>正确! </span>","null","html-keyboard-response","111","631012","0.0-8.0-0.0-4.0-0.0-1.1","7","5","6","7","5","4","4","4","5","4","5","0","-2","1","0","2","1","0","2","4","5","5","5","4","4","5","5","4","5","8","6","8","7","6","9","6","8","7","6","6","5","7","5","6","6","7","5","7","1","5","6","1","6","6","5","7","7","5","6","3","7","2","5","6","6","5","6","7","6","7","7","5","1","6","6","7","7","6","5","634031410327322624","刘","221","Male","[""好我"",""坏他"",""好他"",""坏我""]","[""强我"",""弱他"",""强他"",""弱我""]","","","","","","","","","","","","","","","","","","","","","","","","","","","","","","feedback_test","","","","","","","","",""
"1139","","f","psychophysics","112","633153","0.0-8.0-0.0-4.0-0.0-0.2","7","5","6","7","5","4","4","4","5","4","5","0","-2","1","0","2","1","0","2","4","5","5","5","4","4","5","5","4","5","8","6","8","7","6","9","6","8","7","6","6","5","7","5","6","6","7","5","7","1","5","6","1","6","6","5","7","7","5","6","3","7","2","5","6","6","5","6","7","6","7","7","5","1","6","6","7","7","6","5","634031410327322624","刘","221","Male","[""好我"",""坏他"",""好他"",""坏我""]","[""强我"",""弱他"",""强他"",""弱我""]","","","","","","","","nonmatch","","","","","","","","","","key","f","16.65398437500062","799.9999682108573","445.8333156175091","f","true","nonmatch","img/triangle.png","好他","坏我","ALT2","moral","","","","","","","","",""
"null","<span style='color:GreenYellow; font-size: 70px;'>正确! </span>","null","html-keyboard-response","113","633654","0.0-8.0-0.0-4.0-0.0-1.2","7","5","6","7","5","4","4","4","5","4","5","0","-2","1","0","2","1","0","2","4","5","5","5","4","4","5","5","4","5","8","6","8","7","6","9","6","8","7","6","6","5","7","5","6","6","7","5","7","1","5","6","1","6","6","5","7","7","5","6","3","7","2","5","6","6","5","6","7","6","7","7","5","1","6","6","7","7","6","5","634031410327322624","刘","221","Male","[""好我"",""坏他"",""好他"",""坏我""]","[""强我"",""弱他"",""强他"",""弱我""]","","","","","","","","","","","","","","","","","","","","","","","","","","","","","","feedback_test","","","","","","","","",""
"1003","","j","psychophysics","114","635659","0.0-8.0-0.0-4.0-0.0-0.3","7","5","6","7","5","4","4","4","5","4","5","0","-2","1","0","2","1","0","2","4","5","5","5","4","4","5","5","4","5","8","6","8","7","6","9","6","8","7","6","6","5","7","5","6","6","7","5","7","1","5","6","1","6","6","5","7","7","5","6","3","7","2","5","6","6","5","6","7","6","7","7","5","1","6","6","7","7","6","5","634031410327322624","刘","221","Male","[""好我"",""坏他"",""好他"",""坏我""]","[""强我"",""弱他"",""强他"",""弱我""]","","","","","","","","match","","","","","","","","","","key","j","16.650537815125965","799.9999682108573","445.8333156175091","j","true","match","img/triangle.png","坏我","坏我","ALT2","moral","","","","","","","","",""
"null","<span style='color:GreenYellow; font-size: 70px;'>正确! </span>","null","html-keyboard-response","115","636160","0.0-8.0-0.0-4.0-0.0-1.3","7","5","6","7","5","4","4","4","5","4","5","0","-2","1","0","2","1","0","2","4","5","5","5","4","4","5","5","4","5","8","6","8","7","6","9","6","8","7","6","6","5","7","5","6","6","7","5","7","1","5","6","1","6","6","5","7","7","5","6","3","7","2","5","6","6","5","6","7","6","7","7","5","1","6","6","7","7","6","5","634031410327322624","刘","221","Male","[""好我"",""坏他"",""好他"",""坏我""]","[""强我"",""弱他"",""强他"",""弱我""]","","","","","","","","","","","","","","","","","","","","","","","","","","","","","","feedback_test","","","","","","","","",""
"1068","","f","psychophysics","116","638229","0.0-8.0-0.0-4.0-0.0-0.4","7","5","6","7","5","4","4","4","5","4","5","0","-2","1","0","2","1","0","2","4","5","5","5","4","4","5","5","4","5","8","6","8","7","6","9","6","8","7","6","6","5","7","5","6","6","7","5","7","1","5","6","1","6","6","5","7","7","5","6","3","7","2","5","6","6","5","6","7","6","7","7","5","1","6","6","7","7","6","5","634031410327322624","刘","221","Male","[""好我"",""坏他"",""好他"",""坏我""]","[""强我"",""弱他"",""强他"",""弱我""]","","","","","","","","nonmatch","","","","","","","","","","key","f","16.653032520325","799.9999682108573","445.8333156175091","f","true","nonmatch","img/hexagon.png","坏我","好他","ALT2","moral","","","","","","","","",""
"null","<span style='color:GreenYellow; font-size: 70px;'>正确! </span>","null","html-keyboard-response","117","638731","0.0-8.0-0.0-4.0-0.0-1.4","7","5","6","7","5","4","4","4","5","4","5","0","-2","1","0","2","1","0","2","4","5","5","5","4","4","5","5","4","5","8","6","8","7","6","9","6","8","7","6","6","5","7","5","6","6","7","5","7","1","5","6","1","6","6","5","7","7","5","6","3","7","2","5","6","6","5","6","7","6","7","7","5","1","6","6","7","7","6","5","634031410327322624","刘","221","Male","[""好我"",""坏他"",""好他"",""坏我""]","[""强我"",""弱他"",""强他"",""弱我""]","","","","","","","","","","","","","","","","","","","","","","","","","","","","","","feedback_test","","","","","","","","",""
"913","","f","psychophysics","118","640645","0.0-8.0-0.0-4.0-0.0-0.5","7","5","6","7","5","4","4","4","5","4","5","0","-2","1","0","2","1","0","2","4","5","5","5","4","4","5","5","4","5","8","6","8","7","6","9","6","8","7","6","6","5","7","5","6","6","7","5","7","1","5","6","1","6","6","5","7","7","5","6","3","7","2","5","6","6","5","6","7","6","7","7","5","1","6","6","7","7","6","5","634031410327322624","刘","221","Male","[""好我"",""坏他"",""好他"",""坏我""]","[""强我"",""弱他"",""强他"",""弱我""]","","","","","","","","nonmatch","","","","","","","","","","key","f","16.65415789473704","799.9999682108573","445.8333156175091","f","true","nonmatch","img/ellipse.png","好我","坏他","ALT2","moral","","","","","","","","",""
"null","<span style='color:GreenYellow; font-size: 70px;'>正确! </span>","null","html-keyboard-response","119","641146","0.0-8.0-0.0-4.0-0.0-1.5","7","5","6","7","5","4","4","4","5","4","5","0","-2","1","0","2","1","0","2","4","5","5","5","4","4","5","5","4","5","8","6","8","7","6","9","6","8","7","6","6","5","7","5","6","6","7","5","7","1","5","6","1","6","6","5","7","7","5","6","3","7","2","5","6","6","5","6","7","6","7","7","5","1","6","6","7","7","6","5","634031410327322624","刘","221","Male","[""好我"",""坏他"",""好他"",""坏我""]","[""强我"",""弱他"",""强他"",""弱我""]","","","","","","","","","","","","","","","","","","","","","","","","","","","","","","feedback_test","","","","","","","","",""
"1044","","f","psychophysics","120","643191","0.0-8.0-0.0-4.0-0.0-0.6","7","5","6","7","5","4","4","4","5","4","5","0","-2","1","0","2","1","0","2","4","5","5","5","4","4","5","5","4","5","8","6","8","7","6","9","6","8","7","6","6","5","7","5","6","6","7","5","7","1","5","6","1","6","6","5","7","7","5","6","3","7","2","5","6","6","5","6","7","6","7","7","5","1","6","6","7","7","6","5","634031410327322624","刘","221","Male","[""好我"",""坏他"",""好他"",""坏我""]","[""强我"",""弱他"",""强他"",""弱我""]","","","","","","","","nonmatch","","","","","","","","","","key","f","16.653786885245804","799.9999682108573","445.8333156175091","j","false","match","img/triangle.png","坏我","坏我","ALT2","moral","","","","","","","","",""
"null","<span style='color:red; font-size: 70px;'>错误! </span>","null","html-keyboard-response","121","643693","0.0-8.0-0.0-4.0-0.0-1.6","7","5","6","7","5","4","4","4","5","4","5","0","-2","1","0","2","1","0","2","4","5","5","5","4","4","5","5","4","5","8","6","8","7","6","9","6","8","7","6","6","5","7","5","6","6","7","5","7","1","5","6","1","6","6","5","7","7","5","6","3","7","2","5","6","6","5","6","7","6","7","7","5","1","6","6","7","7","6","5","634031410327322624","刘","221","Male","[""好我"",""坏他"",""好他"",""坏我""]","[""强我"",""弱他"",""强他"",""弱我""]","","","","","","","","","","","","","","","","","","","","","","","","","","","","","","feedback_test","","","","","","","","",""
"939","","j","psychophysics","122","645633","0.0-8.0-0.0-4.0-0.0-0.7","7","5","6","7","5","4","4","4","5","4","5","0","-2","1","0","2","1","0","2","4","5","5","5","4","4","5","5","4","5","8","6","8","7","6","9","6","8","7","6","6","5","7","5","6","6","7","5","7","1","5","6","1","6","6","5","7","7","5","6","3","7","2","5","6","6","5","6","7","6","7","7","5","1","6","6","7","7","6","5","634031410327322624","刘","221","Male","[""好我"",""坏他"",""好他"",""坏我""]","[""强我"",""弱他"",""强他"",""弱我""]","","","","","","","","match","","","","","","","","","","key","j","16.65375652173939","799.9999682108573","445.8333156175091","j","true","match","img/hexagon.png","好他","好他","ALT2","moral","","","","","","","","",""
"null","<span style='color:GreenYellow; font-size: 70px;'>正确! </span>","null","html-keyboard-response","123","646135","0.0-8.0-0.0-4.0-0.0-1.7","7","5","6","7","5","4","4","4","5","4","5","0","-2","1","0","2","1","0","2","4","5","5","5","4","4","5","5","4","5","8","6","8","7","6","9","6","8","7","6","6","5","7","5","6","6","7","5","7","1","5","6","1","6","6","5","7","7","5","6","3","7","2","5","6","6","5","6","7","6","7","7","5","1","6","6","7","7","6","5","634031410327322624","刘","221","Male","[""好我"",""坏他"",""好他"",""坏我""]","[""强我"",""弱他"",""强他"",""弱我""]","","","","","","","","","","","","","","","","","","","","","","","","","","","","","","feedback_test","","","","","","","","",""
"930","","f","psychophysics","124","648067","0.0-8.0-0.0-4.0-0.0-0.8","7","5","6","7","5","4","4","4","5","4","5","0","-2","1","0","2","1","0","2","4","5","5","5","4","4","5","5","4","5","8","6","8","7","6","9","6","8","7","6","6","5","7","5","6","6","7","5","7","1","5","6","1","6","6","5","7","7","5","6","3","7","2","5","6","6","5","6","7","6","7","7","5","1","6","6","7","7","6","5","634031410327322624","刘","221","Male","[""好我"",""坏他"",""好他"",""坏我""]","[""强我"",""弱他"",""强他"",""弱我""]","","","","","","","","nonmatch","","","","","","","","","","key","f","16.65301739130493","799.9999682108573","445.8333156175091","f","true","nonmatch","img/square.png","好他","好我","ALT2","moral","","","","","","","","",""
"null","<span style='color:GreenYellow; font-size: 70px;'>正确! </span>","null","html-keyboard-response","125","648569","0.0-8.0-0.0-4.0-0.0-1.8","7","5","6","7","5","4","4","4","5","4","5","0","-2","1","0","2","1","0","2","4","5","5","5","4","4","5","5","4","5","8","6","8","7","6","9","6","8","7","6","6","5","7","5","6","6","7","5","7","1","5","6","1","6","6","5","7","7","5","6","3","7","2","5","6","6","5","6","7","6","7","7","5","1","6","6","7","7","6","5","634031410327322624","刘","221","Male","[""好我"",""坏他"",""好他"",""坏我""]","[""强我"",""弱他"",""强他"",""弱我""]","","","","","","","","","","","","","","","","","","","","","","","","","","","","","","feedback_test","","","","","","","","",""
"921","","f","psychophysics","126","650491","0.0-8.0-0.0-4.0-0.0-0.9","7","5","6","7","5","4","4","4","5","4","5","0","-2","1","0","2","1","0","2","4","5","5","5","4","4","5","5","4","5","8","6","8","7","6","9","6","8","7","6","6","5","7","5","6","6","7","5","7","1","5","6","1","6","6","5","7","7","5","6","3","7","2","5","6","6","5","6","7","6","7","7","5","1","6","6","7","7","6","5","634031410327322624","刘","221","Male","[""好我"",""坏他"",""好他"",""坏我""]","[""强我"",""弱他"",""强他"",""弱我""]","","","","","","","","nonmatch","","","","","","","","","","key","f","16.653122807017592","799.9999682108573","445.8333156175091","f","true","nonmatch","img/square.png","坏他","好我","ALT2","moral","","","","","","","","",""
"null","<span style='color:GreenYellow; font-size: 70px;'>正确! </span>","null","html-keyboard-response","127","650992","0.0-8.0-0.0-4.0-0.0-1.9","7","5","6","7","5","4","4","4","5","4","5","0","-2","1","0","2","1","0","2","4","5","5","5","4","4","5","5","4","5","8","6","8","7","6","9","6","8","7","6","6","5","7","5","6","6","7","5","7","1","5","6","1","6","6","5","7","7","5","6","3","7","2","5","6","6","5","6","7","6","7","7","5","1","6","6","7","7","6","5","634031410327322624","刘","221","Male","[""好我"",""坏他"",""好他"",""坏我""]","[""强我"",""弱他"",""强他"",""弱我""]","","","","","","","","","","","","","","","","","","","","","","","","","","","","","","feedback_test","","","","","","","","",""
"835","","j","psychophysics","128","652828","0.0-8.0-0.0-4.0-0.0-0.10","7","5","6","7","5","4","4","4","5","4","5","0","-2","1","0","2","1","0","2","4","5","5","5","4","4","5","5","4","5","8","6","8","7","6","9","6","8","7","6","6","5","7","5","6","6","7","5","7","1","5","6","1","6","6","5","7","7","5","6","3","7","2","5","6","6","5","6","7","6","7","7","5","1","6","6","7","7","6","5","634031410327322624","刘","221","Male","[""好我"",""坏他"",""好他"",""坏我""]","[""强我"",""弱他"",""强他"",""弱我""]","","","","","","","","match","","","","","","","","","","key","j","16.65399082568837","799.9999682108573","445.8333156175091","j","true","match","img/square.png","好我","好我","ALT2","moral","","","","","","","","",""
"null","<span style='color:GreenYellow; font-size: 70px;'>正确! </span>","null","html-keyboard-response","129","653342","0.0-8.0-0.0-4.0-0.0-1.10","7","5","6","7","5","4","4","4","5","4","5","0","-2","1","0","2","1","0","2","4","5","5","5","4","4","5","5","4","5","8","6","8","7","6","9","6","8","7","6","6","5","7","5","6","6","7","5","7","1","5","6","1","6","6","5","7","7","5","6","3","7","2","5","6","6","5","6","7","6","7","7","5","1","6","6","7","7","6","5","634031410327322624","刘","221","Male","[""好我"",""坏他"",""好他"",""坏我""]","[""强我"",""弱他"",""强他"",""弱我""]","","","","","","","","","","","","","","","","","","","","","","","","","","","","","","feedback_test","","","","","","","","",""
"991","","j","psychophysics","130","655335","0.0-8.0-0.0-4.0-0.0-0.11","7","5","6","7","5","4","4","4","5","4","5","0","-2","1","0","2","1","0","2","4","5","5","5","4","4","5","5","4","5","8","6","8","7","6","9","6","8","7","6","6","5","7","5","6","6","7","5","7","1","5","6","1","6","6","5","7","7","5","6","3","7","2","5","6","6","5","6","7","6","7","7","5","1","6","6","7","7","6","5","634031410327322624","刘","221","Male","[""好我"",""坏他"",""好他"",""坏我""]","[""强我"",""弱他"",""强他"",""弱我""]","","","","","","","","match","","","","","","","","","","key","j","16.653722689075185","799.9999682108573","445.8333156175091","f","false","nonmatch","img/hexagon.png","坏他","好他","ALT2","moral","","","","","","","","",""
"null","<span style='color:red; font-size: 70px;'>错误! </span>","null","html-keyboard-response","131","655836","0.0-8.0-0.0-4.0-0.0-1.11","7","5","6","7","5","4","4","4","5","4","5","0","-2","1","0","2","1","0","2","4","5","5","5","4","4","5","5","4","5","8","6","8","7","6","9","6","8","7","6","6","5","7","5","6","6","7","5","7","1","5","6","1","6","6","5","7","7","5","6","3","7","2","5","6","6","5","6","7","6","7","7","5","1","6","6","7","7","6","5","634031410327322624","刘","221","Male","[""好我"",""坏他"",""好他"",""坏我""]","[""强我"",""弱他"",""强他"",""弱我""]","","","","","","","","","","","","","","","","","","","","","","","","","","","","","","feedback_test","","","","","","","","",""
"939","","f","psychophysics","132","657777","0.0-8.0-0.0-4.0-0.0-0.12","7","5","6","7","5","4","4","4","5","4","5","0","-2","1","0","2","1","0","2","4","5","5","5","4","4","5","5","4","5","8","6","8","7","6","9","6","8","7","6","6","5","7","5","6","6","7","5","7","1","5","6","1","6","6","5","7","7","5","6","3","7","2","5","6","6","5","6","7","6","7","7","5","1","6","6","7","7","6","5","634031410327322624","刘","221","Male","[""好我"",""坏他"",""好他"",""坏我""]","[""强我"",""弱他"",""强他"",""弱我""]","","","","","","","","nonmatch","","","","","","","","","","key","f","16.65331896551752","799.9999682108573","445.8333156175091","f","true","nonmatch","img/ellipse.png","坏我","坏他","ALT2","moral","","","","","","","","",""
"null","<span style='color:GreenYellow; font-size: 70px;'>正确! </span>","null","html-keyboard-response","133","658279","0.0-8.0-0.0-4.0-0.0-1.12","7","5","6","7","5","4","4","4","5","4","5","0","-2","1","0","2","1","0","2","4","5","5","5","4","4","5","5","4","5","8","6","8","7","6","9","6","8","7","6","6","5","7","5","6","6","7","5","7","1","5","6","1","6","6","5","7","7","5","6","3","7","2","5","6","6","5","6","7","6","7","7","5","1","6","6","7","7","6","5","634031410327322624","刘","221","Male","[""好我"",""坏他"",""好他"",""坏我""]","[""强我"",""弱他"",""强他"",""弱我""]","","","","","","","","","","","","","","","","","","","","","","","","","","","","","","feedback_test","","","","","","","","",""
"1026","","j","psychophysics","134","660306","0.0-8.0-0.0-4.0-0.0-0.13","7","5","6","7","5","4","4","4","5","4","5","0","-2","1","0","2","1","0","2","4","5","5","5","4","4","5","5","4","5","8","6","8","7","6","9","6","8","7","6","6","5","7","5","6","6","7","5","7","1","5","6","1","6","6","5","7","7","5","6","3","7","2","5","6","6","5","6","7","6","7","7","5","1","6","6","7","7","6","5","634031410327322624","刘","221","Male","[""好我"",""坏他"",""好他"",""坏我""]","[""强我"",""弱他"",""强他"",""弱我""]","","","","","","","","match","","","","","","","","","","key","j","16.653275000000335","799.9999682108573","445.8333156175091","j","true","match","img/hexagon.png","好他","好他","ALT2","moral","","","","","","","","",""
"null","<span style='color:GreenYellow; font-size: 70px;'>正确! </span>","null","html-keyboard-response","135","660807","0.0-8.0-0.0-4.0-0.0-1.13","7","5","6","7","5","4","4","4","5","4","5","0","-2","1","0","2","1","0","2","4","5","5","5","4","4","5","5","4","5","8","6","8","7","6","9","6","8","7","6","6","5","7","5","6","6","7","5","7","1","5","6","1","6","6","5","7","7","5","6","3","7","2","5","6","6","5","6","7","6","7","7","5","1","6","6","7","7","6","5","634031410327322624","刘","221","Male","[""好我"",""坏他"",""好他"",""坏我""]","[""强我"",""弱他"",""强他"",""弱我""]","","","","","","","","","","","","","","","","","","","","","","","","","","","","","","feedback_test","","","","","","","","",""
